[{"view_history":[{"page_index":0,"viewing_time":3682.8000000715256},{"page_index":1,"viewing_time":2032.7999999523163},{"page_index":2,"viewing_time":2544.899999976158},{"page_index":3,"viewing_time":2901.3000000715256}],"rt":11162.400000095367,"trial_type":"instructions","trial_index":0,"time_elapsed":11175,"internal_node_id":"0.0-0.0","task_version":"prescreen-v0.3"},{"rt":22136.200000047684,"responses":{"age":"36","gender-categorical":"Male","gender-free-response":"","ethnicity":"Not Hispanic or Latino","race":["Asian"],"education":"Bachelor degree","siblings":"0"},"trial_type":"survey-demo","trial_index":1,"time_elapsed":33317,"internal_node_id":"0.0-1.0","task_version":"prescreen-v0.3"},{"responses":{"Q13":"0","Q18":"0","Q01":"1","Q08":"2","Q10":"0","Q12":"1","Q03":"0","Q21":"3","Q06":"0","Q05":"0","Q19":"0","Q14":"0","Q15":"2","Q07":"0","Q16":"0","Q09":"1","Q02":"0","Q17":"0","Q11":"1","Q20":"0","Q04":"0"},"rt":166508.09999990463,"item_order":[12,17,0,7,9,11,2,20,5,4,18,13,14,6,15,8,1,16,10,19,3],"radio_events":[6048.399999976158,11148.399999976158,19145.099999904633,25781.099999904633,31334.699999928474,41001.699999928474,45596.5,57558,68493.19999992847,87773.39999997616,95643.19999992847,101007.19999992847,109569.69999992847,122273.39999997616,129600.29999995232,134793,138368,142539.79999995232,150884.5,155056.59999990463,161054.5],"key_events":[],"mouse_events":[6048.399999976158,11148.399999976158,19145.099999904633,25781.099999904633,31334.699999928474,41001.699999928474,45596.5,52007.39999997616,57558,68493.19999992847,87773.39999997616,95643.19999992847,101007.19999992847,109569.69999992847,121055.69999992847,122273.39999997616,129600.29999995232,134793,138368,142539.79999995232,150884.5,155056.59999990463,161054.5,166506.5],"straightlining":0.6666666666666666,"zigzagging":0.5,"honeypot":0,"survey":"sns","trial_type":"survey-template","trial_index":2,"time_elapsed":199833,"internal_node_id":"0.0-2.0","task_version":"prescreen-v0.3","browser_interactions":0,"infrequency":0},{"responses":{"Q01":"3","Q10":"2","Q08":"1","Q11":"1","Q13":"0","Q06":"3","Q12":"1","Q03":"3","Q05":"3","Q04":"3","Q07":"3","Q09":"1","Q02":"3"},"rt":67386.5,"item_order":[0,9,7,10,12,5,11,2,4,3,6,8,1],"radio_events":[3387,12230.700000047684,16518.700000047684,19713.600000023842,22771.399999976158,29809.200000047684,37157.10000002384,42822,45585.89999997616,48975.800000071526,52753.60000002384,57123.89999997616,63138.39999997616,66548.30000007153],"key_events":[],"mouse_events":[3387,12230.700000047684,16518.700000047684,19713.600000023842,22771.399999976158,29809.200000047684,37157.10000002384,42822,45585.89999997616,48975.800000071526,52753.60000002384,57123.89999997616,63138.39999997616,65808.39999997616,66548.30000007153,67385.39999997616],"straightlining":0.5384615384615384,"zigzagging":0.3333333333333333,"honeypot":0,"survey":"bisbas","trial_type":"survey-template","trial_index":3,"time_elapsed":267224,"internal_node_id":"0.0-3.0","task_version":"prescreen-v0.3","browser_interactions":0,"infrequency":0},{"responses":{"Q01":"2","Q02":"3","Q03":"3"},"rt":31692.899999976158,"radio_events":[11803.699999928474,17069.599999904633,21655.399999976158,29984.299999952316],"key_events":[],"mouse_events":[11803.699999928474,17069.599999904633,20456.899999976158,21655.399999976158,29984.299999952316,31692.299999952316],"survey":"map","page":1,"trial_type":"survey-map","trial_index":4,"time_elapsed":298921,"internal_node_id":"0.0-4.0","task_version":"prescreen-v0.3","browser_interactions":0},{"responses":{"Q04":"3","Q05":"4","Q06":"3"},"rt":20549.099999904633,"radio_events":[6367.299999952316,12880.799999952316,15846.799999952316,19369.799999952316],"key_events":[],"mouse_events":[6367.299999952316,12880.799999952316,15219.899999976158,15846.799999952316,19369.799999952316,20548.699999928474],"survey":"map","page":2,"trial_type":"survey-map","trial_index":5,"time_elapsed":319472,"internal_node_id":"0.0-5.0","task_version":"prescreen-v0.3","browser_interactions":0},{"responses":{"Q07":"3","Q08":"0","Q09":"3"},"rt":17957.5,"radio_events":[7504.5,12846.300000071526,17215.100000023842],"key_events":[],"mouse_events":[7504.5,12846.300000071526,17215.100000023842,17957.100000023842],"survey":"map","page":3,"trial_type":"survey-map","trial_index":6,"time_elapsed":337431,"internal_node_id":"0.0-6.0","task_version":"prescreen-v0.3","browser_interactions":0},{"responses":{"Q10":"2","Q11":"1","Q12":"2","Q13":"4","Q16":"0","Q14":"3","Q15":"3"},"rt":55815.799999952316,"radio_events":[7354.299999952316,8940.200000047684,11632.299999952316,24329.899999976158,34906.60000002384,42877.299999952316,48272.10000002384,52035.200000047684],"key_events":[],"mouse_events":[7354.299999952316,8448.399999976158,8940.200000047684,11632.299999952316,24329.899999976158,34196.5,34906.60000002384,42877.299999952316,48272.10000002384,52035.200000047684,55815],"survey":"map","page":4,"trial_type":"survey-map","trial_index":7,"time_elapsed":393250,"internal_node_id":"0.0-7.0","task_version":"prescreen-v0.3","browser_interactions":0,"infrequency":0},{"view_history":[{"page_index":0,"viewing_time":2412.5},{"page_index":1,"viewing_time":4100}],"rt":6513,"trial_type":"instructions","trial_index":8,"time_elapsed":399765,"internal_node_id":"0.0-8.0","task_version":"prescreen-v0.3"},{"responses":{"01":"No","02":"No","03":"No","04":"No","05":"No","06":"No"},"rt":26780,"item_order":[0,1,2,3,4,5],"radio_events":[11105.899999976158,15293.600000023842,19064.600000023842,21139.299999952316,23373.199999928474,25702.5],"checkbox_events":[],"key_events":[],"mouse_events":[0.10000002384185791,11105.899999976158,15293.600000023842,19064.600000023842,21139.299999952316,23373.199999928474,25702.5,26777.5],"honeypot":0,"survey":"mace","page":1,"trial_type":"survey-mace","trial_index":9,"time_elapsed":426554,"internal_node_id":"0.0-9.0","task_version":"prescreen-v0.3","browser_interactions":0},{"responses":{"01":"No","02":"No","03":"Yes","03_ages_7":"7","03_ages_8":"8","04":"No","05":"No","06":"No","07":"No","08":"No"},"rt":84746.60000002384,"item_order":[0,1,2,3,4,5,6,7],"radio_events":[2930.600000023842,6289.300000071526,13252.100000023842,21004.100000023842,23548.100000023842,25425.900000095367,26782.100000023842,27630.800000071526,39152.700000047684],"checkbox_events":[59724.200000047684,60371.90000009537,61492,63458.200000047684,70135,80542.40000009537],"key_events":[],"mouse_events":[2930.600000023842,6289.300000071526,13252.100000023842,21004.100000023842,23548.100000023842,25425.900000095367,26782.100000023842,27630.800000071526,39152.700000047684,59724.200000047684,60371.90000009537,61492,63458.200000047684,70135,80542.40000009537,84743.40000009537],"honeypot":0,"survey":"mace","page":2,"trial_type":"survey-mace","trial_index":10,"time_elapsed":511305,"internal_node_id":"0.0-10.0","task_version":"prescreen-v0.3","browser_interactions":4},{"responses":{"01":"No","02":"No","03":"No","04":"No"},"rt":10231.299999952316,"item_order":[0,1,2,3],"radio_events":[3451.7999999523163,5477.299999952316,7303.5,9087.399999976158],"checkbox_events":[],"key_events":[],"mouse_events":[3451.7999999523163,5477.299999952316,6902.5,7303.5,9087.399999976158,10229.600000023842],"honeypot":0,"survey":"mace","page":3,"trial_type":"survey-mace","trial_index":11,"time_elapsed":521539,"internal_node_id":"0.0-11.0","task_version":"prescreen-v0.3","browser_interactions":0},{"responses":{"01":"No","02":"No"},"rt":8576.899999976158,"item_order":[0,1],"radio_events":[5757.200000047684,7791.399999976158],"checkbox_events":[],"key_events":[],"mouse_events":[5757.200000047684,7791.399999976158,8576.100000023842],"honeypot":0,"survey":"mace","page":4,"trial_type":"survey-mace","trial_index":12,"time_elapsed":530120,"internal_node_id":"0.0-12.0","task_version":"prescreen-v0.3","browser_interactions":0},{"responses":{"01":"No","02":"No","03":"No","04":"No","05":"No"},"rt":13892.699999928474,"item_order":[0,1,2,3,4],"radio_events":[5761.899999976158,7227.899999976158,8984.799999952316,11021,12892],"checkbox_events":[],"key_events":[],"mouse_events":[5761.899999976158,7227.899999976158,8984.799999952316,11021,12892,13890.799999952316],"honeypot":0,"survey":"mace","page":5,"trial_type":"survey-mace","trial_index":13,"time_elapsed":544015,"internal_node_id":"0.0-13.0","task_version":"prescreen-v0.3","browser_interactions":0},{"responses":{"01":"No","02":"Yes","02_ages_11":"11","02_ages_12":"12","03":"Yes","03_ages_14":"14","03_ages_15":"15","03_ages_16":"16","04":"No","05":"No"},"rt":90558,"item_order":[0,1,2,3,4],"radio_events":[21227.699999928474,27197.5,43965.199999928474,77609.39999997616,80512.19999992847],"checkbox_events":[31868.699999928474,32606.5,33314.5,34769.5,47326.199999928474,47809,48414,48955.199999928474,50194.89999997616,58312.699999928474,65708.60000002384,66317.60000002384,71023.39999997616],"key_events":[],"mouse_events":[21227.699999928474,26409.600000023842,27197.5,31868.699999928474,32606.5,33314.5,34769.5,43965.199999928474,47326.199999928474,47809,48414,48955.199999928474,50194.89999997616,58312.699999928474,65708.60000002384,66317.60000002384,71023.39999997616,77609.39999997616,80512.19999992847,90556.10000002384],"honeypot":0,"survey":"mace","page":6,"trial_type":"survey-mace","trial_index":14,"time_elapsed":634577,"internal_node_id":"0.0-14.0","task_version":"prescreen-v0.3","browser_interactions":2},{"responses":{"01":"No","02":"No","03":"Yes","03_ages_12":"12","04":"Yes","04_ages_12":"12","05":"No","06":"No","07":"No"},"rt":32447.700000047684,"item_order":[0,1,2,3,4,5,6],"radio_events":[5889.5,7901.5,10214.5,23620,27368.899999976158,29371.700000047684,30563.799999952316],"checkbox_events":[15021.299999952316,24466.899999976158],"key_events":[],"mouse_events":[5889.5,7901.5,10214.5,15021.299999952316,23620,24466.899999976158,27368.899999976158,29371.700000047684,30563.799999952316,32444.899999976158],"honeypot":0,"survey":"mace","page":7,"trial_type":"survey-mace","trial_index":15,"time_elapsed":667029,"internal_node_id":"0.0-15.0","task_version":"prescreen-v0.3","browser_interactions":0},{"responses":{"01":"No","02":"No","03":"No","04":"No"},"rt":20128.899999976158,"item_order":[0,1,2,3],"radio_events":[6257.800000071526,11907.600000023842,15703.399999976158,19039.200000047684],"checkbox_events":[],"key_events":[],"mouse_events":[6257.800000071526,11907.600000023842,15703.399999976158,19039.200000047684,20127.399999976158],"honeypot":0,"survey":"mace","page":8,"trial_type":"survey-mace","trial_index":16,"time_elapsed":687161,"internal_node_id":"0.0-16.0","task_version":"prescreen-v0.3","browser_interactions":0},{"responses":{"01":"Yes","01_ages_4":"4","01_ages_5":"5","01_ages_6":"6","01_ages_7":"7","01_ages_8":"8","01_ages_9":"9","01_ages_10":"10","01_ages_11":"11","01_ages_12":"12","01_ages_13":"13","01_ages_14":"14","01_ages_15":"15","01_ages_16":"16","01_ages_17":"17","01_ages_18":"18","02":"Yes","02_ages_4":"4","02_ages_5":"5","02_ages_6":"6","02_ages_7":"7","02_ages_8":"8","02_ages_9":"9","02_ages_10":"10","02_ages_11":"11","02_ages_12":"12","02_ages_13":"13","02_ages_14":"14","02_ages_15":"15","02_ages_16":"16","02_ages_17":"17","02_ages_18":"18","03":"Yes","03_ages_1":"1","03_ages_2":"2","03_ages_3":"3","03_ages_4":"4","03_ages_5":"5","03_ages_6":"6","03_ages_7":"7","03_ages_8":"8","03_ages_9":"9","03_ages_10":"10","03_ages_11":"11","03_ages_12":"12","03_ages_13":"13","03_ages_14":"14","03_ages_15":"15","03_ages_16":"16","03_ages_17":"17","03_ages_18":"18","04":"Yes","04_ages_1":"1","04_ages_2":"2","04_ages_3":"3","04_ages_4":"4","04_ages_5":"5","04_ages_6":"6","04_ages_7":"7","04_ages_8":"8","04_ages_9":"9","04_ages_10":"10","04_ages_11":"11","04_ages_12":"12","04_ages_13":"13","04_ages_14":"14","04_ages_15":"15","04_ages_16":"16","04_ages_17":"17","04_ages_18":"18"},"rt":67761.20000004768,"item_order":[0,1,2,3],"radio_events":[5751.700000047684,24067.5,40162.89999997616,57062.300000071526],"checkbox_events":[8729,9155.600000023842,9753.700000047684,10233.700000047684,12448.600000023842,13301.600000023842,14105.5,14603.399999976158,15468.600000023842,15874.5,16162.399999976158,16597.5,16964.600000023842,17413.399999976158,17714.5,18069.399999976158,18458.600000023842,18810.399999976158,19131.399999976158,19874.300000071526,20292.399999976158,20718.300000071526,25245.300000071526,25610.200000047684,26333.200000047684,26850,27311,28170,28673.100000023842,29063,29583.200000047684,30043,30425.100000023842,30984.800000071526,31574.100000023842,32277.100000023842,32686.100000023842,33216.10000002384,33640.89999997616,34617,35226,35752.89999997616,36450,36918,42268.800000071526,42664.800000071526,43057.5,45624.60000002384,46086.700000047684,46540.800000071526,47097.700000047684,47843.60000002384,48198.700000047684,48542.39999997616,48906.700000047684,49385.5,49756.5,50320.60000002384,50894.5,51317.39999997616,51618.5,52313.60000002384,58584.200000047684,59068.300000071526,59527.200000047684,59938.200000047684,60321.300000071526,60615.200000047684,60956.200000047684,61309.300000071526,61742.300000071526,62061.200000047684,62506.200000047684,62866.10000002384,63310.200000047684,63756.10000002384,64236.300000071526,64705.200000047684,65023.300000071526,65636.10000002384],"key_events":[],"mouse_events":[5751.700000047684,7837.600000023842,8729,9155.600000023842,9753.700000047684,10233.700000047684,12448.600000023842,12896.5,13301.600000023842,14105.5,14603.399999976158,14940.600000023842,15468.600000023842,15874.5,16162.399999976158,16597.5,16964.600000023842,17413.399999976158,17714.5,18069.399999976158,18458.600000023842,18810.399999976158,19131.399999976158,19874.300000071526,20292.399999976158,20718.300000071526,24067.5,25245.300000071526,25610.200000047684,25943.100000023842,26333.200000047684,26850,27311,27633.200000047684,28170,28673.100000023842,29063,29583.200000047684,30043,30425.100000023842,30984.800000071526,31574.100000023842,32014,32277.100000023842,32686.100000023842,33216.10000002384,33640.89999997616,34617,34902.700000047684,35226,35752.89999997616,36450,36918,40162.89999997616,42268.800000071526,42664.800000071526,43057.5,43493.800000071526,44843.60000002384,45624.60000002384,46086.700000047684,46540.800000071526,47097.700000047684,47554.60000002384,47843.60000002384,48198.700000047684,48542.39999997616,48906.700000047684,49385.5,49756.5,50320.60000002384,50894.5,51317.39999997616,51618.5,52013.800000071526,52313.60000002384,57062.300000071526,57898.39999997616,58584.200000047684,59068.300000071526,59527.200000047684,59938.200000047684,60321.300000071526,60615.200000047684,60956.200000047684,61309.300000071526,61742.300000071526,62061.200000047684,62506.200000047684,62866.10000002384,63310.200000047684,63756.10000002384,64236.300000071526,64705.200000047684,65023.300000071526,65636.10000002384,66034.10000002384,67759.30000007153],"honeypot":0,"survey":"mace","page":9,"trial_type":"survey-mace","trial_index":17,"time_elapsed":754927,"internal_node_id":"0.0-17.0","task_version":"prescreen-v0.3","browser_interactions":0},{"responses":{"01":"No","02":"No","03":"No","04":"No","05":"No","06":"Yes","06_ages_17":"17","07":"Yes","07_ages_1":"1","07_ages_2":"2","07_ages_3":"3","07_ages_4":"4","07_ages_5":"5","07_ages_6":"6","07_ages_7":"7","07_ages_8":"8","07_ages_9":"9","07_ages_10":"10","07_ages_11":"11","07_ages_12":"12","07_ages_13":"13","07_ages_14":"14","07_ages_15":"15","07_ages_16":"16","07_ages_17":"17","07_ages_18":"18","08":"Yes","08_ages_4":"4","08_ages_5":"5","08_ages_6":"6","08_ages_7":"7","08_ages_8":"8","08_ages_9":"9","08_ages_10":"10","08_ages_11":"11","08_ages_12":"12","08_ages_13":"13","08_ages_14":"14","08_ages_15":"15","08_ages_16":"16","08_ages_17":"17","08_ages_18":"18"},"rt":91574.20000004768,"item_order":[0,1,2,3,4,5,6,7],"radio_events":[3475.7000000476837,4559.800000071526,6062.700000047684,12930.5,31632,33947.90000009537,49150.5,63107.10000002384,82320.70000004768],"checkbox_events":[18212.400000095367,18779.400000095367,19275.200000047684,19766.200000047684,20372.200000047684,23388.300000071526,23801.200000047684,25265.200000047684,37179.90000009537,51678.700000047684,52411.40000009537,53165.300000071526,53636.300000071526,54018.300000071526,54394.5,54910.300000071526,56668.200000047684,57165.60000002384,57532.300000071526,57960.5,58249.60000002384,59107.200000047684,59513.200000047684,60382.200000047684,60842.200000047684,61550.10000002384,61972.10000002384,65179.10000002384,65578.20000004768,66601.10000002384,66954,67315,67885.10000002384,68389.90000009537,69501,70136.80000007153,70700.80000007153,71204.10000002384,71801.90000009537,72175.80000007153,72572.80000007153,73208.90000009537,78034.90000009537,78362.70000004768,78751.80000007153,79273.80000007153],"key_events":[],"mouse_events":[3475.7000000476837,4559.800000071526,6062.700000047684,12930.5,18212.400000095367,18779.400000095367,19275.200000047684,19766.200000047684,20372.200000047684,23388.300000071526,23801.200000047684,25265.200000047684,31632,33947.90000009537,37179.90000009537,49150.5,51678.700000047684,52411.40000009537,53165.300000071526,53636.300000071526,54018.300000071526,54394.5,54910.300000071526,55218.40000009537,55830.200000047684,56668.200000047684,57165.60000002384,57532.300000071526,57960.5,58249.60000002384,58648.300000071526,59107.200000047684,59513.200000047684,60382.200000047684,60842.200000047684,61270.300000071526,61550.10000002384,61972.10000002384,63107.10000002384,64623.10000002384,65179.10000002384,65578.20000004768,66006,66601.10000002384,66954,67315,67885.10000002384,68389.90000009537,68849,69176.80000007153,69501,69814,70136.80000007153,70700.80000007153,71204.10000002384,71801.90000009537,72175.80000007153,72572.80000007153,73208.90000009537,74008.90000009537,78034.90000009537,78362.70000004768,78751.80000007153,79273.80000007153,82320.70000004768,91570.70000004768],"honeypot":0,"survey":"mace","page":10,"trial_type":"survey-mace","trial_index":18,"time_elapsed":846508,"internal_node_id":"0.0-18.0","task_version":"prescreen-v0.3","browser_interactions":0,"instructed":0},{"rt":5191.5,"trial_type":"mental-health-alert","trial_index":19,"time_elapsed":851701,"internal_node_id":"0.0-19.0","task_version":"prescreen-v0.3","interactions":"[{\"event\":\"blur\",\"trial\":10,\"time\":498278},{\"event\":\"focus\",\"trial\":10,\"time\":507001},{\"event\":\"blur\",\"trial\":10,\"time\":508223},{\"event\":\"focus\",\"trial\":10,\"time\":511207},{\"event\":\"blur\",\"trial\":14,\"time\":628906},{\"event\":\"focus\",\"trial\":14,\"time\":634496}]"}]