[{"view_history":[{"page_index":0,"viewing_time":3153.0999999046326},{"page_index":1,"viewing_time":4394.200000047684},{"page_index":2,"viewing_time":3743.7999999523163},{"page_index":3,"viewing_time":1528.2000000476837}],"rt":12821.699999809265,"trial_type":"instructions","trial_index":0,"time_elapsed":12849,"internal_node_id":"0.0-0.0","task_version":"prescreen-v0.3"},{"rt":17717.39999985695,"responses":{"age":"18","gender-categorical":"Female","gender-free-response":"","ethnicity":"Hispanic or Latino","race":["White"],"education":"High school"},"trial_type":"survey-demo","trial_index":1,"time_elapsed":30579,"internal_node_id":"0.0-1.0","task_version":"prescreen-v0.3"},{"responses":{"Q17":"1","Q01":"3","Q11":"3","Q02":"1","Q04":"2","Q05":"2","Q09":"3","Q03":"3","Q10":"3","Q14":"2","Q07":"0","Q15":"2","Q20":"0","Q18":"3","Q12":"3","Q16":"0","Q06":"2","Q19":"1","Q13":"3","Q21":"3","Q08":"3"},"rt":156527.60000014305,"item_order":[16,0,10,1,3,4,8,2,9,13,6,14,19,17,11,15,5,18,12,20,7],"radio_events":[9128.100000143051,13149.5,16225.900000095367,20689.5,25621.5,34202.60000014305,38356.10000014305,47916.300000190735,50109.60000014305,76280.40000009537,83386.5,90484.40000009537,93430.20000004768,99087.10000014305,125008.10000014305,129546,133982.40000009537,142114.10000014305,145080.30000019073,152495,154915.90000009537],"key_events":[],"mouse_events":[9128.100000143051,12176.5,13149.5,16225.900000095367,20689.5,25621.5,34202.60000014305,38356.10000014305,47916.300000190735,50109.60000014305,76280.40000009537,82733.70000004768,83386.5,90484.40000009537,93430.20000004768,99087.10000014305,125008.10000014305,129546,133982.40000009537,142114.10000014305,145080.30000019073,151716,152495,154915.90000009537,156523.20000004768],"straightlining":0.47619047619047616,"zigzagging":0.3,"honeypot":0,"survey":"sns","trial_type":"survey-template","trial_index":2,"time_elapsed":187116,"internal_node_id":"0.0-2.0","task_version":"prescreen-v0.3","browser_interactions":0,"infrequency":0},{"responses":{"Q11":"3","Q09":"2","Q02":"3","Q03":"3","Q04":"3","Q07":"3","Q10":"2","Q01":"3","Q06":"3","Q13":"0","Q08":"3","Q12":"2","Q05":"3"},"rt":118393,"item_order":[10,8,1,2,3,6,9,0,5,12,7,11,4],"radio_events":[8126.900000095367,11673.700000047684,14169.800000190735,17984.200000047684,22641.400000095367,56117.800000190735,58276.5,66250.40000009537,103353.80000019073,105933.30000019073,110161.40000009537,113403.40000009537,116886.10000014305],"key_events":[],"mouse_events":[8126.900000095367,11673.700000047684,14169.800000190735,17984.200000047684,22641.400000095367,56117.800000190735,58276.5,66250.40000009537,103353.80000019073,105933.30000019073,110161.40000009537,113403.40000009537,116886.10000014305,118390.30000019073],"straightlining":0.6923076923076923,"zigzagging":0.6666666666666666,"honeypot":0,"survey":"bisbas","trial_type":"survey-template","trial_index":3,"time_elapsed":305518,"internal_node_id":"0.0-3.0","task_version":"prescreen-v0.3","browser_interactions":0,"infrequency":0},{"responses":{"Q01":"4","Q02":"2","Q03":"3"},"rt":19823.299999952316,"radio_events":[8584.799999952316,14083.700000047684,18897.700000047684],"key_events":[],"mouse_events":[8584.799999952316,14083.700000047684,18897.700000047684,19821.60000014305],"survey":"map","page":1,"trial_type":"survey-map","trial_index":4,"time_elapsed":325349,"internal_node_id":"0.0-4.0","task_version":"prescreen-v0.3","browser_interactions":0},{"responses":{"Q04":"2","Q05":"2","Q06":"3"},"rt":16358.700000047684,"radio_events":[4802,10894.099999904633,15170.099999904633],"key_events":[],"mouse_events":[4802,10252.200000047684,10894.099999904633,14542.899999856949,15170.099999904633,16357.399999856949],"survey":"map","page":2,"trial_type":"survey-map","trial_index":5,"time_elapsed":341712,"internal_node_id":"0.0-5.0","task_version":"prescreen-v0.3","browser_interactions":0},{"responses":{"Q07":"0","Q08":"4","Q09":"3"},"rt":24042.900000095367,"radio_events":[4758.600000143051,9016.400000095367,11423.5],"key_events":[],"mouse_events":[4758.600000143051,8244.5,9016.400000095367,11423.5,24041.299999952316],"survey":"map","page":3,"trial_type":"survey-map","trial_index":6,"time_elapsed":365757,"internal_node_id":"0.0-6.0","task_version":"prescreen-v0.3","browser_interactions":0},{"responses":{"Q10":"2","Q11":"1","Q12":"2","Q13":"3","Q16":"0","Q14":"3","Q15":"2"},"rt":48876.200000047684,"radio_events":[11264.700000047684,21034.5,25319.5,38027.5,40826.200000047684,44802.59999990463,47450.89999985695],"key_events":[],"mouse_events":[11264.700000047684,21034.5,25319.5,38027.5,40826.200000047684,44802.59999990463,47450.89999985695,48873.39999985695],"survey":"map","page":4,"trial_type":"survey-map","trial_index":7,"time_elapsed":414641,"internal_node_id":"0.0-7.0","task_version":"prescreen-v0.3","browser_interactions":0,"infrequency":0},{"view_history":[{"page_index":0,"viewing_time":2372.7999999523163},{"page_index":1,"viewing_time":4054.7000000476837}],"rt":6428.5,"trial_type":"instructions","trial_index":8,"time_elapsed":421072,"internal_node_id":"0.0-8.0","task_version":"prescreen-v0.3"},{"responses":{"01":"Yes","01_ages_13":"13","01_ages_14":"14","01_ages_15":"15","01_ages_16":"16","01_ages_17":"17","02":"Yes","02_ages_12":"12","02_ages_13":"13","02_ages_14":"14","02_ages_15":"15","02_ages_16":"16","02_ages_17":"17","02_ages_18":"18","03":"Yes","03_ages_13":"13","03_ages_14":"14","03_ages_15":"15","03_ages_16":"16","04":"No","05":"No","06":"No"},"rt":66503.30000019073,"item_order":[0,1,2,3,4,5],"radio_events":[8457.600000143051,32310.900000095367,48028.200000047684,54105.300000190735,55596.300000190735,58756.40000009537,63476],"checkbox_events":[12578.100000143051,13026.400000095367,14026.300000190735,14765,15406.600000143051,35305,35850.40000009537,36402.300000190735,37009.300000190735,37554.200000047684,38106.10000014305,40611.200000047684,49387.10000014305,49933.10000014305,50498,51257.60000014305],"key_events":[],"mouse_events":[0.10000014305114746,8457.600000143051,12578.100000143051,13026.400000095367,13529,14026.300000190735,14765,15406.600000143051,32310.900000095367,35305,35850.40000009537,36402.300000190735,37009.300000190735,37554.200000047684,38106.10000014305,39920.90000009537,40611.200000047684,48028.200000047684,49387.10000014305,49933.10000014305,50498,51257.60000014305,54105.300000190735,55596.300000190735,58756.40000009537,63476,66497.60000014305],"honeypot":0,"survey":"mace","page":1,"trial_type":"survey-mace","trial_index":9,"time_elapsed":487595,"internal_node_id":"0.0-9.0","task_version":"prescreen-v0.3","browser_interactions":0},{"responses":{"01":"No","02":"No","03":"No","04":"No","05":"No","06":"No","07":"No","08":"No"},"rt":21303.700000047684,"item_order":[0,1,2,3,4,5,6,7],"radio_events":[6504.099999904633,9090.599999904633,11561.399999856949,13624,15844.899999856949,17653.099999904633,19612.89999985695,20446.799999952316],"checkbox_events":[],"key_events":[],"mouse_events":[6504.099999904633,9090.599999904633,11561.399999856949,13624,15844.899999856949,17653.099999904633,19612.89999985695,20446.799999952316,21296.200000047684],"honeypot":0,"survey":"mace","page":2,"trial_type":"survey-mace","trial_index":10,"time_elapsed":508909,"internal_node_id":"0.0-10.0","task_version":"prescreen-v0.3","browser_interactions":0},{"responses":{"01":"No","02":"No","03":"No","04":"No"},"rt":13265.200000047684,"item_order":[0,1,2,3],"radio_events":[5958.599999904633,9380.5,10823.099999904633,11809.099999904633],"checkbox_events":[],"key_events":[],"mouse_events":[5958.599999904633,8304.5,9380.5,10077.200000047684,10823.099999904633,11809.099999904633,13260.299999952316],"honeypot":0,"survey":"mace","page":3,"trial_type":"survey-mace","trial_index":11,"time_elapsed":522181,"internal_node_id":"0.0-11.0","task_version":"prescreen-v0.3","browser_interactions":0},{"responses":{"01":"Yes","01_ages_15":"15","02":"No"},"rt":16977.799999952316,"item_order":[0,1],"radio_events":[8603.5,15726.700000047684],"checkbox_events":[11220.400000095367],"key_events":[],"mouse_events":[8603.5,11220.400000095367,15726.700000047684,16975.700000047684],"honeypot":0,"survey":"mace","page":4,"trial_type":"survey-mace","trial_index":12,"time_elapsed":539165,"internal_node_id":"0.0-12.0","task_version":"prescreen-v0.3","browser_interactions":0},{"responses":{"01":"Yes","01_ages_15":"15","02":"No","03":"No","04":"No","05":"No"},"rt":27134.300000190735,"item_order":[0,1,2,3,4],"radio_events":[7918.100000143051,14789.900000095367,18800.200000047684,22816.10000014305,26265.700000047684],"checkbox_events":[10050.100000143051],"key_events":[],"mouse_events":[7918.100000143051,10050.100000143051,14789.900000095367,18800.200000047684,22816.10000014305,26265.700000047684,27129.200000047684],"honeypot":0,"survey":"mace","page":5,"trial_type":"survey-mace","trial_index":13,"time_elapsed":566304,"internal_node_id":"0.0-13.0","task_version":"prescreen-v0.3","browser_interactions":0},{"responses":{"01":"Yes","01_ages_13":"13","01_ages_14":"14","01_ages_15":"15","02":"Yes","02_ages_12":"12","02_ages_13":"13","02_ages_14":"14","02_ages_15":"15","03":"Yes","03_ages_14":"14","03_ages_15":"15","04":"No","05":"No"},"rt":29821.300000190735,"item_order":[0,1,2,3,4],"radio_events":[5457.700000047684,15020.100000143051,21927.800000190735,26647.800000190735,29111.900000095367],"checkbox_events":[10956.800000190735,11619.100000143051,12964.600000143051,17546.700000047684,18077.700000047684,18741.400000095367,19312.5,23542.5,24025.700000047684],"key_events":[],"mouse_events":[5457.700000047684,10239,10956.800000190735,11619.100000143051,12301.900000095367,12964.600000143051,15020.100000143051,17546.700000047684,18077.700000047684,18741.400000095367,19312.5,21927.800000190735,23542.5,24025.700000047684,25468.700000047684,26647.800000190735,29111.900000095367,29816.300000190735],"honeypot":0,"survey":"mace","page":6,"trial_type":"survey-mace","trial_index":14,"time_elapsed":596135,"internal_node_id":"0.0-14.0","task_version":"prescreen-v0.3","browser_interactions":0},{"responses":{"01":"No","02":"No","03":"No","04":"No","05":"No","06":"No","07":"No"},"rt":16890.10000014305,"item_order":[0,1,2,3,4,5,6],"radio_events":[6248.400000095367,9368.799999952316,11231.900000095367,12300.600000143051,13970.799999952316,14894.299999952316,16171.5],"checkbox_events":[],"key_events":[],"mouse_events":[6248.400000095367,9368.799999952316,11231.900000095367,12300.600000143051,13970.799999952316,14894.299999952316,16171.5,16882.60000014305],"honeypot":0,"survey":"mace","page":7,"trial_type":"survey-mace","trial_index":15,"time_elapsed":613035,"internal_node_id":"0.0-15.0","task_version":"prescreen-v0.3","browser_interactions":0},{"responses":{"01":"Yes","01_ages_17":"17","01_ages_18":"18","02":"Yes","02_ages_6":"6","02_ages_7":"7","02_ages_8":"8","02_ages_9":"9","02_ages_10":"10","02_ages_11":"11","02_ages_12":"12","02_ages_13":"13","02_ages_14":"14","02_ages_15":"15","02_ages_16":"16","02_ages_17":"17","02_ages_18":"18","03":"Yes","03_ages_15":"15","03_ages_16":"16","03_ages_17":"17","03_ages_18":"18","04":"No"},"rt":58470.299999952316,"item_order":[0,1,2,3],"radio_events":[17426.299999952316,37746.200000047684,47229.40000009537,51462.700000047684],"checkbox_events":[24264.799999952316,25486.099999904633,26066.5,26611.799999952316,27888.200000047684,28390.900000095367,29089.099999904633,30128.099999904633,30942.599999904633,31708.299999952316,32328.099999904633,33181.299999952316,33835.299999952316,40137.09999990463,40712.40000009537,41243.299999952316,42089,53669.59999990463,54510.59999990463],"key_events":[],"mouse_events":[17426.299999952316,24264.799999952316,24941.299999952316,25486.099999904633,26066.5,26611.799999952316,27142.200000047684,27888.200000047684,28390.900000095367,29089.099999904633,29658.599999904633,30128.099999904633,30942.599999904633,31708.299999952316,32328.099999904633,33181.299999952316,33835.299999952316,37746.200000047684,40137.09999990463,40712.40000009537,41243.299999952316,42089,47229.40000009537,50398.90000009537,51462.700000047684,53669.59999990463,54510.59999990463,58465.700000047684],"honeypot":0,"survey":"mace","page":8,"trial_type":"survey-mace","trial_index":16,"time_elapsed":671520,"internal_node_id":"0.0-16.0","task_version":"prescreen-v0.3","browser_interactions":0},{"responses":{"01":"Yes","01_ages_1":"1","01_ages_2":"2","01_ages_3":"3","01_ages_4":"4","01_ages_5":"5","01_ages_6":"6","01_ages_7":"7","01_ages_8":"8","01_ages_9":"9","01_ages_10":"10","01_ages_11":"11","01_ages_12":"12","01_ages_13":"13","01_ages_14":"14","01_ages_15":"15","01_ages_16":"16","01_ages_17":"17","01_ages_18":"18","02":"Yes","02_ages_1":"1","02_ages_2":"2","02_ages_3":"3","02_ages_4":"4","02_ages_5":"5","02_ages_6":"6","02_ages_7":"7","02_ages_8":"8","02_ages_9":"9","02_ages_10":"10","02_ages_11":"11","02_ages_12":"12","02_ages_13":"13","02_ages_14":"14","02_ages_15":"15","02_ages_16":"16","02_ages_17":"17","02_ages_18":"18","03":"Yes","03_ages_1":"1","03_ages_2":"2","03_ages_3":"3","03_ages_4":"4","03_ages_5":"5","03_ages_6":"6","03_ages_7":"7","03_ages_8":"8","03_ages_9":"9","03_ages_10":"10","03_ages_11":"11","03_ages_12":"12","03_ages_13":"13","03_ages_14":"14","03_ages_15":"15","03_ages_16":"16","03_ages_17":"17","03_ages_18":"18","04":"Yes","04_ages_1":"1","04_ages_2":"2","04_ages_3":"3","04_ages_4":"4","04_ages_5":"5","04_ages_6":"6","04_ages_7":"7","04_ages_8":"8","04_ages_9":"9","04_ages_10":"10","04_ages_11":"11","04_ages_12":"12","04_ages_13":"13","04_ages_14":"14","04_ages_15":"15","04_ages_16":"16","04_ages_17":"17","04_ages_18":"18"},"rt":80599.20000004768,"item_order":[0,1,2,3],"radio_events":[2961.2000000476837,24453,42633.89999985695,65231.799999952316],"checkbox_events":[10357.799999952316,10932.099999904633,11469.099999904633,12001.299999952316,12531.799999952316,13208.799999952316,13760,14989.200000047684,15540.899999856949,16217.299999952316,16949.599999904633,17658.799999952316,18508.200000047684,19040.39999985695,19709.5,20433.89999985695,20999.89999985695,21599.89999985695,26347.799999952316,26899.700000047684,27701.599999904633,28894.39999985695,29425.89999985695,30123.200000047684,30661.599999904633,32199.599999904633,32945.200000047684,33484.299999952316,34773.89999985695,35437.09999990463,35989.09999990463,36589.299999952316,37328.39999985695,38487.299999952316,39024.700000047684,40107.39999985695,48010.700000047684,48935.09999990463,49734.5,50425,51088.200000047684,51674,52903.09999990463,53579.09999990463,54221.5,54925.299999952316,55462.89999985695,56055.799999952316,56656.700000047684,57229,57809.09999990463,58403,59519.799999952316,60183.5,66345.89999985695,67253.5,67953.09999990463,69133.59999990463,69830.20000004768,70458,71727.70000004768,72466,73480.39999985695,74031.70000004768,74571.09999990463,75364.29999995232,76261,76999.09999990463,77620.20000004768,78324.09999990463,79139.09999990463,79786.89999985695],"key_events":[],"mouse_events":[2961.2000000476837,7505.599999904633,10357.799999952316,10932.099999904633,11469.099999904633,12001.299999952316,12531.799999952316,13208.799999952316,13760,14478,14989.200000047684,15540.899999856949,16217.299999952316,16949.599999904633,17658.799999952316,18508.200000047684,19040.39999985695,19709.5,20433.89999985695,20999.89999985695,21599.89999985695,24453,25623.299999952316,26347.799999952316,26899.700000047684,27701.599999904633,28391.200000047684,28894.39999985695,29425.89999985695,30123.200000047684,30661.599999904633,31317.39999985695,32199.599999904633,32945.200000047684,33484.299999952316,34291.200000047684,34773.89999985695,35437.09999990463,35989.09999990463,36589.299999952316,37328.39999985695,37990.09999990463,38487.299999952316,39024.700000047684,40107.39999985695,42633.89999985695,44379.299999952316,45042.89999985695,45607.700000047684,46291.799999952316,46981.59999990463,48010.700000047684,48935.09999990463,49734.5,50425,51088.200000047684,51674,52254,52903.09999990463,53579.09999990463,54221.5,54925.299999952316,55462.89999985695,56055.799999952316,56656.700000047684,57229,57809.09999990463,58403,58948.09999990463,59519.799999952316,60183.5,63557.700000047684,65231.799999952316,66345.89999985695,67253.5,67953.09999990463,68540,69133.59999990463,69830.20000004768,70458,71092.89999985695,71727.70000004768,72466,73072.59999990463,73480.39999985695,74031.70000004768,74571.09999990463,75364.29999995232,76261,76999.09999990463,77620.20000004768,78324.09999990463,79139.09999990463,79786.89999985695,80595.39999985695],"honeypot":0,"survey":"mace","page":9,"trial_type":"survey-mace","trial_index":17,"time_elapsed":752127,"internal_node_id":"0.0-17.0","task_version":"prescreen-v0.3","browser_interactions":0},{"responses":{"01":"Yes","01_ages_13":"13","01_ages_14":"14","01_ages_15":"15","01_ages_16":"16","01_ages_17":"17","01_ages_18":"18","02":"No","03":"Yes","03_ages_12":"12","03_ages_13":"13","03_ages_14":"14","03_ages_15":"15","03_ages_16":"16","03_ages_17":"17","03_ages_18":"18","04":"Yes","04_ages_8":"8","04_ages_9":"9","04_ages_10":"10","04_ages_11":"11","04_ages_12":"12","04_ages_13":"13","04_ages_14":"14","04_ages_15":"15","04_ages_16":"16","04_ages_17":"17","04_ages_18":"18","05":"Yes","05_ages_13":"13","05_ages_14":"14","05_ages_15":"15","05_ages_16":"16","05_ages_17":"17","06":"Yes","06_ages_17":"17","07":"Yes","07_ages_12":"12","07_ages_13":"13","07_ages_14":"14","07_ages_15":"15","07_ages_16":"16","07_ages_17":"17","07_ages_18":"18","08":"No"},"rt":113756.5,"item_order":[0,1,2,3,4,5,6,7],"radio_events":[4278.100000143051,59287.799999952316,61576.90000009537,73276.10000014305,90836.79999995232,97283.29999995232,103750,112755.79999995232],"checkbox_events":[7024.5,7659.700000047684,8252.100000143051,8873.799999952316,9487.700000047684,10136.200000047684,62591.299999952316,63797.60000014305,64416.799999952316,65046,65577.10000014305,66120.79999995232,66784,75452.20000004768,76153,76691.5,77388.20000004768,77934.20000004768,78520.20000004768,79189.29999995232,79789.40000009537,80410.40000009537,81080,81707,91736,92423.60000014305,92990.90000009537,93611.90000009537,94130.29999995232,98664.20000004768,106862.29999995232,107385.79999995232,107876,108443,108953.10000014305,109556,110256.79999995232],"key_events":[],"mouse_events":[4278.100000143051,7024.5,7659.700000047684,8252.100000143051,8873.799999952316,9487.700000047684,10136.200000047684,59287.799999952316,61576.90000009537,62591.299999952316,63156.60000014305,63797.60000014305,64416.799999952316,65046,65577.10000014305,66120.79999995232,66784,73276.10000014305,75452.20000004768,76153,76691.5,77388.20000004768,77934.20000004768,78520.20000004768,79189.29999995232,79789.40000009537,80410.40000009537,81080,81707,90836.79999995232,91736,92423.60000014305,92990.90000009537,93611.90000009537,94130.29999995232,97283.29999995232,98664.20000004768,103750,106862.29999995232,107385.79999995232,107876,108443,108953.10000014305,109556,110256.79999995232,112755.79999995232,113749.10000014305],"honeypot":0,"survey":"mace","page":10,"trial_type":"survey-mace","trial_index":18,"time_elapsed":865888,"internal_node_id":"0.0-18.0","task_version":"prescreen-v0.3","browser_interactions":0,"instructed":0},{"rt":6254.599999904633,"trial_type":"mental-health-alert","trial_index":19,"time_elapsed":872153,"internal_node_id":"0.0-19.0","task_version":"prescreen-v0.3","interactions":"[]"}]