[{"view_history":[{"page_index":0,"viewing_time":2206},{"page_index":1,"viewing_time":2501.000000000001},{"page_index":2,"viewing_time":2872.999999999999},{"page_index":3,"viewing_time":932}],"rt":8513,"trial_type":"instructions","trial_index":0,"time_elapsed":8517,"internal_node_id":"0.0-0.0","task_version":"prescreen-v0.3"},{"rt":10883,"responses":{"age":"20","gender-categorical":"Female","gender-free-response":"","ethnicity":"Not Hispanic or Latino","race":["White"],"education":"Associate degree"},"trial_type":"survey-demo","trial_index":1,"time_elapsed":19409,"internal_node_id":"0.0-1.0","task_version":"prescreen-v0.3"},{"responses":{"Q11":"1","Q02":"2","Q08":"2","Q05":"0","Q20":"0","Q04":"0","Q13":"1","Q09":"0","Q07":"0","Q06":"0","Q21":"3","Q12":"2","Q14":"2","Q10":"2","Q03":"1","Q18":"2","Q19":"1","Q15":"2","Q17":"2","Q16":"2","Q01":"2"},"rt":83251,"item_order":[10,1,7,4,19,3,12,8,6,5,20,11,13,9,2,17,18,14,16,15,0],"radio_events":[4150.000000000004,8802,12891,18889,23742,28928.000000000007,33524,39384,42812.00000000001,46119,47925,51933,54923,57294,60318,63729,69614,74551.00000000001,78680,80816,82493],"key_events":[],"mouse_events":[4150.000000000004,8044,8802,12891,18205,18889,23742,28266,28928.000000000007,33524,39384,42812.00000000001,46119,47925,51933,54923,57294,60318,63107,63729,69614,74551.00000000001,78680,80816,82493,83236],"straightlining":0.47619047619047616,"zigzagging":0.45,"honeypot":0,"survey":"sns","trial_type":"survey-template","trial_index":2,"time_elapsed":102676,"internal_node_id":"0.0-2.0","task_version":"prescreen-v0.3","browser_interactions":0,"infrequency":0},{"responses":{"Q09":"2","Q03":"3","Q04":"3","Q10":"2","Q01":"3","Q07":"2","Q11":"2","Q12":"1","Q13":"0","Q08":"2","Q05":"2","Q06":"2","Q02":"3"},"rt":40214.00000000003,"item_order":[8,2,3,9,0,6,10,11,12,7,4,5,1],"radio_events":[6444,9726,11702,13420,14645,16960,20048,23815.000000000015,25571.999999999985,33122,37083.00000000003,38106,39501],"key_events":[],"mouse_events":[6444,9726,11702,13420,14645,16960,20048,23815.000000000015,25571.999999999985,33122,35469,37083.00000000003,38106,39501,40204],"straightlining":0.5384615384615384,"zigzagging":0.5833333333333334,"honeypot":0,"survey":"bisbas","trial_type":"survey-template","trial_index":3,"time_elapsed":142905,"internal_node_id":"0.0-3.0","task_version":"prescreen-v0.3","browser_interactions":0,"infrequency":0},{"responses":{"Q01":"2","Q02":"1","Q03":"2"},"rt":20863,"radio_events":[8832,14190,19100,19898],"key_events":[],"mouse_events":[8832,14190,19100,19898,20858],"survey":"map","page":1,"trial_type":"survey-map","trial_index":4,"time_elapsed":163783,"internal_node_id":"0.0-4.0","task_version":"prescreen-v0.3","browser_interactions":0},{"responses":{"Q04":"2","Q05":"2","Q06":"3"},"rt":15930,"radio_events":[9033,13485,15054],"key_events":[],"mouse_events":[9033,13485,15054,15925],"survey":"map","page":2,"trial_type":"survey-map","trial_index":5,"time_elapsed":179726,"internal_node_id":"0.0-5.0","task_version":"prescreen-v0.3","browser_interactions":0},{"responses":{"Q07":"2","Q08":"0","Q09":"1"},"rt":23095,"radio_events":[16154,17889,22276],"key_events":[],"mouse_events":[16154,17889,22276,23090],"survey":"map","page":3,"trial_type":"survey-map","trial_index":6,"time_elapsed":202835,"internal_node_id":"0.0-6.0","task_version":"prescreen-v0.3","browser_interactions":0},{"responses":{"Q10":"2","Q11":"2","Q12":"1","Q13":"3","Q16":"0","Q14":"2","Q15":"1"},"rt":29247,"radio_events":[6358,9133,12028,16205,18987,23431,26641,28520],"key_events":[],"mouse_events":[6358,9133,12028,16205,18987,23431,26641,28520,29238],"survey":"map","page":4,"trial_type":"survey-map","trial_index":7,"time_elapsed":232096,"internal_node_id":"0.0-7.0","task_version":"prescreen-v0.3","browser_interactions":0,"infrequency":0},{"view_history":[{"page_index":0,"viewing_time":1700},{"page_index":1,"viewing_time":13353.00000000003}],"rt":15054,"trial_type":"instructions","trial_index":8,"time_elapsed":247165,"internal_node_id":"0.0-8.0","task_version":"prescreen-v0.3"},{"responses":{"01":"Yes","01_ages_8":"8","01_ages_9":"9","01_ages_10":"10","01_ages_11":"11","01_ages_12":"12","01_ages_13":"13","01_ages_14":"14","01_ages_15":"15","01_ages_16":"16","01_ages_17":"17","01_ages_18":"18","02":"Yes","02_ages_4":"4","02_ages_5":"5","02_ages_6":"6","02_ages_7":"7","02_ages_8":"8","02_ages_9":"9","02_ages_10":"10","02_ages_11":"11","02_ages_12":"12","02_ages_13":"13","02_ages_14":"14","02_ages_15":"15","02_ages_16":"16","02_ages_17":"17","02_ages_18":"18","03":"Yes","03_ages_4":"4","03_ages_5":"5","03_ages_6":"6","03_ages_7":"7","03_ages_8":"8","03_ages_9":"9","04":"Yes","04_ages_8":"8","04_ages_9":"9","05":"No","06":"No"},"rt":93485.00000000006,"item_order":[0,1,2,3,4,5],"radio_events":[38658,56473.00000000006,73052,79212,86861,89139.00000000006],"checkbox_events":[45796,46361,46869,47369,47925.00000000006,49059,49571,50043,50692,51449.00000000006,54586.00000000006,60876,61344,61900,62828,63513,63973.00000000006,64634,65602,66102,66706,67433,67908,68948,69505,70309,74222,74923,75350,75907,76447,77463,80833,81373,81922,83276.00000000006,83962,84696],"key_events":[],"mouse_events":[1,38658,45796,46361,46869,47369,47925.00000000006,48401.00000000006,49059,49571,50043,50692,51449.00000000006,54586.00000000006,56473.00000000006,60876,61344,61900,62319,62828,63513,63973.00000000006,64634,65230,65602,66102,66706,67433,67908,68577,68948,69505,70309,73052,74222,74923,75350,75907,76447,77463,79212,80833,81373,81922,83276.00000000006,83962,84696,86861,89139.00000000006,93474],"honeypot":0,"survey":"mace","page":1,"trial_type":"survey-mace","trial_index":9,"time_elapsed":340657,"internal_node_id":"0.0-9.0","task_version":"prescreen-v0.3","browser_interactions":0},{"responses":{"01":"No","02":"No","03":"Yes","03_ages_1":"1","03_ages_2":"2","03_ages_3":"3","03_ages_4":"4","03_ages_5":"5","03_ages_6":"6","03_ages_7":"7","03_ages_8":"8","03_ages_9":"9","03_ages_10":"10","04":"No","05":"Yes","05_ages_5":"5","05_ages_6":"6","05_ages_7":"7","05_ages_8":"8","05_ages_9":"9","06":"No","07":"No","08":"No"},"rt":31445,"item_order":[0,1,2,3,4,5,6,7],"radio_events":[2434,4383,6055,15577,19287.00000000006,26398,28874,30777],"checkbox_events":[8063,8490,8990,9481,10142,10594,11134,11570,12021,12473,20166,20666,22262,22746.00000000006,23230,23786,24189],"key_events":[],"mouse_events":[2434,4383,6055,8063,8490,8990,9481,10142,10594,11134,11570,12021,12473,15577,19287.00000000006,20166,20666,22262,22746.00000000006,23230,23786,24189,26398,28874,30777,31430],"honeypot":0,"survey":"mace","page":2,"trial_type":"survey-mace","trial_index":10,"time_elapsed":372118,"internal_node_id":"0.0-10.0","task_version":"prescreen-v0.3","browser_interactions":0},{"responses":{"01":"No","02":"No","03":"No","04":"No"},"rt":11363,"item_order":[0,1,2,3],"radio_events":[6760,8107,9324,10469],"checkbox_events":[],"key_events":[],"mouse_events":[6760,8107,9324,10469,11356],"honeypot":0,"survey":"mace","page":3,"trial_type":"survey-mace","trial_index":11,"time_elapsed":383494,"internal_node_id":"0.0-11.0","task_version":"prescreen-v0.3","browser_interactions":0},{"responses":{"01":"No","02":"No"},"rt":5895,"item_order":[0,1],"radio_events":[2349,5243],"checkbox_events":[],"key_events":[],"mouse_events":[2349,5243,5888],"honeypot":0,"survey":"mace","page":4,"trial_type":"survey-mace","trial_index":12,"time_elapsed":389403,"internal_node_id":"0.0-12.0","task_version":"prescreen-v0.3","browser_interactions":0},{"responses":{"01":"No","02":"No","03":"No","04":"No","05":"No"},"rt":12886.000000000058,"item_order":[0,1,2,3,4],"radio_events":[5003,6654,8435,11274,12346],"checkbox_events":[],"key_events":[],"mouse_events":[5003,6654,8435,11274,12346,12878],"honeypot":0,"survey":"mace","page":5,"trial_type":"survey-mace","trial_index":13,"time_elapsed":402306,"internal_node_id":"0.0-13.0","task_version":"prescreen-v0.3","browser_interactions":0},{"responses":{"01":"Yes","01_ages_5":"5","01_ages_6":"6","01_ages_7":"7","01_ages_8":"8","01_ages_9":"9","01_ages_10":"10","01_ages_11":"11","01_ages_12":"12","01_ages_13":"13","01_ages_14":"14","01_ages_15":"15","02":"Yes","02_ages_4":"4","02_ages_5":"5","02_ages_6":"6","02_ages_7":"7","02_ages_8":"8","02_ages_9":"9","02_ages_10":"10","02_ages_11":"11","02_ages_12":"12","02_ages_13":"13","02_ages_14":"14","02_ages_15":"15","02_ages_16":"16","02_ages_17":"17","03":"Yes","03_ages_10":"10","03_ages_11":"11","03_ages_12":"12","03_ages_13":"13","03_ages_14":"14","03_ages_15":"15","04":"Yes","04_ages_10":"10","04_ages_11":"11","04_ages_12":"12","04_ages_13":"13","04_ages_14":"14","04_ages_15":"15","04_ages_16":"16","05":"No"},"rt":52219,"item_order":[0,1,2,3,4],"radio_events":[8028,20002.00000000006,31887,38806,51183],"checkbox_events":[9907,11116,11681,12211.000000000058,12737,13172,13591.000000000058,14830,15768,16777,17663.00000000006,22115.00000000006,22485.00000000006,22969,23445,23815,24308,24751,25146.00000000006,25735.00000000006,26097,26621,27614,28025,28525,33185,33750,34991,35556,36249,36731,41394,41797,42168,43208,43667,44143,46804],"key_events":[],"mouse_events":[8028,9907,11116,11681,12211.000000000058,12737,13172,13591.000000000058,14107,14830,15768,16777,17179,17663.00000000006,20002.00000000006,22115.00000000006,22485.00000000006,22969,23445,23815,24308,24751,25146.00000000006,25735.00000000006,26097,26621,27089,27614,28025,28525,31887,33185,33750,34208,34991,35556,36249,36731,38806,41394,41797,42168,42659,43208,43667,44143,46804,51183,52207],"honeypot":0,"survey":"mace","page":6,"trial_type":"survey-mace","trial_index":14,"time_elapsed":454540,"internal_node_id":"0.0-14.0","task_version":"prescreen-v0.3","browser_interactions":0},{"responses":{"01":"No","02":"Yes","02_ages_12":"12","02_ages_13":"13","02_ages_14":"14","03":"No","04":"No","05":"No","06":"No","07":"No"},"rt":20468,"item_order":[0,1,2,3,4,5,6],"radio_events":[3089,7041,13846,15571,17007,18410,19846],"checkbox_events":[9920,10371,12096],"key_events":[],"mouse_events":[3089,7041,9920,10371,11048,11556,12096,13846,15571,17007,18410,19846,20458],"honeypot":0,"survey":"mace","page":7,"trial_type":"survey-mace","trial_index":15,"time_elapsed":475026,"internal_node_id":"0.0-15.0","task_version":"prescreen-v0.3","browser_interactions":0},{"responses":{"01":"No","02":"No","03":"No","04":"Yes","04_ages_4":"4","04_ages_5":"5","04_ages_6":"6","04_ages_7":"7","04_ages_8":"8","04_ages_9":"9","04_ages_10":"10","04_ages_11":"11","04_ages_12":"12","04_ages_13":"13","04_ages_14":"14","04_ages_15":"15","04_ages_16":"16","04_ages_17":"17","04_ages_18":"18"},"rt":25694,"item_order":[0,1,2,3],"radio_events":[5295,8382,12502,14615],"checkbox_events":[17130,17944,18388.00000000006,19211,20049.00000000006,20460.00000000006,20936.00000000006,21605,22282,22685,23137,23734,24241,24596,25233],"key_events":[],"mouse_events":[5295,8382,12502,14615,17130,17517,17944,18388.00000000006,19211,20049.00000000006,20460.00000000006,20936.00000000006,21605,22282,22685,23137,23734,24241,24596,25233,25685],"honeypot":0,"survey":"mace","page":8,"trial_type":"survey-mace","trial_index":16,"time_elapsed":500735,"internal_node_id":"0.0-16.0","task_version":"prescreen-v0.3","browser_interactions":0},{"responses":{"01":"Yes","01_ages_1":"1","01_ages_2":"2","01_ages_3":"3","01_ages_4":"4","01_ages_5":"5","01_ages_6":"6","01_ages_7":"7","01_ages_8":"8","01_ages_9":"9","02":"No","03":"Yes","03_ages_1":"1","03_ages_2":"2","03_ages_3":"3","03_ages_4":"4","03_ages_5":"5","03_ages_6":"6","03_ages_7":"7","03_ages_8":"8","03_ages_9":"9","03_ages_10":"10","03_ages_11":"11","03_ages_12":"12","03_ages_13":"13","03_ages_14":"14","03_ages_15":"15","03_ages_16":"16","03_ages_17":"17","03_ages_18":"18","04":"Yes","04_ages_1":"1","04_ages_2":"2","04_ages_3":"3","04_ages_4":"4","04_ages_5":"5","04_ages_6":"6","04_ages_7":"7","04_ages_8":"8","04_ages_9":"9","04_ages_10":"10","04_ages_11":"11","04_ages_12":"12","04_ages_13":"13","04_ages_14":"14","04_ages_15":"15","04_ages_16":"16","04_ages_17":"17","04_ages_18":"18"},"rt":59715,"item_order":[0,1,2,3],"radio_events":[3258,28773,31159.000000000116,47742],"checkbox_events":[5472,5876,6327,6762,7528.000000000058,8931,9584,11213.000000000058,12042.999999999942,12486.000000000058,12914.000000000058,14123,15026,15655.000000000058,16951.99999999994,17791,19049.00000000006,20121.00000000006,20799.00000000006,22533,23000,23524,23935,24984,25548,33553,34069,34545,34956,35359,35915,36318,36875,37261,38141,38633,39108,40277,40970,41373,42090,43163,43966,49354,49999,50451,50845,51289.00000000012,51789.00000000012,52208,52777,53206,53925,54336,55892,56497,57021,57666,58295,58810,59262],"key_events":[],"mouse_events":[3258,5472,5876,6327,6762,7157,7528.000000000058,8043,8931,9584,11213.000000000058,12042.999999999942,12486.000000000058,12914.000000000058,13510.000000000058,14123,15026,15655.000000000058,16951.99999999994,17791,19049.00000000006,20121.00000000006,20799.00000000006,22533,23000,23524,23935,24442,24984,25548,28773,31159.000000000116,32908,33553,34069,34545,34956,35359,35915,36318,36875,37261,37632,38141,38633,39108,39591,40277,40970,41373,42090,42663,43163,43966,47742,49354,49999,50451,50845,51289.00000000012,51789.00000000012,52208,52777,53206,53925,54336,55312,55892,56497,57021,57666,58295,58810,59262,59706],"honeypot":0,"survey":"mace","page":9,"trial_type":"survey-mace","trial_index":17,"time_elapsed":560468,"internal_node_id":"0.0-17.0","task_version":"prescreen-v0.3","browser_interactions":0},{"responses":{"01":"No","02":"No","03":"No","04":"Yes","04_ages_1":"1","04_ages_2":"2","04_ages_3":"3","04_ages_4":"4","04_ages_5":"5","04_ages_6":"6","04_ages_7":"7","04_ages_8":"8","04_ages_9":"9","04_ages_10":"10","04_ages_11":"11","04_ages_12":"12","04_ages_13":"13","04_ages_14":"14","04_ages_15":"15","04_ages_16":"16","04_ages_17":"17","04_ages_18":"18","05":"No","06":"Yes","06_ages_17":"17","07":"No","08":"No"},"rt":28618,"item_order":[0,1,2,3,4,5,6,7],"radio_events":[2438,3640,5350,7332,21987,23220,26864,28186],"checkbox_events":[8766,9218,9685,10491,10902,11305.000000000116,11878,12264,12813,13256,13780,14248,14667,15045.000000000116,15602,16021.000000000116,16634,17093,24445],"key_events":[],"mouse_events":[2438,3640,5350,7332,8766,9218,9685,10491,10902,11305.000000000116,11878,12264,12813,13256,13780,14248,14667,15045.000000000116,15602,16021.000000000116,16634,17093,21987,23220,24445,26864,27676,28186,28605],"honeypot":0,"survey":"mace","page":10,"trial_type":"survey-mace","trial_index":18,"time_elapsed":589105,"internal_node_id":"0.0-18.0","task_version":"prescreen-v0.3","browser_interactions":0,"instructed":0},{"rt":4136.000000000116,"trial_type":"mental-health-alert","trial_index":19,"time_elapsed":593256,"internal_node_id":"0.0-19.0","task_version":"prescreen-v0.3","interactions":"[]"}]