[{"view_history":[{"page_index":0,"viewing_time":6294.874999672174},{"page_index":1,"viewing_time":5130.629999563098},{"page_index":2,"viewing_time":4448.149999603629},{"page_index":3,"viewing_time":1617.4200009554625}],"rt":17492.850000038743,"trial_type":"instructions","trial_index":0,"time_elapsed":17498,"internal_node_id":"0.0-0.0","task_version":"prescreen-v0.3"},{"rt":13968.809999525547,"responses":{"age":"32","gender-categorical":"Female","gender-free-response":"","ethnicity":"Not Hispanic or Latino","race":["White"],"education":"Bachelor degree"},"trial_type":"survey-demo","trial_index":1,"time_elapsed":31481,"internal_node_id":"0.0-1.0","task_version":"prescreen-v0.3"},{"responses":{"Q10":"2","Q16":"3","Q18":"3","Q13":"3","Q17":"3","Q15":"3","Q06":"0","Q14":"3","Q12":"1","Q11":"0","Q21":"3","Q08":"2","Q07":"0","Q03":"3","Q02":"3","Q19":"2","Q09":"2","Q05":"2","Q20":"3","Q04":"3","Q01":"3"},"rt":134639.96000029147,"item_order":[9,15,17,12,16,14,5,13,11,10,20,7,6,2,1,18,8,4,19,3,0],"radio_events":[7707.310000434518,12171.475000679493,18136.49499975145,21367.39000119269,27673.22999984026,33013.23500089347,43729.68500107527,49347.03000076115,55533.09500031173,60444.71000134945,66662.56999969482,76201.40499994159,82748.25500138104,93975.22499971092,97430.35000003874,102855.59500008821,109821.34499959648,117012.7700008452,123990.88500067592,126925.6750009954,131759.34500060976,133816.98000058532],"key_events":[],"mouse_events":[7707.310000434518,12171.475000679493,18136.49499975145,21367.39000119269,27673.22999984026,33013.23500089347,43729.68500107527,49347.03000076115,55533.09500031173,60444.71000134945,66662.56999969482,76201.40499994159,82748.25500138104,93975.22499971092,97430.35000003874,102855.59500008821,109821.34499959648,117012.7700008452,123990.88500067592,126925.6750009954,131759.34500060976,133816.98000058532,134626.95500068367],"straightlining":0.5714285714285714,"zigzagging":0.45,"honeypot":0,"survey":"sns","trial_type":"survey-template","trial_index":2,"time_elapsed":166128,"internal_node_id":"0.0-2.0","task_version":"prescreen-v0.3","browser_interactions":0,"infrequency":0},{"responses":{"Q07":"2","Q04":"3","Q10":"1","Q12":"0","Q09":"0","Q02":"3","Q13":"0","Q08":"2","Q03":"3","Q05":"1","Q01":"3","Q11":"1","Q06":"1"},"rt":66313.57499957085,"item_order":[6,3,9,11,8,1,12,7,2,4,0,10,5],"radio_events":[5514.155000448227,9757.60499946773,15216.554999351501,21066.18000008166,24938.85999917984,28363.204998895526,31316.294999793172,37930.46999908984,40973.77000004053,46743.79500001669,51121.014999225736,53686.8749987334,59207.369999960065,65556.8599998951],"key_events":[],"mouse_events":[5514.155000448227,9757.60499946773,15216.554999351501,21066.18000008166,24938.85999917984,28363.204998895526,31316.294999793172,37930.46999908984,40973.77000004053,46743.79500001669,51121.014999225736,53686.8749987334,59207.369999960065,65556.8599998951,66310.52999943495],"straightlining":0.3076923076923077,"zigzagging":0.4166666666666667,"honeypot":0,"survey":"bisbas","trial_type":"survey-template","trial_index":3,"time_elapsed":232445,"internal_node_id":"0.0-3.0","task_version":"prescreen-v0.3","browser_interactions":0,"infrequency":0},{"responses":{"Q01":"2","Q02":"1","Q03":"2"},"rt":28819.810001179576,"radio_events":[10435.490000993013,19809.120001271367,27968.849999830127],"key_events":[],"mouse_events":[10435.490000993013,19809.120001271367,27968.849999830127,28818.260001018643],"survey":"map","page":1,"trial_type":"survey-map","trial_index":4,"time_elapsed":261268,"internal_node_id":"0.0-4.0","task_version":"prescreen-v0.3","browser_interactions":0},{"responses":{"Q04":"1","Q05":"1","Q06":"2"},"rt":28527.130000293255,"radio_events":[6413.690000772476,14116.949999704957,21055.464999750257,26656.58999979496,27841.140000149608],"key_events":[],"mouse_events":[6413.690000772476,14116.949999704957,21055.464999750257,26656.58999979496,27841.140000149608,28525.855001062155],"survey":"map","page":2,"trial_type":"survey-map","trial_index":5,"time_elapsed":289798,"internal_node_id":"0.0-5.0","task_version":"prescreen-v0.3","browser_interactions":0},{"responses":{"Q07":"3","Q08":"0","Q09":"1"},"rt":15842.749999836087,"radio_events":[5666.500000283122,11482.714999467134,15008.905000984669],"key_events":[],"mouse_events":[5666.500000283122,11482.714999467134,15008.905000984669,15841.450000181794],"survey":"map","page":3,"trial_type":"survey-map","trial_index":6,"time_elapsed":305644,"internal_node_id":"0.0-6.0","task_version":"prescreen-v0.3","browser_interactions":0},{"responses":{"Q10":"0","Q11":"1","Q12":"0","Q13":"1","Q16":"0","Q14":"1","Q15":"0"},"rt":49307.98499844968,"radio_events":[7708.689998835325,12356.154998764396,18028.64999882877,26399.174999445677,36327.67499983311,42422.544999048114,46886.52499951422,48328.14499922097],"key_events":[],"mouse_events":[7708.689998835325,12356.154998764396,18028.64999882877,26399.174999445677,36327.67499983311,42422.544999048114,46886.52499951422,48328.14499922097,49305.35499937832],"survey":"map","page":4,"trial_type":"survey-map","trial_index":7,"time_elapsed":354954,"internal_node_id":"0.0-7.0","task_version":"prescreen-v0.3","browser_interactions":0,"infrequency":0},{"view_history":[{"page_index":0,"viewing_time":3477.8399989008904},{"page_index":1,"viewing_time":6434.384999796748}],"rt":9912.889998406172,"trial_type":"instructions","trial_index":8,"time_elapsed":364869,"internal_node_id":"0.0-8.0","task_version":"prescreen-v0.3"},{"responses":{"01":"Yes","01_ages_9":"9","01_ages_10":"10","01_ages_11":"11","01_ages_12":"12","01_ages_13":"13","01_ages_14":"14","01_ages_15":"15","01_ages_16":"16","01_ages_17":"17","01_ages_18":"18","02":"Yes","02_ages_6":"6","02_ages_7":"7","02_ages_8":"8","02_ages_9":"9","02_ages_10":"10","02_ages_11":"11","02_ages_12":"12","02_ages_13":"13","02_ages_14":"14","02_ages_15":"15","02_ages_16":"16","02_ages_17":"17","02_ages_18":"18","03":"Yes","03_ages_5":"5","03_ages_6":"6","03_ages_7":"7","03_ages_8":"8","03_ages_9":"9","03_ages_10":"10","03_ages_11":"11","03_ages_12":"12","03_ages_13":"13","03_ages_14":"14","03_ages_15":"15","03_ages_16":"16","03_ages_17":"17","03_ages_18":"18","04":"Yes","04_ages_10":"10","04_ages_11":"11","04_ages_12":"12","04_ages_13":"13","04_ages_14":"14","04_ages_15":"15","04_ages_16":"16","04_ages_17":"17","04_ages_18":"18","05":"No","06":"Yes","06_ages_6":"6","06_ages_7":"7","06_ages_8":"8","06_ages_9":"9","06_ages_10":"10","06_ages_11":"11","06_ages_12":"12","06_ages_13":"13","06_ages_14":"14","06_ages_15":"15","06_ages_16":"16","06_ages_17":"17","06_ages_18":"18"},"rt":92379.96999919415,"item_order":[0,1,2,3,4,5],"radio_events":[15708.514999598265,31849.76499900222,47792.91999898851,65272.074999287724,77286.4650003612,80941.46000035107],"checkbox_events":[21461.65500022471,22057.639999315143,22682.18499980867,23210.64000017941,24539.82499986887,25606.04999959469,26537.49999962747,27081.565000116825,27610.4849986732,28362.924998626113,36053.409999236465,36821.82999886572,37526.074999943376,38423.139998689294,38927.634999156,39591.454999521375,40392.289999872446,40936.16499938071,41448.98499920964,41897.37999998033,42513.419998809695,42977.63999924064,43962.53999881446,50519.740000367165,51304.089998826385,51952.67999917269,52633.02999921143,53137.444999068975,53806.354999542236,54847.064999863505,55759.78500023484,56584.37499962747,57376.82499922812,58189.77000005543,58934.359999373555,59759.16999951005,60872.369999065995,61809.225000441074,63174.69500005245,67826.55999995768,68555.64500018954,69339.44999985397,69901.01500041783,70869.04999986291,71621.55999988317,72190.19499979913,72926.82499997318,73675.34999921918,83139.31000046432,83803.60999889672,84380.13999909163,85124.94999915361,85997.70999886096,86806.18999898434,87467.14999899268,88371.26999907196,89044.61499862373,89732.90999978781,90430.63999898732,90982.61999897659,91723.51999953389],"key_events":[],"mouse_events":[0.339999794960022,15708.514999598265,21461.65500022471,22057.639999315143,22682.18499980867,23210.64000017941,23859.609998762608,24539.82499986887,25116.30499921739,25606.04999959469,26537.49999962747,27081.565000116825,27610.4849986732,28362.924998626113,31849.76499900222,36053.409999236465,36821.82999886572,37526.074999943376,38423.139998689294,38927.634999156,39591.454999521375,40392.289999872446,40936.16499938071,41448.98499920964,41897.37999998033,42513.419998809695,42977.63999924064,43497.22999893129,43962.53999881446,47792.91999898851,50519.740000367165,51304.089998826385,51952.67999917269,52633.02999921143,53137.444999068975,53806.354999542236,54847.064999863505,55759.78500023484,56584.37499962747,57376.82499922812,58189.77000005543,58934.359999373555,59759.16999951005,60335.78999899328,60872.369999065995,61809.225000441074,63174.69500005245,65272.074999287724,67826.55999995768,68555.64500018954,69339.44999985397,69901.01500041783,70869.04999986291,71621.55999988317,72190.19499979913,72926.82499997318,73675.34999921918,77286.4650003612,80941.46000035107,83139.31000046432,83803.60999889672,84380.13999909163,85124.94999915361,85997.70999886096,86806.18999898434,87467.14999899268,88371.26999907196,89044.61499862373,89732.90999978781,90430.63999898732,90982.61999897659,91723.51999953389,92372.64999933541],"honeypot":0,"survey":"mace","page":1,"trial_type":"survey-mace","trial_index":9,"time_elapsed":457254,"internal_node_id":"0.0-9.0","task_version":"prescreen-v0.3","browser_interactions":0},{"responses":{"01":"Yes","01_ages_10":"10","01_ages_11":"11","01_ages_12":"12","01_ages_13":"13","01_ages_14":"14","01_ages_15":"15","02":"No","03":"Yes","03_ages_6":"6","03_ages_7":"7","03_ages_8":"8","03_ages_9":"9","03_ages_10":"10","03_ages_11":"11","03_ages_12":"12","03_ages_13":"13","03_ages_14":"14","03_ages_15":"15","04":"No","05":"Yes","05_ages_10":"10","06":"No","07":"No","08":"No"},"rt":65362.78999969363,"item_order":[0,1,2,3,4,5,6,7],"radio_events":[4366.814998909831,27081.379998475313,29562.979999929667,41377.18999944627,44507.85499997437,61402.429999783635,62975.409999489784,64712.63999864459],"checkbox_events":[8270.569998770952,8790.570000186563,10520.089998841286,12449.514999985695,13001.790000125766,13538.394998759031,14182.945000007749,15111.4999987185,16216.699998825788,18226.284999400377,31488.594999536872,32089.11999873817,32857.36999846995,33474.11499917507,34130.83499856293,34803.08499932289,35784.099999815226,36520.64500004053,37361.27999983728,38081.79999887943,48764.014998450875,51559.1249987483,52135.369999334216,52848.124999552965,53985.0599989295,54921.98499850929,55978.64499874413],"key_events":[],"mouse_events":[4366.814998909831,8270.569998770952,8790.570000186563,10520.089998841286,12449.514999985695,13001.790000125766,13538.394998759031,14182.945000007749,15111.4999987185,16216.699998825788,18226.284999400377,27081.379998475313,29562.979999929667,31488.594999536872,32089.11999873817,32857.36999846995,33474.11499917507,34130.83499856293,34803.08499932289,35784.099999815226,36520.64500004053,37361.27999983728,38081.79999887943,41377.18999944627,44507.85499997437,48764.014998450875,51559.1249987483,52135.369999334216,52848.124999552965,53985.0599989295,54921.98499850929,55378.17999906838,55978.64499874413,61402.429999783635,62975.409999489784,64712.63999864459,65353.544998914],"honeypot":0,"survey":"mace","page":2,"trial_type":"survey-mace","trial_index":10,"time_elapsed":522619,"internal_node_id":"0.0-10.0","task_version":"prescreen-v0.3","browser_interactions":0},{"responses":{"01":"Yes","01_ages_1":"1","01_ages_2":"2","01_ages_3":"3","01_ages_4":"4","01_ages_5":"5","02":"No","03":"No","04":"No"},"rt":33881.92999921739,"item_order":[0,1,2,3],"radio_events":[4373.944999650121,30188.94999846816,31421.999998390675,32992.12499894202],"checkbox_events":[19018.00499856472,19634.649999439716,20791.499998420477,22104.644998908043,22665.16499966383],"key_events":[],"mouse_events":[4373.944999650121,19018.00499856472,19634.649999439716,20170.94499990344,20791.499998420477,21431.994998827577,22104.644998908043,22665.16499966383,30188.94999846816,31421.999998390675,32992.12499894202,33877.089999616146],"honeypot":0,"survey":"mace","page":3,"trial_type":"survey-mace","trial_index":11,"time_elapsed":556504,"internal_node_id":"0.0-11.0","task_version":"prescreen-v0.3","browser_interactions":0},{"responses":{"01":"No","02":"No"},"rt":6097.285000607371,"item_order":[0,1],"radio_events":[2439.595000818372,5534.275000914931],"checkbox_events":[],"key_events":[],"mouse_events":[2439.595000818372,5534.275000914931,6094.785001128912],"honeypot":0,"survey":"mace","page":4,"trial_type":"survey-mace","trial_index":12,"time_elapsed":562605,"internal_node_id":"0.0-12.0","task_version":"prescreen-v0.3","browser_interactions":0},{"responses":{"01":"No","02":"No","03":"No","04":"No","05":"No"},"rt":26495.395001024008,"item_order":[0,1,2,3,4],"radio_events":[5240.425001829863,8943.19500029087,13022.815000265837,23538.72000053525,25832.230001688004],"checkbox_events":[],"key_events":[],"mouse_events":[5240.425001829863,8943.19500029087,13022.815000265837,23538.72000053525,25832.230001688004,26489.085000008345],"honeypot":0,"survey":"mace","page":5,"trial_type":"survey-mace","trial_index":13,"time_elapsed":589105,"internal_node_id":"0.0-13.0","task_version":"prescreen-v0.3","browser_interactions":0},{"responses":{"01":"Yes","01_ages_8":"8","01_ages_9":"9","01_ages_10":"10","01_ages_11":"11","01_ages_12":"12","01_ages_13":"13","01_ages_14":"14","01_ages_15":"15","01_ages_16":"16","01_ages_17":"17","01_ages_18":"18","02":"Yes","02_ages_8":"8","02_ages_9":"9","02_ages_10":"10","02_ages_11":"11","02_ages_12":"12","02_ages_13":"13","02_ages_14":"14","02_ages_15":"15","02_ages_16":"16","02_ages_17":"17","02_ages_18":"18","03":"Yes","03_ages_8":"8","03_ages_9":"9","03_ages_10":"10","03_ages_11":"11","03_ages_12":"12","03_ages_13":"13","03_ages_14":"14","03_ages_15":"15","03_ages_16":"16","03_ages_17":"17","03_ages_18":"18","04":"Yes","04_ages_8":"8","04_ages_9":"9","04_ages_10":"10","04_ages_11":"11","04_ages_12":"12","04_ages_13":"13","04_ages_14":"14","04_ages_15":"15","04_ages_16":"16","04_ages_17":"17","04_ages_18":"18","05":"No"},"rt":65468.885000795126,"item_order":[0,1,2,3,4],"radio_events":[13711.350001394749,29767.005000263453,40857.61500149965,52048.919999971986,64709.70500074327],"checkbox_events":[19519.145000725985,20152.73000113666,20941.215001046658,21405.465001240373,22149.775000289083,22798.39000105858,23575.16499981284,24207.390001043677,24799.65000040829,25516.245000064373,26180.44000118971,30795.464999973774,31548.285000026226,32108.750000596046,32908.835001289845,33548.80500026047,34149.56000074744,34765.75000025332,35370.18000148237,35946.53500057757,36666.93999990821,37323.235001415014,43723.05000014603,44283.60000066459,44895.97500115633,45552.49500088394,46184.87000092864,46705.06500080228,47193.61500069499,47905.89000098407,48434.76000055671,49046.39500007033,49661.83000057936,53113.42000029981,54037.40500099957,55335.19500121474,56223.98500144482,56944.28500160575,57609.210001304746,58414.23000022769,58926.04500055313,59390.18500037491,60054.75000105798,61103.310000151396],"key_events":[],"mouse_events":[13711.350001394749,19519.145000725985,20152.73000113666,20941.215001046658,21405.465001240373,22149.775000289083,22798.39000105858,23575.16499981284,24207.390001043677,24799.65000040829,25516.245000064373,26180.44000118971,29767.005000263453,30795.464999973774,31548.285000026226,32108.750000596046,32908.835001289845,33548.80500026047,34149.56000074744,34765.75000025332,35370.18000148237,35946.53500057757,36666.93999990821,37323.235001415014,40857.61500149965,43723.05000014603,44283.60000066459,44895.97500115633,45552.49500088394,46184.87000092864,46705.06500080228,47193.61500069499,47905.89000098407,48434.76000055671,49046.39500007033,49661.83000057936,52048.919999971986,53113.42000029981,54037.40500099957,55335.19500121474,56223.98500144482,56944.28500160575,57609.210001304746,58414.23000022769,58926.04500055313,59390.18500037491,60054.75000105798,60542.93500073254,61103.310000151396,64709.70500074327,65462.8250002861],"honeypot":0,"survey":"mace","page":6,"trial_type":"survey-mace","trial_index":14,"time_elapsed":654575,"internal_node_id":"0.0-14.0","task_version":"prescreen-v0.3","browser_interactions":0},{"responses":{"01":"No","02":"No","03":"Yes","03_ages_8":"8","03_ages_9":"9","03_ages_10":"10","03_ages_11":"11","03_ages_12":"12","03_ages_13":"13","03_ages_14":"14","04":"Yes","04_ages_8":"8","04_ages_9":"9","04_ages_10":"10","04_ages_11":"11","04_ages_12":"12","04_ages_13":"13","04_ages_14":"14","05":"No","06":"No","07":"No"},"rt":40443.87499988079,"item_order":[0,1,2,3,4,5,6],"radio_events":[4057.0599995553493,7584.555000066757,13464.375000447035,27070.405000820756,35612.649999558926,38891.04000106454,39707.580000162125],"checkbox_events":[15166.175000369549,15782.585000619292,16607.195001095533,17423.214999958873,18120.21500058472,18648.22000078857,19820.69000042975,21509.45500098169,23531.445000320673,28067.169999703765,28691.63000024855,29300.30000023544,30085.17500013113,30700.805000960827,31237.309999763966,32113.740000873804],"key_events":[],"mouse_events":[4057.0599995553493,7584.555000066757,13464.375000447035,15166.175000369549,15782.585000619292,16223.194999620318,16607.195001095533,17423.214999958873,18120.21500058472,18648.22000078857,19820.69000042975,21509.45500098169,23531.445000320673,27070.405000820756,28067.169999703765,28691.63000024855,29300.30000023544,30085.17500013113,30700.805000960827,31237.309999763966,32113.740000873804,35612.649999558926,38891.04000106454,39707.580000162125,40436.259999871254],"honeypot":0,"survey":"mace","page":7,"trial_type":"survey-mace","trial_index":15,"time_elapsed":695023,"internal_node_id":"0.0-15.0","task_version":"prescreen-v0.3","browser_interactions":0},{"responses":{"01":"Yes","01_ages_8":"8","01_ages_9":"9","01_ages_10":"10","01_ages_11":"11","01_ages_12":"12","01_ages_13":"13","01_ages_14":"14","01_ages_15":"15","01_ages_16":"16","01_ages_17":"17","01_ages_18":"18","02":"No","03":"Yes","03_ages_8":"8","03_ages_9":"9","03_ages_10":"10","03_ages_11":"11","03_ages_12":"12","03_ages_13":"13","03_ages_14":"14","03_ages_15":"15","03_ages_16":"16","03_ages_17":"17","03_ages_18":"18","04":"Yes","04_ages_8":"8","04_ages_9":"9","04_ages_10":"10","04_ages_11":"11","04_ages_12":"12","04_ages_13":"13","04_ages_14":"14","04_ages_15":"15","04_ages_16":"16","04_ages_17":"17","04_ages_18":"18"},"rt":59267.30000041425,"item_order":[0,1,2,3],"radio_events":[11433.074999600649,32436.134999617934,36306.83000013232,48306.1500005424],"checkbox_events":[17559.04999934137,18167.415000498295,18823.76500032842,19688.22499923408,20385.09500026703,20992.975000292063,21745.61499990523,22249.985000118613,23202.57500000298,23859.315000474453,25404.00500036776,37796.74999974668,38652.32999995351,39308.49999934435,40053.494999185205,40825.614999979734,41432.76000022888,42193.314999341965,42874.59000013769,43675.16499944031,44379.65999916196,45103.91500033438,49247.68500030041,50665.30999913812,51185.04999950528,51809.66500006616,52431.94999918342,53046.12500034273,54199.08499903977,54928.069999441504,55679.995000362396,56297.17999882996,56977.274999022484],"key_events":[],"mouse_events":[11433.074999600649,17559.04999934137,18167.415000498295,18823.76500032842,19688.22499923408,20385.09500026703,20992.975000292063,21745.61499990523,22249.985000118613,22722.43999876082,23202.57500000298,23859.315000474453,25404.00500036776,32436.134999617934,36306.83000013232,37796.74999974668,38652.32999995351,39308.49999934435,40053.494999185205,40825.614999979734,41432.76000022888,42193.314999341965,42874.59000013769,43675.16499944031,44379.65999916196,45103.91500033438,48306.1500005424,49247.68500030041,50665.30999913812,51185.04999950528,51809.66500006616,52431.94999918342,53046.12500034273,53550.75999908149,54199.08499903977,54928.069999441504,55679.995000362396,56297.17999882996,56977.274999022484,59262.699998915195],"honeypot":0,"survey":"mace","page":8,"trial_type":"survey-mace","trial_index":16,"time_elapsed":754291,"internal_node_id":"0.0-16.0","task_version":"prescreen-v0.3","browser_interactions":0},{"responses":{"01":"Yes","01_ages_1":"1","01_ages_2":"2","01_ages_3":"3","01_ages_4":"4","01_ages_5":"5","01_ages_6":"6","01_ages_7":"7","01_ages_8":"8","01_ages_9":"9","01_ages_10":"10","01_ages_11":"11","01_ages_12":"12","01_ages_13":"13","01_ages_14":"14","01_ages_15":"15","01_ages_16":"16","01_ages_17":"17","01_ages_18":"18","02":"Yes","02_ages_1":"1","02_ages_2":"2","02_ages_3":"3","02_ages_4":"4","02_ages_5":"5","02_ages_6":"6","02_ages_7":"7","02_ages_8":"8","02_ages_9":"9","02_ages_10":"10","02_ages_11":"11","02_ages_12":"12","02_ages_13":"13","02_ages_14":"14","02_ages_15":"15","02_ages_16":"16","02_ages_17":"17","02_ages_18":"18","03":"No","04":"Yes","04_ages_1":"1","04_ages_2":"2","04_ages_3":"3","04_ages_4":"4","04_ages_5":"5","04_ages_6":"6","04_ages_7":"7","04_ages_8":"8","04_ages_9":"9","04_ages_10":"10","04_ages_11":"11","04_ages_12":"12","04_ages_13":"13","04_ages_14":"14","04_ages_15":"15","04_ages_16":"16","04_ages_17":"17","04_ages_18":"18"},"rt":82161.44499927759,"item_order":[0,1,2,3],"radio_events":[7515.719998627901,25027.46499888599,42588.39000016451,49995.1849989593,60107.78999887407,66760.90000011027],"checkbox_events":[9765.215000137687,10422.059999778867,11159.3899987638,11822.680000215769,12635.05999930203,13891.414999961853,14628.334999084473,15300.929998978972,15989.349998533726,16509.994998574257,17037.75999881327,17962.685000151396,18611.165000125766,19211.124999448657,19891.959998756647,20548.35500009358,21171.71499878168,22180.54499849677,26653.26499938965,27405.53499944508,28121.86999991536,28826.86499878764,29474.884999915957,30067.104998975992,30731.994999572635,31396.564999595284,31940.379999578,32617.344999685884,33313.31999972463,33817.979998886585,34418.51499862969,35074.7849997133,35715.37999995053,36307.35999904573,37144.534999504685,37808.74999985099,51036.179998889565,51680.49999885261,52184.81499888003,52817.60499998927,53993.98499913514,55539.93999958038,56400.654999539256,56969.169998541474,57545.5299988389,58178.29000018537,67770.2399995178,68530.74499964714,69195.34999877214,69715.44499881566,70432.24499933422,71024.44999851286,71705.39500005543,72168.52999851108,72866.10000021756,75376.13999843597,75936.79999932647,76465.14499932528,77265.63499867916,77761.80999912322,78446.68499939144,78998.73000010848,79799.52999949455,80551.00999958813],"key_events":[],"mouse_events":[7515.719998627901,9765.215000137687,10422.059999778867,11159.3899987638,11822.680000215769,12635.05999930203,13202.214999124408,13891.414999961853,14628.334999084473,15300.929998978972,15989.349998533726,16509.994998574257,17037.75999881327,17962.685000151396,18611.165000125766,19211.124999448657,19891.959998756647,20548.35500009358,21171.71499878168,22180.54499849677,25027.46499888599,26653.26499938965,27405.53499944508,28121.86999991536,28826.86499878764,29474.884999915957,30067.104998975992,30731.994999572635,31396.564999595284,31940.379999578,32617.344999685884,33313.31999972463,33817.979998886585,34418.51499862969,35074.7849997133,35715.37999995053,36307.35999904573,37144.534999504685,37808.74999985099,42588.39000016451,49995.1849989593,51036.179998889565,51680.49999885261,52184.81499888003,52817.60499998927,53353.93499955535,53993.98499913514,55539.93999958038,56400.654999539256,56969.169998541474,57545.5299988389,58178.29000018537,60107.78999887407,66232.54499956965,66760.90000011027,67770.2399995178,68530.74499964714,69195.34999877214,69715.44499881566,70432.24499933422,71024.44999851286,71705.39500005543,72168.52999851108,72866.10000021756,73506.75999931991,75376.13999843597,75936.79999932647,76465.14499932528,77265.63499867916,77761.80999912322,78446.68499939144,78998.73000010848,79799.52999949455,80551.00999958813,82154.62499856949],"honeypot":0,"survey":"mace","page":9,"trial_type":"survey-mace","trial_index":17,"time_elapsed":836451,"internal_node_id":"0.0-17.0","task_version":"prescreen-v0.3","browser_interactions":0},{"responses":{"01":"No","02":"No","03":"Yes","03_ages_8":"8","03_ages_9":"9","03_ages_10":"10","03_ages_11":"11","03_ages_12":"12","03_ages_13":"13","03_ages_14":"14","03_ages_15":"15","03_ages_16":"16","03_ages_17":"17","03_ages_18":"18","04":"Yes","04_ages_8":"8","04_ages_9":"9","04_ages_10":"10","04_ages_11":"11","04_ages_12":"12","04_ages_13":"13","04_ages_14":"14","04_ages_15":"15","04_ages_16":"16","04_ages_17":"17","04_ages_18":"18","05":"Yes","05_ages_8":"8","05_ages_9":"9","05_ages_10":"10","05_ages_11":"11","05_ages_12":"12","05_ages_13":"13","05_ages_14":"14","05_ages_15":"15","05_ages_16":"16","05_ages_17":"17","05_ages_18":"18","06":"Yes","06_ages_17":"17","07":"No","08":"No"},"rt":63526.830000802875,"item_order":[0,1,2,3,4,5,6,7],"radio_events":[7767.425000667572,8527.894999831915,11446.390001103282,23749.184999614954,39342.84500032663,52604.97999936342,58846.23000025749,62444.8649995029],"checkbox_events":[13136.354999616742,13820.98500058055,14412.79000043869,15013.350000604987,15677.954999729991,16221.085000783205,16871.090000495315,17407.360000535846,19549.004999920726,20165.825000032783,20750.114999711514,26890.675000846386,27708.935000002384,28389.335000887513,29029.620001092553,29678.619999438524,30859.574999660254,31372.239999473095,32108.5250005126,32781.515000388026,34278.735000640154,34815.32499939203,40339.66499939561,41076.30000077188,41685.10499969125,42309.07000042498,42957.584999501705,43590.605000033975,44459.12500098348,45980.39500042796,46547.59000055492,47261.40000112355,48149.85500089824,54106.11500032246],"key_events":[],"mouse_events":[7767.425000667572,8527.894999831915,11446.390001103282,13136.354999616742,13820.98500058055,14412.79000043869,15013.350000604987,15677.954999729991,16221.085000783205,16871.090000495315,17407.360000535846,18036.35499998927,18997.5800011307,19549.004999920726,20165.825000032783,20750.114999711514,23749.184999614954,26890.675000846386,27708.935000002384,28389.335000887513,29029.620001092553,29678.619999438524,30151.320001110435,30859.574999660254,31372.239999473095,32108.5250005126,32781.515000388026,33462.18500100076,34278.735000640154,34815.32499939203,39342.84500032663,40339.66499939561,41076.30000077188,41685.10499969125,42309.07000042498,42957.584999501705,43590.605000033975,44459.12500098348,45163.75000029802,45980.39500042796,46547.59000055492,47261.40000112355,48149.85500089824,52604.97999936342,54106.11500032246,58846.23000025749,62444.8649995029,63517.9500002414],"honeypot":0,"survey":"mace","page":10,"trial_type":"survey-mace","trial_index":18,"time_elapsed":899980,"internal_node_id":"0.0-18.0","task_version":"prescreen-v0.3","browser_interactions":0,"instructed":0},{"rt":6849.085001274943,"trial_type":"mental-health-alert","trial_index":19,"time_elapsed":906832,"internal_node_id":"0.0-19.0","task_version":"prescreen-v0.3","interactions":"[]"}]