[{"view_history":[{"page_index":0,"viewing_time":3008},{"page_index":1,"viewing_time":2062.1999999284744},{"page_index":2,"viewing_time":2118.4000000953674},{"page_index":3,"viewing_time":1206.1999999284744}],"rt":8395.399999976158,"trial_type":"instructions","trial_index":0,"time_elapsed":8400,"internal_node_id":"0.0-0.0","task_version":"prescreen-v0.3"},{"rt":11629.200000047684,"responses":{"age":"25","gender-categorical":"Female","gender-free-response":"","ethnicity":"Not Hispanic or Latino","race":["White"],"education":"Master degree or higher"},"trial_type":"survey-demo","trial_index":1,"time_elapsed":20035,"internal_node_id":"0.0-1.0","task_version":"prescreen-v0.3"},{"responses":{"Q09":"0","Q18":"1","Q01":"1","Q21":"3","Q13":"0","Q04":"0","Q07":"0","Q10":"0","Q15":"0","Q06":"0","Q03":"0","Q02":"0","Q12":"0","Q14":"1","Q05":"0","Q19":"0","Q16":"0","Q08":"1","Q17":"0","Q20":"0","Q11":"0"},"rt":65688.39999997616,"item_order":[8,17,0,20,12,3,6,9,14,5,2,1,11,13,4,18,15,7,16,19,10],"radio_events":[3036.5,8665.399999976158,10539.600000023842,12589.799999952316,16567.600000023842,19691.299999952316,22580.299999952316,25135.600000023842,28862.600000023842,32694.899999976158,33348,37527.199999928474,40743.10000002384,41878.5,43788.10000002384,50766.39999997616,53024.60000002384,55405.89999997616,56809.699999928474,58655.89999997616,62174.89999997616,64051.199999928474,64639.39999997616],"key_events":[],"mouse_events":[3036.5,8665.399999976158,10539.600000023842,12589.799999952316,15280.799999952316,16567.600000023842,19691.299999952316,22580.299999952316,25135.600000023842,28862.600000023842,31833.299999952316,32694.899999976158,33348,37527.199999928474,40743.10000002384,41878.5,43788.10000002384,50766.39999997616,53024.60000002384,55405.89999997616,56809.699999928474,57856.199999928474,58655.89999997616,60672.199999928474,62174.89999997616,62861.89999997616,64051.199999928474,64639.39999997616,65683],"straightlining":0.7619047619047619,"zigzagging":0.3,"honeypot":0,"survey":"sns","trial_type":"survey-template","trial_index":2,"time_elapsed":85739,"internal_node_id":"0.0-2.0","task_version":"prescreen-v0.3","browser_interactions":0,"infrequency":0},{"responses":{"Q06":"3","Q02":"1","Q04":"1","Q07":"3","Q09":"3","Q05":"3","Q12":"3","Q11":"3","Q03":"1","Q10":"3","Q01":"1","Q08":"3","Q13":"0"},"rt":41462.5,"item_order":[5,1,3,6,8,4,11,10,2,9,0,7,12],"radio_events":[3639.600000023842,6577.100000023842,13028.700000047684,15091.100000023842,18012.400000095367,19687.700000047684,21880.900000095367,27031.700000047684,32482,33641.60000002384,36267.300000071526,38793.300000071526,40008.5],"key_events":[],"mouse_events":[3639.600000023842,6577.100000023842,13028.700000047684,15091.100000023842,18012.400000095367,19687.700000047684,21880.900000095367,27031.700000047684,30191.300000071526,32482,33641.60000002384,36267.300000071526,38793.300000071526,40008.5,41460.40000009537],"straightlining":0.6153846153846154,"zigzagging":0.08333333333333333,"honeypot":0,"survey":"bisbas","trial_type":"survey-template","trial_index":3,"time_elapsed":127209,"internal_node_id":"0.0-3.0","task_version":"prescreen-v0.3","browser_interactions":0,"infrequency":0},{"responses":{"Q01":"4","Q02":"4","Q03":"4"},"rt":9515.799999952316,"radio_events":[3999.6999999284744,5905.699999928474,8670.5],"key_events":[],"mouse_events":[3999.6999999284744,5905.699999928474,8670.5,9515.299999952316],"survey":"map","page":1,"trial_type":"survey-map","trial_index":4,"time_elapsed":136731,"internal_node_id":"0.0-4.0","task_version":"prescreen-v0.3","browser_interactions":0},{"responses":{"Q04":"4","Q05":"4","Q06":"4"},"rt":8114,"radio_events":[3472,5232.200000047684,7364.600000023842],"key_events":[],"mouse_events":[3472,5232.200000047684,7364.600000023842,8113.700000047684],"survey":"map","page":2,"trial_type":"survey-map","trial_index":5,"time_elapsed":144847,"internal_node_id":"0.0-5.0","task_version":"prescreen-v0.3","browser_interactions":0},{"responses":{"Q07":"3","Q08":"4","Q09":"3"},"rt":12866.800000071526,"radio_events":[4934,7871.600000023842,9489.100000023842,11803.899999976158],"key_events":[],"mouse_events":[4934,7871.600000023842,9489.100000023842,11803.899999976158,12865.800000071526],"survey":"map","page":3,"trial_type":"survey-map","trial_index":6,"time_elapsed":157716,"internal_node_id":"0.0-6.0","task_version":"prescreen-v0.3","browser_interactions":0},{"responses":{"Q10":"4","Q11":"4","Q12":"2","Q13":"2","Q16":"0","Q14":"4","Q15":"4"},"rt":23019.100000023842,"radio_events":[2978,5123.100000023842,9914.200000047684,13441.100000023842,16802,20371.300000071526,22287],"key_events":[],"mouse_events":[2978,5123.100000023842,8933.600000023842,9914.200000047684,13441.100000023842,16802,20371.300000071526,22287,23017.399999976158],"survey":"map","page":4,"trial_type":"survey-map","trial_index":7,"time_elapsed":180741,"internal_node_id":"0.0-7.0","task_version":"prescreen-v0.3","browser_interactions":0,"infrequency":0},{"view_history":[{"page_index":0,"viewing_time":1738},{"page_index":1,"viewing_time":3028.100000023842}],"rt":4766.5,"trial_type":"instructions","trial_index":8,"time_elapsed":185509,"internal_node_id":"0.0-8.0","task_version":"prescreen-v0.3"},{"responses":{"01":"Yes","01_ages_4":"4","01_ages_5":"5","01_ages_6":"6","01_ages_7":"7","01_ages_8":"8","01_ages_9":"9","01_ages_10":"10","01_ages_11":"11","01_ages_12":"12","01_ages_13":"13","01_ages_14":"14","01_ages_15":"15","01_ages_16":"16","01_ages_17":"17","02":"Yes","02_ages_4":"4","02_ages_5":"5","02_ages_6":"6","02_ages_7":"7","02_ages_8":"8","02_ages_9":"9","02_ages_10":"10","02_ages_11":"11","02_ages_12":"12","02_ages_13":"13","02_ages_14":"14","02_ages_15":"15","02_ages_16":"16","02_ages_17":"17","02_ages_18":"18","03":"No","04":"No","05":"No","06":"No"},"rt":67586.10000002384,"item_order":[0,1,2,3,4,5],"radio_events":[4347.100000023842,24787.5,42297.699999928474,44508.299999952316,45853.60000002384,48180.89999997616,66612.79999995232],"checkbox_events":[10215.799999952316,11062.600000023842,11721.299999952316,12381.5,13003.600000023842,13740.199999928474,14469.699999928474,15802.799999952316,16525,17184.299999952316,17936.899999976158,18914.699999928474,19545.899999976158,20233.100000023842,28078.399999976158,28911.100000023842,29508.199999928474,30482.799999952316,31107.399999976158,31927.100000023842,32522.199999928474,33127.699999928474,33690.10000002384,34328.199999928474,35335,35986.5,36570.199999928474,37314.299999952316,38075.89999997616],"key_events":[],"mouse_events":[0.10000002384185791,4347.100000023842,10215.799999952316,11062.600000023842,11721.299999952316,12381.5,13003.600000023842,13740.199999928474,14469.699999928474,15802.799999952316,16525,17184.299999952316,17936.899999976158,18914.699999928474,19545.899999976158,20233.100000023842,24787.5,28078.399999976158,28911.100000023842,29508.199999928474,30482.799999952316,31107.399999976158,31927.100000023842,32522.199999928474,33127.699999928474,33690.10000002384,34328.199999928474,35335,35986.5,36570.199999928474,37314.299999952316,38075.89999997616,42297.699999928474,44508.299999952316,45853.60000002384,48180.89999997616,66612.79999995232,67579.79999995232],"honeypot":0,"survey":"mace","page":1,"trial_type":"survey-mace","trial_index":9,"time_elapsed":253104,"internal_node_id":"0.0-9.0","task_version":"prescreen-v0.3","browser_interactions":0},{"responses":{"01":"No","02":"No","03":"Yes","03_ages_4":"4","03_ages_5":"5","03_ages_6":"6","04":"Yes","04_ages_4":"4","04_ages_5":"5","04_ages_6":"6","05":"No","06":"No","07":"No","08":"No"},"rt":25503.699999928474,"item_order":[0,1,2,3,4,5,6,7],"radio_events":[2553.1999999284744,4350.799999952316,5412.599999904633,13250.799999952316,20604.699999928474,21878.599999904633,22910.599999904633,24882.299999952316],"checkbox_events":[6544.5,7662.699999928474,8280.199999928474,14170.799999952316,16421.799999952316,17889.699999928474],"key_events":[],"mouse_events":[2553.1999999284744,4350.799999952316,5412.599999904633,6544.5,7189.599999904633,7662.699999928474,8280.199999928474,13250.799999952316,14170.799999952316,14890.899999976158,15487.099999904633,16421.799999952316,17889.699999928474,20604.699999928474,21878.599999904633,22910.599999904633,24882.299999952316,25500.5],"honeypot":0,"survey":"mace","page":2,"trial_type":"survey-mace","trial_index":10,"time_elapsed":278614,"internal_node_id":"0.0-10.0","task_version":"prescreen-v0.3","browser_interactions":0},{"responses":{"01":"No","02":"No","03":"No","04":"No"},"rt":14300.199999928474,"item_order":[0,1,2,3],"radio_events":[9445.199999928474,11077.899999976158,12409.399999976158,13618.199999928474],"checkbox_events":[],"key_events":[],"mouse_events":[9445.199999928474,11077.899999976158,12409.399999976158,13618.199999928474,14298],"honeypot":0,"survey":"mace","page":3,"trial_type":"survey-mace","trial_index":11,"time_elapsed":292917,"internal_node_id":"0.0-11.0","task_version":"prescreen-v0.3","browser_interactions":0},{"responses":{"01":"No","02":"No"},"rt":4445.5,"item_order":[0,1],"radio_events":[1682.6999999284744,3694.5],"checkbox_events":[],"key_events":[],"mouse_events":[1682.6999999284744,2829.2999999523163,3694.5,4444.600000023842],"honeypot":0,"survey":"mace","page":4,"trial_type":"survey-mace","trial_index":12,"time_elapsed":297365,"internal_node_id":"0.0-12.0","task_version":"prescreen-v0.3","browser_interactions":0},{"responses":{"01":"No","02":"No","03":"No","04":"No","05":"No"},"rt":12213.800000071526,"item_order":[0,1,2,3,4],"radio_events":[3824.600000023842,5621.700000047684,6718.5,8282.600000023842,11538.5],"checkbox_events":[],"key_events":[],"mouse_events":[3824.600000023842,5621.700000047684,6718.5,8282.600000023842,10908.200000047684,11538.5,12211.800000071526],"honeypot":0,"survey":"mace","page":5,"trial_type":"survey-mace","trial_index":13,"time_elapsed":309582,"internal_node_id":"0.0-13.0","task_version":"prescreen-v0.3","browser_interactions":0},{"responses":{"01":"Yes","01_ages_4":"4","01_ages_5":"5","01_ages_6":"6","01_ages_7":"7","01_ages_8":"8","01_ages_9":"9","01_ages_10":"10","01_ages_11":"11","01_ages_12":"12","01_ages_13":"13","01_ages_14":"14","01_ages_15":"15","01_ages_16":"16","01_ages_17":"17","01_ages_18":"18","02":"Yes","02_ages_4":"4","02_ages_5":"5","02_ages_6":"6","02_ages_7":"7","02_ages_8":"8","02_ages_9":"9","02_ages_10":"10","02_ages_11":"11","02_ages_12":"12","02_ages_13":"13","02_ages_14":"14","02_ages_15":"15","02_ages_16":"16","02_ages_17":"17","02_ages_18":"18","03":"Yes","03_ages_11":"11","03_ages_12":"12","03_ages_13":"13","03_ages_14":"14","03_ages_15":"15","03_ages_16":"16","03_ages_17":"17","03_ages_18":"18","04":"Yes","04_ages_12":"12","04_ages_13":"13","04_ages_14":"14","04_ages_15":"15","04_ages_16":"16","04_ages_17":"17","05":"No"},"rt":60519.5,"item_order":[0,1,2,3,4],"radio_events":[6766.299999952316,23493.799999952316,39206.10000002384,50872.89999997616,59760.5],"checkbox_events":[11688.899999976158,12382.899999976158,13292.200000047684,14016.399999976158,14618.600000023842,15222.200000047684,16048.200000047684,16744,17314.600000023842,17884.100000023842,18530.899999976158,19125.600000023842,19729.899999976158,20509,21194.200000047684,26103.799999952316,26763.899999976158,27319.899999976158,27930.799999952316,28522.100000023842,29075.899999976158,29714.5,30485,31054.799999952316,31972.899999976158,32736.799999952316,34061.10000002384,34671.799999952316,35262.10000002384,36173,40480.200000047684,41931.299999952316,44208.39999997616,45156.799999952316,45830.799999952316,46421.5,47152.10000002384,47778,53895.60000002384,55059.299999952316,55711.700000047684,56427.39999997616,56998.60000002384,57892.89999997616],"key_events":[],"mouse_events":[6766.299999952316,11688.899999976158,12382.899999976158,13292.200000047684,14016.399999976158,14618.600000023842,15222.200000047684,16048.200000047684,16744,17314.600000023842,17884.100000023842,18530.899999976158,19125.600000023842,19729.899999976158,20509,21194.200000047684,23493.799999952316,25138.5,26103.799999952316,26763.899999976158,27319.899999976158,27930.799999952316,28522.100000023842,29075.899999976158,29714.5,30485,31054.799999952316,31972.899999976158,32736.799999952316,34061.10000002384,34671.799999952316,35262.10000002384,36173,39206.10000002384,40480.200000047684,41931.299999952316,43207.89999997616,44208.39999997616,45156.799999952316,45830.799999952316,46421.5,47152.10000002384,47778,50872.89999997616,53895.60000002384,54545.200000047684,55059.299999952316,55711.700000047684,56427.39999997616,56998.60000002384,57892.89999997616,59760.5,60517.60000002384],"honeypot":0,"survey":"mace","page":6,"trial_type":"survey-mace","trial_index":14,"time_elapsed":370105,"internal_node_id":"0.0-14.0","task_version":"prescreen-v0.3","browser_interactions":0},{"responses":{"01":"No","02":"Yes","02_ages_15":"15","03":"No","04":"No","05":"No","06":"Yes","06_ages_15":"15","07":"Yes","07_ages_15":"15"},"rt":25894.200000047684,"item_order":[0,1,2,3,4,5,6],"radio_events":[3271.7000000476837,7332.900000095367,11805.5,13112.100000023842,14525.800000071526,18303.700000047684,23033.800000071526],"checkbox_events":[8659.700000047684,19873.300000071526,24433.900000095367],"key_events":[],"mouse_events":[3271.7000000476837,7332.900000095367,8659.700000047684,11805.5,13112.100000023842,14525.800000071526,18303.700000047684,19873.300000071526,23033.800000071526,24433.900000095367,25892],"honeypot":0,"survey":"mace","page":7,"trial_type":"survey-mace","trial_index":15,"time_elapsed":396003,"internal_node_id":"0.0-15.0","task_version":"prescreen-v0.3","browser_interactions":0},{"responses":{"01":"Yes","01_ages_6":"6","01_ages_7":"7","01_ages_8":"8","01_ages_9":"9","01_ages_10":"10","01_ages_11":"11","01_ages_12":"12","01_ages_13":"13","01_ages_14":"14","01_ages_15":"15","01_ages_16":"16","01_ages_17":"17","01_ages_18":"18","02":"No","03":"Yes","03_ages_6":"6","03_ages_7":"7","03_ages_8":"8","03_ages_9":"9","03_ages_10":"10","03_ages_11":"11","03_ages_12":"12","03_ages_13":"13","03_ages_14":"14","03_ages_15":"15","03_ages_16":"16","03_ages_17":"17","03_ages_18":"18","04":"Yes","04_ages_3":"3","04_ages_4":"4","04_ages_5":"5","04_ages_6":"6","04_ages_7":"7","04_ages_8":"8","04_ages_9":"9","04_ages_10":"10","04_ages_11":"11","04_ages_12":"12","04_ages_13":"13","04_ages_14":"14","04_ages_15":"15","04_ages_16":"16","04_ages_17":"17","04_ages_18":"18"},"rt":60881.09999990463,"item_order":[0,1,2,3],"radio_events":[7673.599999904633,28878.799999952316,30376.799999952316,46865.59999990463],"checkbox_events":[12873.399999976158,13554,14199.599999904633,14887.5,15610.599999904633,16366.599999904633,16977.799999952316,17678.599999904633,18414.399999976158,19004,19774.799999952316,20469.699999928474,21343.699999928474,33612.09999990463,34223.199999928474,34822.09999990463,35666.59999990463,37048.5,38161.5,38750.59999990463,39430.199999928474,40007.699999928474,40679.199999928474,41547.09999990463,42747.799999952316,43443.39999997616,49289.199999928474,50589.199999928474,51134.89999997616,51732.39999997616,52385.39999997616,53135.09999990463,53898.39999997616,54463.299999952316,55059.89999997616,55620.39999997616,56307.09999990463,56871.59999990463,57517.699999928474,58049.5,58745,59522.799999952316],"key_events":[],"mouse_events":[7673.599999904633,12873.399999976158,13554,14199.599999904633,14887.5,15610.599999904633,16366.599999904633,16977.799999952316,17678.599999904633,18414.399999976158,19004,19774.799999952316,20469.699999928474,21343.699999928474,28878.799999952316,30376.799999952316,33612.09999990463,34223.199999928474,34822.09999990463,35666.59999990463,36341.199999928474,37048.5,38161.5,38750.59999990463,39430.199999928474,40007.699999928474,40679.199999928474,41547.09999990463,42261.799999952316,42747.799999952316,43443.39999997616,46865.59999990463,49289.199999928474,49892.89999997616,50589.199999928474,51134.89999997616,51732.39999997616,52385.39999997616,53135.09999990463,53898.39999997616,54463.299999952316,55059.89999997616,55620.39999997616,56307.09999990463,56871.59999990463,57517.699999928474,58049.5,58745,59522.799999952316,60877.699999928474],"honeypot":0,"survey":"mace","page":8,"trial_type":"survey-mace","trial_index":16,"time_elapsed":456888,"internal_node_id":"0.0-16.0","task_version":"prescreen-v0.3","browser_interactions":0},{"responses":{"01":"Yes","01_ages_1":"1","01_ages_2":"2","01_ages_3":"3","01_ages_4":"4","01_ages_5":"5","01_ages_7":"7","01_ages_8":"8","01_ages_9":"9","01_ages_10":"10","01_ages_11":"11","01_ages_12":"12","01_ages_13":"13","02":"Yes","02_ages_1":"1","02_ages_2":"2","02_ages_3":"3","02_ages_4":"4","02_ages_5":"5","02_ages_7":"7","02_ages_8":"8","02_ages_9":"9","02_ages_10":"10","02_ages_11":"11","02_ages_12":"12","03":"Yes","03_ages_1":"1","03_ages_2":"2","03_ages_3":"3","03_ages_4":"4","03_ages_5":"5","03_ages_6":"6","03_ages_7":"7","03_ages_8":"8","03_ages_9":"9","03_ages_10":"10","03_ages_11":"11","03_ages_12":"12","03_ages_13":"13","03_ages_14":"14","03_ages_15":"15","03_ages_16":"16","03_ages_17":"17","03_ages_18":"18","04":"Yes","04_ages_1":"1","04_ages_2":"2","04_ages_3":"3","04_ages_4":"4","04_ages_5":"5","04_ages_6":"6","04_ages_7":"7","04_ages_8":"8","04_ages_9":"9","04_ages_10":"10","04_ages_11":"11","04_ages_12":"12","04_ages_13":"13","04_ages_14":"14","04_ages_15":"15","04_ages_16":"16","04_ages_17":"17","04_ages_18":"18"},"rt":66759.39999997616,"item_order":[0,1,2,3],"radio_events":[4082.5,21513.5,33719.10000002384,51381],"checkbox_events":[7130.200000047684,7837.600000023842,8496.700000047684,9364.5,10107,10899.100000023842,13932.600000023842,14627.600000023842,15279.700000047684,16206.100000023842,16827.600000023842,17403.600000023842,18112.899999976158,18875.899999976158,23269.5,23901.399999976158,24465.5,25088.5,26450.100000023842,27247.200000047684,27865,28603.399999976158,29192.100000023842,29795.700000047684,30437.200000047684,35552.10000002384,36170,36814.39999997616,37510.89999997616,38226.200000047684,38792.39999997616,39448.799999952316,40058.5,40599.299999952316,41746.10000002384,42975.700000047684,44604.799999952316,45231,45801.5,46557.299999952316,47189.5,47768.700000047684,48584,52569.200000047684,53161.700000047684,53811.700000047684,54416.200000047684,55090.700000047684,56257.700000047684,57561.200000047684,58855.200000047684,59500.60000002384,60207.700000047684,60924.60000002384,61507.89999997616,62188.299999952316,62766.89999997616,63451.10000002384,64201.799999952316,64865.799999952316,65533.5],"key_events":[],"mouse_events":[4082.5,7130.200000047684,7837.600000023842,8496.700000047684,9364.5,10107,10899.100000023842,13932.600000023842,14627.600000023842,15279.700000047684,16206.100000023842,16827.600000023842,17403.600000023842,18112.899999976158,18875.899999976158,21513.5,23269.5,23901.399999976158,24465.5,25088.5,25733.600000023842,26450.100000023842,27247.200000047684,27865,28603.399999976158,29192.100000023842,29795.700000047684,30437.200000047684,31163.5,33719.10000002384,35552.10000002384,36170,36814.39999997616,37510.89999997616,38226.200000047684,38792.39999997616,39448.799999952316,40058.5,40599.299999952316,41106.700000047684,41746.10000002384,42975.700000047684,44604.799999952316,45231,45801.5,46557.299999952316,47189.5,47768.700000047684,48584,51381,52569.200000047684,53161.700000047684,53811.700000047684,54416.200000047684,55090.700000047684,55665.39999997616,56257.700000047684,56908.60000002384,57561.200000047684,58306.60000002384,58855.200000047684,59500.60000002384,60207.700000047684,60924.60000002384,61507.89999997616,62188.299999952316,62766.89999997616,63451.10000002384,64201.799999952316,64865.799999952316,65533.5,66755.79999995232],"honeypot":0,"survey":"mace","page":9,"trial_type":"survey-mace","trial_index":17,"time_elapsed":523651,"internal_node_id":"0.0-17.0","task_version":"prescreen-v0.3","browser_interactions":0},{"responses":{"01":"No","02":"No","03":"Yes","03_ages_8":"8","03_ages_9":"9","03_ages_10":"10","03_ages_11":"11","03_ages_12":"12","03_ages_13":"13","03_ages_14":"14","03_ages_15":"15","03_ages_16":"16","03_ages_17":"17","03_ages_18":"18","04":"Yes","04_ages_8":"8","04_ages_9":"9","04_ages_10":"10","04_ages_11":"11","04_ages_12":"12","04_ages_13":"13","04_ages_14":"14","04_ages_15":"15","04_ages_16":"16","04_ages_17":"17","04_ages_18":"18","05":"Yes","05_ages_1":"1","05_ages_2":"2","05_ages_3":"3","05_ages_4":"4","05_ages_5":"5","05_ages_6":"6","05_ages_7":"7","05_ages_8":"8","05_ages_9":"9","05_ages_10":"10","05_ages_11":"11","05_ages_12":"12","05_ages_13":"13","05_ages_14":"14","05_ages_15":"15","05_ages_16":"16","05_ages_17":"17","05_ages_18":"18","06":"Yes","06_ages_17":"17","07":"Yes","07_ages_1":"1","07_ages_2":"2","07_ages_3":"3","07_ages_4":"4","07_ages_5":"5","07_ages_6":"6","07_ages_7":"7","07_ages_8":"8","07_ages_9":"9","07_ages_10":"10","07_ages_11":"11","07_ages_12":"12","07_ages_13":"13","07_ages_14":"14","07_ages_15":"15","07_ages_16":"16","07_ages_17":"17","07_ages_18":"18","08":"Yes","08_ages_1":"1","08_ages_2":"2","08_ages_3":"3","08_ages_4":"4","08_ages_5":"5","08_ages_6":"6","08_ages_7":"7","08_ages_8":"8","08_ages_9":"9","08_ages_10":"10","08_ages_11":"11","08_ages_12":"12","08_ages_13":"13","08_ages_14":"14","08_ages_15":"15"},"rt":85635,"item_order":[0,1,2,3,4,5,6,7],"radio_events":[2432.399999976158,4445.899999976158,5523.699999928474,15540.799999952316,29002.899999976158,46438.299999952316,52429.39999997616,71579.10000002384],"checkbox_events":[6551.600000023842,7566.699999928474,8923.799999952316,9548.399999976158,10146.600000023842,10714.799999952316,11307.399999976158,11888.699999928474,13362.899999976158,13881.100000023842,14596.399999976158,17791.799999952316,19052.899999976158,19748.199999928474,20316.5,20913.899999976158,21443.5,22129.299999952316,24073,24809.799999952316,26170.199999928474,26975.299999952316,27538.299999952316,28130.100000023842,31211,31969.100000023842,32551.899999976158,33724.60000002384,34834.5,35390.39999997616,36049,36633.60000002384,37300.299999952316,37945.89999997616,38565.39999997616,39162.199999928474,40468.299999952316,41015.5,41828.699999928474,43960.799999952316,44547.699999928474,45195.10000002384,48221.199999928474,55979.199999928474,56623.199999928474,57179.199999928474,57761.299999952316,58275.39999997616,58804.799999952316,61019.199999928474,61587.299999952316,62859.5,63454.699999928474,64038.39999997616,64664,65295,66023.19999992847,67288.39999997616,68468.5,69142.5,69886.19999992847,74383.19999992847,74982.5,75556.89999997616,76155.19999992847,76826.60000002384,77954.79999995232,78507.39999997616,79153.39999997616,79792.69999992847,80430.19999992847,81014,81555.10000002384,82805.29999995232,83478.89999997616,84738.60000002384],"key_events":[],"mouse_events":[2432.399999976158,4445.899999976158,5523.699999928474,6551.600000023842,7041.100000023842,7566.699999928474,8923.799999952316,9548.399999976158,10146.600000023842,10714.799999952316,11307.399999976158,11888.699999928474,12555.100000023842,13362.899999976158,13881.100000023842,14596.399999976158,15540.799999952316,17791.799999952316,19052.899999976158,19748.199999928474,20316.5,20913.899999976158,21443.5,22129.299999952316,22746.399999976158,23376.399999976158,24073,24809.799999952316,25496.899999976158,26170.199999928474,26975.299999952316,27538.299999952316,28130.100000023842,29002.899999976158,31211,31969.100000023842,32551.899999976158,33161.39999997616,33724.60000002384,34282.199999928474,34834.5,35390.39999997616,36049,36633.60000002384,37300.299999952316,37945.89999997616,38565.39999997616,39162.199999928474,39884.699999928474,40468.299999952316,41015.5,41828.699999928474,42721.89999997616,43960.799999952316,44547.699999928474,45195.10000002384,46438.299999952316,48221.199999928474,52429.39999997616,55979.199999928474,56623.199999928474,57179.199999928474,57761.299999952316,58275.39999997616,58804.799999952316,59628.60000002384,60448.5,61019.199999928474,61587.299999952316,62267.199999928474,62859.5,63454.699999928474,64038.39999997616,64664,65295,66023.19999992847,66699.60000002384,67288.39999997616,67898.79999995232,68468.5,69142.5,69886.19999992847,71579.10000002384,73642.39999997616,74383.19999992847,74982.5,75556.89999997616,76155.19999992847,76826.60000002384,77445.89999997616,77954.79999995232,78507.39999997616,79153.39999997616,79792.69999992847,80430.19999992847,81014,81555.10000002384,82224.19999992847,82805.29999995232,83478.89999997616,84117.60000002384,84738.60000002384,85626.39999997616],"honeypot":0,"survey":"mace","page":10,"trial_type":"survey-mace","trial_index":18,"time_elapsed":609296,"internal_node_id":"0.0-18.0","task_version":"prescreen-v0.3","browser_interactions":0,"instructed":0},{"rt":6883.600000023842,"trial_type":"mental-health-alert","trial_index":19,"time_elapsed":616183,"internal_node_id":"0.0-19.0","task_version":"prescreen-v0.3","interactions":"[]"}]