[{"view_history":[{"page_index":0,"viewing_time":9448.600000143051},{"page_index":1,"viewing_time":3383.5},{"page_index":2,"viewing_time":158280},{"page_index":3,"viewing_time":921.8999998569489}],"rt":172034.30000019073,"trial_type":"instructions","trial_index":0,"time_elapsed":172050,"internal_node_id":"0.0-0.0","task_version":"prescreen-v0.3"},{"rt":9680,"responses":{"age":"24","gender-categorical":"Female","gender-free-response":"","ethnicity":"Not Hispanic or Latino","race":["White"],"education":"Bachelor degree"},"trial_type":"survey-demo","trial_index":1,"time_elapsed":181735,"internal_node_id":"0.0-1.0","task_version":"prescreen-v0.3"},{"responses":{"Q08":"1","Q16":"1","Q19":"0","Q01":"1","Q03":"0","Q05":"0","Q18":"0","Q02":"2","Q12":"0","Q07":"0","Q11":"0","Q13":"0","Q21":"3","Q14":"0","Q09":"0","Q17":"0","Q20":"1","Q06":"0","Q15":"0","Q10":"0","Q04":"2"},"rt":90933,"item_order":[7,15,18,0,2,4,17,1,11,6,10,12,20,13,8,16,19,5,14,9,3],"radio_events":[5452.799999952316,10790.900000095367,11481,15326.900000095367,16967.299999952316,20199.10000014305,26939,40387.10000014305,45057,58460.90000009537,61956.90000009537,63876.90000009537,65071,70099,74258.79999995232,76499,77580.90000009537,78730.79999995232,79964.90000009537,82014.90000009537,83968.90000009537,85534.79999995232,89532.90000009537,90132.90000009537],"key_events":[],"mouse_events":[5452.799999952316,10790.900000095367,11481,15326.900000095367,16967.299999952316,20199.10000014305,26554.799999952316,26939,40387.10000014305,45057,58460.90000009537,61956.90000009537,63876.90000009537,65071,70099,73280.5,74258.79999995232,76499,77580.90000009537,78730.79999995232,79964.90000009537,82014.90000009537,83968.90000009537,85534.79999995232,89532.90000009537,90132.90000009537,90931],"straightlining":0.6666666666666666,"zigzagging":0.35,"honeypot":0,"survey":"sns","trial_type":"survey-template","trial_index":2,"time_elapsed":272673,"internal_node_id":"0.0-2.0","task_version":"prescreen-v0.3","browser_interactions":0,"infrequency":0},{"responses":{"Q06":"3","Q10":"2","Q04":"2","Q03":"2","Q08":"3","Q11":"2","Q05":"3","Q07":"3","Q02":"2","Q09":"2","Q12":"2","Q01":"2","Q13":"0"},"rt":236062.89999985695,"item_order":[5,9,3,2,7,10,4,6,1,8,11,0,12],"radio_events":[115661.5,119017.59999990463,125923.69999980927,128573.5,133315.59999990463,134427.59999990463,209601.79999995232,217417.5,219679.59999990463,225467.59999990463,228153.5,230351.59999990463,232755.59999990463,235251.59999990463],"key_events":[],"mouse_events":[115661.5,119017.59999990463,125485.89999985695,125923.69999980927,128573.5,133315.59999990463,134427.59999990463,209225.5,209601.79999995232,211399.79999995232,211837.69999980927,217417.5,219679.59999990463,225467.59999990463,228153.5,230351.59999990463,232755.59999990463,234667.69999980927,235251.59999990463,236061.79999995232],"straightlining":0.6153846153846154,"zigzagging":0.4166666666666667,"honeypot":0,"survey":"bisbas","trial_type":"survey-template","trial_index":3,"time_elapsed":508739,"internal_node_id":"0.0-3.0","task_version":"prescreen-v0.3","browser_interactions":4,"infrequency":0},{"responses":{"Q01":"4","Q02":"2","Q03":"2"},"rt":18290.400000095367,"radio_events":[11479.700000047684,14421.799999952316,17483.60000014305],"key_events":[],"mouse_events":[11479.700000047684,14421.799999952316,17483.60000014305,18289.799999952316],"survey":"map","page":1,"trial_type":"survey-map","trial_index":4,"time_elapsed":527033,"internal_node_id":"0.0-4.0","task_version":"prescreen-v0.3","browser_interactions":0},{"responses":{"Q04":"3","Q05":"3","Q06":"3"},"rt":18325.200000047684,"radio_events":[4699,12297.200000047684,17865.400000095367],"key_events":[],"mouse_events":[4699,12297.200000047684,17514.599999904633,17865.400000095367,18324.799999952316],"survey":"map","page":2,"trial_type":"survey-map","trial_index":5,"time_elapsed":545360,"internal_node_id":"0.0-5.0","task_version":"prescreen-v0.3","browser_interactions":0},{"responses":{"Q07":"4","Q08":"4","Q09":"4"},"rt":78456.10000014305,"radio_events":[64067.90000009537,69109.90000009537,77889.80000019073],"key_events":[],"mouse_events":[64067.90000009537,69109.90000009537,77889.80000019073,78455.60000014305],"survey":"map","page":3,"trial_type":"survey-map","trial_index":6,"time_elapsed":623817,"internal_node_id":"0.0-6.0","task_version":"prescreen-v0.3","browser_interactions":2},{"responses":{"Q10":"3","Q11":"1","Q12":"2","Q13":"3","Q16":"0","Q14":"3","Q15":"3"},"rt":20186.200000047684,"radio_events":[2637.2000000476837,4317.5,5255.300000190735,8705.400000095367,11159.200000047684,14337.400000095367,16635.300000190735,19685.10000014305],"key_events":[],"mouse_events":[2637.2000000476837,4317.5,5255.300000190735,8209.700000047684,8705.400000095367,11159.200000047684,14337.400000095367,16635.300000190735,19685.10000014305,20185.200000047684],"survey":"map","page":4,"trial_type":"survey-map","trial_index":7,"time_elapsed":644006,"internal_node_id":"0.0-7.0","task_version":"prescreen-v0.3","browser_interactions":0,"infrequency":0},{"view_history":[{"page_index":0,"viewing_time":2930.7999999523163},{"page_index":1,"viewing_time":344019.7999999523}],"rt":346950.7999999523,"trial_type":"instructions","trial_index":8,"time_elapsed":990958,"internal_node_id":"0.0-8.0","task_version":"prescreen-v0.3"},{"responses":{"01":"No","02":"No","03":"No","04":"No","05":"No","06":"No"},"rt":17024.799999952316,"item_order":[0,1,2,3,4,5],"radio_events":[8265.799999952316,10273.5,12107.700000047684,13343.899999856949,14339.599999904633,16665.299999952316],"checkbox_events":[],"key_events":[],"mouse_events":[0.09999990463256836,8265.799999952316,10273.5,12107.700000047684,13343.899999856949,14339.599999904633,15925.299999952316,16665.299999952316,17022],"honeypot":0,"survey":"mace","page":1,"trial_type":"survey-mace","trial_index":9,"time_elapsed":1007989,"internal_node_id":"0.0-9.0","task_version":"prescreen-v0.3","browser_interactions":0},{"responses":{"01":"No","02":"No","03":"Yes","03_ages_7":"7","03_ages_8":"8","04":"Yes","04_ages_7":"7","04_ages_8":"8","05":"No","06":"No","07":"No","08":"No"},"rt":101422.60000014305,"item_order":[0,1,2,3,4,5,6,7],"radio_events":[3235,4711,6435.200000047684,51903.40000009537,98219.20000004768,98794.90000009537,99966.79999995232,100901.20000004768],"checkbox_events":[46193,46700.90000009537,53175.10000014305,53510.700000047684],"key_events":[],"mouse_events":[3235,4711,6435.200000047684,46193,46700.90000009537,51903.40000009537,53175.10000014305,53510.700000047684,98219.20000004768,98794.90000009537,99966.79999995232,100901.20000004768,101418.90000009537],"honeypot":0,"survey":"mace","page":2,"trial_type":"survey-mace","trial_index":10,"time_elapsed":1109416,"internal_node_id":"0.0-10.0","task_version":"prescreen-v0.3","browser_interactions":2},{"responses":{"01":"No","02":"No","03":"No","04":"No"},"rt":12092.200000047684,"item_order":[0,1,2,3],"radio_events":[3306.399999856949,7450.299999952316,8544.399999856949,11184.200000047684],"checkbox_events":[],"key_events":[],"mouse_events":[3306.399999856949,7450.299999952316,8544.399999856949,11184.200000047684,12090.399999856949],"honeypot":0,"survey":"mace","page":3,"trial_type":"survey-mace","trial_index":11,"time_elapsed":1121511,"internal_node_id":"0.0-11.0","task_version":"prescreen-v0.3","browser_interactions":0},{"responses":{"01":"No","02":"No"},"rt":4240.299999952316,"item_order":[0,1],"radio_events":[1891,3895],"checkbox_events":[],"key_events":[],"mouse_events":[1891,3895,4239.299999952316],"honeypot":0,"survey":"mace","page":4,"trial_type":"survey-mace","trial_index":12,"time_elapsed":1125754,"internal_node_id":"0.0-12.0","task_version":"prescreen-v0.3","browser_interactions":0},{"responses":{"01":"No","02":"No","03":"No","04":"No","05":"No"},"rt":7464.299999952316,"item_order":[0,1,2,3,4],"radio_events":[3054.2999999523163,4570.5,5586.299999952316,6400,6918.299999952316],"checkbox_events":[],"key_events":[],"mouse_events":[3054.2999999523163,4570.5,5586.299999952316,6400,6918.299999952316,7462.099999904633],"honeypot":0,"survey":"mace","page":5,"trial_type":"survey-mace","trial_index":13,"time_elapsed":1133222,"internal_node_id":"0.0-13.0","task_version":"prescreen-v0.3","browser_interactions":0},{"responses":{"01":"Yes","01_ages_11":"11","01_ages_12":"12","01_ages_13":"13","02":"Yes","02_ages_11":"11","02_ages_12":"12","02_ages_13":"13","03":"Yes","03_ages_11":"11","03_ages_12":"12","03_ages_13":"13","03_ages_14":"14","04":"No","05":"No"},"rt":59058.59999990463,"item_order":[0,1,2,3,4],"radio_events":[36456.40000009537,45850.59999990463,49816.90000009537,57090.40000009537,58680.5],"checkbox_events":[38604.5,39338.700000047684,39652.59999990463,42017.200000047684,42768.5,46851.59999990463,47156.5,47706.299999952316,51320.700000047684,51990.5,53198.59999990463,53656.90000009537],"key_events":[],"mouse_events":[36456.40000009537,38604.5,39338.700000047684,39652.59999990463,42017.200000047684,42486.799999952316,42768.5,45246.59999990463,45552.5,45850.59999990463,46851.59999990463,47156.5,47706.299999952316,49816.90000009537,50590.799999952316,51320.700000047684,51640.90000009537,51990.5,52495,53198.59999990463,53656.90000009537,57090.40000009537,58680.5,59056.59999990463],"honeypot":0,"survey":"mace","page":6,"trial_type":"survey-mace","trial_index":14,"time_elapsed":1192283,"internal_node_id":"0.0-14.0","task_version":"prescreen-v0.3","browser_interactions":4},{"responses":{"01":"No","02":"No","03":"No","04":"No","05":"No","06":"No","07":"No"},"rt":10511.5,"item_order":[0,1,2,3,4,5,6],"radio_events":[3377,3826.5999999046326,5846.399999856949,6814.5,8124.599999904633,8982.299999952316,9994.299999952316],"checkbox_events":[],"key_events":[],"mouse_events":[2214.0999999046326,3377,3826.5999999046326,5846.399999856949,6814.5,8124.599999904633,8982.299999952316,9994.299999952316,10508.299999952316],"honeypot":0,"survey":"mace","page":7,"trial_type":"survey-mace","trial_index":15,"time_elapsed":1202799,"internal_node_id":"0.0-15.0","task_version":"prescreen-v0.3","browser_interactions":0},{"responses":{"01":"No","02":"No","03":"No","04":"No"},"rt":12200.399999856949,"item_order":[0,1,2,3],"radio_events":[3741.5,6781.099999904633,10917,11603.599999904633],"checkbox_events":[],"key_events":[],"mouse_events":[3741.5,6781.099999904633,10917,11603.599999904633,11943.099999904633,12198.799999952316],"honeypot":0,"survey":"mace","page":8,"trial_type":"survey-mace","trial_index":16,"time_elapsed":1215002,"internal_node_id":"0.0-16.0","task_version":"prescreen-v0.3","browser_interactions":0},{"responses":{"01":"Yes","01_ages_1":"1","01_ages_2":"2","01_ages_3":"3","01_ages_4":"4","01_ages_5":"5","01_ages_6":"6","01_ages_7":"7","01_ages_8":"8","01_ages_9":"9","01_ages_10":"10","01_ages_11":"11","01_ages_12":"12","01_ages_13":"13","01_ages_14":"14","01_ages_15":"15","01_ages_16":"16","01_ages_17":"17","01_ages_18":"18","02":"Yes","02_ages_1":"1","02_ages_2":"2","02_ages_3":"3","02_ages_4":"4","02_ages_5":"5","02_ages_6":"6","02_ages_7":"7","02_ages_8":"8","02_ages_9":"9","02_ages_10":"10","02_ages_11":"11","02_ages_12":"12","02_ages_13":"13","02_ages_14":"14","02_ages_15":"15","02_ages_16":"16","02_ages_17":"17","02_ages_18":"18","03":"Yes","03_ages_1":"1","03_ages_2":"2","03_ages_3":"3","03_ages_4":"4","03_ages_5":"5","03_ages_6":"6","03_ages_7":"7","03_ages_8":"8","03_ages_9":"9","03_ages_10":"10","03_ages_11":"11","03_ages_12":"12","03_ages_13":"13","03_ages_14":"14","03_ages_15":"15","03_ages_16":"16","03_ages_17":"17","03_ages_18":"18","04":"Yes","04_ages_1":"1","04_ages_2":"2","04_ages_3":"3","04_ages_4":"4","04_ages_5":"5","04_ages_6":"6","04_ages_7":"7","04_ages_8":"8","04_ages_9":"9","04_ages_10":"10","04_ages_11":"11","04_ages_12":"12","04_ages_13":"13","04_ages_14":"14","04_ages_15":"15","04_ages_16":"16","04_ages_17":"17","04_ages_18":"18"},"rt":59755.90000009537,"item_order":[0,1,2,3],"radio_events":[3991.600000143051,23851.900000095367,37041.700000047684,49063.800000190735],"checkbox_events":[8938.200000047684,9367.900000095367,9902.100000143051,11000.100000143051,11343.900000095367,12689.800000190735,13343.800000190735,14174.400000095367,14491.900000095367,15413.800000190735,15821.900000095367,16329.700000047684,17335.60000014305,18127.800000190735,18789.700000047684,19395.900000095367,19871.900000095367,21760.200000047684,24864.400000095367,25220.10000014305,25562,26096,26441.700000047684,26830.10000014305,27140.10000014305,27449.800000190735,27925.700000047684,28852.200000047684,29409.800000190735,30074.200000047684,30496.300000190735,30891.700000047684,31202,31619.700000047684,32508.200000047684,32984.10000014305,33375.700000047684,34193.800000190735,34584.40000009537,35181.90000009537,38103.700000047684,38774.200000047684,39909.700000047684,40347.800000190735,40809.60000014305,41240.300000190735,41906.40000009537,42313.90000009537,42751.800000190735,43173.90000009537,43549.90000009537,43947.90000009537,44545.800000190735,44863.90000009537,45442.200000047684,45818.200000047684,46182.10000014305,46603.90000009537,50191.90000009537,50541.90000009537,50930.40000009537,51575.800000190735,52223.5,52682.300000190735,53332.10000014305,53723.800000190735,54619.60000014305,54979.800000190735,55402.200000047684,55806.200000047684,56231.700000047684,56964.40000009537,57382,57839.800000190735,58579.800000190735,58951.700000047684],"key_events":[],"mouse_events":[3991.600000143051,8643.800000190735,8938.200000047684,9367.900000095367,9902.100000143051,10518.300000190735,11000.100000143051,11343.900000095367,12689.800000190735,13096.400000095367,13343.800000190735,13759.700000047684,14174.400000095367,14491.900000095367,14831.900000095367,15083.800000190735,15413.800000190735,15821.900000095367,16329.700000047684,16859.5,17335.60000014305,17767.800000190735,18127.800000190735,18503.900000095367,18789.700000047684,19395.900000095367,19871.900000095367,21760.200000047684,23851.900000095367,24864.400000095367,25220.10000014305,25562,26096,26441.700000047684,26830.10000014305,27140.10000014305,27449.800000190735,27925.700000047684,28520.60000014305,28852.200000047684,29409.800000190735,30074.200000047684,30496.300000190735,30891.700000047684,31202,31619.700000047684,32243.700000047684,32508.200000047684,32984.10000014305,33375.700000047684,33801.800000190735,34193.800000190735,34584.40000009537,35181.90000009537,36777.90000009537,37041.700000047684,38103.700000047684,38480.40000009537,38774.200000047684,39143.800000190735,39480,39909.700000047684,40347.800000190735,40809.60000014305,41240.300000190735,41623.60000014305,41906.40000009537,42313.90000009537,42751.800000190735,43173.90000009537,43549.90000009537,43947.90000009537,44545.800000190735,44863.90000009537,45442.200000047684,45818.200000047684,46182.10000014305,46603.90000009537,49063.800000190735,49922.10000014305,50191.90000009537,50541.90000009537,50930.40000009537,51302,51575.800000190735,51968.10000014305,52223.5,52682.300000190735,53103.800000190735,53332.10000014305,53723.800000190735,54619.60000014305,54979.800000190735,55402.200000047684,55806.200000047684,56231.700000047684,56964.40000009537,57382,57839.800000190735,58579.800000190735,58951.700000047684,59754],"honeypot":0,"survey":"mace","page":9,"trial_type":"survey-mace","trial_index":17,"time_elapsed":1274761,"internal_node_id":"0.0-17.0","task_version":"prescreen-v0.3","browser_interactions":0},{"responses":{"01":"No","02":"No","03":"Yes","03_ages_14":"14","03_ages_15":"15","03_ages_16":"16","03_ages_17":"17","03_ages_18":"18","04":"Yes","04_ages_8":"8","04_ages_9":"9","05":"No","06":"Yes","06_ages_17":"17","07":"Yes","07_ages_1":"1","07_ages_2":"2","07_ages_3":"3","07_ages_4":"4","07_ages_5":"5","07_ages_6":"6","07_ages_7":"7","07_ages_8":"8","07_ages_9":"9","07_ages_10":"10","07_ages_11":"11","07_ages_12":"12","07_ages_13":"13","07_ages_14":"14","07_ages_15":"15","07_ages_16":"16","07_ages_17":"17","07_ages_18":"18","08":"Yes","08_ages_1":"1","08_ages_2":"2","08_ages_3":"3","08_ages_4":"4","08_ages_5":"5","08_ages_6":"6","08_ages_7":"7","08_ages_8":"8","08_ages_9":"9","08_ages_10":"10","08_ages_11":"11","08_ages_12":"12","08_ages_13":"13","08_ages_14":"14","08_ages_15":"15","08_ages_16":"16","08_ages_17":"17","08_ages_18":"18"},"rt":3305469.2999999523,"item_order":[0,1,2,3,4,5,6,7],"radio_events":[35124.299999952316,35732.09999990463,37739.700000047684,43898.200000047684,47935.799999952316,279732,283335.40000009537,3297009.4000000954],"checkbox_events":[39446,40157.700000047684,40732,41146.200000047684,41571.90000009537,45182.40000009537,45583.799999952316,280757.40000009537,284629.5,285357.7000000477,285811.5,286237.2999999523,286643.59999990463,287307.7000000477,288213.5,289118.2999999523,289577.59999990463,289895.7000000477,290246.09999990463,290887.7999999523,291373.90000009537,291706,292803.5,293631.7999999523,295251.90000009537,295664.2999999523,3298237.2999999523,3298571.2999999523,3298915.2000000477,3299228.7999999523,3299547.2999999523,3299885,3300195.2000000477,3300857.5999999046,3301183.5,3301473.0999999046,3301817.2000000477,3302275.7000000477,3302899.2999999523,3303221.4000000954,3303685.4000000954,3304039.5999999046,3304405.2999999523,3304841.2999999523],"key_events":[],"mouse_events":[35124.299999952316,35732.09999990463,37739.700000047684,39446,39860.200000047684,40157.700000047684,40732,41146.200000047684,41571.90000009537,43898.200000047684,45182.40000009537,45583.799999952316,47935.799999952316,279732,280757.40000009537,283335.40000009537,284629.5,285051.7000000477,285357.7000000477,285811.5,286237.2999999523,286643.59999990463,286977.7000000477,287307.7000000477,288213.5,289118.2999999523,289577.59999990463,289895.7000000477,290246.09999990463,290629.90000009537,290887.7999999523,291373.90000009537,291706,292097.7000000477,292461.40000009537,292803.5,293334.09999990463,293631.7999999523,294125.5,294643.7000000477,294977.59999990463,295251.90000009537,295664.2999999523,3297009.4000000954,3298237.2999999523,3298571.2999999523,3298915.2000000477,3299228.7999999523,3299547.2999999523,3299885,3300195.2000000477,3300535.2999999523,3300857.5999999046,3301183.5,3301473.0999999046,3301817.2000000477,3302275.7000000477,3302605.2999999523,3302899.2999999523,3303221.4000000954,3303685.4000000954,3304039.5999999046,3304405.2999999523,3304841.2999999523,3305465.7000000477],"honeypot":0,"survey":"mace","page":10,"trial_type":"survey-mace","trial_index":18,"time_elapsed":4580235,"internal_node_id":"0.0-18.0","task_version":"prescreen-v0.3","browser_interactions":6,"instructed":0},{"rt":1945,"trial_type":"mental-health-alert","trial_index":19,"time_elapsed":4582182,"internal_node_id":"0.0-19.0","task_version":"prescreen-v0.3","interactions":"[{\"event\":\"blur\",\"trial\":0,\"time\":17749},{\"event\":\"focus\",\"trial\":0,\"time\":170273},{\"event\":\"blur\",\"trial\":3,\"time\":279546},{\"event\":\"focus\",\"trial\":3,\"time\":318642},{\"event\":\"blur\",\"trial\":3,\"time\":438499},{\"event\":\"focus\",\"trial\":3,\"time\":479200},{\"event\":\"blur\",\"trial\":6,\"time\":555265},{\"event\":\"focus\",\"trial\":6,\"time\":605301},{\"event\":\"blur\",\"trial\":8,\"time\":650665},{\"event\":\"focus\",\"trial\":8,\"time\":989538},{\"event\":\"blur\",\"trial\":10,\"time\":1018114},{\"event\":\"focus\",\"trial\":10,\"time\":1050309},{\"event\":\"blur\",\"trial\":14,\"time\":1138339},{\"event\":\"focus\",\"trial\":14,\"time\":1144093},{\"event\":\"blur\",\"trial\":14,\"time\":1146372},{\"event\":\"focus\",\"trial\":14,\"time\":1168195},{\"event\":\"blur\",\"trial\":18,\"time\":1287662},{\"event\":\"focus\",\"trial\":18,\"time\":1306665},{\"event\":\"blur\",\"trial\":18,\"time\":1347173},{\"event\":\"focus\",\"trial\":18,\"time\":1549347},{\"event\":\"blur\",\"trial\":18,\"time\":1571288},{\"event\":\"focus\",\"trial\":18,\"time\":4569163}]"}]