[{"view_history":[{"page_index":0,"viewing_time":2283.6999999284744},{"page_index":1,"viewing_time":3337.3000000715256},{"page_index":2,"viewing_time":3781.5},{"page_index":3,"viewing_time":901.2999999523163}],"rt":10304.699999928474,"trial_type":"instructions","trial_index":0,"time_elapsed":10326,"internal_node_id":"0.0-0.0","task_version":"prescreen-v0.3"},{"rt":10402.800000071526,"responses":{"age":"20","gender-categorical":"Female","gender-free-response":"","ethnicity":"Not Hispanic or Latino","race":["White"],"education":"Some college"},"trial_type":"survey-demo","trial_index":1,"time_elapsed":20735,"internal_node_id":"0.0-1.0","task_version":"prescreen-v0.3"},{"responses":{"Q15":"3","Q10":"3","Q20":"0","Q11":"3","Q06":"2","Q16":"3","Q03":"2","Q12":"2","Q17":"2","Q04":"2","Q02":"2","Q05":"1","Q21":"3","Q01":"3","Q18":"2","Q19":"2","Q09":"3","Q07":"0","Q14":"2","Q08":"2","Q13":"2"},"rt":95723.29999995232,"item_order":[14,9,19,10,5,15,2,11,16,3,1,4,20,0,17,18,8,6,13,7,12],"radio_events":[16840.600000023842,18505.100000023842,20604,21970.5,26030.299999952316,32368.5,34001.5,41141.299999952316,43151.60000002384,46647.10000002384,48578,57442,61362,63075.799999952316,70840.5,75594.5,80793.69999992847,85824.69999992847,90114.10000002384,92252.5,93926.29999995232],"key_events":[],"mouse_events":[16840.600000023842,18505.100000023842,20604,21970.5,26030.299999952316,32368.5,34001.5,41141.299999952316,43151.60000002384,46647.10000002384,48578,57442,61362,63075.799999952316,70840.5,75594.5,80793.69999992847,85824.69999992847,90114.10000002384,92252.5,93926.29999995232,95720.69999992847],"straightlining":0.5238095238095238,"zigzagging":0.45,"honeypot":0,"survey":"sns","trial_type":"survey-template","trial_index":2,"time_elapsed":116465,"internal_node_id":"0.0-2.0","task_version":"prescreen-v0.3","browser_interactions":0,"infrequency":0},{"responses":{"Q06":"2","Q12":"1","Q07":"2","Q08":"2","Q13":"0","Q03":"2","Q10":"1","Q01":"3","Q11":"1","Q04":"2","Q09":"0","Q05":"2","Q02":"3"},"rt":55976.5,"item_order":[5,11,6,7,12,2,9,0,10,3,8,4,1],"radio_events":[10084.899999976158,12647.399999976158,13814.899999976158,20323.399999976158,25859.399999976158,31266.099999904633,33662.299999952316,38683.59999990463,44308.299999952316,46884.199999928474,49824.89999997616,52943.09999990463,55052.89999997616],"key_events":[],"mouse_events":[10084.899999976158,12647.399999976158,13814.899999976158,20323.399999976158,25859.399999976158,31266.099999904633,33662.299999952316,38683.59999990463,44308.299999952316,46884.199999928474,49824.89999997616,52943.09999990463,55052.89999997616,55974.89999997616],"straightlining":0.46153846153846156,"zigzagging":0.4166666666666667,"honeypot":0,"survey":"bisbas","trial_type":"survey-template","trial_index":3,"time_elapsed":172446,"internal_node_id":"0.0-3.0","task_version":"prescreen-v0.3","browser_interactions":0,"infrequency":0},{"responses":{"Q01":"2","Q02":"1","Q03":"1"},"rt":16780.399999976158,"radio_events":[7341.399999976158,11114.899999976158,15878],"key_events":[],"mouse_events":[7341.399999976158,11114.899999976158,15878,16779.600000023842],"survey":"map","page":1,"trial_type":"survey-map","trial_index":4,"time_elapsed":189231,"internal_node_id":"0.0-4.0","task_version":"prescreen-v0.3","browser_interactions":0},{"responses":{"Q04":"2","Q05":"2","Q06":"2"},"rt":15831.299999952316,"radio_events":[6967.899999976158,12622.399999976158,14929.699999928474],"key_events":[],"mouse_events":[6967.899999976158,12622.399999976158,14929.699999928474,15830.599999904633],"survey":"map","page":2,"trial_type":"survey-map","trial_index":5,"time_elapsed":205064,"internal_node_id":"0.0-5.0","task_version":"prescreen-v0.3","browser_interactions":0},{"responses":{"Q07":"3","Q08":"4","Q09":"2"},"rt":11247.399999976158,"radio_events":[3928.5999999046326,7106.599999904633,10316.599999904633],"key_events":[],"mouse_events":[3928.5999999046326,7106.599999904633,10316.599999904633,11246.799999952316],"survey":"map","page":3,"trial_type":"survey-map","trial_index":6,"time_elapsed":216314,"internal_node_id":"0.0-6.0","task_version":"prescreen-v0.3","browser_interactions":0},{"responses":{"Q10":"0","Q11":"0","Q12":"2","Q13":"2","Q16":"0","Q14":"2","Q15":"1"},"rt":38155.40000009537,"radio_events":[7931,8959.700000047684,16476.800000071526,21495.400000095367,25586.800000071526,31589.400000095367,37086.300000071526],"key_events":[],"mouse_events":[7931,8959.700000047684,16476.800000071526,21495.400000095367,25586.800000071526,31589.400000095367,37086.300000071526,38154.700000047684],"survey":"map","page":4,"trial_type":"survey-map","trial_index":7,"time_elapsed":254472,"internal_node_id":"0.0-7.0","task_version":"prescreen-v0.3","browser_interactions":0,"infrequency":0},{"view_history":[{"page_index":0,"viewing_time":2840.5},{"page_index":1,"viewing_time":5745}],"rt":8586.099999904633,"trial_type":"instructions","trial_index":8,"time_elapsed":263059,"internal_node_id":"0.0-8.0","task_version":"prescreen-v0.3"},{"responses":{"01":"No","02":"No","03":"No","04":"No","05":"No","06":"No"},"rt":21215.5,"item_order":[0,1,2,3,4,5],"radio_events":[9803.699999928474,13666.899999976158,14596.699999928474,15745.799999952316,18527.5,20468.899999976158],"checkbox_events":[],"key_events":[],"mouse_events":[0.09999990463256836,9803.699999928474,13666.899999976158,14596.699999928474,15745.799999952316,18527.5,19784.299999952316,20468.899999976158,21211.799999952316],"honeypot":0,"survey":"mace","page":1,"trial_type":"survey-mace","trial_index":9,"time_elapsed":284280,"internal_node_id":"0.0-9.0","task_version":"prescreen-v0.3","browser_interactions":0},{"responses":{"01":"No","02":"No","03":"No","04":"No","05":"No","06":"No","07":"No","08":"No"},"rt":17399.699999928474,"item_order":[0,1,2,3,4,5,6,7],"radio_events":[5099.5,6713,8000.299999952316,9238.100000023842,11168.899999976158,14041.699999928474,15536.5,16378.199999928474],"checkbox_events":[],"key_events":[],"mouse_events":[5099.5,6713,8000.299999952316,9238.100000023842,11168.899999976158,13634.799999952316,14041.699999928474,15536.5,16378.199999928474,17397.5],"honeypot":0,"survey":"mace","page":2,"trial_type":"survey-mace","trial_index":10,"time_elapsed":301686,"internal_node_id":"0.0-10.0","task_version":"prescreen-v0.3","browser_interactions":0},{"responses":{"01":"No","02":"No","03":"No","04":"No"},"rt":10078.199999928474,"item_order":[0,1,2,3],"radio_events":[5194.100000023842,7115.299999952316,8431.299999952316,9343.5],"checkbox_events":[],"key_events":[],"mouse_events":[5194.100000023842,7115.299999952316,8431.299999952316,9343.5,10075.699999928474],"honeypot":0,"survey":"mace","page":3,"trial_type":"survey-mace","trial_index":11,"time_elapsed":311766,"internal_node_id":"0.0-11.0","task_version":"prescreen-v0.3","browser_interactions":0},{"responses":{"01":"No","02":"No"},"rt":6561.300000071526,"item_order":[0,1],"radio_events":[3509.100000023842,5955.800000071526],"checkbox_events":[],"key_events":[],"mouse_events":[3509.100000023842,5955.800000071526,6559.899999976158],"honeypot":0,"survey":"mace","page":4,"trial_type":"survey-mace","trial_index":12,"time_elapsed":318330,"internal_node_id":"0.0-12.0","task_version":"prescreen-v0.3","browser_interactions":0},{"responses":{"01":"No","02":"No","03":"No","04":"No","05":"No"},"rt":18079.700000047684,"item_order":[0,1,2,3,4],"radio_events":[9630.100000023842,11481.700000047684,12947.200000047684,14709.100000023842,16591.400000095367],"checkbox_events":[],"key_events":[],"mouse_events":[9630.100000023842,11481.700000047684,12947.200000047684,14709.100000023842,16591.400000095367,18076.300000071526],"honeypot":0,"survey":"mace","page":5,"trial_type":"survey-mace","trial_index":13,"time_elapsed":336414,"internal_node_id":"0.0-13.0","task_version":"prescreen-v0.3","browser_interactions":0},{"responses":{"01":"Yes","01_ages_10":"10","01_ages_11":"11","01_ages_12":"12","01_ages_13":"13","01_ages_14":"14","01_ages_15":"15","01_ages_16":"16","01_ages_17":"17","01_ages_18":"18","02":"Yes","02_ages_12":"12","02_ages_13":"13","02_ages_14":"14","02_ages_15":"15","02_ages_16":"16","02_ages_17":"17","02_ages_18":"18","03":"Yes","03_ages_12":"12","03_ages_13":"13","03_ages_14":"14","03_ages_15":"15","03_ages_16":"16","03_ages_17":"17","03_ages_18":"18","04":"Yes","04_ages_12":"12","04_ages_13":"13","04_ages_14":"14","04_ages_15":"15","04_ages_16":"16","04_ages_17":"17","04_ages_18":"18","05":"No"},"rt":53337.60000002384,"item_order":[0,1,2,3,4],"radio_events":[7332.700000047684,26248.400000095367,35072.90000009537,43035,52324],"checkbox_events":[14900,15780.900000095367,17128,17662.800000071526,18326.600000023842,18790.800000071526,19563.900000095367,20038.800000071526,21138.600000023842,27734.800000071526,28676,29170.100000023842,29844.300000071526,30399.200000047684,31081.5,31676.700000047684,36430.60000002384,37133.800000071526,37569.700000047684,38460.60000002384,39034.60000002384,39837,40361.5,45016.10000002384,45452.200000047684,46363.700000047684,46878.40000009537,47472.800000071526,48344,49275.5],"key_events":[],"mouse_events":[7332.700000047684,14900,15780.900000095367,17128,17662.800000071526,18326.600000023842,18790.800000071526,19563.900000095367,20038.800000071526,21138.600000023842,26248.400000095367,27734.800000071526,28676,29170.100000023842,29844.300000071526,30399.200000047684,31081.5,31676.700000047684,34478.800000071526,35072.90000009537,36430.60000002384,37133.800000071526,37569.700000047684,38143.90000009537,38460.60000002384,39034.60000002384,39837,40361.5,42440.800000071526,43035,45016.10000002384,45452.200000047684,46363.700000047684,46878.40000009537,47472.800000071526,48344,49275.5,51661,52324,53334.700000047684],"honeypot":0,"survey":"mace","page":6,"trial_type":"survey-mace","trial_index":14,"time_elapsed":389754,"internal_node_id":"0.0-14.0","task_version":"prescreen-v0.3","browser_interactions":0},{"responses":{"01":"No","02":"No","03":"No","04":"No","05":"No","06":"No","07":"No"},"rt":14162.100000023842,"item_order":[0,1,2,3,4,5,6],"radio_events":[4198.899999976158,6654.399999976158,8942.600000023842,10051.399999976158,11257.5,12386.700000047684,13484.799999952316],"checkbox_events":[],"key_events":[],"mouse_events":[4198.899999976158,6654.399999976158,8942.600000023842,10051.399999976158,11257.5,12386.700000047684,13484.799999952316,14157.899999976158],"honeypot":0,"survey":"mace","page":7,"trial_type":"survey-mace","trial_index":15,"time_elapsed":403921,"internal_node_id":"0.0-15.0","task_version":"prescreen-v0.3","browser_interactions":0},{"responses":{"01":"No","02":"No","03":"No","04":"No"},"rt":13916.699999928474,"item_order":[0,1,2,3],"radio_events":[5835.399999976158,9271.299999952316,11339.600000023842,13161.5],"checkbox_events":[],"key_events":[],"mouse_events":[5835.399999976158,9271.299999952316,11339.600000023842,13161.5,13914.199999928474],"honeypot":0,"survey":"mace","page":8,"trial_type":"survey-mace","trial_index":16,"time_elapsed":417841,"internal_node_id":"0.0-16.0","task_version":"prescreen-v0.3","browser_interactions":0},{"responses":{"01":"Yes","01_ages_6":"6","01_ages_7":"7","01_ages_8":"8","01_ages_9":"9","01_ages_10":"10","01_ages_11":"11","01_ages_12":"12","01_ages_13":"13","01_ages_14":"14","01_ages_15":"15","01_ages_16":"16","01_ages_17":"17","01_ages_18":"18","02":"Yes","02_ages_6":"6","02_ages_7":"7","02_ages_8":"8","02_ages_9":"9","02_ages_10":"10","02_ages_11":"11","02_ages_12":"12","02_ages_13":"13","02_ages_14":"14","02_ages_15":"15","02_ages_16":"16","02_ages_17":"17","02_ages_18":"18","03":"Yes","03_ages_1":"1","03_ages_2":"2","03_ages_3":"3","03_ages_4":"4","03_ages_5":"5","03_ages_6":"6","03_ages_7":"7","03_ages_8":"8","03_ages_9":"9","03_ages_10":"10","03_ages_11":"11","03_ages_12":"12","03_ages_13":"13","03_ages_14":"14","03_ages_15":"15","03_ages_16":"16","04":"Yes","04_ages_1":"1","04_ages_2":"2","04_ages_3":"3","04_ages_4":"4","04_ages_5":"5","04_ages_6":"6","04_ages_7":"7","04_ages_8":"8","04_ages_9":"9","04_ages_10":"10","04_ages_11":"11","04_ages_12":"12","04_ages_13":"13","04_ages_14":"14","04_ages_15":"15","04_ages_16":"16","04_ages_17":"17","04_ages_18":"18"},"rt":63166.5,"item_order":[0,1,2,3],"radio_events":[6220.899999976158,20422.600000023842,32770.800000071526,48498.89999997616],"checkbox_events":[11152.600000023842,11587.700000047684,12539.800000071526,13143.100000023842,13826.399999976158,14430.300000071526,15628.5,16103.800000071526,16698.300000071526,17540,18034.600000023842,19145.200000047684,19630.200000047684,22650.300000071526,23165.399999976158,23908.700000047684,24422.399999976158,25205.700000047684,26185.399999976158,26620.899999976158,27097.399999976158,27829.600000023842,28522.399999976158,28968.399999976158,29622.100000023842,30107.899999976158,34246.800000071526,34761.60000002384,35356,36079.60000002384,36910.39999997616,37504.700000047684,38703.10000002384,39157.800000071526,40792.700000047684,41981.10000002384,42407.39999997616,43200.10000002384,43823.89999997616,44428.39999997616,45142.10000002384,45765.39999997616,50677.60000002384,51361,51885.5,52340.60000002384,52836,53539.10000002384,54697.700000047684,55440.5,55886.700000047684,56629.300000071526,57124.800000071526,58026.10000002384,58659.800000071526,59332.800000071526,59847.700000047684,60550.700000047684,61085.800000071526,61818.60000002384],"key_events":[],"mouse_events":[6220.899999976158,11152.600000023842,11587.700000047684,12539.800000071526,13143.100000023842,13826.399999976158,14430.300000071526,15054.700000047684,15628.5,16103.800000071526,16698.300000071526,17540,18034.600000023842,18520.100000023842,19145.200000047684,19630.200000047684,20422.600000023842,22650.300000071526,23165.399999976158,23908.700000047684,24422.399999976158,25205.700000047684,26185.399999976158,26620.899999976158,27097.399999976158,27829.600000023842,28522.399999976158,28968.399999976158,29622.100000023842,30107.899999976158,32374.899999976158,32770.800000071526,34246.800000071526,34761.60000002384,35356,36079.60000002384,36910.39999997616,37504.700000047684,38703.10000002384,39157.800000071526,40267.700000047684,40792.700000047684,41298.10000002384,41981.10000002384,42407.39999997616,43200.10000002384,43823.89999997616,44428.39999997616,45142.10000002384,45765.39999997616,48498.89999997616,50677.60000002384,51361,51885.5,52340.60000002384,52836,53539.10000002384,53975,54697.700000047684,55440.5,55886.700000047684,56629.300000071526,57124.800000071526,58026.10000002384,58659.800000071526,59332.800000071526,59847.700000047684,60550.700000047684,61085.800000071526,61818.60000002384,63164.89999997616],"honeypot":0,"survey":"mace","page":9,"trial_type":"survey-mace","trial_index":17,"time_elapsed":481011,"internal_node_id":"0.0-17.0","task_version":"prescreen-v0.3","browser_interactions":0},{"responses":{"01":"No","02":"No","03":"No","04":"Yes","04_ages_8":"8","04_ages_9":"9","04_ages_10":"10","04_ages_11":"11","04_ages_12":"12","04_ages_13":"13","04_ages_14":"14","04_ages_15":"15","04_ages_16":"16","05":"No","06":"Yes","06_ages_17":"17","07":"Yes","07_ages_6":"6","07_ages_7":"7","07_ages_8":"8","07_ages_9":"9","07_ages_10":"10","07_ages_11":"11","07_ages_12":"12","07_ages_13":"13","07_ages_14":"14","07_ages_15":"15","07_ages_16":"16","07_ages_17":"17","08":"Yes","08_ages_6":"6","08_ages_7":"7","08_ages_8":"8","08_ages_9":"9","08_ages_10":"10","08_ages_11":"11","08_ages_12":"12","08_ages_13":"13","08_ages_14":"14","08_ages_15":"15","08_ages_16":"16","08_ages_17":"17"},"rt":59170.200000047684,"item_order":[0,1,2,3,4,5,6,7],"radio_events":[4640.5,5887.5,8471.5,10967.400000095367,23246.800000071526,24930.5,33761.5,48830.10000002384],"checkbox_events":[12690.900000095367,13145.600000023842,13977.900000095367,14423.300000071526,15037.900000095367,15978.300000071526,16453.400000095367,17106.600000023842,17899.5,26989.200000047684,36949.200000047684,38167.10000002384,38622.40000009537,39306.10000002384,39751.300000071526,40504.10000002384,41513.800000071526,42869.5,43395.10000002384,44731.90000009537,46909.40000009537,47632.10000002384,51285.200000047684,51681.5,52335.90000009537,52829.5,53582.700000047684,54216,54651.200000047684,55324.40000009537,55759.90000009537,56433.90000009537,56919.300000071526,58571.60000002384],"key_events":[],"mouse_events":[4075.9000000953674,4640.5,5887.5,8471.5,10452.5,10967.400000095367,11858.900000095367,12690.900000095367,13145.600000023842,13977.900000095367,14423.300000071526,15037.900000095367,15978.300000071526,16453.400000095367,17106.600000023842,17899.5,23246.800000071526,24306.400000095367,24930.5,26989.200000047684,33761.5,36949.200000047684,38167.10000002384,38622.40000009537,39306.10000002384,39751.300000071526,40504.10000002384,41513.800000071526,42475.200000047684,42869.5,43395.10000002384,44731.90000009537,46324.800000071526,46909.40000009537,47632.10000002384,48830.10000002384,51285.200000047684,51681.5,52335.90000009537,52829.5,53582.700000047684,54216,54651.200000047684,55324.40000009537,55759.90000009537,56433.90000009537,56919.300000071526,58571.60000002384,59165.90000009537],"honeypot":0,"survey":"mace","page":10,"trial_type":"survey-mace","trial_index":18,"time_elapsed":540185,"internal_node_id":"0.0-18.0","task_version":"prescreen-v0.3","browser_interactions":0,"instructed":0},{"rt":6170.200000047684,"trial_type":"mental-health-alert","trial_index":19,"time_elapsed":546357,"internal_node_id":"0.0-19.0","task_version":"prescreen-v0.3","interactions":"[]"}]