[{"view_history":[{"page_index":0,"viewing_time":13629.200000047684},{"page_index":1,"viewing_time":10945.799999952316},{"page_index":2,"viewing_time":6320.200000047684},{"page_index":3,"viewing_time":1878.5999999642372}],"rt":32775.10000002384,"trial_type":"instructions","trial_index":0,"time_elapsed":32786,"internal_node_id":"0.0-0.0","task_version":"prescreen-v0.3"},{"rt":52531.59999996424,"responses":{"age":"46","gender-categorical":"Male","gender-free-response":"","ethnicity":"Not Hispanic or Latino","race":["White"],"education":"Master degree or higher"},"trial_type":"survey-demo","trial_index":1,"time_elapsed":85324,"internal_node_id":"0.0-1.0","task_version":"prescreen-v0.3"},{"responses":{"Q09":"2","Q13":"0","Q01":"1","Q11":"0","Q04":"0","Q15":"0","Q05":"1","Q16":"0","Q19":"0","Q18":"0","Q12":"1","Q08":"1","Q14":"1","Q20":"0","Q07":"2","Q06":"1","Q21":"3","Q02":"1","Q10":"0","Q17":"3","Q03":"0"},"rt":298379.39999997616,"item_order":[8,12,0,10,3,14,4,15,18,17,11,7,13,19,6,5,20,1,9,16,2],"radio_events":[20235.30000001192,27713.099999964237,31741.099999964237,37569.09999996424,133909.09999996424,135564.39999997616,145701.80000001192,180268.09999996424,191089.39999997616,203859.89999997616,212243.80000001192,219811.80000001192,227455.80000001192,232771.69999998808,249351.5,261423.89999997616,264359.5,271904.3000000119,279311.3000000119,288303.3000000119,292375.1999999881,297359.1999999881],"key_events":[],"mouse_events":[20235.30000001192,26389.19999998808,27713.099999964237,31741.099999964237,37569.09999996424,124076.69999998808,124948.39999997616,133909.09999996424,135156.5,135564.39999997616,145701.80000001192,180268.09999996424,190432,191089.39999997616,202643.80000001192,203859.89999997616,212243.80000001192,219291.80000001192,219811.80000001192,227455.80000001192,232771.69999998808,248827.5,249351.5,261423.89999997616,264359.5,271904.3000000119,279311.3000000119,286793.39999997616,288303.3000000119,292375.1999999881,296175.09999996424,297359.1999999881,298375.3000000119],"straightlining":0.47619047619047616,"zigzagging":0.5,"honeypot":0,"survey":"sns","trial_type":"survey-template","trial_index":2,"time_elapsed":383710,"internal_node_id":"0.0-2.0","task_version":"prescreen-v0.3","browser_interactions":6,"infrequency":0},{"responses":{"Q07":"2","Q09":"3","Q01":"3","Q04":"3","Q12":"2","Q06":"3","Q10":"2","Q13":"0","Q03":"1","Q08":"3","Q05":"3","Q02":"1","Q11":"3"},"rt":258069,"item_order":[6,8,0,3,11,5,9,12,2,7,4,1,10],"radio_events":[7836.799999952316,16308.599999964237,23254.299999952316,32112.69999998808,38828.59999996424,49516.89999997616,57845.69999998808,219300.89999997616,227371.19999998808,238027.09999996424,243019.09999996424,250011.5,257292.59999996424],"key_events":[],"mouse_events":[7836.799999952316,16308.599999964237,23254.299999952316,31336.899999976158,32112.69999998808,38828.59999996424,48836.59999996424,49516.89999997616,56436.5,57181,57845.69999998808,219300.89999997616,227371.19999998808,238027.09999996424,243019.09999996424,250011.5,257292.59999996424,258067.39999997616],"straightlining":0.5384615384615384,"zigzagging":0.4166666666666667,"honeypot":0,"survey":"bisbas","trial_type":"survey-template","trial_index":3,"time_elapsed":641785,"internal_node_id":"0.0-3.0","task_version":"prescreen-v0.3","browser_interactions":4,"infrequency":0},{"responses":{"Q01":"4","Q02":"3","Q03":"4"},"rt":35811.60000002384,"radio_events":[14695,24991.899999976158,34846.69999998808],"key_events":[],"mouse_events":[519.3000000119209,14695,24991.899999976158,34846.69999998808,35810.39999997616],"survey":"map","page":1,"trial_type":"survey-map","trial_index":4,"time_elapsed":677603,"internal_node_id":"0.0-4.0","task_version":"prescreen-v0.3","browser_interactions":0},{"responses":{"Q04":"3","Q05":"3","Q06":"3"},"rt":25277.80000001192,"radio_events":[13096.199999988079,14832,20223.899999976158,24320],"key_events":[],"mouse_events":[11680,13096.199999988079,14244,14832,20223.899999976158,24320,25276.69999998808],"survey":"map","page":2,"trial_type":"survey-map","trial_index":5,"time_elapsed":702884,"internal_node_id":"0.0-5.0","task_version":"prescreen-v0.3","browser_interactions":0},{"responses":{"Q07":"3","Q08":"4","Q09":"3"},"rt":33867.5,"radio_events":[16210.699999988079,23779.69999998808,32614.299999952316],"key_events":[],"mouse_events":[14674.5,16210.699999988079,23779.69999998808,32614.299999952316,33514.299999952316,33866.299999952316],"survey":"map","page":3,"trial_type":"survey-map","trial_index":6,"time_elapsed":736755,"internal_node_id":"0.0-6.0","task_version":"prescreen-v0.3","browser_interactions":0},{"responses":{"Q10":"3","Q11":"4","Q12":"4","Q13":"4","Q16":"0","Q14":"4","Q15":"3"},"rt":104313.30000001192,"radio_events":[15738.900000035763,24274.900000035763,49862.80000001192,63494.60000002384,85282.40000003576,95538.30000001192,103632.20000004768],"key_events":[],"mouse_events":[15195.5,15738.900000035763,23763.200000047684,24274.900000035763,48938.700000047684,49862.80000001192,63494.60000002384,85282.40000003576,94486.40000003576,95538.30000001192,103418.20000004768,103632.20000004768,104310.40000003576],"survey":"map","page":4,"trial_type":"survey-map","trial_index":7,"time_elapsed":841073,"internal_node_id":"0.0-7.0","task_version":"prescreen-v0.3","browser_interactions":2,"infrequency":0},{"view_history":[{"page_index":0,"viewing_time":27865.80000001192},{"page_index":1,"viewing_time":13288.800000011921}],"rt":41156.19999998808,"trial_type":"instructions","trial_index":8,"time_elapsed":882231,"internal_node_id":"0.0-8.0","task_version":"prescreen-v0.3"},{"responses":{"01":"No","02":"No","03":"No","04":"No","05":"No","06":"Yes","06_ages_15":"15","06_ages_16":"16"},"rt":80674.10000002384,"item_order":[0,1,2,3,4,5],"radio_events":[25356.5,36214.10000002384,42700.40000003576,49108.10000002384,53347.80000001192,65115.90000003576],"checkbox_events":[75092.40000003576,75755.70000004768],"key_events":[],"mouse_events":[0.10000002384185791,25356.5,31228.700000047684,36214.10000002384,42700.40000003576,49108.10000002384,53347.80000001192,65115.90000003576,75092.40000003576,75755.70000004768,80664.40000003576],"honeypot":0,"survey":"mace","page":1,"trial_type":"survey-mace","trial_index":9,"time_elapsed":962918,"internal_node_id":"0.0-9.0","task_version":"prescreen-v0.3","browser_interactions":0},{"responses":{"01":"Yes","01_ages_15":"15","01_ages_16":"16","02":"No","03":"No","04":"No","05":"No","06":"No","07":"No","08":"No"},"rt":68037.80000001192,"item_order":[0,1,2,3,4,5,6,7],"radio_events":[11463.199999988079,27338.099999964237,32634,37498.30000001192,46546,54602.30000001192,56929.89999997616,62609.69999998808,67362.80000001192],"checkbox_events":[14380.899999976158,15114],"key_events":[],"mouse_events":[11463.199999988079,14380.899999976158,15114,27338.099999964237,32634,37498.30000001192,46546,54602.30000001192,56258.30000001192,56929.89999997616,62609.69999998808,66801.69999998808,67362.80000001192,68034.09999996424],"honeypot":0,"survey":"mace","page":2,"trial_type":"survey-mace","trial_index":10,"time_elapsed":1030966,"internal_node_id":"0.0-10.0","task_version":"prescreen-v0.3","browser_interactions":0},{"responses":{"01":"No","02":"No","03":"No","04":"No"},"rt":26081,"item_order":[0,1,2,3],"radio_events":[7719.199999988079,12173.899999976158,20382,25141.899999976158],"checkbox_events":[],"key_events":[],"mouse_events":[7719.199999988079,12173.899999976158,19926.19999998808,20382,20918,24137.600000023842,25141.899999976158,25649.5,26077.80000001192],"honeypot":0,"survey":"mace","page":3,"trial_type":"survey-mace","trial_index":11,"time_elapsed":1057052,"internal_node_id":"0.0-11.0","task_version":"prescreen-v0.3","browser_interactions":0},{"responses":{"01":"No","02":"No"},"rt":33505.89999997616,"item_order":[0,1],"radio_events":[6820.699999988079,22912.399999976158],"checkbox_events":[],"key_events":[],"mouse_events":[6820.699999988079,22912.399999976158,33504.39999997616],"honeypot":0,"survey":"mace","page":4,"trial_type":"survey-mace","trial_index":12,"time_elapsed":1090560,"internal_node_id":"0.0-12.0","task_version":"prescreen-v0.3","browser_interactions":0},{"responses":{"01":"No","02":"No","03":"No","04":"No","05":"No"},"rt":73264.90000003576,"item_order":[0,1,2,3,4],"radio_events":[24726.5,26078.30000001192,54654.30000001192,66745,72550.30000001192],"checkbox_events":[],"key_events":[],"mouse_events":[15606.400000035763,24726.5,26078.30000001192,54654.30000001192,66745,71750,72550.30000001192,73262.20000004768],"honeypot":0,"survey":"mace","page":5,"trial_type":"survey-mace","trial_index":13,"time_elapsed":1163831,"internal_node_id":"0.0-13.0","task_version":"prescreen-v0.3","browser_interactions":0},{"responses":{"01":"No","02":"No","03":"No","04":"No","05":"No"},"rt":26566.19999998808,"item_order":[0,1,2,3,4],"radio_events":[8671.399999976158,11001,17679.30000001192,21727.80000001192,25831.19999998808],"checkbox_events":[],"key_events":[],"mouse_events":[8671.399999976158,11001,17344.399999976158,17679.30000001192,21727.80000001192,25831.19999998808,26559.899999976158],"honeypot":0,"survey":"mace","page":6,"trial_type":"survey-mace","trial_index":14,"time_elapsed":1190403,"internal_node_id":"0.0-14.0","task_version":"prescreen-v0.3","browser_interactions":0},{"responses":{"01":"No","02":"No","03":"No","04":"No","04_ages_15":"15","04_ages_16":"16","05":"No","06":"No","07":"No"},"rt":49595.90000003576,"item_order":[0,1,2,3,4,5,6],"radio_events":[5724.5,9879.199999988079,11827.100000023842,24019.900000035763,39666.90000003576,43583.19999998808,48114.80000001192,49002.69999998808],"checkbox_events":[26123,26815.80000001192],"key_events":[],"mouse_events":[4978.900000035763,5724.5,9879.199999988079,11827.100000023842,23402.69999998808,24019.900000035763,25686.5,26123,26815.80000001192,39666.90000003576,43583.19999998808,48114.80000001192,49002.69999998808,49590.69999998808],"honeypot":0,"survey":"mace","page":7,"trial_type":"survey-mace","trial_index":15,"time_elapsed":1240005,"internal_node_id":"0.0-15.0","task_version":"prescreen-v0.3","browser_interactions":0},{"responses":{"01":"No","02":"No","03":"No","04":"No"},"rt":56681.39999997616,"item_order":[0,1,2,3],"radio_events":[19094.899999976158,28053.69999998808,36023,46766.39999997616,50581.59999996424,51653.09999996424,54717.30000001192],"checkbox_events":[],"key_events":[],"mouse_events":[19094.899999976158,27309.19999998808,28053.69999998808,36023,46766.39999997616,48053.39999997616,48678.09999996424,49877.09999996424,50581.59999996424,51653.09999996424,54717.30000001192,55948.89999997616,56678.69999998808],"honeypot":0,"survey":"mace","page":8,"trial_type":"survey-mace","trial_index":16,"time_elapsed":1296691,"internal_node_id":"0.0-16.0","task_version":"prescreen-v0.3","browser_interactions":0},{"responses":{"01":"Yes","01_ages_1":"1","01_ages_2":"2","01_ages_3":"3","01_ages_4":"4","01_ages_5":"5","01_ages_6":"6","01_ages_7":"7","01_ages_8":"8","01_ages_9":"9","01_ages_10":"10","01_ages_11":"11","01_ages_12":"12","01_ages_13":"13","01_ages_14":"14","01_ages_15":"15","01_ages_16":"16","01_ages_17":"17","01_ages_18":"18","02":"Yes","02_ages_1":"1","02_ages_2":"2","02_ages_3":"3","02_ages_4":"4","02_ages_5":"5","02_ages_6":"6","02_ages_7":"7","02_ages_8":"8","02_ages_9":"9","02_ages_10":"10","02_ages_11":"11","02_ages_12":"12","02_ages_13":"13","02_ages_14":"14","02_ages_15":"15","02_ages_16":"16","02_ages_17":"17","02_ages_18":"18","03":"Yes","03_ages_1":"1","03_ages_2":"2","03_ages_3":"3","03_ages_4":"4","03_ages_5":"5","03_ages_6":"6","03_ages_7":"7","03_ages_8":"8","03_ages_9":"9","03_ages_10":"10","03_ages_11":"11","03_ages_12":"12","03_ages_13":"13","03_ages_14":"14","04":"Yes","04_ages_1":"1","04_ages_2":"2","04_ages_3":"3","04_ages_4":"4","04_ages_5":"5","04_ages_6":"6","04_ages_7":"7","04_ages_8":"8","04_ages_9":"9","04_ages_10":"10","04_ages_11":"11","04_ages_12":"12","04_ages_13":"13","04_ages_14":"14"},"rt":105853.30000001192,"item_order":[0,1,2,3],"radio_events":[6183.5,44471.30000001192,64292.5,91947.19999998808],"checkbox_events":[25247.80000001192,26360.099999964237,26795.69999998808,27255.399999976158,28168.099999964237,29369,30071.30000001192,31007.399999976158,31991.399999976158,32695.19999998808,33752.30000001192,35087.89999997616,35535.59999996424,36255.30000001192,37687.19999998808,38247.69999998808,38911.19999998808,41127.5,45920.09999996424,46839.89999997616,47448.89999997616,47991.39999997616,48516.30000001192,49016.80000001192,51031.09999996424,51481.09999996424,52039.19999998808,53047.30000001192,54591.09999996424,55559.19999998808,56219.59999996424,56744.59999996424,57507.19999998808,58583.30000001192,59023.69999998808,59495.5,67831,68360.5,69209.59999996424,69751.80000001192,70259.69999998808,70751.30000001192,71241.5,72495,73527,76543.30000001192,77488.39999997616,78059.80000001192,79443.19999998808,80966.89999997616,94175.5,94684.69999998808,95243.19999998808,95785.59999996424,96299.30000001192,97206.89999997616,98485,99571.19999998808,100084.89999997616,102403.59999996424,102918.09999996424,103410.69999998808,103955.19999998808,104507.19999998808],"key_events":[],"mouse_events":[6183.5,25247.80000001192,25887.399999976158,26360.099999964237,26795.69999998808,27255.399999976158,27743.599999964237,28168.099999964237,28769.099999964237,29369,30071.30000001192,30616.19999998808,31007.399999976158,31536.399999976158,31991.399999976158,32695.19999998808,33752.30000001192,35087.89999997616,35535.59999996424,36255.30000001192,36787.19999998808,37687.19999998808,38247.69999998808,38911.19999998808,39673.39999997616,40419.5,41127.5,43927.19999998808,44471.30000001192,45920.09999996424,46439.09999996424,46839.89999997616,47448.89999997616,47991.39999997616,48516.30000001192,49016.80000001192,51031.09999996424,51481.09999996424,52039.19999998808,52559.30000001192,53047.30000001192,53666.80000001192,54591.09999996424,55559.19999998808,56219.59999996424,56744.59999996424,57507.19999998808,58583.30000001192,59023.69999998808,59495.5,64292.5,67411.09999996424,67831,68360.5,69209.59999996424,69751.80000001192,70259.69999998808,70751.30000001192,71241.5,71815,72495,73527,74635.30000001192,76543.30000001192,77488.39999997616,78059.80000001192,78846.89999997616,79443.19999998808,80314.89999997616,80966.89999997616,91947.19999998808,93715.09999996424,94175.5,94684.69999998808,95243.19999998808,95785.59999996424,96299.30000001192,97206.89999997616,98485,99011.19999998808,99571.19999998808,100084.89999997616,101902.69999998808,102403.59999996424,102918.09999996424,103410.69999998808,103955.19999998808,104507.19999998808,105851.09999996424],"honeypot":0,"survey":"mace","page":9,"trial_type":"survey-mace","trial_index":17,"time_elapsed":1402549,"internal_node_id":"0.0-17.0","task_version":"prescreen-v0.3","browser_interactions":0},{"responses":{"01":"No","02":"No","03":"Yes","03_ages_14":"14","03_ages_15":"15","03_ages_16":"16","03_ages_17":"17","03_ages_18":"18","04":"Yes","04_ages_8":"8","04_ages_9":"9","04_ages_10":"10","04_ages_11":"11","04_ages_12":"12","04_ages_13":"13","04_ages_14":"14","04_ages_15":"15","04_ages_16":"16","04_ages_17":"17","04_ages_18":"18","05":"No","06":"Yes","06_ages_17":"17","07":"Yes","07_ages_1":"1","07_ages_2":"2","07_ages_3":"3","07_ages_4":"4","07_ages_5":"5","07_ages_6":"6","07_ages_7":"7","07_ages_8":"8","07_ages_9":"9","07_ages_10":"10","07_ages_11":"11","07_ages_12":"12","07_ages_13":"13","07_ages_14":"14","07_ages_15":"15","07_ages_16":"16","07_ages_17":"17","07_ages_18":"18","08":"Yes","08_ages_1":"1","08_ages_2":"2","08_ages_3":"3","08_ages_4":"4","08_ages_5":"5","08_ages_6":"6","08_ages_7":"7","08_ages_8":"8","08_ages_9":"9","08_ages_10":"10","08_ages_11":"11","08_ages_12":"12","08_ages_13":"13","08_ages_14":"14","08_ages_15":"15","08_ages_16":"16","08_ages_17":"17","08_ages_18":"18"},"rt":105092.10000002384,"item_order":[0,1,2,3,4,5,6,7],"radio_events":[9799.699999988079,13280.300000011921,18495.5,30239.399999976158,47167.80000001192,51808,64135.10000002384,86871],"checkbox_events":[21301.5,21823.80000001192,22319.399999976158,22800.600000023842,23695.399999976158,33434.19999998808,34527.80000001192,34991.19999998808,35481.39999997616,35983.80000001192,36497.60000002384,36983.5,38343.5,38839.30000001192,39464.19999998808,40129.39999997616,53824.30000001192,65927.19999998808,66799.80000001192,67431.5,68260,68679.10000002384,69151,69615,70079.39999997616,70647.10000002384,71431,72279.39999997616,74063.69999998808,74767,75263,75815.5,77143,78807.89999997616,79623,90217.39999997616,90854.89999997616,92242.80000001192,92849.39999997616,93434.89999997616,93999.19999998808,94495.10000002384,96026.89999997616,96567.10000002384,97082.89999997616,98087.30000001192,99454.89999997616,100342.80000001192,100899.5,101339.5,101832,102632.19999998808,103470.89999997616],"key_events":[],"mouse_events":[9799.699999988079,13280.300000011921,18495.5,21301.5,21823.80000001192,22319.399999976158,22800.600000023842,23207.30000001192,23695.399999976158,29503.19999998808,30239.399999976158,33434.19999998808,34039.5,34527.80000001192,34991.19999998808,35481.39999997616,35983.80000001192,36497.60000002384,36983.5,37582.19999998808,38343.5,38839.30000001192,39464.19999998808,40129.39999997616,47167.80000001192,51808,53824.30000001192,63607.60000002384,64135.10000002384,65927.19999998808,66367.10000002384,66799.80000001192,67431.5,68260,68679.10000002384,69151,69615,70079.39999997616,70647.10000002384,71431,72279.39999997616,74063.69999998808,74767,75263,75815.5,76290.89999997616,77143,77615.5,78807.89999997616,79623,86262.80000001192,86871,89816.10000002384,90217.39999997616,90854.89999997616,91522.80000001192,92242.80000001192,92849.39999997616,93434.89999997616,93999.19999998808,94495.10000002384,96026.89999997616,96567.10000002384,97082.89999997616,98087.30000001192,98765.60000002384,99454.89999997616,100342.80000001192,100899.5,101339.5,101832,102632.19999998808,103470.89999997616,105088.5],"honeypot":0,"survey":"mace","page":10,"trial_type":"survey-mace","trial_index":18,"time_elapsed":1507649,"internal_node_id":"0.0-18.0","task_version":"prescreen-v0.3","browser_interactions":0,"instructed":0},{"rt":6366.699999988079,"trial_type":"mental-health-alert","trial_index":19,"time_elapsed":1514019,"internal_node_id":"0.0-19.0","task_version":"prescreen-v0.3","interactions":"[{\"event\":\"blur\",\"trial\":0,\"time\":4542},{\"event\":\"focus\",\"trial\":0,\"time\":13533},{\"event\":\"blur\",\"trial\":1,\"time\":55626},{\"event\":\"focus\",\"trial\":1,\"time\":72087},{\"event\":\"blur\",\"trial\":2,\"time\":90095},{\"event\":\"focus\",\"trial\":2,\"time\":96889},{\"event\":\"blur\",\"trial\":2,\"time\":97928},{\"event\":\"focus\",\"trial\":2,\"time\":105452},{\"event\":\"blur\",\"trial\":2,\"time\":239902},{\"event\":\"focus\",\"trial\":2,\"time\":251725},{\"event\":\"blur\",\"trial\":3,\"time\":445911},{\"event\":\"focus\",\"trial\":3,\"time\":589092},{\"event\":\"blur\",\"trial\":3,\"time\":591194},{\"event\":\"focus\",\"trial\":3,\"time\":602889},{\"event\":\"blur\",\"trial\":7,\"time\":740858},{\"event\":\"focus\",\"trial\":7,\"time\":751773}]"}]