[{"view_history":[{"page_index":0,"viewing_time":5112.5},{"page_index":1,"viewing_time":10237.40000000596},{"page_index":2,"viewing_time":5958.199999988079},{"page_index":3,"viewing_time":1816.800000011921}],"rt":23127,"trial_type":"instructions","trial_index":0,"time_elapsed":23144,"internal_node_id":"0.0-0.0","task_version":"prescreen-v0.3"},{"rt":45064.20000001788,"responses":{"age":"51","gender-categorical":"Male","gender-free-response":"","ethnicity":"Not Hispanic or Latino","race":["White"],"education":"Some college","siblings":"2"},"trial_type":"survey-demo","trial_index":1,"time_elapsed":68226,"internal_node_id":"0.0-1.0","task_version":"prescreen-v0.3"},{"responses":{"Q12":"1","Q07":"2","Q19":"1","Q17":"0","Q05":"0","Q06":"1","Q02":"2","Q11":"1","Q20":"0","Q03":"3","Q14":"3","Q01":"3","Q09":"1","Q13":"3","Q16":"3","Q21":"3","Q15":"3","Q10":"0","Q04":"3","Q08":"3","Q18":"3"},"rt":165153.40000000596,"item_order":[11,6,18,16,4,5,1,10,19,2,13,0,8,12,15,20,14,9,3,7,17],"radio_events":[11908.200000017881,23137.100000023842,34079.40000000596,42431.20000001788,50249.70000001788,59362.5,64192.80000001192,70065.30000001192,75266.70000001788,82445.60000002384,90502.60000002384,94500.5,101443.80000001192,106319.20000001788,115525.5,122280.40000000596,135665.60000002384,142535.40000000596,149831.80000001192,153172.70000001788,158612.90000000596,164126.60000002384],"key_events":[],"mouse_events":[11908.200000017881,23137.100000023842,25332.80000001192,34079.40000000596,42431.20000001788,50249.70000001788,59362.5,64192.80000001192,65248.10000002384,70065.30000001192,74297.30000001192,75266.70000001788,76256.80000001192,81355.60000002384,82445.60000002384,90502.60000002384,94500.5,95182.20000001788,101443.80000001192,102415.20000001788,106319.20000001788,106991.70000001788,112050,114527.80000001192,115525.5,116284.5,121306.70000001788,122280.40000000596,135665.60000002384,142535.40000000596,149831.80000001192,150609.5,153172.70000001788,153936.10000002384,158612.90000000596,164126.60000002384,165146.5],"straightlining":0.47619047619047616,"zigzagging":0.5,"honeypot":0,"survey":"sns","trial_type":"survey-template","trial_index":2,"time_elapsed":233408,"internal_node_id":"0.0-2.0","task_version":"prescreen-v0.3","browser_interactions":0,"infrequency":0},{"responses":{"Q12":"0","Q01":"1","Q07":"2","Q03":"2","Q04":"2","Q10":"1","Q05":"2","Q06":"2","Q11":"2","Q02":"2","Q13":"0","Q08":"2","Q09":"0"},"rt":183703,"item_order":[11,0,6,2,3,9,4,5,10,1,12,7,8],"radio_events":[7149.9000000059605,11064.40000000596,15605.700000017881,23818.600000023842,31165.40000000596,38102,46758.60000002384,53406.60000002384,65869,69981.30000001192,73568.70000001788,88554.10000002384,180731.30000001192],"key_events":[],"mouse_events":[7149.9000000059605,11064.40000000596,15605.700000017881,23818.600000023842,31165.40000000596,38102,46758.60000002384,47423.60000002384,53406.60000002384,65869,69981.30000001192,73568.70000001788,87161.20000001788,88554.10000002384,90081.5,177074.90000000596,180731.30000001192,183696.10000002384],"straightlining":0.6153846153846154,"zigzagging":0.3333333333333333,"honeypot":0,"survey":"bisbas","trial_type":"survey-template","trial_index":3,"time_elapsed":417132,"internal_node_id":"0.0-3.0","task_version":"prescreen-v0.3","browser_interactions":2,"infrequency":0},{"responses":{"Q01":"0","Q02":"0","Q03":"0"},"rt":34016.09999999404,"radio_events":[15486.800000011921,20668.80000001192,32545.5],"key_events":[],"mouse_events":[15486.800000011921,20668.80000001192,32545.5,34013.5],"survey":"map","page":1,"trial_type":"survey-map","trial_index":4,"time_elapsed":451165,"internal_node_id":"0.0-4.0","task_version":"prescreen-v0.3","browser_interactions":0},{"responses":{"Q04":"1","Q05":"1","Q06":"1"},"rt":20710.09999999404,"radio_events":[8035.399999976158,14884.899999976158,19047.29999998212],"key_events":[],"mouse_events":[8035.399999976158,14884.899999976158,19047.29999998212,20707.59999999404],"survey":"map","page":2,"trial_type":"survey-map","trial_index":5,"time_elapsed":471892,"internal_node_id":"0.0-5.0","task_version":"prescreen-v0.3","browser_interactions":0},{"responses":{"Q07":"1","Q08":"1","Q09":"0"},"rt":22134.20000001788,"radio_events":[9192.90000000596,16272.5,20653],"key_events":[],"mouse_events":[7007.4000000059605,8392.700000017881,9192.90000000596,16272.5,20653,22132.5],"survey":"map","page":3,"trial_type":"survey-map","trial_index":6,"time_elapsed":494040,"internal_node_id":"0.0-6.0","task_version":"prescreen-v0.3","browser_interactions":0},{"responses":{"Q10":"0","Q11":"0","Q12":"0","Q13":"0","Q16":"0","Q14":"0","Q15":"0"},"rt":63721.30000001192,"radio_events":[12362.5,16580.80000001192,27518.40000000596,35159.19999998808,43775.59999999404,45356.90000000596,45633.59999999404,46647.59999999404,46955.30000001192,55987.59999999404,61179.69999998808],"key_events":[45356.90000000596,45633.59999999404,46647.59999999404,46955.30000001192],"mouse_events":[12362.5,16580.80000001192,27518.40000000596,28292.30000001192,35159.19999998808,43775.59999999404,47632.69999998808,55987.59999999404,56856.90000000596,61179.69999998808,62461.90000000596,63715],"survey":"map","page":4,"trial_type":"survey-map","trial_index":7,"time_elapsed":557779,"internal_node_id":"0.0-7.0","task_version":"prescreen-v0.3","browser_interactions":0,"infrequency":0},{"view_history":[{"page_index":0,"viewing_time":3848.7999999821186},{"page_index":1,"viewing_time":5162.4000000059605}],"rt":9012.90000000596,"trial_type":"instructions","trial_index":8,"time_elapsed":566803,"internal_node_id":"0.0-8.0","task_version":"prescreen-v0.3"},{"responses":{"01":"Yes","01_ages_15":"15","01_ages_16":"16","02":"No","03":"Yes","03_ages_4":"4","03_ages_12":"12","04":"Yes","04_ages_12":"12","04_ages_16":"16","05":"No","06":"Yes","06_ages_4":"4","06_ages_12":"12"},"rt":140737.79999998212,"item_order":[0,1,2,3,4,5],"radio_events":[10624.199999988079,56479.29999998212,64931.5,90645.09999999404,109672.59999999404,117870.5],"checkbox_events":[21447.19999998808,26534.09999999404,32698.69999998808,36525.59999999404,69104.59999999404,83068,95364.89999997616,102809.5,123064.89999997616,132549.19999998808],"key_events":[27905.09999999404,96443.09999999404],"mouse_events":[0.19999998807907104,10624.199999988079,21447.19999998808,26534.09999999404,32698.69999998808,36525.59999999404,37774,56479.29999998212,57706.59999999404,64931.5,65936.79999998212,69104.59999999404,72183.39999997616,83068,84045.89999997616,90645.09999999404,95364.89999997616,102809.5,104208.39999997616,109672.59999999404,117870.5,118862,123064.89999997616,132549.19999998808,140725.79999998212],"honeypot":0,"survey":"mace","page":1,"trial_type":"survey-mace","trial_index":9,"time_elapsed":707567,"internal_node_id":"0.0-9.0","task_version":"prescreen-v0.3","browser_interactions":0},{"responses":{"01":"No","02":"Yes","02_ages_5":"5","03":"No","04":"No","05":"No","06":"No","07":"No","08":"No"},"rt":73023.09999999404,"item_order":[0,1,2,3,4,5,6,7],"radio_events":[9801.40000000596,17309.40000000596,34117.09999999404,37934.70000001788,43240.59999999404,49033.59999999404,58382.90000000596,61643.40000000596,63575.30000001192,64073.59999999404,64094.70000001788,64115.70000001788,64136.5,64158.30000001192,64179,64199.5,64220.09999999404,64241,64262.20000001788,64283,64303.5,64324.5,64345.30000001192,64366.20000001788],"checkbox_events":[23018.90000000596],"key_events":[39189.30000001192,63575.30000001192,64073.59999999404,64094.70000001788,64115.70000001788,64136.5,64158.30000001192,64179,64199.5,64220.09999999404,64241,64262.20000001788,64283,64303.5,64324.5,64345.30000001192,64366.20000001788],"mouse_events":[9801.40000000596,17309.40000000596,19474.70000001788,23018.90000000596,24720,34117.09999999404,37934.70000001788,43240.59999999404,44408,49033.59999999404,53036.30000001192,58382.90000000596,61643.40000000596,65146.90000000596,73009.59999999404],"honeypot":0,"survey":"mace","page":2,"trial_type":"survey-mace","trial_index":10,"time_elapsed":780616,"internal_node_id":"0.0-10.0","task_version":"prescreen-v0.3","browser_interactions":0},{"responses":{"01":"No","02":"No","03":"No","04":"No"},"rt":29121.19999998808,"item_order":[0,1,2,3],"radio_events":[17084.90000000596,22390.59999999404,25532,27873.80000001192],"checkbox_events":[],"key_events":[],"mouse_events":[1511.9000000059605,17084.90000000596,22390.59999999404,25532,27873.80000001192,29111.80000001192],"honeypot":0,"survey":"mace","page":3,"trial_type":"survey-mace","trial_index":11,"time_elapsed":809758,"internal_node_id":"0.0-11.0","task_version":"prescreen-v0.3","browser_interactions":0},{"responses":{"01":"No","02":"No"},"rt":21191.09999999404,"item_order":[0,1],"radio_events":[10110.59999999404,15675.40000000596],"checkbox_events":[],"key_events":[],"mouse_events":[10110.59999999404,15675.40000000596,21184.80000001192],"honeypot":0,"survey":"mace","page":4,"trial_type":"survey-mace","trial_index":12,"time_elapsed":830965,"internal_node_id":"0.0-12.0","task_version":"prescreen-v0.3","browser_interactions":0},{"responses":{"01":"Yes","01_ages_3":"3","02":"No","03":"No","04":"No","05":"No"},"rt":49079.10000002384,"item_order":[0,1,2,3,4],"radio_events":[12573,24855.600000023842,35961.70000001788,40928.90000000596,46996.30000001192],"checkbox_events":[15625.40000000596],"key_events":[],"mouse_events":[1694.1000000238419,12573,15625.40000000596,16691.5,24855.600000023842,35961.70000001788,40928.90000000596,46996.30000001192,47694.70000001788,49067],"honeypot":0,"survey":"mace","page":5,"trial_type":"survey-mace","trial_index":13,"time_elapsed":880065,"internal_node_id":"0.0-13.0","task_version":"prescreen-v0.3","browser_interactions":0},{"responses":{"01":"No","01_ages_8":"8","02":"No","03":"No","04":"Yes","04_ages_12":"12","05":"Yes","05_ages_12":"12"},"rt":104698,"item_order":[0,1,2,3,4],"radio_events":[18143.70000001788,42138.70000001788,52215.5,63148.60000002384,72000.30000001192,94266.70000001788],"checkbox_events":[23488.40000000596,76941.60000002384,98513.80000001192],"key_events":[],"mouse_events":[18143.70000001788,23488.40000000596,25026,42138.70000001788,52215.5,63148.60000002384,72000.30000001192,76941.60000002384,77864.60000002384,84002.90000000596,94266.70000001788,95817.5,98513.80000001192,100145.10000002384,104690.10000002384],"honeypot":0,"survey":"mace","page":6,"trial_type":"survey-mace","trial_index":14,"time_elapsed":984785,"internal_node_id":"0.0-14.0","task_version":"prescreen-v0.3","browser_interactions":0},{"responses":{"01":"No","02":"No","03":"Yes","03_ages_13":"13","04":"No","05":"No","06":"No","07":"No"},"rt":64814.69999998808,"item_order":[0,1,2,3,4,5,6],"radio_events":[6244.9000000059605,10098.699999988079,19652.80000001192,32340,47075.69999998808,54964.69999998808,60847.30000001192],"checkbox_events":[22715],"key_events":[1625.699999988079],"mouse_events":[6244.9000000059605,10098.699999988079,19652.80000001192,22715,24116.09999999404,30902.30000001192,32340,47075.69999998808,49817.80000001192,49986.80000001192,54964.69999998808,57735.5,60847.30000001192,61529.69999998808,64802.59999999404],"honeypot":0,"survey":"mace","page":7,"trial_type":"survey-mace","trial_index":15,"time_elapsed":1049623,"internal_node_id":"0.0-15.0","task_version":"prescreen-v0.3","browser_interactions":0},{"responses":{"01":"No","02":"Yes","02_ages_3":"3","02_ages_4":"4","02_ages_5":"5","02_ages_6":"6","02_ages_7":"7","02_ages_8":"8","02_ages_9":"9","02_ages_10":"10","02_ages_11":"11","02_ages_12":"12","02_ages_13":"13","02_ages_14":"14","02_ages_15":"15","02_ages_16":"16","02_ages_17":"17","02_ages_18":"18","03":"Yes","03_ages_3":"3","03_ages_4":"4","03_ages_5":"5","03_ages_6":"6","03_ages_7":"7","03_ages_8":"8","03_ages_9":"9","03_ages_10":"10","03_ages_11":"11","03_ages_12":"12","03_ages_13":"13","03_ages_14":"14","03_ages_15":"15","03_ages_16":"16","03_ages_17":"17","03_ages_18":"18","04":"Yes","04_ages_7":"7","04_ages_8":"8","04_ages_9":"9","04_ages_10":"10","04_ages_11":"11","04_ages_12":"12","04_ages_13":"13","04_ages_14":"14","04_ages_15":"15","04_ages_16":"16","04_ages_17":"17","04_ages_18":"18"},"rt":116944.39999997616,"item_order":[0,1,2,3],"radio_events":[15893.09999999404,23735.19999998808,55913.29999998212,85014],"checkbox_events":[32158,32835,33548.59999999404,35109.19999998808,35841.5,36741.79999998212,37374,38058.5,38703.19999998808,39683.39999997616,40373.89999997616,41041.79999998212,42650.09999999404,43520.79999998212,44304.59999999404,45175.19999998808,59325,60006.59999999404,60718,62791.5,63390.09999999404,64652.19999998808,66065.5,66766.59999999404,67845.19999998808,68514.59999999404,69199.19999998808,70695.09999999404,71357.5,72083.79999998212,73000.19999998808,73986.89999997616,89569.29999998212,90290,91008.69999998808,91758.69999998808,95351,96278,99436.19999998808,100373.69999998808,102539.39999997616,103985.39999997616,105106.69999998808,105894.5,107106.89999997616,107784,108516.59999999404,109340.89999997616,110039.69999998808,111767.79999998212,112544.89999997616,113259.39999997616,114235.89999997616,115152.5],"key_events":[85890.09999999404],"mouse_events":[15893.09999999404,23735.19999998808,32158,32835,33548.59999999404,34243.89999997616,35109.19999998808,35841.5,36741.79999998212,37374,38058.5,38703.19999998808,39683.39999997616,40373.89999997616,41041.79999998212,41768,42650.09999999404,43520.79999998212,44304.59999999404,45175.19999998808,47870.89999997616,55913.29999998212,59325,60006.59999999404,60718,62791.5,63390.09999999404,64652.19999998808,65304.39999997616,66065.5,66766.59999999404,67845.19999998808,68514.59999999404,69199.19999998808,69879.69999998808,70695.09999999404,71357.5,72083.79999998212,73000.19999998808,73986.89999997616,74597.19999998808,85014,89569.29999998212,90290,91008.69999998808,91758.69999998808,94557.19999998808,95351,96278,99436.19999998808,100373.69999998808,102539.39999997616,103985.39999997616,105106.69999998808,105894.5,107106.89999997616,107784,108516.59999999404,109340.89999997616,110039.69999998808,110794.59999999404,111767.79999998212,112544.89999997616,113259.39999997616,114235.89999997616,115152.5,115817.89999997616,116938],"honeypot":0,"survey":"mace","page":8,"trial_type":"survey-mace","trial_index":16,"time_elapsed":1166586,"internal_node_id":"0.0-16.0","task_version":"prescreen-v0.3","browser_interactions":0},{"responses":{"01":"Yes","01_ages_9":"9","01_ages_10":"10","01_ages_11":"11","01_ages_12":"12","01_ages_13":"13","01_ages_14":"14","02":"Yes","02_ages_7":"7","02_ages_8":"8","02_ages_9":"9","02_ages_10":"10","02_ages_11":"11","03":"Yes","03_ages_1":"1","03_ages_2":"2","03_ages_3":"3","03_ages_4":"4","03_ages_5":"5","03_ages_6":"6","03_ages_7":"7","03_ages_8":"8","03_ages_9":"9","03_ages_10":"10","03_ages_11":"11","03_ages_12":"12","03_ages_13":"13","03_ages_14":"14","03_ages_15":"15","03_ages_18":"18","04":"Yes","04_ages_1":"1","04_ages_2":"2","04_ages_3":"3","04_ages_4":"4","04_ages_5":"5","04_ages_6":"6","04_ages_7":"7","04_ages_8":"8","04_ages_9":"9","04_ages_10":"10","04_ages_11":"11","04_ages_12":"12","04_ages_13":"13","04_ages_14":"14","04_ages_15":"15","04_ages_16":"16","04_ages_17":"17","04_ages_18":"18"},"rt":126778.70000001788,"item_order":[0,1,2,3],"radio_events":[20590.100000023842,46097.5,66109.70000001788,101162.30000001192],"checkbox_events":[28384.5,29056.70000001788,31095.30000001192,32250.80000001192,32884.80000001192,38530.40000000596,39683.60000002384,40591.10000002384,52069.90000000596,52767.90000000596,53533.5,56654.70000001788,59245.10000002384,69420.90000000596,71508.70000001788,72267.20000001788,73689.60000002384,74561.90000000596,75542.30000001192,77381.5,79604.90000000596,80632.70000001788,81606.60000002384,82913.60000002384,84044.30000001192,85154.5,86210.10000002384,87375.40000000596,88938.30000001192,89804.20000001788,90957,105218,105885.60000002384,106552.60000002384,107220.5,108735.20000001788,109397.30000001192,110315.30000001192,111384.70000001788,116989.90000000596,118752.30000001192,119576.90000000596,120298.60000002384,121011.40000000596,121765.90000000596,122555,123280.20000001788,124184.90000000596,125828.70000001788],"key_events":[60085.10000002384,102206.20000001788],"mouse_events":[20590.100000023842,28384.5,29056.70000001788,29693.5,31095.30000001192,32250.80000001192,32884.80000001192,38530.40000000596,39683.60000002384,40591.10000002384,41901.70000001788,46097.5,52069.90000000596,52767.90000000596,53533.5,56654.70000001788,59245.10000002384,66109.70000001788,69420.90000000596,71508.70000001788,72267.20000001788,73689.60000002384,74561.90000000596,75542.30000001192,77381.5,78525,79604.90000000596,80632.70000001788,81606.60000002384,82913.60000002384,84044.30000001192,85154.5,86210.10000002384,87375.40000000596,88938.30000001192,89804.20000001788,90957,92739,101162.30000001192,105218,105885.60000002384,106552.60000002384,107220.5,107916.90000000596,108735.20000001788,109397.30000001192,110315.30000001192,111384.70000001788,116989.90000000596,118752.30000001192,119576.90000000596,120298.60000002384,121011.40000000596,121765.90000000596,122555,123280.20000001788,124184.90000000596,124953.30000001192,125828.70000001788,126770.60000002384],"honeypot":0,"survey":"mace","page":9,"trial_type":"survey-mace","trial_index":17,"time_elapsed":1293384,"internal_node_id":"0.0-17.0","task_version":"prescreen-v0.3","browser_interactions":0},{"responses":{"01":"No","02":"No","03":"Yes","03_ages_3":"3","03_ages_4":"4","03_ages_5":"5","03_ages_6":"6","03_ages_7":"7","03_ages_8":"8","03_ages_9":"9","03_ages_10":"10","03_ages_11":"11","03_ages_12":"12","03_ages_13":"13","03_ages_14":"14","03_ages_15":"15","03_ages_16":"16","03_ages_17":"17","03_ages_18":"18","04":"No","05":"Yes","05_ages_3":"3","05_ages_4":"4","05_ages_5":"5","05_ages_6":"6","05_ages_7":"7","05_ages_8":"8","05_ages_9":"9","05_ages_10":"10","05_ages_11":"11","05_ages_12":"12","05_ages_13":"13","05_ages_14":"14","05_ages_15":"15","05_ages_16":"16","05_ages_17":"17","05_ages_18":"18","06":"Yes","06_ages_17":"17","07":"Yes","07_ages_1":"1","07_ages_2":"2","07_ages_3":"3","07_ages_4":"4","07_ages_5":"5","07_ages_6":"6","07_ages_7":"7","07_ages_8":"8","07_ages_9":"9","07_ages_10":"10","07_ages_11":"11","07_ages_12":"12","07_ages_13":"13","07_ages_14":"14","07_ages_15":"15","07_ages_16":"16","07_ages_17":"17","07_ages_18":"18","08":"Yes","08_ages_1":"1","08_ages_2":"2","08_ages_3":"3","08_ages_4":"4","08_ages_5":"5","08_ages_6":"6","08_ages_7":"7","08_ages_8":"8","08_ages_9":"9","08_ages_10":"10","08_ages_11":"11","08_ages_12":"12","08_ages_13":"13","08_ages_14":"14","08_ages_15":"15","08_ages_18":"18"},"rt":139461.5,"item_order":[0,1,2,3,4,5,6,7],"radio_events":[5335,8612.299999982119,14714.299999982119,34968.29999998212,44350,71641,81768.79999998212,114213.5],"checkbox_events":[17605,18333.40000000596,19024.19999998808,19702.5,20402.40000000596,21798.59999999404,22454.69999998808,23104.40000000596,23790.5,25103.5,25785.79999998212,26495.40000000596,27329.5,28043.79999998212,28966.29999998212,29761.69999998808,50778.59999999404,51452.19999998808,52123.90000000596,52845.69999998808,53565.40000000596,54265.79999998212,54929.09999999404,55831.19999998808,56643.19999998808,57728.09999999404,58412.90000000596,59308.5,60785.79999998212,61546.40000000596,62459.29999998212,63725.90000000596,73741.09999999404,86709.90000000596,88156.69999998808,89031.5,89832.19999998808,90527.79999998212,91452.09999999404,92178.09999999404,92978.5,93671.29999998212,94430.19999998808,95137.90000000596,95939,96814.59999999404,97588.29999998212,98469.40000000596,102034.09999999404,102828.90000000596,103496.90000000596,119096.19999998808,120755.59999999404,121608.90000000596,122991.40000000596,123647.40000000596,125180.29999998212,126043.40000000596,126879.69999998808,127636.5,128883.09999999404,130422.19999998808,131525.40000000596,132731.29999998212,133469,134415,137324.40000000596],"key_events":[1932.9000000059605,15915.199999988079],"mouse_events":[5335,8612.299999982119,14714.299999982119,17605,18333.40000000596,19024.19999998808,19702.5,20402.40000000596,21798.59999999404,22454.69999998808,23104.40000000596,23790.5,25103.5,25785.79999998212,26495.40000000596,27329.5,28043.79999998212,28966.29999998212,29761.69999998808,30366.59999999404,34968.29999998212,44350,50778.59999999404,51452.19999998808,52123.90000000596,52845.69999998808,53565.40000000596,54265.79999998212,54929.09999999404,55831.19999998808,56643.19999998808,57728.09999999404,58412.90000000596,59308.5,60022.40000000596,60785.79999998212,61546.40000000596,62459.29999998212,63725.90000000596,64316.19999998808,71641,73741.09999999404,74480.90000000596,81768.79999998212,86709.90000000596,87453.79999998212,88156.69999998808,89031.5,89832.19999998808,90527.79999998212,91452.09999999404,92178.09999999404,92978.5,93671.29999998212,94430.19999998808,95137.90000000596,95939,96814.59999999404,97588.29999998212,98469.40000000596,102034.09999999404,102828.90000000596,103496.90000000596,104112.59999999404,114213.5,115099.79999998212,119096.19999998808,119834.79999998212,120755.59999999404,121608.90000000596,122991.40000000596,123647.40000000596,124301.59999999404,125180.29999998212,126043.40000000596,126879.69999998808,127636.5,128883.09999999404,129546,130422.19999998808,131525.40000000596,132731.29999998212,133469,134415,137324.40000000596,137957.69999998808,139446],"honeypot":0,"survey":"mace","page":10,"trial_type":"survey-mace","trial_index":18,"time_elapsed":1432872,"internal_node_id":"0.0-18.0","task_version":"prescreen-v0.3","browser_interactions":0,"instructed":0},{"rt":40515.40000000596,"trial_type":"mental-health-alert","trial_index":19,"time_elapsed":1473401,"internal_node_id":"0.0-19.0","task_version":"prescreen-v0.3","interactions":"[{\"event\":\"blur\",\"trial\":3,\"time\":326649},{\"event\":\"focus\",\"trial\":3,\"time\":329624},{\"event\":\"blur\",\"trial\":19,\"time\":1462284},{\"event\":\"focus\",\"trial\":19,\"time\":1465420},{\"event\":\"blur\",\"trial\":19,\"time\":1469844},{\"event\":\"focus\",\"trial\":19,\"time\":1471891}]"}]