[{"view_history":[{"page_index":0,"viewing_time":3100.600000023842},{"page_index":1,"viewing_time":3663.7999999523163},{"page_index":2,"viewing_time":3185.7999999523163},{"page_index":3,"viewing_time":954.1000000238419}],"rt":10905.100000023842,"trial_type":"instructions","trial_index":0,"time_elapsed":10924,"internal_node_id":"0.0-0.0","task_version":"prescreen-v0.3"},{"rt":14449.100000023842,"responses":{"age":"33","gender-categorical":"Male","gender-free-response":"","ethnicity":"Not Hispanic or Latino","race":["Asian"],"education":"Master degree or higher","siblings":"2"},"trial_type":"survey-demo","trial_index":1,"time_elapsed":25378,"internal_node_id":"0.0-1.0","task_version":"prescreen-v0.3"},{"responses":{"Q05":"2","Q04":"2","Q17":"2","Q21":"1","Q13":"2","Q15":"2","Q14":"2","Q03":"2","Q08":"2","Q10":"2","Q09":"2","Q02":"2","Q07":"0","Q16":"2","Q06":"1","Q20":"1","Q18":"1","Q01":"3","Q12":"1","Q11":"1","Q19":"1"},"rt":91270.40000009537,"item_order":[4,3,16,20,12,14,13,2,7,9,8,1,6,15,5,19,17,0,11,10,18],"radio_events":[10182.800000071526,12136.400000095367,17956.700000047684,18244.400000095367,18940.5,21418.5,25854.5,28846.400000095367,31104.400000095367,32120.600000023842,33128.300000071526,38808.300000071526,46112.5,49182.40000009537,54800.5,59628.40000009537,63010.300000071526,71246.30000007153,72480.40000009537,79714.30000007153,81230.30000007153,82760.20000004768,87996.10000002384],"key_events":[10182.800000071526,12136.400000095367,14690.700000047684,16738.5,17088.5,17338.5,17956.700000047684,18244.400000095367,18940.5,21418.5,25854.5,28846.400000095367,31104.400000095367,32120.600000023842,33128.300000071526,38808.300000071526,43558.700000047684,46112.5,48792.800000071526,49182.40000009537,54800.5,59353.800000071526,59628.40000009537,63010.300000071526,71246.30000007153,72182.80000007153,72480.40000009537,77480.5,77816.20000004768,79714.30000007153,81230.30000007153,82760.20000004768,87996.10000002384,91268.20000004768],"mouse_events":[],"straightlining":0.5714285714285714,"zigzagging":0.15,"honeypot":0,"survey":"sns","trial_type":"survey-template","trial_index":2,"time_elapsed":116661,"internal_node_id":"0.0-2.0","task_version":"prescreen-v0.3","browser_interactions":0,"infrequency":1},{"responses":{"Q11":"1","Q09":"2","Q13":"0","Q04":"2","Q12":"2","Q02":"1","Q06":"3","Q07":"3","Q10":"2","Q08":"2","Q01":"1","Q05":"3","Q03":"2"},"rt":47163.700000047684,"item_order":[10,8,12,3,11,1,5,6,9,7,0,4,2],"radio_events":[5882.399999976158,8170.600000023842,10522.600000023842,15888.5,19326.5,22686.5,25654.299999952316,30310.399999976158,31476.399999976158,33468.39999997616,37624.299999952316,38366.299999952316,39756.299999952316,46608.299999952316],"key_events":[5882.399999976158,8170.600000023842,10522.600000023842,15888.5,19326.5,22686.5,25474.100000023842,25654.299999952316,28350.399999976158,28890.299999952316,30310.399999976158,31476.399999976158,33022.5,33468.39999997616,35788.5,36100.10000002384,37624.299999952316,38366.299999952316,39756.299999952316,46608.299999952316,47162.5],"mouse_events":[],"straightlining":0.46153846153846156,"zigzagging":0.4166666666666667,"honeypot":0,"survey":"bisbas","trial_type":"survey-template","trial_index":3,"time_elapsed":163831,"internal_node_id":"0.0-3.0","task_version":"prescreen-v0.3","browser_interactions":0,"infrequency":0},{"responses":{"Q01":"2","Q02":"2","Q03":"2"},"rt":20411,"radio_events":[7368.199999928474,16261.899999976158,19778],"key_events":[7368.199999928474,16261.899999976158,19778,20410.099999904633],"mouse_events":[],"survey":"map","page":1,"trial_type":"survey-map","trial_index":4,"time_elapsed":184248,"internal_node_id":"0.0-4.0","task_version":"prescreen-v0.3","browser_interactions":0},{"responses":{"Q04":"1","Q05":"1","Q06":"1"},"rt":13082.099999904633,"radio_events":[3407.5,5813.399999976158,7805.399999976158,10235.5,10915.899999976158,11203.399999976158,12423.5],"key_events":[3407.5,4313.399999976158,5813.399999976158,7805.399999976158,10235.5,10915.899999976158,11203.399999976158,12423.5,13081.599999904633],"mouse_events":[],"survey":"map","page":2,"trial_type":"survey-map","trial_index":5,"time_elapsed":197336,"internal_node_id":"0.0-5.0","task_version":"prescreen-v0.3","browser_interactions":0},{"responses":{"Q07":"4","Q08":"4","Q09":"3"},"rt":22702.5,"radio_events":[15481.799999952316,17747.899999976158,18849.899999976158,22123.799999952316],"key_events":[15481.799999952316,17747.899999976158,18849.899999976158,21677.899999976158,22123.799999952316,22702],"mouse_events":[],"survey":"map","page":3,"trial_type":"survey-map","trial_index":6,"time_elapsed":220044,"internal_node_id":"0.0-6.0","task_version":"prescreen-v0.3","browser_interactions":0},{"responses":{"Q10":"2","Q11":"0","Q12":"0","Q13":"0","Q16":"0","Q14":"1","Q15":"1"},"rt":40916.5,"radio_events":[4235.600000023842,7375.600000023842,13367.399999976158,15437.5,20735.300000071526,36641.300000071526,40283.5],"key_events":[4235.600000023842,7375.600000023842,13367.399999976158,15437.5,20735.300000071526,36641.300000071526,39367.39999997616,39977.5,40283.5,40915.5],"mouse_events":[],"survey":"map","page":4,"trial_type":"survey-map","trial_index":7,"time_elapsed":260966,"internal_node_id":"0.0-7.0","task_version":"prescreen-v0.3","browser_interactions":0,"infrequency":0},{"view_history":[{"page_index":0,"viewing_time":2625.899999976158},{"page_index":1,"viewing_time":5147.899999976158}],"rt":7774.699999928474,"trial_type":"instructions","trial_index":8,"time_elapsed":268745,"internal_node_id":"0.0-8.0","task_version":"prescreen-v0.3"},{"responses":{"01":"No","02":"No","02_ages_11":"11","02_ages_12":"12","02_ages_13":"13","02_ages_14":"14","02_ages_15":"15","02_ages_16":"16","03":"No","04":"No","05":"No","06":"No"},"rt":52630.299999952316,"item_order":[0,1,2,3,4,5],"radio_events":[11111.199999928474,18758.799999952316,21938.899999976158,23548.799999952316,24212.899999976158,26188.699999928474,29680.699999928474,48180.699999928474],"checkbox_events":[37337.10000002384,40751,41454.60000002384,41830.89999997616,42368.799999952316,42946.799999952316],"key_events":[0.10000002384185791,5188.600000023842,5446.899999976158,11111.199999928474,18758.799999952316,21938.899999976158,23548.799999952316,24212.899999976158,25760.799999952316,26188.699999928474,29680.699999928474,37337.10000002384,40751,41454.60000002384,41830.89999997616,42368.799999952316,42946.799999952316,48180.699999928474,52627],"mouse_events":[],"honeypot":0,"survey":"mace","page":1,"trial_type":"survey-mace","trial_index":9,"time_elapsed":321383,"internal_node_id":"0.0-9.0","task_version":"prescreen-v0.3","browser_interactions":0},{"responses":{"01":"No","02":"No","03":"No","04":"No","05":"No","06":"No","07":"No","08":"No"},"rt":21337.199999928474,"item_order":[0,1,2,3,4,5,6,7],"radio_events":[4957.299999952316,7927.199999928474,11591.199999928474,12707.199999928474,13801.299999952316,14521.199999928474,17825.299999952316,18575.299999952316,20185.100000023842,20832.899999976158],"checkbox_events":[],"key_events":[4957.299999952316,6121.199999928474,7927.199999928474,8473,11591.199999928474,12707.199999928474,13801.299999952316,14521.199999928474,17825.299999952316,18575.299999952316,19263.199999928474,20185.100000023842,20832.899999976158,21333.100000023842],"mouse_events":[],"honeypot":0,"survey":"mace","page":2,"trial_type":"survey-mace","trial_index":10,"time_elapsed":342728,"internal_node_id":"0.0-10.0","task_version":"prescreen-v0.3","browser_interactions":0},{"responses":{"01":"No","02":"No","03":"No","04":"No"},"rt":5849.700000047684,"item_order":[0,1,2,3],"radio_events":[2239.5,3051.4000000953674,4473.400000095367,5285.400000095367],"checkbox_events":[],"key_events":[2239.5,3051.4000000953674,3753.2000000476837,4473.400000095367,5068.800000071526,5285.400000095367,5847.300000071526],"mouse_events":[],"honeypot":0,"survey":"mace","page":3,"trial_type":"survey-mace","trial_index":11,"time_elapsed":348583,"internal_node_id":"0.0-11.0","task_version":"prescreen-v0.3","browser_interactions":0},{"responses":{"01":"No","02":"No"},"rt":4673.5,"item_order":[0,1],"radio_events":[2110.3000000715256,3008.4000000953674],"checkbox_events":[],"key_events":[1782.2000000476837,2110.3000000715256,3008.4000000953674,4672.400000095367],"mouse_events":[],"honeypot":0,"survey":"mace","page":4,"trial_type":"survey-mace","trial_index":12,"time_elapsed":353262,"internal_node_id":"0.0-12.0","task_version":"prescreen-v0.3","browser_interactions":0},{"responses":{"01":"No","02":"No","03":"No","04":"No","05":"No"},"rt":12244.700000047684,"item_order":[0,1,2,3,4],"radio_events":[5876.700000047684,7196.600000023842,8672.5,10634.800000071526,11274.5],"checkbox_events":[],"key_events":[5876.700000047684,7196.600000023842,8672.5,9844.5,10634.800000071526,11274.5,12242.600000023842],"mouse_events":[],"honeypot":0,"survey":"mace","page":5,"trial_type":"survey-mace","trial_index":13,"time_elapsed":365513,"internal_node_id":"0.0-13.0","task_version":"prescreen-v0.3","browser_interactions":0},{"responses":{"01":"No","02":"Yes","02_ages_8":"8","02_ages_9":"9","02_ages_10":"10","02_ages_11":"11","02_ages_12":"12","03":"No","04":"No","05":"No"},"rt":49558.800000071526,"item_order":[0,1,2,3,4],"radio_events":[1860.6000000238419,13250.300000071526,38306.10000002384,39766.10000002384,42148.10000002384,45110.10000002384],"checkbox_events":[18392.300000071526,18782.200000047684,19134.400000095367,19798.200000047684,20204.100000023842,20564.200000047684,21008.300000071526,21352.300000071526,22164.100000023842,26539.900000095367,27118.300000071526,27484.300000071526,27946.100000023842],"key_events":[1860.6000000238419,13250.300000071526,18392.300000071526,18782.200000047684,19134.400000095367,19798.200000047684,20204.100000023842,20564.200000047684,21008.300000071526,21352.300000071526,21734.200000047684,22164.100000023842,26539.900000095367,27118.300000071526,27484.300000071526,27946.100000023842,38306.10000002384,39766.10000002384,42148.10000002384,45110.10000002384,49556.200000047684],"mouse_events":[],"honeypot":0,"survey":"mace","page":6,"trial_type":"survey-mace","trial_index":14,"time_elapsed":415077,"internal_node_id":"0.0-14.0","task_version":"prescreen-v0.3","browser_interactions":0},{"responses":{"01":"No","02":"No","03":"No","04":"Yes","04_ages_10":"10","04_ages_11":"11","04_ages_12":"12","05":"No","06":"No","07":"No"},"rt":21738.600000023842,"item_order":[0,1,2,3,4,5,6],"radio_events":[4348.100000023842,5733.300000071526,6294.100000023842,7630,9826,10356.100000023842,10981.900000095367,11848.300000071526,17371.900000095367],"checkbox_events":[20098.100000023842,20543.900000095367,20912.100000023842],"key_events":[2465.8000000715256,3146,3581.8000000715256,4348.100000023842,5012.200000047684,5449.900000095367,5733.300000071526,6294.100000023842,7630,8404.100000023842,9826,10356.100000023842,10981.900000095367,11490.100000023842,11848.300000071526,17371.900000095367,20098.100000023842,20543.900000095367,20912.100000023842,21735],"mouse_events":[],"honeypot":0,"survey":"mace","page":7,"trial_type":"survey-mace","trial_index":15,"time_elapsed":436823,"internal_node_id":"0.0-15.0","task_version":"prescreen-v0.3","browser_interactions":0},{"responses":{"01":"No","02":"No","03":"Yes","03_ages_11":"11","03_ages_12":"12","03_ages_13":"13","03_ages_14":"14","03_ages_15":"15","03_ages_16":"16","03_ages_17":"17","04":"No"},"rt":26879.600000023842,"item_order":[0,1,2,3],"radio_events":[3525.1999999284744,8909.199999928474,12065,26401.100000023842],"checkbox_events":[19323.199999928474,19683.199999928474,20049,21011.199999928474,21331.100000023842,21963.199999928474,22651.100000023842],"key_events":[3525.1999999284744,8003.100000023842,8909.199999928474,9619.199999928474,12065,19323.199999928474,19683.199999928474,20049,20377.199999928474,21011.199999928474,21331.100000023842,21697.199999928474,21963.199999928474,22651.100000023842,26111.100000023842,26401.100000023842,26877.399999976158],"mouse_events":[],"honeypot":0,"survey":"mace","page":8,"trial_type":"survey-mace","trial_index":16,"time_elapsed":463709,"internal_node_id":"0.0-16.0","task_version":"prescreen-v0.3","browser_interactions":0},{"responses":{"01":"Yes","01_ages_1":"1","01_ages_2":"2","01_ages_3":"3","01_ages_4":"4","01_ages_5":"5","01_ages_6":"6","01_ages_7":"7","01_ages_8":"8","01_ages_9":"9","01_ages_10":"10","01_ages_11":"11","01_ages_12":"12","01_ages_13":"13","01_ages_14":"14","01_ages_15":"15","01_ages_16":"16","01_ages_17":"17","01_ages_18":"18","02":"Yes","02_ages_1":"1","02_ages_2":"2","02_ages_3":"3","02_ages_4":"4","02_ages_5":"5","02_ages_6":"6","02_ages_7":"7","02_ages_8":"8","02_ages_9":"9","02_ages_10":"10","02_ages_11":"11","02_ages_12":"12","02_ages_13":"13","02_ages_14":"14","02_ages_15":"15","02_ages_16":"16","02_ages_17":"17","02_ages_18":"18","03":"Yes","03_ages_1":"1","03_ages_2":"2","03_ages_3":"3","03_ages_4":"4","03_ages_5":"5","03_ages_6":"6","03_ages_7":"7","03_ages_8":"8","03_ages_9":"9","03_ages_10":"10","03_ages_11":"11","03_ages_12":"12","03_ages_13":"13","03_ages_14":"14","03_ages_15":"15","03_ages_16":"16","03_ages_17":"17","03_ages_18":"18","04":"Yes","04_ages_1":"1","04_ages_2":"2","04_ages_3":"3","04_ages_4":"4","04_ages_5":"5","04_ages_6":"6","04_ages_7":"7","04_ages_8":"8","04_ages_9":"9","04_ages_10":"10","04_ages_11":"11","04_ages_12":"12","04_ages_13":"13","04_ages_14":"14","04_ages_15":"15","04_ages_16":"16","04_ages_17":"17","04_ages_18":"18"},"rt":62221.300000071526,"item_order":[0,1,2,3],"radio_events":[2819.2000000476837,13733.5,16647.200000047684,18709.200000047684],"checkbox_events":[4203.399999976158,4733.5,5453.300000071526,5749.300000071526,6381.399999976158,6717.300000071526,7045.300000071526,7381.300000071526,7601.100000023842,8101.200000047684,8381.300000071526,8913.300000071526,9265.100000023842,9569.200000047684,9897.399999976158,10623.5,11101.200000047684,11819.100000023842,12335.100000023842,12967.5,19547.300000071526,20445.100000023842,22233.5,22601.100000023842,23461.200000047684,23741.300000071526,24225.100000023842,24601.399999976158,24959.200000047684,25397.200000047684,25795.300000071526,26211.5,26577.200000047684,27217.200000047684,27547.100000023842,27905.300000071526,28303.200000047684,28733.5,29319,29773.100000023842,30256.899999976158,30701,31389.200000047684,31797.200000047684,32281.300000071526,33483.200000047684,33749.60000002384,34053.5,34553.10000002384,35045.200000047684,35585.200000047684,35905.10000002384,36577.200000047684,36929.200000047684,37319,37999,38655.300000071526,38977.200000047684,45208.89999997616,46037,46413.200000047684,47203.10000002384,47623.10000002384,47983.200000047684,48623.10000002384,56084.89999997616,56623.10000002384,57289,57991.10000002384,58343,59077,59453,59827.10000002384,60257.10000002384,61413,61789],"key_events":[2819.2000000476837,4203.399999976158,4453.200000047684,4733.5,5085.200000047684,5453.300000071526,5749.300000071526,6381.399999976158,6717.300000071526,7045.300000071526,7381.300000071526,7601.100000023842,8101.200000047684,8381.300000071526,8913.300000071526,9265.100000023842,9569.200000047684,9897.399999976158,10342.899999976158,10623.5,11101.200000047684,11523.200000047684,11819.100000023842,12335.100000023842,12967.5,13733.5,14827.300000071526,15179.100000023842,15695,16647.200000047684,16983.399999976158,17241.200000047684,17787.200000047684,18389.100000023842,18709.200000047684,19547.300000071526,20445.100000023842,22233.5,22601.100000023842,22898.899999976158,23147.200000047684,23461.200000047684,23741.300000071526,24225.100000023842,24601.399999976158,24959.200000047684,25397.200000047684,25795.300000071526,26211.5,26577.200000047684,26945.200000047684,27217.200000047684,27547.100000023842,27905.300000071526,28303.200000047684,28733.5,29319,29773.100000023842,30256.899999976158,30701,31389.200000047684,31797.200000047684,32281.300000071526,32803,33483.200000047684,33749.60000002384,34053.5,34553.10000002384,35045.200000047684,35585.200000047684,35905.10000002384,36257.200000047684,36577.200000047684,36929.200000047684,37319,37679.10000002384,37999,38413.10000002384,38655.300000071526,38977.200000047684,45208.89999997616,46037,46413.200000047684,46875.60000002384,47203.10000002384,47623.10000002384,47983.200000047684,48623.10000002384,50998.89999997616,56084.89999997616,56623.10000002384,57289,57569,57991.10000002384,58343,58671.10000002384,59077,59453,59827.10000002384,60257.10000002384,60624.89999997616,61174.800000071526,61413,61789,62219.10000002384],"mouse_events":[],"honeypot":0,"survey":"mace","page":9,"trial_type":"survey-mace","trial_index":17,"time_elapsed":525937,"internal_node_id":"0.0-17.0","task_version":"prescreen-v0.3","browser_interactions":2},{"responses":{"01":"No","02":"No","03":"No","04":"No","05":"No","06":"Yes","06_ages_17":"17","07":"Yes","07_ages_1":"1","07_ages_2":"2","07_ages_3":"3","07_ages_4":"4","07_ages_5":"5","07_ages_6":"6","07_ages_7":"7","07_ages_8":"8","07_ages_9":"9","07_ages_10":"10","07_ages_11":"11","07_ages_12":"12","07_ages_13":"13","07_ages_14":"14","07_ages_15":"15","07_ages_16":"16","07_ages_17":"17","07_ages_18":"18","08":"Yes","08_ages_1":"1","08_ages_2":"2","08_ages_3":"3","08_ages_4":"4","08_ages_5":"5","08_ages_6":"6","08_ages_7":"7","08_ages_8":"8","08_ages_9":"9","08_ages_10":"10","08_ages_11":"11","08_ages_12":"12","08_ages_13":"13","08_ages_14":"14","08_ages_15":"15","08_ages_16":"16","08_ages_17":"17","08_ages_18":"18"},"rt":50611.10000002384,"item_order":[0,1,2,3,4,5,6,7],"radio_events":[2389.2000000476837,3475,4349.200000047684,5717,6802.800000071526,9857,11943.100000023842,16803,19566.800000071526,24295,26496.899999976158],"checkbox_events":[13889.399999976158,27919,29332.800000071526,29967,30435,31021.300000071526,31419,32045.200000047684,32427,32763,33818.89999997616,34201,34622.89999997616,35000.300000071526,35574.800000071526,35816.800000071526,36161,36574.700000047684,36989,37326.800000071526,37738.800000071526,39442.89999997616,40224.800000071526,40717,41458.700000047684,42326.89999997616,42694.800000071526,43060.800000071526,43496.89999997616,44154.89999997616,44590.89999997616,45504.89999997616,46348.800000071526,46889,47582.89999997616,48160.89999997616,48912.89999997616,49434.60000002384,50020.89999997616],"key_events":[2389.2000000476837,3169.100000023842,3475,4349.200000047684,5717,6802.800000071526,8505.200000047684,9857,11943.100000023842,13435.100000023842,13889.399999976158,16803,19115.100000023842,19566.800000071526,24295,26496.899999976158,27919,28693.600000023842,29332.800000071526,29967,30435,30731.5,31021.300000071526,31419,32045.200000047684,32427,32763,33177.10000002384,33458.800000071526,33818.89999997616,34201,34622.89999997616,35000.300000071526,35574.800000071526,35816.800000071526,36161,36574.700000047684,36989,37326.800000071526,37738.800000071526,38123,39028.700000047684,39442.89999997616,40224.800000071526,40717,41192.800000071526,41458.700000047684,42326.89999997616,42694.800000071526,43060.800000071526,43496.89999997616,44154.89999997616,44590.89999997616,45163,45504.89999997616,46348.800000071526,46889,47311,47582.89999997616,48160.89999997616,48615,48912.89999997616,49434.60000002384,50020.89999997616,50607.10000002384],"mouse_events":[],"honeypot":0,"survey":"mace","page":10,"trial_type":"survey-mace","trial_index":18,"time_elapsed":576555,"internal_node_id":"0.0-18.0","task_version":"prescreen-v0.3","browser_interactions":0,"instructed":0},{"rt":6817.5,"trial_type":"mental-health-alert","trial_index":19,"time_elapsed":583377,"internal_node_id":"0.0-19.0","task_version":"prescreen-v0.3","interactions":"[{\"event\":\"blur\",\"trial\":17,\"time\":503266},{\"event\":\"focus\",\"trial\":17,\"time\":507421}]"}]