[{"view_history":[{"page_index":0,"viewing_time":3108.600000023842},{"page_index":1,"viewing_time":3832.7000000476837},{"page_index":2,"viewing_time":4323},{"page_index":3,"viewing_time":978}],"rt":12242.900000095367,"trial_type":"instructions","trial_index":0,"time_elapsed":12252,"internal_node_id":"0.0-0.0","task_version":"prescreen-v0.3"},{"rt":13324.800000071526,"responses":{"age":"35","gender-categorical":"Male","gender-free-response":"","ethnicity":"Not Hispanic or Latino","race":["Asian"],"education":"Bachelor degree"},"trial_type":"survey-demo","trial_index":1,"time_elapsed":25580,"internal_node_id":"0.0-1.0","task_version":"prescreen-v0.3"},{"responses":{"Q13":"0","Q06":"1","Q12":"0","Q14":"0","Q02":"0","Q09":"0","Q01":"0","Q07":"0","Q08":"0","Q17":"0","Q05":"0","Q04":"0","Q03":"0","Q11":"0","Q20":"0","Q21":"3","Q10":"0","Q19":"0","Q16":"0","Q18":"0","Q15":"0"},"rt":74033.30000007153,"item_order":[12,5,11,13,1,8,0,6,7,16,4,3,2,10,19,20,9,18,15,17,14],"radio_events":[2255.5,7108.400000095367,12574.400000095367,15497.600000023842,18582.5,21723.5,23756.300000071526,28168.400000095367,31742.5,33721.5,37798.5,42818.40000009537,44791.40000009537,47286.5,49277.40000009537,52199.5,55460.5,59080.5,63326.5,68075.40000009537,73349.5],"key_events":[],"mouse_events":[2255.5,7108.400000095367,12574.400000095367,15497.600000023842,18113.400000095367,18582.5,21373.5,21723.5,23756.300000071526,28168.400000095367,31203.400000095367,31742.5,33721.5,37798.5,42818.40000009537,44791.40000009537,46664.5,47286.5,48948.40000009537,49277.40000009537,51734.5,52199.5,55460.5,59080.5,62969.5,63326.5,67725.40000009537,68075.40000009537,73349.5,74030.70000004768],"straightlining":0.9047619047619048,"zigzagging":0.2,"honeypot":0,"survey":"sns","trial_type":"survey-template","trial_index":2,"time_elapsed":99619,"internal_node_id":"0.0-2.0","task_version":"prescreen-v0.3","browser_interactions":0,"infrequency":0},{"responses":{"Q12":"1","Q11":"1","Q05":"3","Q06":"3","Q09":"1","Q02":"3","Q01":"1","Q13":"0","Q10":"1","Q04":"3","Q07":"3","Q03":"3","Q08":"3"},"rt":38911.800000071526,"item_order":[11,10,4,5,8,1,0,12,9,3,6,2,7],"radio_events":[3859,6245,9246,11161,13461.200000047684,15715.900000095367,18300.900000095367,22615,25318.900000095367,28532,30145.100000023842,33631.90000009537,37932.10000002384],"key_events":[],"mouse_events":[3138.8000000715256,3859,6245,9246,11161,13461.200000047684,15285.200000047684,15715.900000095367,18300.900000095367,21478,22615,24965,25318.900000095367,28532,30145.100000023842,33631.90000009537,37932.10000002384,38911],"straightlining":0.5384615384615384,"zigzagging":0.16666666666666666,"honeypot":0,"survey":"bisbas","trial_type":"survey-template","trial_index":3,"time_elapsed":138533,"internal_node_id":"0.0-3.0","task_version":"prescreen-v0.3","browser_interactions":0,"infrequency":0},{"responses":{"Q01":"3","Q02":"3","Q03":"3"},"rt":15954.200000047684,"radio_events":[4989.799999952316,8017.799999952316,12333.799999952316],"key_events":[],"mouse_events":[4989.799999952316,8017.799999952316,12333.799999952316,15953.700000047684],"survey":"map","page":1,"trial_type":"survey-map","trial_index":4,"time_elapsed":154490,"internal_node_id":"0.0-4.0","task_version":"prescreen-v0.3","browser_interactions":0},{"responses":{"Q04":"3","Q05":"3","Q06":"3"},"rt":10530.300000071526,"radio_events":[3390.9000000953674,6610,9476.900000095367],"key_events":[],"mouse_events":[3390.9000000953674,6610,9476.900000095367,10529.900000095367],"survey":"map","page":2,"trial_type":"survey-map","trial_index":5,"time_elapsed":165021,"internal_node_id":"0.0-5.0","task_version":"prescreen-v0.3","browser_interactions":0},{"responses":{"Q07":"3","Q08":"3","Q09":"3"},"rt":16540.5,"radio_events":[5503.199999928474,12109.399999976158,14476.199999928474],"key_events":[],"mouse_events":[5503.199999928474,12109.399999976158,14476.199999928474,16540.199999928474],"survey":"map","page":3,"trial_type":"survey-map","trial_index":6,"time_elapsed":181563,"internal_node_id":"0.0-6.0","task_version":"prescreen-v0.3","browser_interactions":0},{"responses":{"Q10":"3","Q11":"3","Q12":"3","Q13":"3","Q16":"0","Q14":"3","Q15":"3"},"rt":32829.699999928474,"radio_events":[6841.099999904633,9431.099999904633,13562.899999976158,17959.199999928474,22457.099999904633,27280,30346.099999904633],"key_events":[],"mouse_events":[6841.099999904633,9431.099999904633,13562.899999976158,17959.199999928474,22457.099999904633,27280,30346.099999904633,32829.09999990463],"survey":"map","page":4,"trial_type":"survey-map","trial_index":7,"time_elapsed":214395,"internal_node_id":"0.0-7.0","task_version":"prescreen-v0.3","browser_interactions":0,"infrequency":0},{"view_history":[{"page_index":0,"viewing_time":4287.899999976158},{"page_index":1,"viewing_time":3311.899999976158}],"rt":7600.299999952316,"trial_type":"instructions","trial_index":8,"time_elapsed":221996,"internal_node_id":"0.0-8.0","task_version":"prescreen-v0.3"},{"responses":{"01":"No","02":"No","03":"No","04":"No","05":"No","06":"No"},"rt":22125.5,"item_order":[0,1,2,3,4,5],"radio_events":[8629,12360.799999952316,15120,16594.600000023842,18851.699999928474,21650.799999952316],"checkbox_events":[],"key_events":[],"mouse_events":[0,8629,11943.899999976158,12360.799999952316,15120,16594.600000023842,18462.799999952316,18851.699999928474,21650.799999952316,22122.199999928474],"honeypot":0,"survey":"mace","page":1,"trial_type":"survey-mace","trial_index":9,"time_elapsed":244127,"internal_node_id":"0.0-9.0","task_version":"prescreen-v0.3","browser_interactions":0},{"responses":{"01":"No","02":"No","03":"No","04":"No","05":"No","06":"No","07":"No","08":"No"},"rt":24787.5,"item_order":[0,1,2,3,4,5,6,7],"radio_events":[2806,9378,11492,12957.200000047684,16418.899999976158,18481.100000023842,20212,22830.899999976158],"checkbox_events":[],"key_events":[],"mouse_events":[2806,9037,9378,11041.899999976158,11492,12957.200000047684,16418.899999976158,18481.100000023842,20212,22830.899999976158,24785],"honeypot":0,"survey":"mace","page":2,"trial_type":"survey-mace","trial_index":10,"time_elapsed":268919,"internal_node_id":"0.0-10.0","task_version":"prescreen-v0.3","browser_interactions":0},{"responses":{"01":"No","02":"No","03":"No","04":"No"},"rt":13253.100000023842,"item_order":[0,1,2,3],"radio_events":[3777.5,6407.700000047684,8698.600000023842,11006.5],"checkbox_events":[],"key_events":[],"mouse_events":[3349.600000023842,3777.5,6407.700000047684,8698.600000023842,10662.700000047684,11006.5,13251.800000071526],"honeypot":0,"survey":"mace","page":3,"trial_type":"survey-mace","trial_index":11,"time_elapsed":282174,"internal_node_id":"0.0-11.0","task_version":"prescreen-v0.3","browser_interactions":0},{"responses":{"01":"No","02":"No"},"rt":8805.100000023842,"item_order":[0,1],"radio_events":[5493.5,8282.5],"checkbox_events":[],"key_events":[],"mouse_events":[5493.5,7612.5,8282.5,8804.399999976158],"honeypot":0,"survey":"mace","page":4,"trial_type":"survey-mace","trial_index":12,"time_elapsed":290981,"internal_node_id":"0.0-12.0","task_version":"prescreen-v0.3","browser_interactions":0},{"responses":{"01":"No","02":"No","03":"No","04":"No","05":"No"},"rt":24572.899999976158,"item_order":[0,1,2,3,4],"radio_events":[10242.199999928474,13257.299999952316,17177.199999928474,20284.299999952316,23739.299999952316],"checkbox_events":[],"key_events":[],"mouse_events":[10242.199999928474,13257.299999952316,17177.199999928474,20284.299999952316,23739.299999952316,24571.299999952316],"honeypot":0,"survey":"mace","page":5,"trial_type":"survey-mace","trial_index":13,"time_elapsed":315556,"internal_node_id":"0.0-13.0","task_version":"prescreen-v0.3","browser_interactions":0},{"responses":{"01":"No","02":"No","03":"No","04":"No","05":"No"},"rt":21868.600000023842,"item_order":[0,1,2,3,4],"radio_events":[4373.100000023842,8587.100000023842,12858,15203.200000047684,17833],"checkbox_events":[],"key_events":[],"mouse_events":[4373.100000023842,8212.899999976158,8587.100000023842,12858,15203.200000047684,17375.100000023842,17833,21867],"honeypot":0,"survey":"mace","page":6,"trial_type":"survey-mace","trial_index":14,"time_elapsed":337427,"internal_node_id":"0.0-14.0","task_version":"prescreen-v0.3","browser_interactions":0},{"responses":{"01":"No","02":"No","03":"No","04":"No","05":"No","06":"No","07":"No"},"rt":22110,"item_order":[0,1,2,3,4,5,6],"radio_events":[3035.7000000476837,5683.700000047684,8845.5,14663.700000047684,18104.800000071526,20022.700000047684,21649.900000095367],"checkbox_events":[],"key_events":[],"mouse_events":[2603.5,3035.7000000476837,5683.700000047684,8845.5,14663.700000047684,18104.800000071526,20022.700000047684,21649.900000095367,22107.700000047684],"honeypot":0,"survey":"mace","page":7,"trial_type":"survey-mace","trial_index":15,"time_elapsed":359540,"internal_node_id":"0.0-15.0","task_version":"prescreen-v0.3","browser_interactions":0},{"responses":{"01":"No","02":"No","03":"No","04":"No"},"rt":37530.299999952316,"item_order":[0,1,2,3],"radio_events":[15550.100000023842,20980.899999976158,27650.899999976158,32312.899999976158,35786.89999997616],"checkbox_events":[],"key_events":[],"mouse_events":[15550.100000023842,20980.899999976158,27650.899999976158,32312.899999976158,35786.89999997616,37529],"honeypot":0,"survey":"mace","page":8,"trial_type":"survey-mace","trial_index":16,"time_elapsed":397073,"internal_node_id":"0.0-16.0","task_version":"prescreen-v0.3","browser_interactions":0},{"responses":{"01":"Yes","01_ages_1":"1","01_ages_2":"2","01_ages_3":"3","01_ages_4":"4","01_ages_5":"5","01_ages_6":"6","01_ages_7":"7","01_ages_8":"8","01_ages_9":"9","01_ages_10":"10","01_ages_11":"11","01_ages_12":"12","01_ages_13":"13","01_ages_14":"14","01_ages_15":"15","01_ages_16":"16","01_ages_17":"17","01_ages_18":"18","02":"Yes","02_ages_1":"1","02_ages_2":"2","02_ages_3":"3","02_ages_4":"4","02_ages_5":"5","02_ages_6":"6","02_ages_7":"7","02_ages_8":"8","02_ages_9":"9","02_ages_10":"10","02_ages_11":"11","02_ages_12":"12","02_ages_13":"13","02_ages_14":"14","02_ages_15":"15","02_ages_16":"16","02_ages_17":"17","02_ages_18":"18","03":"Yes","03_ages_1":"1","03_ages_2":"2","03_ages_3":"3","03_ages_4":"4","03_ages_5":"5","03_ages_6":"6","03_ages_7":"7","03_ages_8":"8","03_ages_9":"9","03_ages_10":"10","03_ages_11":"11","03_ages_12":"12","03_ages_13":"13","03_ages_14":"14","03_ages_15":"15","03_ages_16":"16","03_ages_17":"17","03_ages_18":"18","04":"Yes","04_ages_1":"1","04_ages_2":"2","04_ages_3":"3","04_ages_4":"4","04_ages_5":"5","04_ages_6":"6","04_ages_7":"7","04_ages_8":"8","04_ages_9":"9","04_ages_10":"10","04_ages_11":"11","04_ages_12":"12","04_ages_13":"13","04_ages_14":"14","04_ages_15":"15","04_ages_16":"16","04_ages_17":"17","04_ages_18":"18"},"rt":54175.700000047684,"item_order":[0,1,2,3],"radio_events":[4270.200000047684,18037.600000023842,32132.200000047684,44603.300000071526],"checkbox_events":[6076.400000095367,7191.400000095367,7630.300000071526,8509.400000095367,8782.200000047684,9145.200000047684,9465.300000071526,9776.200000047684,10660.300000071526,11965.200000047684,12644.200000047684,13279.200000047684,13579.400000095367,14008.400000095367,14402.300000071526,15208.200000047684,15533.200000047684,15996.200000047684,19310.300000071526,19688.200000047684,20634.200000047684,21323.300000071526,22187.300000071526,22922.200000047684,23317.100000023842,23918.100000023842,24524.200000047684,25710.200000047684,26379.300000071526,26831.300000071526,27199.200000047684,27616,28154.200000047684,28718.400000095367,29174.200000047684,30033.300000071526,32989.300000071526,33357.300000071526,33813.300000071526,34462.300000071526,34891.5,35522.200000047684,36262.300000071526,36707.40000009537,37147.200000047684,37546.200000047684,37958.300000071526,38396.200000047684,39015.200000047684,39545.300000071526,40215.200000047684,40734.40000009537,41092.200000047684,41475.200000047684,45599.200000047684,45834.200000047684,46388.10000002384,46789.200000047684,47194.200000047684,47563.200000047684,48033.5,48562.200000047684,49197.200000047684,49687.5,50089.300000071526,50455.300000071526,51274.200000047684,51627.200000047684,51967.200000047684,52389.200000047684,52889.300000071526,53684.200000047684],"key_events":[],"mouse_events":[4270.200000047684,6076.400000095367,7191.400000095367,7630.300000071526,8509.400000095367,8782.200000047684,9145.200000047684,9465.300000071526,9776.200000047684,10100.400000095367,10660.300000071526,11428.200000047684,11965.200000047684,12644.200000047684,13279.200000047684,13579.400000095367,14008.400000095367,14402.300000071526,14791.400000095367,15208.200000047684,15533.200000047684,15996.200000047684,18037.600000023842,19310.300000071526,19688.200000047684,20114.200000047684,20634.200000047684,21323.300000071526,21612.200000047684,22187.300000071526,22589.200000047684,22922.200000047684,23317.100000023842,23918.100000023842,24524.200000047684,25133.100000023842,25710.200000047684,26379.300000071526,26831.300000071526,27199.200000047684,27616,28154.200000047684,28718.400000095367,29174.200000047684,30033.300000071526,32132.200000047684,32989.300000071526,33357.300000071526,33813.300000071526,34462.300000071526,34891.5,35522.200000047684,35900.200000047684,36262.300000071526,36707.40000009537,37147.200000047684,37546.200000047684,37958.300000071526,38396.200000047684,39015.200000047684,39545.300000071526,40215.200000047684,40734.40000009537,41092.200000047684,41475.200000047684,44603.300000071526,45599.200000047684,45834.200000047684,46388.10000002384,46789.200000047684,47194.200000047684,47563.200000047684,48033.5,48562.200000047684,49197.200000047684,49687.5,50089.300000071526,50455.300000071526,51274.200000047684,51627.200000047684,51967.200000047684,52389.200000047684,52889.300000071526,53360.200000047684,53684.200000047684,54174.5],"honeypot":0,"survey":"mace","page":9,"trial_type":"survey-mace","trial_index":17,"time_elapsed":451251,"internal_node_id":"0.0-17.0","task_version":"prescreen-v0.3","browser_interactions":0},{"responses":{"01":"No","02":"No","03":"No","04":"No","05":"No","06":"Yes","06_ages_17":"17","07":"Yes","07_ages_1":"1","07_ages_2":"2","07_ages_3":"3","07_ages_4":"4","07_ages_5":"5","07_ages_6":"6","07_ages_7":"7","07_ages_8":"8","07_ages_9":"9","07_ages_10":"10","07_ages_11":"11","07_ages_12":"12","07_ages_13":"13","07_ages_14":"14","07_ages_15":"15","07_ages_16":"16","07_ages_17":"17","07_ages_18":"18","08":"Yes","08_ages_1":"1","08_ages_2":"2","08_ages_3":"3","08_ages_4":"4","08_ages_5":"5","08_ages_6":"6","08_ages_7":"7","08_ages_8":"8","08_ages_9":"9","08_ages_10":"10","08_ages_11":"11","08_ages_12":"12","08_ages_13":"13","08_ages_14":"14","08_ages_15":"15","08_ages_16":"16","08_ages_17":"17","08_ages_18":"18"},"rt":45928.700000047684,"item_order":[0,1,2,3,4,5,6,7],"radio_events":[2164.7000000476837,4468.700000047684,6965.900000095367,9266.900000095367,13108.700000047684,17381.900000095367,20832.800000071526,33881.800000071526],"checkbox_events":[14750.800000071526,22931.700000047684,23953.700000047684,24351.800000071526,24762.800000071526,25211.800000071526,25623.700000047684,26133.800000071526,26527.800000071526,27034.200000047684,27432.800000071526,27934.700000047684,28781.800000071526,29356.800000071526,29713.800000071526,30129.800000071526,30625.800000071526,31045.800000071526,31470.800000071526,35050.700000047684,35351.700000047684,35845.90000009537,36309.800000071526,36706.800000071526,37078.800000071526,37847.90000009537,38259.800000071526,39778.800000071526,40181.800000071526,40547.800000071526,40950.800000071526,41343.800000071526,42019.800000071526,42405.800000071526,42791.800000071526,43559.800000071526,43825.90000009537],"key_events":[],"mouse_events":[2164.7000000476837,4468.700000047684,6965.900000095367,9266.900000095367,13108.700000047684,14750.800000071526,17381.900000095367,20832.800000071526,22233.800000071526,22931.700000047684,23953.700000047684,24351.800000071526,24762.800000071526,25211.800000071526,25623.700000047684,26133.800000071526,26527.800000071526,27034.200000047684,27432.800000071526,27934.700000047684,28293.800000071526,28781.800000071526,29356.800000071526,29713.800000071526,30129.800000071526,30625.800000071526,31045.800000071526,31470.800000071526,33509.90000009537,33881.800000071526,35050.700000047684,35351.700000047684,35845.90000009537,36309.800000071526,36706.800000071526,37078.800000071526,37484.800000071526,37847.90000009537,38259.800000071526,38704.800000071526,39012.60000002384,39363.60000002384,39778.800000071526,40181.800000071526,40547.800000071526,40950.800000071526,41343.800000071526,41663.90000009537,42019.800000071526,42405.800000071526,42791.800000071526,43119.90000009537,43559.800000071526,43825.90000009537,45926.300000071526],"honeypot":0,"survey":"mace","page":10,"trial_type":"survey-mace","trial_index":18,"time_elapsed":497183,"internal_node_id":"0.0-18.0","task_version":"prescreen-v0.3","browser_interactions":0,"instructed":0},{"rt":9623.899999976158,"trial_type":"mental-health-alert","trial_index":19,"time_elapsed":506808,"internal_node_id":"0.0-19.0","task_version":"prescreen-v0.3","interactions":"[]"}]