[{"view_history":[{"page_index":0,"viewing_time":1874.5},{"page_index":1,"viewing_time":2520.199999988079},{"page_index":2,"viewing_time":2319.2000000178814},{"page_index":3,"viewing_time":1212.0999999940395}],"rt":7926.5999999940395,"trial_type":"instructions","trial_index":0,"time_elapsed":7948,"internal_node_id":"0.0-0.0","task_version":"prescreen-v0.3"},{"rt":12332.200000017881,"responses":{"age":"18","gender-categorical":"Female","gender-free-response":"","ethnicity":"Not Hispanic or Latino","race":["White"],"education":"High school"},"trial_type":"survey-demo","trial_index":1,"time_elapsed":20284,"internal_node_id":"0.0-1.0","task_version":"prescreen-v0.3"},{"responses":{"Q14":"3","Q16":"3","Q07":"2","Q03":"1","Q21":"3","Q15":"2","Q06":"1","Q13":"2","Q02":"0","Q18":"2","Q09":"1","Q04":"0","Q11":"1","Q01":"1","Q05":"1","Q17":"0","Q08":"1","Q12":"1","Q19":"1","Q10":"1","Q20":"0"},"rt":120052.40000000596,"item_order":[13,15,6,2,20,14,5,12,1,17,8,3,10,0,4,16,7,11,18,9,19],"radio_events":[13893.59999999404,15881.40000000596,24999.70000001788,31325.80000001192,33857.90000000596,35177.30000001192,40181.09999999404,57537.09999999404,59531.59999999404,65325.5,69331.59999999404,72023.5,75603.09999999404,78571.40000000596,81136.59999999404,86082.40000000596,97262.40000000596,102321.80000001192,111544.70000001788,114774.59999999404,116918,118242.70000001788],"key_events":[],"mouse_events":[12652,13893.59999999404,15881.40000000596,24999.70000001788,27231.80000001192,31325.80000001192,33857.90000000596,35177.30000001192,37794.09999999404,40181.09999999404,57537.09999999404,59531.59999999404,64342.70000001788,65325.5,67829.59999999404,69331.59999999404,72023.5,74832.20000001788,75603.09999999404,78571.40000000596,80297.09999999404,81136.59999999404,86082.40000000596,97262.40000000596,100175.90000000596,102321.80000001192,110596.80000001192,111544.70000001788,114774.59999999404,116918,118242.70000001788,120050.59999999404],"straightlining":0.47619047619047616,"zigzagging":0.55,"honeypot":0,"survey":"sns","trial_type":"survey-template","trial_index":2,"time_elapsed":140344,"internal_node_id":"0.0-2.0","task_version":"prescreen-v0.3","browser_interactions":0,"infrequency":0},{"responses":{"Q07":"3","Q09":"2","Q13":"0","Q02":"3","Q05":"2","Q11":"2","Q04":"3","Q08":"2","Q06":"2","Q12":"1","Q03":"3","Q01":"3","Q10":"2"},"rt":82482.30000001192,"item_order":[6,8,12,1,4,10,3,7,5,11,2,0,9],"radio_events":[2755,6669.0999999940395,14559.199999988079,16510.59999999404,17938.09999999404,24241.5,28102,29251.5,32025.80000001192,66487.40000000596,69455.40000000596,70969.59999999404,72451.5,75961.40000000596,79203.90000000596,81128.69999998808],"key_events":[],"mouse_events":[2755,6669.0999999940395,14559.199999988079,16510.59999999404,17938.09999999404,24241.5,28102,29251.5,32025.80000001192,66487.40000000596,69455.40000000596,70969.59999999404,72451.5,73432.59999999404,74205.40000000596,75568.90000000596,75961.40000000596,79203.90000000596,81128.69999998808,82479.5],"straightlining":0.46153846153846156,"zigzagging":0.5833333333333334,"honeypot":0,"survey":"bisbas","trial_type":"survey-template","trial_index":3,"time_elapsed":222832,"internal_node_id":"0.0-3.0","task_version":"prescreen-v0.3","browser_interactions":0,"infrequency":0},{"responses":{"Q01":"2","Q02":"3","Q03":"2"},"rt":16400.5,"radio_events":[6502.299999982119,8699,12702,14387.299999982119],"key_events":[],"mouse_events":[3795.5999999940395,6502.299999982119,8699,12702,14387.299999982119,16399.19999998808],"survey":"map","page":1,"trial_type":"survey-map","trial_index":4,"time_elapsed":239246,"internal_node_id":"0.0-4.0","task_version":"prescreen-v0.3","browser_interactions":0},{"responses":{"Q04":"1","Q05":"1","Q06":"1"},"rt":8232.199999988079,"radio_events":[2907.699999988079,6105.899999976158,7003.699999988079],"key_events":[],"mouse_events":[2907.699999988079,5113.899999976158,6105.899999976158,7003.699999988079,8231],"survey":"map","page":2,"trial_type":"survey-map","trial_index":5,"time_elapsed":247489,"internal_node_id":"0.0-5.0","task_version":"prescreen-v0.3","browser_interactions":0},{"responses":{"Q07":"0","Q08":"4","Q09":"3"},"rt":11399.299999982119,"radio_events":[3894.899999976158,8112.5,10282.699999988079],"key_events":[],"mouse_events":[2716.699999988079,3894.899999976158,7196.5,8112.5,9320.399999976158,10282.699999988079,11398],"survey":"map","page":3,"trial_type":"survey-map","trial_index":6,"time_elapsed":258899,"internal_node_id":"0.0-6.0","task_version":"prescreen-v0.3","browser_interactions":0},{"responses":{"Q10":"2","Q11":"3","Q12":"2","Q13":"2","Q16":"0","Q14":"1","Q15":"1"},"rt":39341.30000001192,"radio_events":[10362.300000011921,16926.59999999404,18811,20460.5,23822.5,31396.59999999404,35834.40000000596,37483.59999999404],"key_events":[],"mouse_events":[8710.59999999404,10362.300000011921,15744.59999999404,16926.59999999404,18811,20460.5,23822.5,29549,31396.59999999404,35834.40000000596,37483.59999999404,39338.90000000596],"survey":"map","page":4,"trial_type":"survey-map","trial_index":7,"time_elapsed":298251,"internal_node_id":"0.0-7.0","task_version":"prescreen-v0.3","browser_interactions":0,"infrequency":0},{"view_history":[{"page_index":0,"viewing_time":1790.5},{"page_index":1,"viewing_time":2549.9000000059605}],"rt":4342,"trial_type":"instructions","trial_index":8,"time_elapsed":302603,"internal_node_id":"0.0-8.0","task_version":"prescreen-v0.3"},{"responses":{"01":"No","01_ages_11":"11","01_ages_12":"12","01_ages_13":"13","01_ages_14":"14","01_ages_15":"15","02":"No","03":"No","04":"No","05":"No","06":"Yes","06_ages_18":"18"},"rt":48620.80000001192,"item_order":[0,1,2,3,4,5],"radio_events":[11099.800000011921,12553.800000011921,15703.09999999404,16932.30000001192,21621.5,37615,43245.19999998808,46790],"checkbox_events":[26551.80000001192,27916.40000000596,30191.30000001192,30972.90000000596,33889.90000000596,39134.90000000596],"key_events":[],"mouse_events":[0.19999998807907104,11099.800000011921,12553.800000011921,15703.09999999404,16932.30000001192,20501.40000000596,21621.5,26551.80000001192,27916.40000000596,30191.30000001192,30972.90000000596,33889.90000000596,37615,39134.90000000596,43245.19999998808,46790,48613.69999998808],"honeypot":0,"survey":"mace","page":1,"trial_type":"survey-mace","trial_index":9,"time_elapsed":351240,"internal_node_id":"0.0-9.0","task_version":"prescreen-v0.3","browser_interactions":0},{"responses":{"01":"No","02":"No","03":"No","04":"No","05":"No","06":"No","07":"No","08":"No"},"rt":18550.69999998808,"item_order":[0,1,2,3,4,5,6,7],"radio_events":[4609.5,5768.699999988079,7045.299999982119,8228.09999999404,12807.299999982119,14327.09999999404,15664.5,17157.19999998808],"checkbox_events":[],"key_events":[],"mouse_events":[2865.199999988079,4609.5,5768.699999988079,7045.299999982119,8228.09999999404,12807.299999982119,14327.09999999404,15664.5,17157.19999998808,18541.40000000596],"honeypot":0,"survey":"mace","page":2,"trial_type":"survey-mace","trial_index":10,"time_elapsed":369805,"internal_node_id":"0.0-10.0","task_version":"prescreen-v0.3","browser_interactions":0},{"responses":{"01":"No","02":"No","03":"No","04":"No"},"rt":10800,"item_order":[0,1,2,3],"radio_events":[5349,6667.9000000059605,8159.9000000059605,9445],"checkbox_events":[],"key_events":[],"mouse_events":[3034.9000000059605,4170.9000000059605,5349,6667.9000000059605,8159.9000000059605,9445,10795.200000017881],"honeypot":0,"survey":"mace","page":3,"trial_type":"survey-mace","trial_index":11,"time_elapsed":380618,"internal_node_id":"0.0-11.0","task_version":"prescreen-v0.3","browser_interactions":0},{"responses":{"01":"No","02":"No"},"rt":10022.300000011921,"item_order":[0,1],"radio_events":[5438.9000000059605,8809.09999999404],"checkbox_events":[],"key_events":[],"mouse_events":[5438.9000000059605,7842.5999999940395,8809.09999999404,10019.800000011921],"honeypot":0,"survey":"mace","page":4,"trial_type":"survey-mace","trial_index":12,"time_elapsed":390651,"internal_node_id":"0.0-12.0","task_version":"prescreen-v0.3","browser_interactions":0},{"responses":{"01":"No","02":"No","03":"No","04":"No","05":"No"},"rt":16879.90000000596,"item_order":[0,1,2,3,4],"radio_events":[5105.9000000059605,6407.9000000059605,12414.90000000596,14620.5,15847.90000000596],"checkbox_events":[],"key_events":[],"mouse_events":[5105.9000000059605,6407.9000000059605,11350.800000011921,12414.90000000596,14620.5,15847.90000000596,16874.40000000596],"honeypot":0,"survey":"mace","page":5,"trial_type":"survey-mace","trial_index":13,"time_elapsed":407544,"internal_node_id":"0.0-13.0","task_version":"prescreen-v0.3","browser_interactions":0},{"responses":{"01":"Yes","01_ages_10":"10","01_ages_11":"11","01_ages_12":"12","01_ages_13":"13","01_ages_14":"14","01_ages_15":"15","01_ages_16":"16","02":"Yes","02_ages_10":"10","02_ages_11":"11","02_ages_12":"12","02_ages_13":"13","02_ages_14":"14","02_ages_15":"15","02_ages_16":"16","02_ages_17":"17","03":"Yes","03_ages_15":"15","03_ages_16":"16","03_ages_17":"17","04":"Yes","04_ages_8":"8","04_ages_9":"9","04_ages_10":"10","04_ages_11":"11","04_ages_12":"12","04_ages_13":"13","04_ages_14":"14","04_ages_15":"15","04_ages_16":"16","05":"No"},"rt":61155.29999998212,"item_order":[0,1,2,3,4],"radio_events":[3053.399999976158,15225.899999976158,32840.59999999404,48175.79999998212,60073.59999999404],"checkbox_events":[7559,8560.09999999404,9613.5,10759.399999976158,11767.399999976158,12838.5,13936.09999999404,18832,20603.09999999404,22028.69999998808,23643.59999999404,26454.899999976158,27518.19999998808,28727.5,29739.09999999404,37348.19999998808,38168.5,39152.89999997616,40555.59999999404,41515.29999998212,42056.5,43050.39999997616,44278.59999999404,45441,50583.39999997616,52371.29999998212,53244.69999998808],"key_events":[],"mouse_events":[3053.399999976158,6207.299999982119,7559,8560.09999999404,9613.5,10759.399999976158,11767.399999976158,12838.5,13936.09999999404,15225.899999976158,18832,19779.59999999404,20603.09999999404,21656.79999998212,22028.69999998808,23643.59999999404,25043,26080.09999999404,26454.899999976158,27518.19999998808,28727.5,29739.09999999404,32840.59999999404,36744.69999998808,37348.19999998808,38168.5,39152.89999997616,39824.59999999404,40555.59999999404,41091.59999999404,41515.29999998212,42056.5,43050.39999997616,44278.59999999404,45441,48175.79999998212,49499.29999998212,50583.39999997616,51945.89999997616,52371.29999998212,53244.69999998808,60073.59999999404,61149.29999998212],"honeypot":0,"survey":"mace","page":6,"trial_type":"survey-mace","trial_index":14,"time_elapsed":468705,"internal_node_id":"0.0-14.0","task_version":"prescreen-v0.3","browser_interactions":0},{"responses":{"01":"No","02":"Yes","02_ages_15":"15","02_ages_16":"16","02_ages_17":"17","02_ages_18":"18","03":"No","04":"No","05":"No","06":"Yes","06_ages_15":"15","06_ages_16":"16","06_ages_17":"17","06_ages_18":"18","07":"Yes","07_ages_15":"15","07_ages_16":"16","07_ages_17":"17","07_ages_18":"18"},"rt":36091.70000001788,"item_order":[0,1,2,3,4,5,6],"radio_events":[5415.300000011921,7799.200000017881,16216.700000017881,17481.90000000596,20722.80000001192,21999.30000001192,30139.90000000596],"checkbox_events":[9345.40000000596,10810.200000017881,11348.100000023842,12475.100000023842,23439.20000001788,24324.30000001192,26198.70000001788,26991.30000001192,31365.100000023842,31976.600000023842,32967.20000001788,33653.20000001788],"key_events":[],"mouse_events":[5415.300000011921,7016,7799.200000017881,9345.40000000596,10269.800000011921,10810.200000017881,11348.100000023842,11889.200000017881,12475.100000023842,16216.700000017881,17481.90000000596,18627.30000001192,20722.80000001192,21999.30000001192,23439.20000001788,24324.30000001192,25041.20000001788,25784.100000023842,26198.70000001788,26991.30000001192,27682.80000001192,30139.90000000596,31365.100000023842,31976.600000023842,32967.20000001788,33653.20000001788,36083.5],"honeypot":0,"survey":"mace","page":7,"trial_type":"survey-mace","trial_index":15,"time_elapsed":504812,"internal_node_id":"0.0-15.0","task_version":"prescreen-v0.3","browser_interactions":0},{"responses":{"01":"No","02":"No","03":"No","04":"No"},"rt":9944.5,"item_order":[0,1,2,3],"radio_events":[5241.9000000059605,7284.5,8307.90000000596,9119.300000011921],"checkbox_events":[],"key_events":[],"mouse_events":[5241.9000000059605,7284.5,8307.90000000596,9119.300000011921,9939.700000017881],"honeypot":0,"survey":"mace","page":8,"trial_type":"survey-mace","trial_index":16,"time_elapsed":514769,"internal_node_id":"0.0-16.0","task_version":"prescreen-v0.3","browser_interactions":0},{"responses":{"01":"Yes","01_ages_1":"1","01_ages_2":"2","01_ages_3":"3","01_ages_4":"4","01_ages_5":"5","01_ages_6":"6","01_ages_7":"7","01_ages_8":"8","01_ages_9":"9","01_ages_10":"10","01_ages_11":"11","01_ages_12":"12","01_ages_13":"13","01_ages_14":"14","01_ages_15":"15","01_ages_16":"16","01_ages_17":"17","01_ages_18":"18","02":"Yes","02_ages_1":"1","02_ages_2":"2","02_ages_3":"3","02_ages_4":"4","02_ages_5":"5","02_ages_6":"6","02_ages_7":"7","02_ages_8":"8","02_ages_9":"9","02_ages_10":"10","02_ages_11":"11","02_ages_12":"12","02_ages_13":"13","02_ages_14":"14","02_ages_15":"15","02_ages_16":"16","02_ages_17":"17","02_ages_18":"18","03":"Yes","03_ages_1":"1","03_ages_2":"2","03_ages_3":"3","03_ages_4":"4","03_ages_5":"5","03_ages_6":"6","03_ages_7":"7","03_ages_8":"8","03_ages_9":"9","03_ages_10":"10","03_ages_11":"11","03_ages_12":"12","03_ages_13":"13","03_ages_14":"14","03_ages_15":"15","03_ages_16":"16","03_ages_17":"17","03_ages_18":"18","04":"Yes","04_ages_1":"1","04_ages_2":"2","04_ages_3":"3","04_ages_4":"4","04_ages_5":"5","04_ages_6":"6","04_ages_7":"7","04_ages_8":"8","04_ages_9":"9","04_ages_10":"10","04_ages_11":"11","04_ages_12":"12","04_ages_13":"13","04_ages_14":"14","04_ages_15":"15","04_ages_16":"16","04_ages_17":"17","04_ages_18":"18"},"rt":95867.80000001192,"item_order":[0,1,2,3],"radio_events":[2285,24164,25511.30000001192,26737.09999999404],"checkbox_events":[5964.700000017881,6850.0999999940395,7652.800000011921,8430.300000011921,9237.90000000596,10240.5,11012.700000017881,12805.5,13919.90000000596,15363.5,16165,16957.20000001788,17685.30000001192,18339.40000000596,19362.59999999404,20403.30000001192,21727.09999999404,22893.70000001788,28455.90000000596,30063.70000001788,31150.90000000596,32246.30000001192,33237.40000000596,34229.59999999404,35085.80000001192,36487.80000001192,37370.09999999404,38431.40000000596,39628.70000001788,40999.09999999404,42545.70000001788,51323.90000000596,52533.20000001788,53652.70000001788,54695.90000000596,56639.90000000596,63986.40000000596,64662.80000001192,66690.5,67489.59999999404,68308.90000000596,69686.09999999404,70287.70000001788,70986.80000001192,71728.80000001192,72392.90000000596,72959.80000001192,73651,74253.80000001192,75557.59999999404,76089.20000001788,76725.80000001192,77367.5,78031.70000001788,79842.90000000596,81164.70000001788,83497,84109,84779.70000001788,85458.80000001192,86129,86752,87458,88408.90000000596,89735,90495.59999999404,91805.30000001192,92343.59999999404,92865.59999999404,93496.59999999404,94165.30000001192,95064.70000001788],"key_events":[],"mouse_events":[2285,5364.5999999940395,5964.700000017881,6850.0999999940395,7652.800000011921,8430.300000011921,9237.90000000596,10240.5,11012.700000017881,11707.300000011921,12805.5,13919.90000000596,14647.300000011921,15363.5,16165,16957.20000001788,17685.30000001192,18339.40000000596,19362.59999999404,20403.30000001192,21727.09999999404,22893.70000001788,24164,25511.30000001192,26737.09999999404,28455.90000000596,29278.90000000596,30063.70000001788,31150.90000000596,32246.30000001192,33237.40000000596,34229.59999999404,35085.80000001192,36487.80000001192,37370.09999999404,38431.40000000596,39628.70000001788,40999.09999999404,41894.80000001192,42545.70000001788,49945.20000001788,51323.90000000596,52533.20000001788,53652.70000001788,54695.90000000596,55893.5,56639.90000000596,60049.20000001788,63256.90000000596,63986.40000000596,64662.80000001192,65595.20000001788,66690.5,67489.59999999404,68308.90000000596,69130.09999999404,69686.09999999404,70287.70000001788,70986.80000001192,71728.80000001192,72392.90000000596,72959.80000001192,73651,74253.80000001192,74944,75557.59999999404,76089.20000001788,76725.80000001192,77367.5,78031.70000001788,79009.40000000596,79842.90000000596,80660.90000000596,81164.70000001788,81948.09999999404,82760.80000001192,83497,84109,84779.70000001788,85458.80000001192,86129,86752,87458,88408.90000000596,89735,90495.59999999404,91805.30000001192,92343.59999999404,92865.59999999404,93496.59999999404,94165.30000001192,95064.70000001788,95863.09999999404],"honeypot":0,"survey":"mace","page":9,"trial_type":"survey-mace","trial_index":17,"time_elapsed":610649,"internal_node_id":"0.0-17.0","task_version":"prescreen-v0.3","browser_interactions":0},{"responses":{"01":"No","02":"No","03":"No","04":"No","05":"No","06":"Yes","06_ages_17":"17","07":"Yes","07_ages_1":"1","07_ages_2":"2","07_ages_3":"3","07_ages_4":"4","07_ages_5":"5","07_ages_6":"6","07_ages_7":"7","07_ages_8":"8","07_ages_9":"9","07_ages_10":"10","07_ages_11":"11","07_ages_12":"12","07_ages_13":"13","07_ages_14":"14","07_ages_15":"15","07_ages_16":"16","07_ages_17":"17","07_ages_18":"18","08":"Yes","08_ages_1":"1","08_ages_2":"2","08_ages_3":"3","08_ages_4":"4","08_ages_5":"5","08_ages_6":"6","08_ages_7":"7","08_ages_8":"8","08_ages_9":"9","08_ages_10":"10","08_ages_11":"11","08_ages_12":"12","08_ages_13":"13","08_ages_14":"14","08_ages_15":"15","08_ages_16":"16"},"rt":52819.30000001192,"item_order":[0,1,2,3,4,5,6,7],"radio_events":[3712.600000023842,6963.200000017881,7817.5,8726.600000023842,10637.90000000596,14125.5,18079.30000001192,36338.40000000596],"checkbox_events":[15403.5,19672.5,20351.30000001192,20916,21509.80000001192,23689.30000001192,24249.70000001788,24960.100000023842,25559.600000023842,26339.100000023842,26865,28853.80000001192,29606.20000001788,30159.40000000596,31081.80000001192,31692.20000001788,32376.600000023842,33109.5,33700.60000002384,37385.40000000596,38476.30000001192,39399.5,40651.60000002384,41256.20000001788,41915.40000000596,42649.70000001788,43423.5,44136.40000000596,44849.70000001788,47371.5,48183.5,48853.5,49466.70000001788,50054.30000001192,50584.40000000596],"key_events":[],"mouse_events":[3712.600000023842,4594.600000023842,5555.800000011921,6963.200000017881,7817.5,8726.600000023842,10637.90000000596,14125.5,15403.5,18079.30000001192,19672.5,20351.30000001192,20916,21509.80000001192,22115.80000001192,22837.40000000596,23689.30000001192,24249.70000001788,24960.100000023842,25559.600000023842,26339.100000023842,26865,27515.80000001192,28132.70000001788,28853.80000001192,29606.20000001788,30159.40000000596,31081.80000001192,31692.20000001788,32376.600000023842,33109.5,33700.60000002384,36338.40000000596,37385.40000000596,38476.30000001192,39399.5,39957.40000000596,40651.60000002384,41256.20000001788,41915.40000000596,42649.70000001788,43423.5,44136.40000000596,44849.70000001788,45530,46077,46690.30000001192,47371.5,48183.5,48853.5,49466.70000001788,50054.30000001192,50584.40000000596,52809.90000000596],"honeypot":0,"survey":"mace","page":10,"trial_type":"survey-mace","trial_index":18,"time_elapsed":663485,"internal_node_id":"0.0-18.0","task_version":"prescreen-v0.3","browser_interactions":0,"instructed":0},{"rt":6101.800000011921,"trial_type":"mental-health-alert","trial_index":19,"time_elapsed":669597,"internal_node_id":"0.0-19.0","task_version":"prescreen-v0.3","interactions":"[]"}]