[{"view_history":[{"page_index":0,"viewing_time":5461.800000071526},{"page_index":1,"viewing_time":2825.5},{"page_index":2,"viewing_time":1868},{"page_index":3,"viewing_time":639.1000000238419}],"rt":10795,"trial_type":"instructions","trial_index":0,"time_elapsed":10809,"internal_node_id":"0.0-0.0","task_version":"prescreen-v0.3"},{"rt":11830.700000047684,"responses":{"age":"28","gender-categorical":"Male","gender-free-response":"","ethnicity":"Not Hispanic or Latino","race":["Asian"],"education":"Master degree or higher"},"trial_type":"survey-demo","trial_index":1,"time_elapsed":22643,"internal_node_id":"0.0-1.0","task_version":"prescreen-v0.3"},{"responses":{"Q20":"2","Q05":"0","Q03":"2","Q16":"2","Q08":"2","Q14":"1","Q19":"3","Q10":"1","Q18":"2","Q12":"2","Q15":"2","Q02":"2","Q11":"1","Q13":"2","Q07":"3","Q04":"3","Q17":"2","Q21":"3","Q09":"2","Q06":"2","Q01":"3"},"rt":112665.20000004768,"item_order":[19,4,2,15,7,13,18,9,17,11,14,1,10,12,6,3,16,20,8,5,0],"radio_events":[7421,8008.400000095367,15809.400000095367,22791.400000095367,26194.800000071526,29072.400000095367,30150.300000071526,33932.200000047684,36246.40000009537,42896.200000047684,48923.200000047684,49884,53320.300000071526,68545.10000002384,72827.30000007153,78778.20000004768,79601.30000007153,85187.20000004768,87676.20000004768,91733.90000009537,94919,97722.20000004768,102276.20000004768,106281.20000004768,109807.80000007153,111636.90000009537],"key_events":[5844.400000095367,7421,8008.400000095367,15384.100000023842,15809.400000095367,17523.400000095367,17945.200000047684,18349.300000071526,18757.400000095367,18954.600000023842,22791.400000095367,26194.800000071526,29072.400000095367,29623.300000071526,30150.300000071526,33932.200000047684,36246.40000009537,42637.200000047684,42896.200000047684,48923.200000047684,49884,51444.40000009537,51949.60000002384,52945,53320.300000071526,68545.10000002384,72827.30000007153,76441.30000007153,77458.80000007153,78393.30000007153,78778.20000004768,79601.30000007153,85187.20000004768,86608.60000002384,87676.20000004768,91469.90000009537,91733.90000009537,94527.80000007153,94919,97415,97722.20000004768,101886.30000007153,102276.20000004768,106281.20000004768,109237,109807.80000007153,110811,111096.10000002384,111636.90000009537,112403.70000004768,112663.30000007153],"mouse_events":[],"straightlining":0.5714285714285714,"zigzagging":0.45,"honeypot":0,"survey":"sns","trial_type":"survey-template","trial_index":2,"time_elapsed":135314,"internal_node_id":"0.0-2.0","task_version":"prescreen-v0.3","browser_interactions":0,"infrequency":0},{"responses":{"Q04":"3","Q01":"3","Q03":"2","Q12":"1","Q02":"2","Q13":"0","Q11":"3","Q09":"2","Q07":"2","Q10":"1","Q06":"2","Q05":"2","Q08":"2"},"rt":54192.5,"item_order":[3,0,2,11,1,12,10,8,6,9,5,4,7],"radio_events":[10638,11461.5,13167.100000023842,14430,19352.899999976158,24034.5,28274.100000023842,37590.10000002384,41869.300000071526,42431,46213.10000002384,48977.800000071526,50755.700000047684,53705],"key_events":[253,10638,11461.5,13167.100000023842,14003.700000047684,14430,18685.200000047684,18966.100000023842,19352.899999976158,22779.700000047684,23825.100000023842,24034.5,27836.300000071526,28274.100000023842,37292,37590.10000002384,40695.10000002384,41869.300000071526,42431,45265.300000071526,46213.10000002384,48167.5,48977.800000071526,50755.700000047684,52610.39999997616,53475.700000047684,53705,54191.89999997616],"mouse_events":[],"straightlining":0.5384615384615384,"zigzagging":0.5833333333333334,"honeypot":0,"survey":"bisbas","trial_type":"survey-template","trial_index":3,"time_elapsed":189510,"internal_node_id":"0.0-3.0","task_version":"prescreen-v0.3","browser_interactions":0,"infrequency":0},{"responses":{"Q01":"2","Q02":"1","Q03":"3"},"rt":18239.799999952316,"radio_events":[5897,12811.100000023842,17440.399999976158],"key_events":[3889.5,4708.399999976158,5219.399999976158,5897,12390.5,12811.100000023842,17440.399999976158,18239.399999976158],"mouse_events":[],"survey":"map","page":1,"trial_type":"survey-map","trial_index":4,"time_elapsed":207754,"internal_node_id":"0.0-4.0","task_version":"prescreen-v0.3","browser_interactions":0},{"responses":{"Q04":"3","Q05":"3","Q06":"3"},"rt":10218.100000023842,"radio_events":[3746.5,7265.799999952316,9701.600000023842],"key_events":[3746.5,6111.199999928474,6723.399999976158,7265.799999952316,9701.600000023842,10217.699999928474],"mouse_events":[],"survey":"map","page":2,"trial_type":"survey-map","trial_index":5,"time_elapsed":217975,"internal_node_id":"0.0-5.0","task_version":"prescreen-v0.3","browser_interactions":0},{"responses":{"Q07":"2","Q08":"2","Q09":"2"},"rt":12769.399999976158,"radio_events":[5364.300000071526,11785.5,12357.800000071526],"key_events":[4647.5,5364.300000071526,7397,7941.300000071526,10458.800000071526,11785.5,12357.800000071526,12769],"mouse_events":[],"survey":"map","page":3,"trial_type":"survey-map","trial_index":6,"time_elapsed":230747,"internal_node_id":"0.0-6.0","task_version":"prescreen-v0.3","browser_interactions":0},{"responses":{"Q10":"1","Q11":"1","Q12":"2","Q13":"2","Q16":"0","Q14":"2","Q15":"3"},"rt":38952.39999997616,"radio_events":[5544.199999928474,9216.799999952316,15550.899999976158,21988.199999928474,27417.699999928474,31477.199999928474,37805.199999928474],"key_events":[5193.199999928474,5544.199999928474,9216.799999952316,15550.899999976158,21988.199999928474,27417.699999928474,31477.199999928474,34791.5,35459.299999952316,36012.199999928474,37805.199999928474,38333.199999928474,38951.799999952316],"mouse_events":[],"survey":"map","page":4,"trial_type":"survey-map","trial_index":7,"time_elapsed":269702,"internal_node_id":"0.0-7.0","task_version":"prescreen-v0.3","browser_interactions":0,"infrequency":0},{"view_history":[{"page_index":0,"viewing_time":3604.2000000476837},{"page_index":1,"viewing_time":2992.100000023842}],"rt":6596.800000071526,"trial_type":"instructions","trial_index":8,"time_elapsed":276301,"internal_node_id":"0.0-8.0","task_version":"prescreen-v0.3"},{"responses":{"01":"Yes","01_ages_9":"9","01_ages_10":"10","01_ages_11":"11","01_ages_12":"12","01_ages_13":"13","01_ages_14":"14","01_ages_15":"15","01_ages_16":"16","02":"Yes","02_ages_12":"12","02_ages_13":"13","02_ages_14":"14","03":"No","04":"No","05":"No","06":"Yes","06_ages_16":"16","06_ages_17":"17","06_ages_18":"18"},"rt":43544.700000047684,"item_order":[0,1,2,3,4,5],"radio_events":[2491.600000023842,18230,30587.899999976158,35074.60000002384,37812.700000047684,40179],"checkbox_events":[7276.399999976158,7699.899999976158,8251.300000071526,8548,8903.100000023842,9282.300000071526,12405.600000023842,12793.899999976158,26946.800000071526,27653,28030.399999976158,41178.89999997616,42344.60000002384,43140.39999997616],"key_events":[0,2491.600000023842,6098.899999976158,6305,6560.899999976158,6984.899999976158,7276.399999976158,7699.899999976158,8251.300000071526,8548,8903.100000023842,9282.300000071526,11449.100000023842,11697,12405.600000023842,12793.899999976158,18230,26946.800000071526,27653,28030.399999976158,30587.899999976158,32947.300000071526,35074.60000002384,35630.200000047684,36193,36670.89999997616,37060,37812.700000047684,40179,41178.89999997616,42344.60000002384,42763.800000071526,43140.39999997616,43543.200000047684],"mouse_events":[],"honeypot":0,"survey":"mace","page":1,"trial_type":"survey-mace","trial_index":9,"time_elapsed":319851,"internal_node_id":"0.0-9.0","task_version":"prescreen-v0.3","browser_interactions":0},{"responses":{"01":"No","02":"No","03":"No","04":"No","05":"Yes","05_ages_11":"11","05_ages_12":"12","05_ages_13":"13","05_ages_14":"14","06":"No","07":"No","08":"No"},"rt":28764.5,"item_order":[0,1,2,3,4,5,6,7],"radio_events":[5628.5,9651,11552.799999952316,13043.299999952316,14341.200000047684,21639.799999952316,25709.700000047684,28269.799999952316],"checkbox_events":[16857.899999976158,17247.399999976158,18810.899999976158,19197.799999952316],"key_events":[5628.5,8650.700000047684,9651,11552.799999952316,13043.299999952316,14341.200000047684,16362.899999976158,16857.899999976158,17247.399999976158,17680.5,17919.100000023842,18285.100000023842,18561.899999976158,18810.899999976158,19197.799999952316,21639.799999952316,25709.700000047684,27699.899999976158,28269.799999952316,28762.100000023842],"mouse_events":[],"honeypot":0,"survey":"mace","page":2,"trial_type":"survey-mace","trial_index":10,"time_elapsed":348620,"internal_node_id":"0.0-10.0","task_version":"prescreen-v0.3","browser_interactions":0},{"responses":{"01":"No","02":"No","03":"No","04":"No"},"rt":7215.100000023842,"item_order":[0,1,2,3],"radio_events":[2921.5,3886.899999976158,5236.899999976158,6495.600000023842],"checkbox_events":[],"key_events":[2921.5,3886.899999976158,5236.899999976158,6495.600000023842,7214],"mouse_events":[],"honeypot":0,"survey":"mace","page":3,"trial_type":"survey-mace","trial_index":11,"time_elapsed":355839,"internal_node_id":"0.0-11.0","task_version":"prescreen-v0.3","browser_interactions":0},{"responses":{"01":"No","02":"No"},"rt":5922.100000023842,"item_order":[0,1],"radio_events":[1799.3999999761581,3322.399999976158],"checkbox_events":[],"key_events":[1799.3999999761581,3322.399999976158,5374.200000047684,5921.5],"mouse_events":[],"honeypot":0,"survey":"mace","page":4,"trial_type":"survey-mace","trial_index":12,"time_elapsed":361764,"internal_node_id":"0.0-12.0","task_version":"prescreen-v0.3","browser_interactions":0},{"responses":{"01":"No","02":"No","03":"No","04":"No","05":"No"},"rt":10093.899999976158,"item_order":[0,1,2,3,4],"radio_events":[4141.399999976158,4899.5,6290.200000047684,7296.100000023842,9802.299999952316],"checkbox_events":[],"key_events":[4141.399999976158,4899.5,6290.200000047684,7296.100000023842,9802.299999952316,10092.399999976158],"mouse_events":[],"honeypot":0,"survey":"mace","page":5,"trial_type":"survey-mace","trial_index":13,"time_elapsed":371861,"internal_node_id":"0.0-13.0","task_version":"prescreen-v0.3","browser_interactions":0},{"responses":{"01":"Yes","01_ages_9":"9","01_ages_10":"10","01_ages_11":"11","01_ages_12":"12","01_ages_13":"13","01_ages_14":"14","01_ages_15":"15","01_ages_16":"16","02":"Yes","02_ages_12":"12","02_ages_13":"13","02_ages_14":"14","03":"No","04":"No","05":"No"},"rt":31354,"item_order":[0,1,2,3,4],"radio_events":[5270.399999976158,20328.5,26807.699999928474,29620.599999904633,30954.699999928474],"checkbox_events":[9753.5,10167.899999976158,10734.599999904633,11046.699999928474,11733,12326.199999928474,12661.599999904633,12971.5,13292.599999904633,13918.699999928474,22181.699999928474,23054.599999904633,24675.599999904633],"key_events":[5270.399999976158,9753.5,10167.899999976158,10503.699999928474,10734.599999904633,11046.699999928474,11733,12326.199999928474,12661.599999904633,12971.5,13292.599999904633,13576.699999928474,13918.699999928474,20011.5,20328.5,21537.299999952316,22181.699999928474,22460.699999928474,23054.599999904633,23448.599999904633,24675.599999904633,26807.699999928474,29620.599999904633,30954.699999928474,31352.799999952316],"mouse_events":[],"honeypot":0,"survey":"mace","page":6,"trial_type":"survey-mace","trial_index":14,"time_elapsed":403219,"internal_node_id":"0.0-14.0","task_version":"prescreen-v0.3","browser_interactions":0},{"responses":{"01":"No","02":"No","03":"No","04":"No","05":"No","06":"No","07":"No"},"rt":13577.399999976158,"item_order":[0,1,2,3,4,5,6],"radio_events":[2057.399999976158,4107.299999952316,5266.799999952316,7661.699999928474,10700.699999928474,12153.600000023842,13105.299999952316],"checkbox_events":[],"key_events":[2057.399999976158,2878.6999999284744,3858.899999976158,4107.299999952316,5266.799999952316,7661.699999928474,10700.699999928474,12153.600000023842,13105.299999952316,13575.699999928474],"mouse_events":[],"honeypot":0,"survey":"mace","page":7,"trial_type":"survey-mace","trial_index":15,"time_elapsed":416801,"internal_node_id":"0.0-15.0","task_version":"prescreen-v0.3","browser_interactions":0},{"responses":{"01":"No","02":"No","03":"Yes","03_ages_6":"6","03_ages_7":"7","03_ages_8":"8","03_ages_9":"9","03_ages_10":"10","03_ages_11":"11","03_ages_12":"12","03_ages_13":"13","03_ages_14":"14","03_ages_15":"15","03_ages_16":"16","04":"Yes","04_ages_6":"6","04_ages_7":"7","04_ages_8":"8","04_ages_9":"9","04_ages_10":"10","04_ages_11":"11","04_ages_12":"12","04_ages_13":"13","04_ages_14":"14","04_ages_15":"15","04_ages_16":"16"},"rt":47972.299999952316,"item_order":[0,1,2,3],"radio_events":[2282.600000023842,3525.1999999284744,7395.199999928474,16628.399999976158,21587.299999952316,35953.10000002384,39237.39999997616],"checkbox_events":[23257.799999952316,24043.100000023842,24258.100000023842,24484.299999952316,24898.199999928474,25291.600000023842,25830.799999952316,26114.5,26419.100000023842,26715.100000023842,27069.199999928474,27373.199999928474,27966.799999952316,28243.899999976158,28553.199999928474,29857.699999928474,30493.600000023842,30841.199999928474,31171.100000023842,31473.100000023842,31834.100000023842,32696.699999928474,33174,41110.10000002384,41368.10000002384,42205.699999928474,42517.10000002384,42848.5,44746.699999928474,44997.199999928474,45499.10000002384,45827.10000002384,46429.699999928474,46744.39999997616],"key_events":[2282.600000023842,2961.1999999284744,3525.1999999284744,6777.699999928474,7395.199999928474,16628.399999976158,20228.100000023842,20796.199999928474,21287.799999952316,21587.299999952316,22959,23257.799999952316,23556.799999952316,24043.100000023842,24258.100000023842,24484.299999952316,24898.199999928474,25291.600000023842,25830.799999952316,26114.5,26419.100000023842,26715.100000023842,27069.199999928474,27373.199999928474,27966.799999952316,28243.899999976158,28553.199999928474,28900.100000023842,29670.100000023842,29857.699999928474,30297.899999976158,30493.600000023842,30841.199999928474,31171.100000023842,31473.100000023842,31834.100000023842,32317.5,32696.699999928474,33174,35953.10000002384,37194.799999952316,39237.39999997616,41110.10000002384,41368.10000002384,41684.39999997616,42205.699999928474,42517.10000002384,42848.5,43239.199999928474,43536,43884.10000002384,44203.60000002384,44476.699999928474,44746.699999928474,44997.199999928474,45499.10000002384,45827.10000002384,46182.199999928474,46429.699999928474,46744.39999997616,47971.199999928474],"mouse_events":[],"honeypot":0,"survey":"mace","page":8,"trial_type":"survey-mace","trial_index":16,"time_elapsed":464777,"internal_node_id":"0.0-16.0","task_version":"prescreen-v0.3","browser_interactions":0},{"responses":{"01":"No","02":"No","03":"No","04":"Yes","04_ages_8":"8","04_ages_9":"9","04_ages_10":"10","04_ages_11":"11","04_ages_12":"12","04_ages_13":"13","04_ages_14":"14","04_ages_15":"15","04_ages_16":"16"},"rt":24365.600000023842,"item_order":[0,1,2,3],"radio_events":[2609.2999999523163,4435.200000047684,4912.200000047684,5796.799999952316,8487.200000047684,9939.600000023842,15755.299999952316],"checkbox_events":[17499.899999976158,17740.899999976158,17988.100000023842,18534.200000047684,18789,19118.299999952316,19386.799999952316,20295.200000047684,20703.299999952316],"key_events":[2609.2999999523163,4435.200000047684,4912.200000047684,5472.799999952316,5796.799999952316,8200.700000047684,8487.200000047684,9939.600000023842,15755.299999952316,17499.899999976158,17740.899999976158,17988.100000023842,18255,18534.200000047684,18789,19118.299999952316,19386.799999952316,20295.200000047684,20703.299999952316,24364.399999976158],"mouse_events":[],"honeypot":0,"survey":"mace","page":9,"trial_type":"survey-mace","trial_index":17,"time_elapsed":489146,"internal_node_id":"0.0-17.0","task_version":"prescreen-v0.3","browser_interactions":0},{"responses":{"01":"No","02":"No","03":"Yes","03_ages_8":"8","03_ages_9":"9","03_ages_10":"10","03_ages_11":"11","03_ages_12":"12","03_ages_13":"13","03_ages_14":"14","03_ages_15":"15","03_ages_16":"16","04":"Yes","04_ages_8":"8","04_ages_9":"9","04_ages_10":"10","04_ages_11":"11","04_ages_12":"12","04_ages_13":"13","04_ages_14":"14","04_ages_15":"15","04_ages_16":"16","04_ages_17":"17","05":"No","06":"Yes","06_ages_17":"17","07":"No","08":"No"},"rt":45651.700000047684,"item_order":[0,1,2,3,4,5,6,7],"radio_events":[2310,3023.899999976158,3858.899999976158,5539.600000023842,20393.600000023842,37714.299999952316,40167.39999997616,43898.700000047684,45257.39999997616],"checkbox_events":[7232.399999976158,8485.799999952316,9533.299999952316,10082.799999952316,11236.700000047684,12085.700000047684,12721.799999952316,13259.799999952316,15295.5,15606,15948.899999976158,22558.600000023842,22892.700000047684,23192.5,23492.899999976158,23763.299999952316,25115,25857.100000023842,26118.100000023842,27142.600000023842,28235.899999976158,28549.399999976158,30364.899999976158,31337.700000047684,32611.100000023842,41230.700000047684],"key_events":[2310,3023.899999976158,3858.899999976158,5539.600000023842,7232.399999976158,7955.600000023842,8274.600000023842,8485.799999952316,8754.600000023842,9109,9533.299999952316,9800.200000047684,10082.799999952316,10438.600000023842,10699.700000047684,10968.600000023842,11236.700000047684,11574.799999952316,12085.700000047684,12721.799999952316,13259.799999952316,13550.5,14096.399999976158,14675.700000047684,15295.5,15606,15948.899999976158,20393.600000023842,22039.799999952316,22558.600000023842,22892.700000047684,23192.5,23492.899999976158,23763.299999952316,24061.799999952316,24853.700000047684,25115,25857.100000023842,26118.100000023842,26393.799999952316,27142.600000023842,27573.600000023842,27894.100000023842,28235.899999976158,28549.399999976158,30364.899999976158,31337.700000047684,32167.100000023842,32611.100000023842,37714.299999952316,40167.39999997616,41230.700000047684,43898.700000047684,45257.39999997616,45649.700000047684],"mouse_events":[],"honeypot":0,"survey":"mace","page":10,"trial_type":"survey-mace","trial_index":18,"time_elapsed":534802,"internal_node_id":"0.0-18.0","task_version":"prescreen-v0.3","browser_interactions":0,"instructed":0},{"rt":2425.100000023842,"trial_type":"mental-health-alert","trial_index":19,"time_elapsed":537230,"internal_node_id":"0.0-19.0","task_version":"prescreen-v0.3","interactions":"[{\"event\":\"blur\",\"trial\":0,\"time\":973},{\"event\":\"focus\",\"trial\":0,\"time\":3494}]"}]