[{"view_history":[{"page_index":0,"viewing_time":2526.8000000715256},{"page_index":1,"viewing_time":6104.299999952316},{"page_index":2,"viewing_time":4111.799999952316},{"page_index":3,"viewing_time":2554.100000023842}],"rt":15297.399999976158,"trial_type":"instructions","trial_index":0,"time_elapsed":15308,"internal_node_id":"0.0-0.0","task_version":"prescreen-v0.3"},{"rt":17924.900000095367,"responses":{"age":"20","gender-categorical":"Male","gender-free-response":"","ethnicity":"Not Hispanic or Latino","race":["White"],"education":"High school"},"trial_type":"survey-demo","trial_index":1,"time_elapsed":33236,"internal_node_id":"0.0-1.0","task_version":"prescreen-v0.3"},{"responses":{"Q12":"0","Q17":"0","Q20":"3","Q04":"1","Q19":"0","Q10":"0","Q21":"3","Q11":"1","Q15":"3","Q07":"0","Q02":"0","Q06":"3","Q14":"2","Q05":"1","Q16":"1","Q03":"0","Q09":"0","Q18":"1","Q08":"3","Q01":"2","Q13":"2"},"rt":186038.89999997616,"item_order":[11,16,19,3,18,9,20,10,14,6,1,5,13,4,15,2,8,17,7,0,12],"radio_events":[11122.700000047684,16748.299999952316,18873.5,28311.600000023842,35950.89999997616,39306.700000047684,50521.60000002384,58379.39999997616,60694.700000047684,66857.60000002384,72031.60000002384,80952.70000004768,94496.29999995232,99571.29999995232,115516.5,142301.5,152654.60000002384,153393.5,155184.39999997616,159552.60000002384,164888.39999997616,167656.5,174252.5,178081,182086.5],"key_events":[],"mouse_events":[11122.700000047684,16004.399999976158,16478.700000047684,16748.299999952316,18873.5,28311.600000023842,35950.89999997616,39306.700000047684,50521.60000002384,58379.39999997616,60694.700000047684,66857.60000002384,72031.60000002384,80952.70000004768,94496.29999995232,99571.29999995232,115516.5,141231.60000002384,142002.39999997616,142301.5,152654.60000002384,153393.5,155184.39999997616,158273.29999995232,158620.29999995232,158941.5,159307.39999997616,159552.60000002384,160738.39999997616,164888.39999997616,167656.5,174252.5,178081,182086.5,186037.60000002384],"straightlining":0.38095238095238093,"zigzagging":0.5,"honeypot":0,"survey":"sns","trial_type":"survey-template","trial_index":2,"time_elapsed":219282,"internal_node_id":"0.0-2.0","task_version":"prescreen-v0.3","browser_interactions":0,"infrequency":0},{"responses":{"Q06":"3","Q09":"3","Q12":"2","Q07":"3","Q02":"0","Q03":"3","Q13":"0","Q01":"3","Q11":"3","Q05":"2","Q04":"3","Q08":"2","Q10":"2"},"rt":141250.19999992847,"item_order":[5,8,11,6,1,2,12,0,10,4,3,7,9],"radio_events":[18556.399999976158,22450.399999976158,44248.39999997616,44715.199999928474,47390.39999997616,50130.699999928474,59389.60000002384,102910.69999992847,109882.39999997616,113279.29999995232,121828.60000002384,123318.29999995232,125220.39999997616,126398.39999997616,130719.69999992847,135989.29999995232,140550.79999995232],"key_events":[],"mouse_events":[18556.399999976158,21858.5,22450.399999976158,41153.299999952316,43352.39999997616,43718.5,44248.39999997616,44715.199999928474,47047.39999997616,47390.39999997616,50130.699999928474,59389.60000002384,102910.69999992847,109882.39999997616,112780.5,113279.29999995232,121828.60000002384,123318.29999995232,125220.39999997616,126113.39999997616,126398.39999997616,130719.69999992847,135642.29999995232,135989.29999995232,140550.79999995232,141249.39999997616],"straightlining":0.5384615384615384,"zigzagging":0.75,"honeypot":0,"survey":"bisbas","trial_type":"survey-template","trial_index":3,"time_elapsed":360537,"internal_node_id":"0.0-3.0","task_version":"prescreen-v0.3","browser_interactions":4,"infrequency":0},{"responses":{"Q01":"3","Q02":"4","Q03":"3"},"rt":30660.5,"radio_events":[9446.899999976158,13284.299999952316,28011.899999976158],"key_events":[],"mouse_events":[9446.899999976158,13284.299999952316,28011.899999976158,30660.199999928474],"survey":"map","page":1,"trial_type":"survey-map","trial_index":4,"time_elapsed":391202,"internal_node_id":"0.0-4.0","task_version":"prescreen-v0.3","browser_interactions":0},{"responses":{"Q04":"4","Q05":"2","Q06":"4"},"rt":23973.899999976158,"radio_events":[10807.299999952316,17359.5,22510.100000023842],"key_events":[],"mouse_events":[10807.299999952316,17359.5,22510.100000023842,23973.700000047684],"survey":"map","page":2,"trial_type":"survey-map","trial_index":5,"time_elapsed":415180,"internal_node_id":"0.0-5.0","task_version":"prescreen-v0.3","browser_interactions":0},{"responses":{"Q07":"4","Q08":"0","Q09":"2"},"rt":45260.39999997616,"radio_events":[12247.899999976158,26419.200000047684,30406.200000047684,32214.299999952316,34947.10000002384,42984.10000002384],"key_events":[],"mouse_events":[12247.899999976158,26419.200000047684,30406.200000047684,32214.299999952316,34947.10000002384,42984.10000002384,45260],"survey":"map","page":3,"trial_type":"survey-map","trial_index":6,"time_elapsed":460443,"internal_node_id":"0.0-6.0","task_version":"prescreen-v0.3","browser_interactions":0},{"responses":{"Q10":"4","Q11":"3","Q12":"1","Q13":"0","Q16":"0","Q14":"3","Q15":"1"},"rt":81298,"radio_events":[5567.5,7771.299999952316,10107.5,19175.5,21559.5,23067.399999976158,46691.89999997616,53105.5,70713.60000002384,71454.39999997616,79035],"key_events":[],"mouse_events":[5567.5,7771.299999952316,10107.5,19175.5,21559.5,23067.399999976158,46691.89999997616,53105.5,70177.39999997616,70713.60000002384,71454.39999997616,79035,81297.5],"survey":"map","page":4,"trial_type":"survey-map","trial_index":7,"time_elapsed":541744,"internal_node_id":"0.0-7.0","task_version":"prescreen-v0.3","browser_interactions":0,"infrequency":0},{"view_history":[{"page_index":0,"viewing_time":1929.5},{"page_index":1,"viewing_time":3568.600000023842}],"rt":5498.5,"trial_type":"instructions","trial_index":8,"time_elapsed":547245,"internal_node_id":"0.0-8.0","task_version":"prescreen-v0.3"},{"responses":{"01":"No","02":"No","03":"No","04":"Yes","04_ages_6":"6","05":"No","06":"Yes","06_ages_6":"6","06_ages_7":"7","06_ages_8":"8","06_ages_9":"9","06_ages_10":"10","06_ages_11":"11"},"rt":139754.69999992847,"item_order":[0,1,2,3,4,5],"radio_events":[8344.299999952316,17439.399999976158,19797.699999928474,23677.399999976158,60804.199999928474,64375.199999928474],"checkbox_events":[43977.199999928474,69678,70026.10000002384,70314.10000002384,70928.19999992847,71447,71694.89999997616,74749,76565,84761.69999992847,98203.19999992847],"key_events":[],"mouse_events":[12.299999952316284,8344.299999952316,17439.399999976158,19797.699999928474,23677.399999976158,43977.199999928474,60804.199999928474,64375.199999928474,69678,70026.10000002384,70314.10000002384,70675,70928.19999992847,71204.89999997616,71447,71694.89999997616,74749,76565,84761.69999992847,98203.19999992847,139047.69999992847,139753.19999992847],"honeypot":0,"survey":"mace","page":1,"trial_type":"survey-mace","trial_index":9,"time_elapsed":687005,"internal_node_id":"0.0-9.0","task_version":"prescreen-v0.3","browser_interactions":0},{"responses":{"01":"No","02":"No","03":"Yes","03_ages_6":"6","03_ages_7":"7","03_ages_8":"8","03_ages_9":"9","04":"Yes","04_ages_6":"6","04_ages_7":"7","04_ages_8":"8","04_ages_9":"9","05":"No","06":"No","07":"No","08":"No"},"rt":77186.5,"item_order":[0,1,2,3,4,5,6,7],"radio_events":[3641.600000023842,7356.5,9160.700000047684,23014.800000071526,36108.5,38182.40000009537,39115.800000071526,41588.40000009537],"checkbox_events":[13953.5,14271.400000095367,14621.300000071526,14909.400000095367,24588.900000095367,24895.300000071526,25156.5,26057.5],"key_events":[],"mouse_events":[3641.600000023842,7356.5,9160.700000047684,13953.5,14271.400000095367,14621.300000071526,14909.400000095367,23014.800000071526,24588.900000095367,24895.300000071526,25156.5,25389.200000047684,26057.5,36108.5,37717.40000009537,38182.40000009537,39115.800000071526,41588.40000009537,46812.200000047684,77184.60000002384],"honeypot":0,"survey":"mace","page":2,"trial_type":"survey-mace","trial_index":10,"time_elapsed":764197,"internal_node_id":"0.0-10.0","task_version":"prescreen-v0.3","browser_interactions":0},{"responses":{"01":"No","02":"No","03":"No","04":"No"},"rt":14444.799999952316,"item_order":[0,1,2,3],"radio_events":[8764,12388,13459.700000047684,13951.200000047684],"checkbox_events":[],"key_events":[],"mouse_events":[8764,12388,13016.100000023842,13459.700000047684,13951.200000047684,14443.799999952316],"honeypot":0,"survey":"mace","page":3,"trial_type":"survey-mace","trial_index":11,"time_elapsed":778646,"internal_node_id":"0.0-11.0","task_version":"prescreen-v0.3","browser_interactions":0},{"responses":{"01":"No","02":"No"},"rt":8686.300000071526,"item_order":[0,1],"radio_events":[7668.900000095367,8013.900000095367],"checkbox_events":[],"key_events":[],"mouse_events":[7345.800000071526,7668.900000095367,8013.900000095367,8685.800000071526],"honeypot":0,"survey":"mace","page":4,"trial_type":"survey-mace","trial_index":12,"time_elapsed":787336,"internal_node_id":"0.0-12.0","task_version":"prescreen-v0.3","browser_interactions":0},{"responses":{"01":"No","02":"No","03":"No","04":"No","05":"No"},"rt":34722.299999952316,"item_order":[0,1,2,3,4],"radio_events":[8271,11482,14932.399999976158,16626.199999928474,33926],"checkbox_events":[],"key_events":[],"mouse_events":[8271,11482,14932.399999976158,16626.199999928474,33380.89999997616,33665,33926,34721.09999990463],"honeypot":0,"survey":"mace","page":5,"trial_type":"survey-mace","trial_index":13,"time_elapsed":822062,"internal_node_id":"0.0-13.0","task_version":"prescreen-v0.3","browser_interactions":0},{"responses":{"01":"Yes","01_ages_11":"11","01_ages_12":"12","01_ages_13":"13","01_ages_14":"14","01_ages_15":"15","01_ages_16":"16","01_ages_17":"17","01_ages_18":"18","02":"Yes","02_ages_11":"11","02_ages_12":"12","02_ages_13":"13","02_ages_14":"14","02_ages_15":"15","02_ages_16":"16","02_ages_17":"17","02_ages_18":"18","03":"No","04":"No","05":"No"},"rt":53461.39999997616,"item_order":[0,1,2,3,4],"radio_events":[8481.600000023842,30840.600000023842,45770.299999952316,48507,51906.200000047684],"checkbox_events":[11735.299999952316,12072.200000047684,12631.399999976158,12850.100000023842,14210.200000047684,17303.200000047684,17507.100000023842,17821.100000023842,18284.299999952316,18558,18898.299999952316,20889.200000047684,24061.100000023842,26027.299999952316,32756,33456.299999952316,34891.299999952316,35141.5,35614.10000002384,36253,36479.200000047684,36903.299999952316],"key_events":[],"mouse_events":[8481.600000023842,11735.299999952316,12072.200000047684,12341.299999952316,12631.399999976158,12850.100000023842,14210.200000047684,17303.200000047684,17507.100000023842,17821.100000023842,18284.299999952316,18558,18898.299999952316,20889.200000047684,24061.100000023842,24914,26027.299999952316,26545.899999976158,30840.600000023842,32756,33024.39999997616,33456.299999952316,34410.10000002384,34631.700000047684,34891.299999952316,35141.5,35614.10000002384,35999.10000002384,36253,36479.200000047684,36903.299999952316,38934.700000047684,45770.299999952316,48507,51906.200000047684,53460.10000002384],"honeypot":0,"survey":"mace","page":6,"trial_type":"survey-mace","trial_index":14,"time_elapsed":875527,"internal_node_id":"0.0-14.0","task_version":"prescreen-v0.3","browser_interactions":0},{"responses":{"01":"No","02":"No","03":"No","04":"No","05":"No","06":"No","07":"No"},"rt":23052.299999952316,"item_order":[0,1,2,3,4,5,6],"radio_events":[5025.699999928474,8124.799999952316,13331.699999928474,17395.5,20149.5,21744.399999976158,22473.599999904633],"checkbox_events":[],"key_events":[],"mouse_events":[5025.699999928474,8124.799999952316,12487.199999928474,13331.699999928474,14959.699999928474,17395.5,20149.5,21744.399999976158,22473.599999904633,23049.5],"honeypot":0,"survey":"mace","page":7,"trial_type":"survey-mace","trial_index":15,"time_elapsed":898584,"internal_node_id":"0.0-15.0","task_version":"prescreen-v0.3","browser_interactions":0},{"responses":{"01":"No","02":"No","03":"No","04":"No"},"rt":44174.89999997616,"item_order":[0,1,2,3],"radio_events":[7778.200000047684,31966.700000047684,40601.10000002384,43479.89999997616],"checkbox_events":[],"key_events":[],"mouse_events":[7778.200000047684,31966.700000047684,40601.10000002384,43479.89999997616,44173.89999997616],"honeypot":0,"survey":"mace","page":8,"trial_type":"survey-mace","trial_index":16,"time_elapsed":942762,"internal_node_id":"0.0-16.0","task_version":"prescreen-v0.3","browser_interactions":0},{"responses":{"01":"Yes","01_ages_5":"5","01_ages_6":"6","01_ages_7":"7","01_ages_8":"8","01_ages_9":"9","01_ages_10":"10","01_ages_11":"11","01_ages_12":"12","01_ages_13":"13","01_ages_14":"14","01_ages_15":"15","01_ages_16":"16","01_ages_17":"17","01_ages_18":"18","02":"Yes","02_ages_5":"5","02_ages_6":"6","02_ages_7":"7","02_ages_8":"8","02_ages_9":"9","02_ages_10":"10","02_ages_11":"11","02_ages_12":"12","02_ages_13":"13","02_ages_14":"14","02_ages_15":"15","02_ages_16":"16","02_ages_17":"17","02_ages_18":"18","03":"Yes","03_ages_5":"5","03_ages_6":"6","03_ages_7":"7","03_ages_8":"8","03_ages_9":"9","03_ages_10":"10","03_ages_11":"11","03_ages_12":"12","03_ages_13":"13","03_ages_14":"14","03_ages_15":"15","03_ages_16":"16","03_ages_17":"17","03_ages_18":"18","04":"Yes","04_ages_5":"5","04_ages_6":"6","04_ages_7":"7","04_ages_8":"8","04_ages_9":"9","04_ages_10":"10","04_ages_11":"11","04_ages_12":"12","04_ages_13":"13","04_ages_14":"14","04_ages_15":"15","04_ages_16":"16","04_ages_17":"17","04_ages_18":"18"},"rt":63309.59999990463,"item_order":[0,1,2,3],"radio_events":[2606.7999999523163,29259.899999976158,44322.799999952316,57297.89999997616],"checkbox_events":[6110.299999952316,6378.599999904633,6764.199999928474,7094.5,7955.5,8219.799999952316,8511.599999904633,8842.5,9511.899999976158,9787.5,10127.599999904633,10375.699999928474,10732,12892.699999928474,17676.699999928474,20146.599999904633,30014.5,30484.099999904633,30804.399999976158,31079.799999952316,31652.5,31920.5,32490.5,32718.399999976158,33368.299999952316,33741.5,34842.299999952316,35345.699999928474,35635.59999990463,36858.39999997616,45095.59999990463,45515.39999997616,45881.89999997616,46642.199999928474,46861.5,47470.299999952316,47807.5,49502.39999997616,49740.09999990463,50355.5,50654.39999997616,51230.59999990463,51661.5,53202.39999997616,58116.39999997616,58562.699999928474,58828.39999997616,59251.5,59763.299999952316,60191.5,60465.39999997616,60782.299999952316,61167.59999990463,61449.39999997616,61766.799999952316,62050.799999952316,62363.39999997616,62875.5],"key_events":[],"mouse_events":[2606.7999999523163,6110.299999952316,6378.599999904633,6764.199999928474,7094.5,7443.399999976158,7712.299999952316,7955.5,8219.799999952316,8511.599999904633,8842.5,9511.899999976158,9787.5,10127.599999904633,10375.699999928474,10732,12892.699999928474,14697.099999904633,17676.699999928474,20146.599999904633,29259.899999976158,30014.5,30484.099999904633,30804.399999976158,31079.799999952316,31420.599999904633,31652.5,31920.5,32238.399999976158,32490.5,32718.399999976158,33111.199999928474,33368.299999952316,33741.5,34224.59999990463,34413.299999952316,34842.299999952316,35345.699999928474,35635.59999990463,35993.199999928474,36625.39999997616,36858.39999997616,44322.799999952316,45095.59999990463,45515.39999997616,45881.89999997616,46235.799999952316,46642.199999928474,46861.5,47166.39999997616,47470.299999952316,47807.5,48374.89999997616,48617.299999952316,49008.299999952316,49502.39999997616,49740.09999990463,50050.5,50355.5,50654.39999997616,50957.39999997616,51230.59999990463,51661.5,52331.299999952316,52560.199999928474,53202.39999997616,53477.199999928474,57297.89999997616,58116.39999997616,58562.699999928474,58828.39999997616,59251.5,59763.299999952316,60191.5,60465.39999997616,60782.299999952316,61167.59999990463,61449.39999997616,61766.799999952316,62050.799999952316,62363.39999997616,62875.5,63308.39999997616],"honeypot":0,"survey":"mace","page":9,"trial_type":"survey-mace","trial_index":17,"time_elapsed":1006076,"internal_node_id":"0.0-17.0","task_version":"prescreen-v0.3","browser_interactions":0},{"responses":{"01":"No","02":"No","03":"No","04":"No","05":"Yes","05_ages_7":"7","05_ages_10":"10","05_ages_11":"11","05_ages_12":"12","05_ages_14":"14","05_ages_16":"16","06":"Yes","06_ages_17":"17","07":"Yes","07_ages_6":"6","07_ages_7":"7","07_ages_8":"8","07_ages_9":"9","07_ages_10":"10","07_ages_11":"11","07_ages_12":"12","07_ages_13":"13","07_ages_14":"14","07_ages_15":"15","07_ages_16":"16","07_ages_17":"17","07_ages_18":"18","08":"Yes","08_ages_6":"6","08_ages_7":"7","08_ages_8":"8","08_ages_9":"9","08_ages_10":"10","08_ages_11":"11","08_ages_12":"12","08_ages_13":"13","08_ages_14":"14","08_ages_15":"15","08_ages_16":"16","08_ages_17":"17","08_ages_18":"18"},"rt":64326.199999928474,"item_order":[0,1,2,3,4,5,6,7],"radio_events":[4899.699999928474,5745.699999928474,7743.5,12179.600000023842,14830.699999928474,17364.899999976158,38289.199999928474,47704,56753],"checkbox_events":[23493.600000023842,24293.5,24781.5,25645.600000023842,28755.5,31147.5,31824.799999952316,33133.60000002384,39303.699999928474,49303.89999997616,49753.5,50087.199999928474,50462.89999997616,50739.60000002384,51328.699999928474,51553.699999928474,51869.60000002384,52259.60000002384,52602.5,52883.699999928474,53140.89999997616,53727,59001.60000002384,59346.5,59628.60000002384,59941.699999928474,60293.5,60546.5,60818.60000002384,61573.699999928474,61807.60000002384,62475.60000002384,62711.60000002384,63018.39999997616,63545.5],"key_events":[],"mouse_events":[4091.399999976158,4899.699999928474,5216.899999976158,5745.699999928474,7743.5,12179.600000023842,14296.5,14830.699999928474,17364.899999976158,23493.600000023842,23717.5,24293.5,24525.699999928474,24781.5,25645.600000023842,28755.5,31147.5,31824.799999952316,33133.60000002384,38289.199999928474,39303.699999928474,47704,49303.89999997616,49753.5,50087.199999928474,50462.89999997616,50739.60000002384,51052.699999928474,51328.699999928474,51553.699999928474,51869.60000002384,52259.60000002384,52602.5,52883.699999928474,53140.89999997616,53727,56753,59001.60000002384,59346.5,59628.60000002384,59941.699999928474,60293.5,60546.5,60818.60000002384,61573.699999928474,61807.60000002384,62059.60000002384,62475.60000002384,62711.60000002384,63018.39999997616,63292.5,63545.5,64324.10000002384],"honeypot":0,"survey":"mace","page":10,"trial_type":"survey-mace","trial_index":18,"time_elapsed":1070408,"internal_node_id":"0.0-18.0","task_version":"prescreen-v0.3","browser_interactions":0,"instructed":0},{"rt":8531.299999952316,"trial_type":"mental-health-alert","trial_index":19,"time_elapsed":1078942,"internal_node_id":"0.0-19.0","task_version":"prescreen-v0.3","interactions":"[{\"event\":\"blur\",\"trial\":3,\"time\":247126},{\"event\":\"focus\",\"trial\":3,\"time\":260335},{\"event\":\"blur\",\"trial\":3,\"time\":296289},{\"event\":\"focus\",\"trial\":3,\"time\":322109}]"}]