[{"view_history":[{"page_index":0,"viewing_time":3745.4000000059605},{"page_index":1,"viewing_time":5299},{"page_index":2,"viewing_time":2903.9000000059605},{"page_index":3,"viewing_time":1179.0999999940395}],"rt":13128,"trial_type":"instructions","trial_index":0,"time_elapsed":13143,"internal_node_id":"0.0-0.0","task_version":"prescreen-v0.3"},{"rt":16986.5,"responses":{"age":"54","gender-categorical":"Female","gender-free-response":"","ethnicity":"Not Hispanic or Latino","race":["White"],"education":"Bachelor degree"},"trial_type":"survey-demo","trial_index":1,"time_elapsed":30133,"internal_node_id":"0.0-1.0","task_version":"prescreen-v0.3"},{"responses":{"Q20":"1","Q09":"1","Q02":"1","Q07":"1","Q10":"1","Q13":"2","Q18":"2","Q17":"1","Q04":"1","Q15":"2","Q14":"2","Q03":"1","Q19":"1","Q16":"2","Q21":"3","Q06":"0","Q05":"1","Q08":"1","Q01":"1","Q11":"1","Q12":"1"},"rt":77021.69999998808,"item_order":[19,8,1,6,9,12,17,16,3,14,13,2,18,15,20,5,4,7,0,10,11],"radio_events":[7163,8144.9000000059605,11230.09999999404,18121.69999998808,21696.69999998808,24487.79999998212,28965.79999998212,31217.19999998808,33664.59999999404,36089.09999999404,38384.5,40752.5,47323.29999998212,50941.5,54626.69999998808,61644.79999998212,66844.69999998808,68512.79999998212,72588.69999998808,73660.29999998212,76178.69999998808],"key_events":[],"mouse_events":[3628.7999999821186,6098.799999982119,7163,8144.9000000059605,11230.09999999404,18121.69999998808,21696.69999998808,24487.79999998212,28965.79999998212,31217.19999998808,33664.59999999404,36089.09999999404,38384.5,40752.5,47323.29999998212,50063.09999999404,50941.5,54626.69999998808,59669.29999998212,61644.79999998212,66844.69999998808,68512.79999998212,72588.69999998808,73660.29999998212,76178.69999998808,77019.09999999404],"straightlining":0.6666666666666666,"zigzagging":0.4,"honeypot":0,"survey":"sns","trial_type":"survey-template","trial_index":2,"time_elapsed":107162,"internal_node_id":"0.0-2.0","task_version":"prescreen-v0.3","browser_interactions":0,"infrequency":0},{"responses":{"Q09":"3","Q12":"3","Q10":"3","Q13":"0","Q06":"2","Q03":"3","Q07":"2","Q08":"2","Q05":"2","Q04":"2","Q11":"2","Q01":"2","Q02":"2"},"rt":45172.5,"item_order":[8,11,9,12,5,2,6,7,4,3,10,0,1],"radio_events":[3863.399999976158,9102.899999976158,10991.299999982119,13745,19953.29999998212,26390.29999998212,28876.69999998808,32770.39999997616,34376.79999998212,37138.39999997616,41127.19999998808,42008.69999998808,44470.5],"key_events":[],"mouse_events":[3863.399999976158,6995.799999982119,9102.899999976158,10991.299999982119,13745,19159.09999999404,19953.29999998212,26390.29999998212,28876.69999998808,32770.39999997616,34376.79999998212,37138.39999997616,40081,41127.19999998808,42008.69999998808,44470.5,45171.09999999404],"straightlining":0.6153846153846154,"zigzagging":0.25,"honeypot":0,"survey":"bisbas","trial_type":"survey-template","trial_index":3,"time_elapsed":152338,"internal_node_id":"0.0-3.0","task_version":"prescreen-v0.3","browser_interactions":0,"infrequency":0},{"responses":{"Q01":"3","Q02":"2","Q03":"3"},"rt":14779.800000011921,"radio_events":[5067.9000000059605,8082.4000000059605,13110.600000023842,13802.100000023842],"key_events":[],"mouse_events":[5067.9000000059605,8082.4000000059605,13110.600000023842,13802.100000023842,14779.100000023842],"survey":"map","page":1,"trial_type":"survey-map","trial_index":4,"time_elapsed":167122,"internal_node_id":"0.0-4.0","task_version":"prescreen-v0.3","browser_interactions":0},{"responses":{"Q04":"2","Q05":"2","Q06":"2"},"rt":11742.59999999404,"radio_events":[4093.800000011921,7493.300000011921,10122.40000000596,10874.5],"key_events":[],"mouse_events":[4093.800000011921,7493.300000011921,10122.40000000596,10874.5,11741.800000011921],"survey":"map","page":2,"trial_type":"survey-map","trial_index":5,"time_elapsed":178867,"internal_node_id":"0.0-5.0","task_version":"prescreen-v0.3","browser_interactions":0},{"responses":{"Q07":"4","Q08":"4","Q09":"4"},"rt":8776.90000000596,"radio_events":[3763.9000000059605,6014.200000017881,7982.300000011921],"key_events":[],"mouse_events":[3763.9000000059605,6014.200000017881,7982.300000011921,8776.300000011921],"survey":"map","page":3,"trial_type":"survey-map","trial_index":6,"time_elapsed":187647,"internal_node_id":"0.0-6.0","task_version":"prescreen-v0.3","browser_interactions":0},{"responses":{"Q10":"3","Q11":"2","Q12":"1","Q13":"3","Q16":"0","Q14":"3","Q15":"3"},"rt":33100.90000000596,"radio_events":[3523.4000000059605,6111,12154.199999988079,15954,17591.59999999404,21454.29999998212,29257.79999998212,32215.79999998212],"key_events":[],"mouse_events":[3523.4000000059605,6111,12154.199999988079,15954,16924.09999999404,17591.59999999404,21454.29999998212,29257.79999998212,32215.79999998212,33098.69999998808],"survey":"map","page":4,"trial_type":"survey-map","trial_index":7,"time_elapsed":220751,"internal_node_id":"0.0-7.0","task_version":"prescreen-v0.3","browser_interactions":0,"infrequency":0},{"view_history":[{"page_index":0,"viewing_time":2182.9000000059605},{"page_index":1,"viewing_time":3483.0999999940395}],"rt":5666.4000000059605,"trial_type":"instructions","trial_index":8,"time_elapsed":226418,"internal_node_id":"0.0-8.0","task_version":"prescreen-v0.3"},{"responses":{"01":"No","02":"No","03":"No","04":"No","05":"No","06":"No"},"rt":20189.69999998808,"item_order":[0,1,2,3,4,5],"radio_events":[8280.5,12820.699999988079,15816.800000011921,17124.59999999404,17878.30000001192,19610.59999999404],"checkbox_events":[],"key_events":[],"mouse_events":[0.19999998807907104,8280.5,10287.09999999404,12370.59999999404,12820.699999988079,15816.800000011921,17124.59999999404,17878.30000001192,18759.90000000596,19610.59999999404,20186.40000000596],"honeypot":0,"survey":"mace","page":1,"trial_type":"survey-mace","trial_index":9,"time_elapsed":246614,"internal_node_id":"0.0-9.0","task_version":"prescreen-v0.3","browser_interactions":0},{"responses":{"01":"No","02":"No","03":"No","04":"No","05":"No","06":"No","07":"No","08":"No"},"rt":20328.79999998212,"item_order":[0,1,2,3,4,5,6,7],"radio_events":[4206.4000000059605,5159.0999999940395,6693.699999988079,13276.699999988079,14473,16597.79999998212,19186.69999998808,19776.09999999404],"checkbox_events":[],"key_events":[],"mouse_events":[2848.0999999940395,4206.4000000059605,5159.0999999940395,6693.699999988079,13276.699999988079,14473,16597.79999998212,18141.90000000596,19186.69999998808,19776.09999999404,20326.40000000596],"honeypot":0,"survey":"mace","page":2,"trial_type":"survey-mace","trial_index":10,"time_elapsed":266947,"internal_node_id":"0.0-10.0","task_version":"prescreen-v0.3","browser_interactions":0},{"responses":{"01":"No","02":"No","03":"No","04":"No"},"rt":6149.9000000059605,"item_order":[0,1,2,3],"radio_events":[2481.4000000059605,3449.5,4612.9000000059605,5619.4000000059605],"checkbox_events":[],"key_events":[],"mouse_events":[2481.4000000059605,3449.5,4612.9000000059605,5619.4000000059605,6147.5],"honeypot":0,"survey":"mace","page":3,"trial_type":"survey-mace","trial_index":11,"time_elapsed":273100,"internal_node_id":"0.0-11.0","task_version":"prescreen-v0.3","browser_interactions":0},{"responses":{"01":"No","02":"No"},"rt":13939.700000017881,"item_order":[0,1],"radio_events":[6980.5,8225],"checkbox_events":[],"key_events":[],"mouse_events":[6980.5,8225,13938.40000000596],"honeypot":0,"survey":"mace","page":4,"trial_type":"survey-mace","trial_index":12,"time_elapsed":287041,"internal_node_id":"0.0-12.0","task_version":"prescreen-v0.3","browser_interactions":0},{"responses":{"01":"No","02":"No","03":"No","04":"No","05":"No"},"rt":13759.09999999404,"item_order":[0,1,2,3,4],"radio_events":[5401,6934.799999982119,9161.09999999404,11325.299999982119,13033.199999988079],"checkbox_events":[],"key_events":[],"mouse_events":[5401,6934.799999982119,9161.09999999404,11325.299999982119,13033.199999988079,13756.09999999404],"honeypot":0,"survey":"mace","page":5,"trial_type":"survey-mace","trial_index":13,"time_elapsed":300805,"internal_node_id":"0.0-13.0","task_version":"prescreen-v0.3","browser_interactions":0},{"responses":{"01":"Yes","01_ages_8":"8","01_ages_9":"9","01_ages_10":"10","01_ages_11":"11","01_ages_12":"12","01_ages_13":"13","02":"Yes","02_ages_8":"8","02_ages_9":"9","02_ages_10":"10","02_ages_11":"11","02_ages_12":"12","02_ages_13":"13","03":"Yes","03_ages_12":"12","03_ages_13":"13","03_ages_14":"14","03_ages_15":"15","03_ages_16":"16","03_ages_17":"17","03_ages_18":"18","04":"Yes","04_ages_15":"15","04_ages_16":"16","04_ages_17":"17","04_ages_18":"18","05":"No"},"rt":48197.40000000596,"item_order":[0,1,2,3,4],"radio_events":[5499.4000000059605,25065.80000001192,34175,42256,47439.90000000596],"checkbox_events":[11045.40000000596,13555.800000011921,15642,16144,17253.80000001192,18095.5,28354.09999999404,28842,29402.19999998808,29818,30345.69999998808,30856.09999999404,35868.09999999404,36355.80000001192,37472.19999998808,37905.40000000596,38329.59999999404,38802.09999999404,40029.5,44183.69999998808,44704,45206.40000000596,45725.69999998808],"key_events":[],"mouse_events":[5499.4000000059605,11045.40000000596,13555.800000011921,14250.59999999404,15642,16144,16664.09999999404,17253.80000001192,17615.69999998808,18095.5,21933.80000001192,25065.80000001192,28354.09999999404,28842,29402.19999998808,29818,30345.69999998808,30856.09999999404,34175,35868.09999999404,36355.80000001192,36802.59999999404,37472.19999998808,37905.40000000596,38329.59999999404,38802.09999999404,40029.5,42256,44183.69999998808,44704,45206.40000000596,45725.69999998808,47439.90000000596,48195.69999998808],"honeypot":0,"survey":"mace","page":6,"trial_type":"survey-mace","trial_index":14,"time_elapsed":349006,"internal_node_id":"0.0-14.0","task_version":"prescreen-v0.3","browser_interactions":0},{"responses":{"01":"Yes","01_ages_11":"11","02":"No","03":"No","04":"No","05":"No","06":"No","07":"No"},"rt":23477,"item_order":[0,1,2,3,4,5,6],"radio_events":[6053.699999988079,11277.799999982119,12449.59999999404,15949.59999999404,17137.19999998808,18654.29999998212,22573.5],"checkbox_events":[8955.5],"key_events":[],"mouse_events":[6053.699999988079,8955.5,11277.799999982119,12449.59999999404,15949.59999999404,17137.19999998808,18654.29999998212,22573.5,23472.90000000596],"honeypot":0,"survey":"mace","page":7,"trial_type":"survey-mace","trial_index":15,"time_elapsed":372487,"internal_node_id":"0.0-15.0","task_version":"prescreen-v0.3","browser_interactions":0},{"responses":{"01":"No","02":"No","03":"No","04":"No"},"rt":17670.30000001192,"item_order":[0,1,2,3],"radio_events":[6471.600000023842,13205.200000017881,14779.800000011921,16834.100000023842],"checkbox_events":[],"key_events":[],"mouse_events":[6471.600000023842,13205.200000017881,14779.800000011921,16834.100000023842,17667.90000000596],"honeypot":0,"survey":"mace","page":8,"trial_type":"survey-mace","trial_index":16,"time_elapsed":390162,"internal_node_id":"0.0-16.0","task_version":"prescreen-v0.3","browser_interactions":0},{"responses":{"01":"Yes","01_ages_1":"1","01_ages_2":"2","01_ages_3":"3","01_ages_4":"4","01_ages_5":"5","01_ages_6":"6","01_ages_7":"7","01_ages_8":"8","01_ages_9":"9","01_ages_10":"10","01_ages_11":"11","01_ages_12":"12","01_ages_13":"13","01_ages_14":"14","01_ages_15":"15","01_ages_16":"16","01_ages_17":"17","01_ages_18":"18","02":"Yes","02_ages_1":"1","02_ages_2":"2","02_ages_3":"3","02_ages_4":"4","02_ages_5":"5","02_ages_6":"6","02_ages_7":"7","02_ages_8":"8","02_ages_9":"9","02_ages_10":"10","02_ages_11":"11","02_ages_12":"12","02_ages_13":"13","02_ages_14":"14","02_ages_15":"15","02_ages_16":"16","02_ages_17":"17","02_ages_18":"18","03":"Yes","03_ages_1":"1","03_ages_2":"2","03_ages_3":"3","03_ages_4":"4","03_ages_5":"5","03_ages_6":"6","03_ages_7":"7","03_ages_8":"8","03_ages_9":"9","03_ages_10":"10","03_ages_11":"11","03_ages_12":"12","03_ages_13":"13","03_ages_14":"14","03_ages_15":"15","03_ages_16":"16","03_ages_17":"17","03_ages_18":"18","04":"Yes","04_ages_1":"1","04_ages_2":"2","04_ages_3":"3","04_ages_4":"4","04_ages_5":"5","04_ages_6":"6","04_ages_7":"7","04_ages_8":"8","04_ages_9":"9","04_ages_10":"10","04_ages_11":"11","04_ages_12":"12","04_ages_13":"13","04_ages_14":"14","04_ages_15":"15","04_ages_16":"16","04_ages_17":"17","04_ages_18":"18"},"rt":71347.59999999404,"item_order":[0,1,2,3],"radio_events":[3329.300000011921,20801.30000001192,40955.40000000596,45825.40000000596],"checkbox_events":[5539.5,6074.200000017881,7465.4000000059605,7967.9000000059605,8535.5,9063.300000011921,10165.40000000596,10763.5,11304.200000017881,11793.40000000596,12399.200000017881,12806.800000011921,14916,16089.40000000596,17261.5,17732.80000001192,18251.59999999404,18762.70000001788,22815.5,23955.30000001192,25435.40000000596,26669.20000001788,27259.20000001788,27755.30000001192,28376.80000001192,28856.80000001192,29754.09999999404,30160.80000001192,31320.70000001788,31845.40000000596,32458.90000000596,33300.80000001192,35605.40000000596,36573.20000001788,37712.5,38296.90000000596,43692.90000000596,44889.09999999404,46555.30000001192,46973.30000001192,47721.20000001788,48120.40000000596,48507.30000001192,49365.59999999404,50481.20000001788,51519,51953.09999999404,52417.09999999404,52889,55004.70000001788,55587.40000000596,56295.30000001192,57214.70000001788,57710.5,59977.09999999404,60551.30000001192,61048.70000001788,62093.40000000596,62674.80000001192,63163.09999999404,63790.09999999404,64279.20000001788,64727,65161.40000000596,65617.30000001192,66113.30000001192,67684.40000000596,68135,68843.30000001192,69661.20000001788,70494.59999999404,70894.59999999404],"key_events":[],"mouse_events":[3329.300000011921,5539.5,6074.200000017881,6529.5999999940395,7465.4000000059605,7967.9000000059605,8535.5,9063.300000011921,9628.800000011921,10165.40000000596,10763.5,11304.200000017881,11793.40000000596,12399.200000017881,12806.800000011921,13515.90000000596,14247.700000017881,14916,15357.90000000596,16089.40000000596,16679.70000001788,17261.5,17732.80000001192,18251.59999999404,18762.70000001788,20801.30000001192,22815.5,23388.90000000596,23955.30000001192,24789.70000001788,25435.40000000596,26669.20000001788,27259.20000001788,27755.30000001192,28376.80000001192,28856.80000001192,29289.5,29754.09999999404,30160.80000001192,31320.70000001788,31845.40000000596,32458.90000000596,32892.80000001192,33300.80000001192,33766.20000001788,34425.80000001192,35605.40000000596,36573.20000001788,37289.59999999404,37712.5,38296.90000000596,40955.40000000596,43692.90000000596,44889.09999999404,45825.40000000596,46555.30000001192,46973.30000001192,47721.20000001788,48120.40000000596,48507.30000001192,49365.59999999404,49915.30000001192,50481.20000001788,51111.40000000596,51519,51953.09999999404,52417.09999999404,52889,55004.70000001788,55587.40000000596,56295.30000001192,56791.70000001788,57214.70000001788,57710.5,59566.30000001192,59977.09999999404,60551.30000001192,61048.70000001788,61637.70000001788,62093.40000000596,62674.80000001192,63163.09999999404,63790.09999999404,64279.20000001788,64727,65161.40000000596,65617.30000001192,66113.30000001192,66647.70000001788,67213.09999999404,67684.40000000596,68135,68843.30000001192,69307.59999999404,69661.20000001788,70077.20000001788,70494.59999999404,70894.59999999404,71346.20000001788],"honeypot":0,"survey":"mace","page":9,"trial_type":"survey-mace","trial_index":17,"time_elapsed":461514,"internal_node_id":"0.0-17.0","task_version":"prescreen-v0.3","browser_interactions":0},{"responses":{"01":"No","02":"No","03":"No","04":"No","05":"No","06":"Yes","06_ages_17":"17","07":"Yes","07_ages_1":"1","07_ages_2":"2","07_ages_3":"3","07_ages_4":"4","07_ages_5":"5","07_ages_6":"6","07_ages_7":"7","07_ages_8":"8","07_ages_9":"9","07_ages_10":"10","07_ages_11":"11","07_ages_12":"12","07_ages_13":"13","07_ages_14":"14","07_ages_15":"15","07_ages_16":"16","07_ages_17":"17","07_ages_18":"18","08":"Yes","08_ages_1":"1","08_ages_2":"2","08_ages_3":"3","08_ages_4":"4","08_ages_5":"5","08_ages_6":"6","08_ages_7":"7","08_ages_8":"8","08_ages_9":"9","08_ages_10":"10","08_ages_11":"11","08_ages_12":"12","08_ages_13":"13","08_ages_14":"14","08_ages_15":"15","08_ages_16":"16","08_ages_17":"17","08_ages_18":"18"},"rt":55795.59999999404,"item_order":[0,1,2,3,4,5,6,7],"radio_events":[3272.9000000059605,5940.199999988079,7521.799999982119,8772.59999999404,11022.299999982119,15310.199999988079,17779.59999999404,20800.09999999404,40432.79999998212],"checkbox_events":[19069.79999998212,26668.09999999404,27122.59999999404,27571.79999998212,28035.59999999404,28421.40000000596,28816,29467.79999998212,31836,32290.90000000596,33006.90000000596,33654.09999999404,34385.19999998808,34894.90000000596,35533.69999998808,36240.69999998808,37846.69999998808,38427.59999999404,39270,41677.29999998212,42125.79999998212,43203,43619.5,44202,44705.5,45279.59999999404,45901.90000000596,46586,47127.19999998808,47443.29999998212,48262.40000000596,48694,49605.90000000596,51533.09999999404,52172,52603.5,53271.29999998212,53727.69999998808,54891.90000000596],"key_events":[],"mouse_events":[3272.9000000059605,5940.199999988079,7521.799999982119,8772.59999999404,11022.299999982119,14868.199999988079,15310.199999988079,17779.59999999404,19069.79999998212,20800.09999999404,26668.09999999404,27122.59999999404,27571.79999998212,28035.59999999404,28421.40000000596,28816,29467.79999998212,29941,30539,31836,32290.90000000596,33006.90000000596,33654.09999999404,34385.19999998808,34894.90000000596,35533.69999998808,36240.69999998808,36746.29999998212,37320.5,37846.69999998808,38427.59999999404,39270,40010.79999998212,40432.79999998212,41677.29999998212,42125.79999998212,42534.79999998212,43203,43619.5,44202,44705.5,45279.59999999404,45901.90000000596,46586,47127.19999998808,47443.29999998212,48262.40000000596,48694,49110.19999998808,49605.90000000596,51533.09999999404,52172,52603.5,53271.29999998212,53727.69999998808,54138.5,54891.90000000596,55791],"honeypot":0,"survey":"mace","page":10,"trial_type":"survey-mace","trial_index":18,"time_elapsed":517314,"internal_node_id":"0.0-18.0","task_version":"prescreen-v0.3","browser_interactions":0,"instructed":0},{"rt":7010.300000011921,"trial_type":"mental-health-alert","trial_index":19,"time_elapsed":524327,"internal_node_id":"0.0-19.0","task_version":"prescreen-v0.3","interactions":"[]"}]