[{"view_history":[{"page_index":0,"viewing_time":2649.599999964237},{"page_index":1,"viewing_time":2203.600000023842},{"page_index":2,"viewing_time":2862.5},{"page_index":3,"viewing_time":839.5}],"rt":8555.899999976158,"trial_type":"instructions","trial_index":0,"time_elapsed":8588,"internal_node_id":"0.0-0.0","task_version":"prescreen-v0.3"},{"rt":11130.400000035763,"responses":{"age":"35","gender-categorical":"Female","gender-free-response":"","ethnicity":"Not Hispanic or Latino","race":["White"],"education":"Master degree or higher"},"trial_type":"survey-demo","trial_index":1,"time_elapsed":19725,"internal_node_id":"0.0-1.0","task_version":"prescreen-v0.3"},{"responses":{"Q08":"2","Q19":"2","Q10":"1","Q02":"1","Q16":"3","Q13":"3","Q07":"1","Q14":"3","Q15":"3","Q20":"3","Q17":"2","Q18":"3","Q05":"1","Q01":"2","Q04":"2","Q12":"3","Q06":"1","Q03":"1","Q11":"1","Q21":"3","Q09":"1"},"rt":63358.30000001192,"item_order":[7,18,9,1,15,12,6,13,14,19,16,17,4,0,3,11,5,2,10,20,8],"radio_events":[4594.5,7512.599999964237,11230.599999964237,13906.800000011921,15668.599999964237,16582.599999964237,19698.599999964237,25916.599999964237,26300.5,26892.69999998808,29636.69999998808,31486.5,40276.5,41687.30000001192,45852.39999997616,49538.19999998808,53222.39999997616,56218.39999997616,57934.39999997616,60080.30000001192,62524.69999998808],"key_events":[],"mouse_events":[4594.5,7512.599999964237,11230.599999964237,13906.800000011921,15668.599999964237,16582.599999964237,19698.599999964237,22782.5,24954.399999976158,25916.599999964237,26300.5,26892.69999998808,29636.69999998808,31486.5,40276.5,41687.30000001192,44850.5,45852.39999997616,49538.19999998808,52478.30000001192,53222.39999997616,56218.39999997616,57934.39999997616,60080.30000001192,62524.69999998808,63356.39999997616],"straightlining":0.38095238095238093,"zigzagging":0.25,"honeypot":0,"survey":"sns","trial_type":"survey-template","trial_index":2,"time_elapsed":83089,"internal_node_id":"0.0-2.0","task_version":"prescreen-v0.3","browser_interactions":0,"infrequency":0},{"responses":{"Q05":"2","Q13":"0","Q02":"3","Q06":"3","Q09":"2","Q04":"3","Q08":"1","Q10":"1","Q03":"3","Q01":"3","Q07":"3","Q11":"1","Q12":"1"},"rt":31750.600000023842,"item_order":[4,12,1,5,8,3,7,9,2,0,6,10,11],"radio_events":[4287.5,5753.5,6283.400000035763,7373.5,9519.5,13381.199999988079,16761.400000035763,18587.400000035763,22081.600000023842,23459.30000001192,23955.5,25037.5,27689.400000035763,30885.400000035763],"key_events":[],"mouse_events":[4287.5,5753.5,6283.400000035763,7373.5,9519.5,13381.199999988079,16761.400000035763,18587.400000035763,22081.600000023842,22929.30000001192,23459.30000001192,23955.5,25037.5,27689.400000035763,29715.5,30885.400000035763,31749.30000001192],"straightlining":0.46153846153846156,"zigzagging":0.25,"honeypot":0,"survey":"bisbas","trial_type":"survey-template","trial_index":3,"time_elapsed":114843,"internal_node_id":"0.0-3.0","task_version":"prescreen-v0.3","browser_interactions":0,"infrequency":0},{"responses":{"Q01":"2","Q02":"2","Q03":"2"},"rt":12717.700000047684,"radio_events":[5373.100000023842,8065.5,11743.200000047684],"key_events":[],"mouse_events":[5373.100000023842,8065.5,11743.200000047684,12716.900000035763],"survey":"map","page":1,"trial_type":"survey-map","trial_index":4,"time_elapsed":127564,"internal_node_id":"0.0-4.0","task_version":"prescreen-v0.3","browser_interactions":0},{"responses":{"Q04":"3","Q05":"2","Q06":"2"},"rt":12341.300000011921,"radio_events":[7780.800000011921,10060.800000011921,11812.900000035763],"key_events":[],"mouse_events":[7780.800000011921,10060.800000011921,11538.699999988079,11812.900000035763,12340.800000011921],"survey":"map","page":2,"trial_type":"survey-map","trial_index":5,"time_elapsed":139908,"internal_node_id":"0.0-5.0","task_version":"prescreen-v0.3","browser_interactions":0},{"responses":{"Q07":"3","Q08":"2","Q09":"2"},"rt":11908.100000023842,"radio_events":[3547.5,8579.300000011921,11427.300000011921],"key_events":[],"mouse_events":[3547.5,8099,8579.300000011921,11123.5,11427.300000011921,11907.400000035763],"survey":"map","page":3,"trial_type":"survey-map","trial_index":6,"time_elapsed":151818,"internal_node_id":"0.0-6.0","task_version":"prescreen-v0.3","browser_interactions":0},{"responses":{"Q10":"1","Q11":"3","Q12":"3","Q13":"3","Q16":"0","Q14":"1","Q15":"2"},"rt":21209.399999976158,"radio_events":[3368.5,5484.399999976158,10024.5,12652.399999976158,15624.199999988079,17546.399999976158,19886.399999976158],"key_events":[],"mouse_events":[3368.5,5484.399999976158,10024.5,12652.399999976158,15624.199999988079,17546.399999976158,19886.399999976158,21208.399999976158],"survey":"map","page":4,"trial_type":"survey-map","trial_index":7,"time_elapsed":173031,"internal_node_id":"0.0-7.0","task_version":"prescreen-v0.3","browser_interactions":0,"infrequency":0},{"view_history":[{"page_index":0,"viewing_time":1518.7000000476837},{"page_index":1,"viewing_time":1993.7999999523163}],"rt":3512.800000011921,"trial_type":"instructions","trial_index":8,"time_elapsed":176545,"internal_node_id":"0.0-8.0","task_version":"prescreen-v0.3"},{"responses":{"01":"Yes","01_ages_8":"8","01_ages_9":"9","01_ages_10":"10","01_ages_11":"11","01_ages_12":"12","01_ages_13":"13","01_ages_14":"14","01_ages_15":"15","01_ages_16":"16","01_ages_17":"17","01_ages_18":"18","02":"Yes","02_ages_11":"11","02_ages_12":"12","02_ages_13":"13","02_ages_14":"14","02_ages_15":"15","02_ages_16":"16","02_ages_17":"17","02_ages_18":"18","03":"Yes","03_ages_1":"1","03_ages_2":"2","03_ages_3":"3","03_ages_4":"4","03_ages_5":"5","03_ages_6":"6","03_ages_7":"7","03_ages_8":"8","03_ages_9":"9","03_ages_10":"10","03_ages_11":"11","03_ages_12":"12","03_ages_13":"13","03_ages_14":"14","03_ages_15":"15","03_ages_16":"16","03_ages_17":"17","03_ages_18":"18","04":"No","05":"No","06":"Yes","06_ages_13":"13","06_ages_14":"14","06_ages_15":"15","06_ages_16":"16","06_ages_17":"17","06_ages_18":"18"},"rt":57913.80000001192,"item_order":[0,1,2,3,4,5],"radio_events":[5686.800000011921,27914.5,36380.10000002384,48008.60000002384,49306.80000001192,51052.5],"checkbox_events":[17570.69999998808,18004.600000023842,18356.5,18660.19999998808,19242.30000001192,20246.399999976158,20664.600000023842,20984.399999976158,21624.899999976158,21896.30000001192,22570.30000001192,22954.399999976158,23290.30000001192,23612.5,24268.600000023842,25022.80000001192,25422.600000023842,29844.600000023842,30180.899999976158,30452.19999998808,31382.5,31974.600000023842,32376.5,33608.30000001192,33994.30000001192,37886.5,38240.30000001192,38608.30000001192,38928.30000001192,39200.5,39586.30000001192,39898.19999998808,40602.30000001192,40890.5,41196.30000001192,41724.5,42116.19999998808,42850.30000001192,43154.39999997616,44164.19999998808,44484.39999997616,44900.5,45958.5,52286.39999997616,52638.39999997616,53248.19999998808,54946.69999998808,56052.19999998808,56644.19999998808],"key_events":[],"mouse_events":[0.19999998807907104,5686.800000011921,17570.69999998808,18004.600000023842,18356.5,18660.19999998808,18980,19242.30000001192,19590.30000001192,20246.399999976158,20664.600000023842,20984.399999976158,21624.899999976158,21896.30000001192,22218.600000023842,22570.30000001192,22954.399999976158,23290.30000001192,23612.5,24268.600000023842,24604.19999998808,25022.80000001192,25422.600000023842,27914.5,29844.600000023842,30180.899999976158,30452.19999998808,31382.5,31654.19999998808,31974.600000023842,32376.5,32808.39999997616,33176.19999998808,33608.30000001192,33994.30000001192,36012.19999998808,36380.10000002384,37886.5,38240.30000001192,38608.30000001192,38928.30000001192,39200.5,39586.30000001192,39898.19999998808,40602.30000001192,40890.5,41196.30000001192,41724.5,42116.19999998808,42850.30000001192,43154.39999997616,43602.89999997616,44164.19999998808,44484.39999997616,44900.5,45284.39999997616,45958.5,47224.5,48008.60000002384,49306.80000001192,51052.5,52286.39999997616,52638.39999997616,52944.39999997616,53248.19999998808,53760.39999997616,54450.10000002384,54946.69999998808,55202.5,55764.10000002384,56052.19999998808,56372.30000001192,56644.19999998808,57911],"honeypot":0,"survey":"mace","page":1,"trial_type":"survey-mace","trial_index":9,"time_elapsed":234467,"internal_node_id":"0.0-9.0","task_version":"prescreen-v0.3","browser_interactions":0},{"responses":{"01":"No","02":"No","03":"Yes","03_ages_1":"1","03_ages_2":"2","03_ages_3":"3","03_ages_4":"4","03_ages_5":"5","03_ages_6":"6","03_ages_7":"7","03_ages_8":"8","03_ages_9":"9","03_ages_10":"10","04":"No","05":"No","06":"No","07":"No","08":"No"},"rt":17774.69999998808,"item_order":[0,1,2,3,4,5,6,7],"radio_events":[2983.099999964237,3913.300000011921,5835,12861.199999988079,13893.099999964237,15375.099999964237,16313.599999964237,17307.19999998808],"checkbox_events":[6909.199999988079,7229.199999988079,7533.199999988079,7853,8175,8463.099999964237,8799.099999964237,9689.099999964237,10377.199999988079,10939.099999964237],"key_events":[],"mouse_events":[2983.099999964237,3913.300000011921,5371.099999964237,5835,6909.199999988079,7229.199999988079,7533.199999988079,7853,8175,8463.099999964237,8799.099999964237,9302.800000011921,9689.099999964237,10377.199999988079,10939.099999964237,12861.199999988079,13893.099999964237,15375.099999964237,16313.599999964237,17307.19999998808,17771.19999998808],"honeypot":0,"survey":"mace","page":2,"trial_type":"survey-mace","trial_index":10,"time_elapsed":252246,"internal_node_id":"0.0-10.0","task_version":"prescreen-v0.3","browser_interactions":0},{"responses":{"01":"No","02":"No","03":"No","04":"No"},"rt":7334.099999964237,"item_order":[0,1,2,3],"radio_events":[2507.699999988079,4807.699999988079,6193.699999988079,6961.399999976158],"checkbox_events":[],"key_events":[],"mouse_events":[2507.699999988079,4807.699999988079,6193.699999988079,6961.399999976158,7332],"honeypot":0,"survey":"mace","page":3,"trial_type":"survey-mace","trial_index":11,"time_elapsed":259584,"internal_node_id":"0.0-11.0","task_version":"prescreen-v0.3","browser_interactions":0},{"responses":{"01":"No","02":"No"},"rt":4578.399999976158,"item_order":[0,1],"radio_events":[3694.800000011921,4208.5],"checkbox_events":[],"key_events":[],"mouse_events":[2814.5,3694.800000011921,4208.5,4576.599999964237],"honeypot":0,"survey":"mace","page":4,"trial_type":"survey-mace","trial_index":12,"time_elapsed":264165,"internal_node_id":"0.0-12.0","task_version":"prescreen-v0.3","browser_interactions":0},{"responses":{"01":"No","02":"No","03":"No","04":"No","05":"No"},"rt":14524.5,"item_order":[0,1,2,3,4],"radio_events":[8840.199999988079,9546.399999976158,11356.299999952316,13400.299999952316,13912.5],"checkbox_events":[],"key_events":[],"mouse_events":[8840.199999988079,9546.399999976158,11356.299999952316,13400.299999952316,13912.5,14522.099999964237],"honeypot":0,"survey":"mace","page":5,"trial_type":"survey-mace","trial_index":13,"time_elapsed":278694,"internal_node_id":"0.0-13.0","task_version":"prescreen-v0.3","browser_interactions":0},{"responses":{"01":"Yes","01_ages_10":"10","01_ages_11":"11","01_ages_12":"12","01_ages_13":"13","01_ages_14":"14","01_ages_15":"15","01_ages_16":"16","01_ages_17":"17","02":"Yes","02_ages_10":"10","02_ages_11":"11","02_ages_12":"12","02_ages_13":"13","02_ages_14":"14","02_ages_15":"15","02_ages_16":"16","02_ages_17":"17","02_ages_18":"18","03":"Yes","03_ages_10":"10","03_ages_11":"11","03_ages_12":"12","03_ages_13":"13","03_ages_14":"14","03_ages_15":"15","03_ages_16":"16","03_ages_17":"17","03_ages_18":"18","04":"Yes","04_ages_10":"10","04_ages_11":"11","04_ages_12":"12","04_ages_13":"13","04_ages_14":"14","04_ages_15":"15","04_ages_16":"16","04_ages_17":"17","04_ages_18":"18","05":"Yes","05_ages_14":"14","05_ages_15":"15","05_ages_16":"16","05_ages_17":"17"},"rt":45800.10000002384,"item_order":[0,1,2,3,4],"radio_events":[2147.899999976158,19257.69999998808,26311.80000001192,32679.399999976158,39553.60000002384],"checkbox_events":[10905.899999976158,11675.800000011921,12813.800000011921,13357.699999988079,13725.600000023842,14287.899999976158,14831.600000023842,16657.80000001192,21136.100000023842,21489.80000001192,22177.69999998808,22449.600000023842,22801.80000001192,23203.600000023842,23668.30000001192,24211.69999998808,24773.80000001192,27569.69999998808,27921.600000023842,28433.69999998808,28737.69999998808,29059.69999998808,29635.5,29939.69999998808,30211.80000001192,30725.600000023842,34233.69999998808,35003.80000001192,35307.69999998808,36019.69999998808,36357.60000002384,36645.60000002384,37061.69999998808,37349.60000002384,41071.69999998808,43105.69999998808,43667.60000002384,44083.69999998808,44595.80000001192],"key_events":[],"mouse_events":[1113.3999999761581,2147.899999976158,10905.899999976158,11211.699999988079,11675.800000011921,11963.699999988079,12813.800000011921,13357.699999988079,13725.600000023842,14287.899999976158,14831.600000023842,16657.80000001192,18493.5,18845.5,19257.69999998808,20511.80000001192,21136.100000023842,21489.80000001192,21777.69999998808,22177.69999998808,22449.600000023842,22801.80000001192,23203.600000023842,23668.30000001192,24211.69999998808,24773.80000001192,26311.80000001192,27569.69999998808,27921.600000023842,28433.69999998808,28737.69999998808,29059.69999998808,29363.80000001192,29635.5,29939.69999998808,30211.80000001192,30725.600000023842,32279.5,32679.399999976158,33353.60000002384,33657.89999997616,34233.69999998808,34521.80000001192,35003.80000001192,35307.69999998808,35611.80000001192,36019.69999998808,36357.60000002384,36645.60000002384,37061.69999998808,37349.60000002384,37704,39553.60000002384,41071.69999998808,42049.80000001192,42337.5,43105.69999998808,43377.69999998808,43667.60000002384,44083.69999998808,44595.80000001192,45797.89999997616],"honeypot":0,"survey":"mace","page":6,"trial_type":"survey-mace","trial_index":14,"time_elapsed":324498,"internal_node_id":"0.0-14.0","task_version":"prescreen-v0.3","browser_interactions":0},{"responses":{"01":"No","02":"Yes","02_ages_14":"14","02_ages_15":"15","02_ages_16":"16","02_ages_17":"17","02_ages_18":"18","03":"Yes","03_ages_14":"14","03_ages_15":"15","04":"No","05":"No","06":"Yes","06_ages_16":"16","06_ages_17":"17","07":"Yes","07_ages_14":"14","07_ages_15":"15","07_ages_16":"16","07_ages_17":"17"},"rt":33064.10000002384,"item_order":[0,1,2,3,4,5,6],"radio_events":[5069.699999988079,7093.199999988079,13771.100000023842,17143.19999998808,18489.69999998808,19971.399999976158,28703],"checkbox_events":[8635.300000011921,9357.100000023842,10341.300000011921,10709.300000011921,11095.399999976158,14587.199999988079,15005,22951.5,25177.19999998808,25947.19999998808,26219,30001,31659.600000023842,31947,32267.100000023842],"key_events":[],"mouse_events":[5069.699999988079,7093.199999988079,8635.300000011921,9083.199999988079,9357.100000023842,9597.300000011921,10037,10341.300000011921,10709.300000011921,11095.399999976158,13771.100000023842,14587.199999988079,15005,17143.19999998808,17815.100000023842,18489.69999998808,19971.399999976158,21317.100000023842,22951.5,25177.19999998808,25947.19999998808,26219,28703,30001,30281.100000023842,31113,31659.600000023842,31947,32267.100000023842,33061.10000002384],"honeypot":0,"survey":"mace","page":7,"trial_type":"survey-mace","trial_index":15,"time_elapsed":357567,"internal_node_id":"0.0-15.0","task_version":"prescreen-v0.3","browser_interactions":0},{"responses":{"01":"No","02":"Yes","02_ages_12":"12","02_ages_13":"13","02_ages_14":"14","02_ages_15":"15","02_ages_16":"16","02_ages_17":"17","02_ages_18":"18","03":"Yes","03_ages_1":"1","03_ages_2":"2","03_ages_3":"3","03_ages_4":"4","03_ages_5":"5","03_ages_6":"6","03_ages_7":"7","03_ages_8":"8","03_ages_9":"9","03_ages_10":"10","03_ages_11":"11","03_ages_12":"12","03_ages_13":"13","03_ages_14":"14","03_ages_15":"15","03_ages_16":"16","03_ages_17":"17","03_ages_18":"18","04":"Yes","04_ages_1":"1","04_ages_2":"2","04_ages_3":"3","04_ages_4":"4","04_ages_5":"5","04_ages_6":"6","04_ages_7":"7","04_ages_8":"8","04_ages_9":"9","04_ages_10":"10","04_ages_11":"11","04_ages_12":"12","04_ages_13":"13","04_ages_14":"14","04_ages_15":"15","04_ages_16":"16","04_ages_17":"17","04_ages_18":"18"},"rt":43922.89999997616,"item_order":[0,1,2,3],"radio_events":[6146.899999976158,10120.699999988079,21368.69999998808,32608.69999998808],"checkbox_events":[16218.800000011921,16554.69999998808,17226.80000001192,17546.899999976158,18173,18960.80000001192,20680.69999998808,22266.899999976158,22586.80000001192,22874.599999964237,23179.19999998808,23564.899999976158,24604.80000001192,25294.80000001192,26336.69999998808,26704.599999964237,27939.19999998808,28722.599999964237,29106.69999998808,29556.599999964237,29876.69999998808,30444.69999998808,30862.80000001192,31358.80000001192,31694.69999998808,34034.69999998808,34355,34850.80000001192,36356.80000001192,36934.89999997616,37494.89999997616,37830.69999998808,38160.69999998808,38640.69999998808,38928.80000001192,39201,39750.80000001192,40259,40722.59999996424,41612.69999998808,42302.59999996424,42670.69999998808,43278.80000001192],"key_events":[],"mouse_events":[6146.899999976158,10120.699999988079,16218.800000011921,16554.69999998808,16810.80000001192,17226.80000001192,17546.899999976158,18173,18492.69999998808,18960.80000001192,20392.599999964237,20680.69999998808,21368.69999998808,22266.899999976158,22586.80000001192,22874.599999964237,23179.19999998808,23564.899999976158,24604.80000001192,25294.80000001192,25667.19999998808,26336.69999998808,26704.599999964237,27056.599999964237,27939.19999998808,28242.399999976158,28722.599999964237,29106.69999998808,29556.599999964237,29876.69999998808,30444.69999998808,30862.80000001192,31358.80000001192,31694.69999998808,32608.69999998808,34034.69999998808,34355,34850.80000001192,35188.59999996424,35796.39999997616,36356.80000001192,36934.89999997616,37494.89999997616,37830.69999998808,38160.69999998808,38640.69999998808,38928.80000001192,39201,39750.80000001192,40259,40722.59999996424,40980.89999997616,41340.59999996424,41612.69999998808,41837.59999996424,42302.59999996424,42670.69999998808,42926.5,43278.80000001192,43920.89999997616],"honeypot":0,"survey":"mace","page":8,"trial_type":"survey-mace","trial_index":16,"time_elapsed":401493,"internal_node_id":"0.0-16.0","task_version":"prescreen-v0.3","browser_interactions":0},{"responses":{"01":"Yes","01_ages_1":"1","01_ages_2":"2","01_ages_3":"3","01_ages_4":"4","01_ages_5":"5","01_ages_6":"6","01_ages_7":"7","01_ages_8":"8","01_ages_9":"9","01_ages_10":"10","01_ages_11":"11","01_ages_12":"12","01_ages_13":"13","01_ages_14":"14","01_ages_15":"15","01_ages_16":"16","01_ages_17":"17","01_ages_18":"18","02":"Yes","02_ages_1":"1","02_ages_2":"2","02_ages_3":"3","02_ages_4":"4","02_ages_5":"5","02_ages_6":"6","02_ages_7":"7","02_ages_8":"8","02_ages_9":"9","02_ages_10":"10","02_ages_11":"11","02_ages_12":"12","02_ages_13":"13","02_ages_14":"14","02_ages_15":"15","02_ages_16":"16","02_ages_17":"17","02_ages_18":"18","03":"Yes","03_ages_1":"1","03_ages_2":"2","03_ages_3":"3","03_ages_4":"4","03_ages_5":"5","03_ages_6":"6","03_ages_7":"7","03_ages_8":"8","03_ages_9":"9","03_ages_10":"10","04":"Yes","04_ages_1":"1","04_ages_2":"2","04_ages_3":"3","04_ages_4":"4","04_ages_5":"5","04_ages_6":"6","04_ages_7":"7","04_ages_8":"8","04_ages_9":"9","04_ages_10":"10","04_ages_11":"11","04_ages_12":"12","04_ages_13":"13","04_ages_14":"14","04_ages_15":"15","04_ages_16":"16","04_ages_17":"17","04_ages_18":"18"},"rt":56856.39999997616,"item_order":[0,1,2,3],"radio_events":[4602.399999976158,23476.299999952316,38496.5,46492.299999952316],"checkbox_events":[9032.5,10795.099999964237,13814.399999976158,14656.399999976158,14992.399999976158,15296.199999988079,15664.299999952316,16442.19999998808,16922.299999952316,17370.299999952316,17772.5,18156.299999952316,19454.69999998808,20552.399999976158,21064.799999952316,21834.899999976158,22314.099999964237,22810.5,25454.299999952316,26368.399999976158,26992.299999952316,27280.399999976158,27810.299999952316,28354.299999952316,28738.5,29046.299999952316,29340.399999976158,29805.899999976158,31110.299999952316,31798.299999952316,33032.39999997616,33360.19999998808,33970.19999998808,34618.19999998808,34954.39999997616,35556.299999952316,39946.09999996424,40366.299999952316,40666.39999997616,41116.39999997616,41436.19999998808,41740.299999952316,42318.299999952316,42702.19999998808,43070.59999996424,43566,47692.299999952316,48878.299999952316,49400.299999952316,49960.39999997616,50456.299999952316,50810.39999997616,51162.299999952316,51674.39999997616,52170.299999952316,52780.299999952316,53116.299999952316,53568.19999998808,53950.299999952316,54702.39999997616,54990.09999996424,55296.19999998808,55680.59999996424,55968.19999998808],"key_events":[],"mouse_events":[4602.399999976158,9032.5,10795.099999964237,13814.399999976158,14656.399999976158,14992.399999976158,15296.199999988079,15664.299999952316,16010.299999952316,16442.19999998808,16922.299999952316,17370.299999952316,17772.5,18156.299999952316,18524.399999976158,18780.19999998808,19122.19999998808,19454.69999998808,19831,20102.19999998808,20552.399999976158,21064.799999952316,21496.099999964237,21834.899999976158,22314.099999964237,22810.5,23476.299999952316,25454.299999952316,25774.299999952316,26368.399999976158,26640.299999952316,26992.299999952316,27280.399999976158,27568.099999964237,27810.299999952316,28354.299999952316,28738.5,29046.299999952316,29340.399999976158,29805.899999976158,30276.19999998808,31110.299999952316,31478.19999998808,31798.299999952316,32072.299999952316,32648.099999964237,33032.39999997616,33360.19999998808,33970.19999998808,34618.19999998808,34954.39999997616,35556.299999952316,38496.5,39946.09999996424,40366.299999952316,40666.39999997616,41116.39999997616,41436.19999998808,41740.299999952316,42318.299999952316,42702.19999998808,43070.59999996424,43566,46492.299999952316,47692.299999952316,47982.19999998808,48590.59999996424,48878.299999952316,49400.299999952316,49960.39999997616,50456.299999952316,50810.39999997616,51162.299999952316,51674.39999997616,52170.299999952316,52780.299999952316,53116.299999952316,53568.19999998808,53950.299999952316,54286.19999998808,54702.39999997616,54990.09999996424,55296.19999998808,55680.59999996424,55968.19999998808,56512.19999998808,56854.39999997616],"honeypot":0,"survey":"mace","page":9,"trial_type":"survey-mace","trial_index":17,"time_elapsed":458353,"internal_node_id":"0.0-17.0","task_version":"prescreen-v0.3","browser_interactions":0},{"responses":{"01":"No","02":"No","03":"No","04":"Yes","04_ages_10":"10","04_ages_11":"11","04_ages_12":"12","04_ages_13":"13","04_ages_14":"14","05":"Yes","05_ages_1":"1","05_ages_2":"2","05_ages_3":"3","05_ages_4":"4","05_ages_5":"5","05_ages_6":"6","05_ages_7":"7","05_ages_8":"8","05_ages_9":"9","05_ages_10":"10","05_ages_11":"11","05_ages_12":"12","05_ages_13":"13","05_ages_14":"14","05_ages_15":"15","05_ages_16":"16","05_ages_17":"17","05_ages_18":"18","06":"Yes","06_ages_17":"17","07":"No","08":"No"},"rt":34897,"item_order":[0,1,2,3,4,5,6,7],"radio_events":[2997.100000023842,4950.800000011921,5478.899999976158,8027,14319,27698.80000001192,31126.899999976158,34416.80000001192],"checkbox_events":[10463,10734.699999988079,10975,11665,12000.899999976158,15568.899999976158,15874.699999988079,16514.899999976158,16786.899999976158,17122.899999976158,18453,19110.899999976158,19814.899999976158,20940.899999976158,21811.100000023842,22211.100000023842,22706.69999998808,23284.80000001192,23636.899999976158,24004.899999976158,24598.899999976158,24950.899999976158,25287,25654.80000001192,26073.19999998808,28810.899999976158],"key_events":[],"mouse_events":[2627,2997.100000023842,3540.899999976158,4950.800000011921,5478.899999976158,8027,10463,10734.699999988079,10975,11665,12000.899999976158,14319,15568.899999976158,15874.699999988079,16194.800000011921,16514.899999976158,16786.899999976158,17122.899999976158,17413,18453,19110.899999976158,19398.80000001192,19814.899999976158,20232.600000023842,20940.899999976158,21272.899999976158,21811.100000023842,22211.100000023842,22706.69999998808,23284.80000001192,23636.899999976158,24004.899999976158,24308.69999998808,24598.899999976158,24950.899999976158,25287,25654.80000001192,26073.19999998808,27698.80000001192,28810.899999976158,31126.899999976158,34416.80000001192,34893],"honeypot":0,"survey":"mace","page":10,"trial_type":"survey-mace","trial_index":18,"time_elapsed":493257,"internal_node_id":"0.0-18.0","task_version":"prescreen-v0.3","browser_interactions":0,"instructed":0},{"rt":5097.399999976158,"trial_type":"mental-health-alert","trial_index":19,"time_elapsed":498357,"internal_node_id":"0.0-19.0","task_version":"prescreen-v0.3","interactions":"[]"}]