[{"view_history":[{"page_index":0,"viewing_time":2709},{"page_index":1,"viewing_time":2231},{"page_index":2,"viewing_time":762.0000000000009},{"page_index":3,"viewing_time":1042.999999999999}],"rt":6746,"trial_type":"instructions","trial_index":0,"time_elapsed":6752,"internal_node_id":"0.0-0.0","task_version":"prescreen-v0.3"},{"rt":9893,"responses":{"age":"19","gender-categorical":"Female","gender-free-response":"","ethnicity":"Not Hispanic or Latino","race":["White"],"education":"Some college"},"trial_type":"survey-demo","trial_index":1,"time_elapsed":16653,"internal_node_id":"0.0-1.0","task_version":"prescreen-v0.3"},{"responses":{"Q18":"2","Q10":"1","Q12":"3","Q05":"3","Q17":"0","Q01":"0","Q15":"0","Q11":"0","Q02":"0","Q21":"1","Q20":"1","Q08":"2","Q04":"1","Q06":"0","Q19":"1","Q16":"2","Q03":"1","Q09":"0","Q07":"2","Q14":"1","Q13":"1"},"rt":86605.00000000001,"item_order":[17,9,11,4,16,0,14,10,1,20,19,7,3,5,18,15,2,8,6,13,12],"radio_events":[8143.000000000004,11378,17212,21681,22812,23931,28718,30687,31425,32033,35054,37019,38963,42027,43178,45327,48911,54060,60576,61065,61707,64012,68026,70728,76975,78715.00000000001,80346.00000000001,85081.00000000001],"key_events":[],"mouse_events":[8143.000000000004,11378,17212,21681,22812,23931,28718,30687,31425,32033,35054,35760,37019,37475,38963,40760,41554,42027,42436,43178,45327,48911,53422,54060,59549,60576,61065,61707,64012,65528,68026,68555,70728,76975,78715.00000000001,79605.00000000001,80346.00000000001,81060,82840.00000000001,85081.00000000001,86588],"straightlining":0.38095238095238093,"zigzagging":0.55,"honeypot":0,"survey":"sns","trial_type":"survey-template","trial_index":2,"time_elapsed":103269,"internal_node_id":"0.0-2.0","task_version":"prescreen-v0.3","browser_interactions":0,"infrequency":1},{"responses":{"Q06":"2","Q09":"2","Q11":"2","Q02":"1","Q08":"1","Q10":"2","Q04":"2","Q13":"0","Q05":"1","Q03":"1","Q01":"1","Q12":"1","Q07":"2"},"rt":36426,"item_order":[5,8,10,1,7,9,3,12,4,2,0,11,6],"radio_events":[3234,4762,5322,7134,7863,8958,11668,16682,28863,30145,31917,32398,34074.00000000003],"key_events":[],"mouse_events":[3234,3883,4762,5322,5859,7134,7863,8958,9736.000000000015,11668,16682,28863,29279,30145,30667,31917,32398,34074.00000000003,36412],"straightlining":0.46153846153846156,"zigzagging":0.3333333333333333,"honeypot":0,"survey":"bisbas","trial_type":"survey-template","trial_index":3,"time_elapsed":139700,"internal_node_id":"0.0-3.0","task_version":"prescreen-v0.3","browser_interactions":0,"infrequency":0},{"responses":{"Q01":"4","Q02":"3","Q03":"4"},"rt":13030.99999999997,"radio_events":[6722.999999999971,9132.99999999997,12307.99999999997],"key_events":[],"mouse_events":[6722.999999999971,8069.999999999971,9132.99999999997,9869.99999999997,11272.99999999997,12307.99999999997,13024.99999999997],"survey":"map","page":1,"trial_type":"survey-map","trial_index":4,"time_elapsed":152737,"internal_node_id":"0.0-4.0","task_version":"prescreen-v0.3","browser_interactions":0},{"responses":{"Q04":"4","Q05":"3","Q06":"3"},"rt":7400,"radio_events":[2492,5342,6401],"key_events":[],"mouse_events":[2492,3543,4140,5342,6401,7395],"survey":"map","page":2,"trial_type":"survey-map","trial_index":5,"time_elapsed":160140,"internal_node_id":"0.0-5.0","task_version":"prescreen-v0.3","browser_interactions":0},{"responses":{"Q07":"2","Q08":"3","Q09":"4"},"rt":37996.00000000003,"radio_events":[33465,34483,36163],"key_events":[],"mouse_events":[32895,33465,34483,36163,37991],"survey":"map","page":3,"trial_type":"survey-map","trial_index":6,"time_elapsed":198141,"internal_node_id":"0.0-6.0","task_version":"prescreen-v0.3","browser_interactions":0},{"responses":{"Q10":"3","Q11":"3","Q12":"3","Q13":"3","Q16":"2","Q14":"3","Q15":"2"},"rt":96346,"radio_events":[1783,2424.000000000029,3194,5780,6558,8049.000000000029,9789,10751],"key_events":[],"mouse_events":[1222.000000000029,1783,2424.000000000029,3194,4012,4653,5780,6558,8049.000000000029,9789,10751,96338],"survey":"map","page":4,"trial_type":"survey-map","trial_index":7,"time_elapsed":294494,"internal_node_id":"0.0-7.0","task_version":"prescreen-v0.3","browser_interactions":3,"infrequency":1},{"view_history":[{"page_index":0,"viewing_time":2486},{"page_index":1,"viewing_time":1267}],"rt":3753,"trial_type":"instructions","trial_index":8,"time_elapsed":298251,"internal_node_id":"0.0-8.0","task_version":"prescreen-v0.3"},{"responses":{"01":"No","01_ages_6":"6","02":"Yes","02_ages_4":"4","03":"No","04":"No","05":"No","06":"No"},"rt":37306,"item_order":[0,1,2,3,4,5],"radio_events":[7089,15108.000000000058,26553,31660,33158,34927,36395],"checkbox_events":[9616,24724],"key_events":[],"mouse_events":[0,7089,9616,13340,15108.000000000058,16880,24724,26553,31660,32509,33158,34927,36395,37294],"honeypot":0,"survey":"mace","page":1,"trial_type":"survey-mace","trial_index":9,"time_elapsed":335567,"internal_node_id":"0.0-9.0","task_version":"prescreen-v0.3","browser_interactions":0},{"responses":{"01":"No","02":"No","03":"Yes","03_ages_9":"9","04":"No","05":"Yes","05_ages_6":"6","05_ages_7":"7","05_ages_8":"8","05_ages_9":"9","06":"Yes","06_ages_15":"15","06_ages_16":"16","06_ages_17":"17","06_ages_18":"18","07":"Yes","07_ages_15":"15","07_ages_16":"16","07_ages_17":"17","08":"No"},"rt":59644,"item_order":[0,1,2,3,4,5,6,7],"radio_events":[2015,3219.000000000058,5031,8379,16140,17503,19248.00000000006,24417,52351,53482,59149],"checkbox_events":[10898,21534.00000000006,25508,29475,38631,39072,39673,40684,41743.00000000006,47217,47935,48448,50020,55589,56361,57147.00000000006],"key_events":[],"mouse_events":[2015,2569,3219.000000000058,5031,8379,10898,16140,17503,19248.00000000006,20964,21534.00000000006,24417,25508,29475,38631,39072,39673,40684,41743.00000000006,47217,47935,48448,49282,50020,52351,53482,55589,56361,57147.00000000006,59149,59630.00000000006],"honeypot":0,"survey":"mace","page":2,"trial_type":"survey-mace","trial_index":10,"time_elapsed":395219,"internal_node_id":"0.0-10.0","task_version":"prescreen-v0.3","browser_interactions":0},{"responses":{"01":"No","02":"No","03":"No","04":"No"},"rt":7513,"item_order":[0,1,2,3],"radio_events":[2267.000000000058,3330,4702,6130.000000000058],"checkbox_events":[],"key_events":[],"mouse_events":[2267.000000000058,3330,4702,6130.000000000058,7505.000000000058],"honeypot":0,"survey":"mace","page":3,"trial_type":"survey-mace","trial_index":11,"time_elapsed":402737,"internal_node_id":"0.0-11.0","task_version":"prescreen-v0.3","browser_interactions":0},{"responses":{"01":"No","02":"No"},"rt":6279,"item_order":[0,1],"radio_events":[2145.999999999942,2964],"checkbox_events":[],"key_events":[],"mouse_events":[2145.999999999942,2964,6271.999999999942],"honeypot":0,"survey":"mace","page":4,"trial_type":"survey-mace","trial_index":12,"time_elapsed":409020,"internal_node_id":"0.0-12.0","task_version":"prescreen-v0.3","browser_interactions":0},{"responses":{"01":"No","02":"No","03":"No","04":"No","05":"No"},"rt":10007,"item_order":[0,1,2,3,4],"radio_events":[1456,2097,3248,5839,7179.000000000058],"checkbox_events":[],"key_events":[],"mouse_events":[1456,2097,3248,4845.000000000058,5839,6489.000000000058,7179.000000000058,9999],"honeypot":0,"survey":"mace","page":5,"trial_type":"survey-mace","trial_index":13,"time_elapsed":419034,"internal_node_id":"0.0-13.0","task_version":"prescreen-v0.3","browser_interactions":0},{"responses":{"01":"Yes","01_ages_7":"7","01_ages_8":"8","01_ages_9":"9","01_ages_10":"10","01_ages_11":"11","02":"Yes","02_ages_12":"12","02_ages_13":"13","02_ages_14":"14","02_ages_15":"15","03":"Yes","03_ages_14":"14","03_ages_15":"15","03_ages_16":"16","03_ages_17":"17","03_ages_18":"18","04":"Yes","04_ages_17":"17","04_ages_18":"18","05":"No"},"rt":33723,"item_order":[0,1,2,3,4],"radio_events":[4714.000000000058,14453,22145,28714.00000000006,33057],"checkbox_events":[7879,8761,9611,10133,10895,11645,12166.000000000058,16487,17241,18019,18538,23589.00000000006,24680,25643,26212,26710,29937,30563],"key_events":[],"mouse_events":[4714.000000000058,7879,8761,9611,10133,10895,11645,12166.000000000058,14453,16487,17241,18019,18538,21379,22145,23589.00000000006,24014,24680,25643,26212,26710,28714.00000000006,29937,30563,33057,33711],"honeypot":0,"survey":"mace","page":6,"trial_type":"survey-mace","trial_index":14,"time_elapsed":452764,"internal_node_id":"0.0-14.0","task_version":"prescreen-v0.3","browser_interactions":0},{"responses":{"01":"No","02":"No","03":"No","04":"No","05":"No","06":"Yes","06_ages_17":"17","06_ages_18":"18","07":"Yes","07_ages_17":"17","07_ages_18":"18"},"rt":23876.00000000006,"item_order":[0,1,2,3,4,5,6],"radio_events":[3222.000000000058,3783,5993,6908,9045,10321,13498,19303],"checkbox_events":[15741,16198.000000000058,20571,23021],"key_events":[],"mouse_events":[3222.000000000058,3783,4766,5993,6908,8047,9045,10321,13498,15741,16198.000000000058,19303,20571,21248,23021,23863],"honeypot":0,"survey":"mace","page":7,"trial_type":"survey-mace","trial_index":15,"time_elapsed":476647,"internal_node_id":"0.0-15.0","task_version":"prescreen-v0.3","browser_interactions":0},{"responses":{"01":"Yes","01_ages_12":"12","01_ages_13":"13","01_ages_14":"14","01_ages_15":"15","01_ages_16":"16","01_ages_17":"17","01_ages_18":"18","02":"No","03":"No","04":"No"},"rt":23791,"item_order":[0,1,2,3],"radio_events":[5543,20820,21798,23005],"checkbox_events":[8723,9164,10680,11434.000000000058,12457,12874,13396,13853,14976,16067,16965.00000000006],"key_events":[],"mouse_events":[5543,8723,9164,9870,10680,11434.000000000058,12457,12874,13396,13853,14486,14976,15401,16067,16965.00000000006,20820,21798,23005,23783],"honeypot":0,"survey":"mace","page":8,"trial_type":"survey-mace","trial_index":16,"time_elapsed":500445,"internal_node_id":"0.0-16.0","task_version":"prescreen-v0.3","browser_interactions":0},{"responses":{"01":"Yes","01_ages_3":"3","01_ages_4":"4","01_ages_5":"5","01_ages_6":"6","01_ages_7":"7","01_ages_8":"8","01_ages_9":"9","01_ages_10":"10","01_ages_11":"11","01_ages_12":"12","01_ages_13":"13","01_ages_14":"14","01_ages_15":"15","01_ages_16":"16","01_ages_17":"17","01_ages_18":"18","02":"Yes","02_ages_9":"9","02_ages_10":"10","02_ages_11":"11","02_ages_12":"12","02_ages_13":"13","02_ages_14":"14","02_ages_15":"15","02_ages_16":"16","02_ages_17":"17","03":"Yes","03_ages_15":"15","03_ages_16":"16","03_ages_17":"17","03_ages_18":"18","04":"No"},"rt":40335,"item_order":[0,1,2,3],"radio_events":[3837,20188,31518,39560],"checkbox_events":[7146,7682,8893,9593,10382,10968,11834.000000000058,12453,14120,14837.999999999942,15390.999999999942,16153,16634,17260,17822,18383.00000000006,21772.00000000006,22750,23287.00000000006,23768,24306,25476,26659,27140,27620,33238,33815,34312,35098.00000000012],"key_events":[],"mouse_events":[3837,7146,7682,8389,8893,9593,10382,10968,11834.000000000058,12453,13615,14120,14837.999999999942,15390.999999999942,16153,16634,17260,17822,18383.00000000006,20188,21772.00000000006,22750,23287.00000000006,23768,24306,24827,25476,26122.000000000116,26659,27140,27620,30757,31518,33238,33815,34312,35098.00000000012,39560,40325],"honeypot":0,"survey":"mace","page":9,"trial_type":"survey-mace","trial_index":17,"time_elapsed":540787,"internal_node_id":"0.0-17.0","task_version":"prescreen-v0.3","browser_interactions":0},{"responses":{"01":"No","02":"No","03":"No","04":"Yes","04_ages_11":"11","04_ages_12":"12","05":"No","06":"Yes","06_ages_17":"17","07":"No","08":"No"},"rt":22688.000000000116,"item_order":[0,1,2,3,4,5,6,7],"radio_events":[3223,4345,5962.000000000116,6619,8479,10311,15616,20014,21602],"checkbox_events":[12613,13310,17116],"key_events":[],"mouse_events":[3223,4345,5440,5962.000000000116,6619,8479,10311,12613,13310,15616,17116,20014,20808.000000000116,21602,22123,22677],"honeypot":0,"survey":"mace","page":10,"trial_type":"survey-mace","trial_index":18,"time_elapsed":563483,"internal_node_id":"0.0-18.0","task_version":"prescreen-v0.3","browser_interactions":0,"instructed":0},{"rt":3925,"trial_type":"mental-health-alert","trial_index":19,"time_elapsed":567413,"internal_node_id":"0.0-19.0","task_version":"prescreen-v0.3","interactions":"[{\"event\":\"blur\",\"trial\":7,\"time\":287295},{\"event\":\"focus\",\"trial\":7,\"time\":292364},{\"event\":\"focus\",\"trial\":7,\"time\":292367}]"}]