[{"view_history":[{"page_index":0,"viewing_time":2340},{"page_index":1,"viewing_time":3903},{"page_index":2,"viewing_time":2208},{"page_index":3,"viewing_time":912}],"rt":9365,"trial_type":"instructions","trial_index":0,"time_elapsed":9373,"internal_node_id":"0.0-0.0","task_version":"prescreen-v0.3"},{"rt":9810,"responses":{"age":"41","gender-categorical":"Male","gender-free-response":"","ethnicity":"Not Hispanic or Latino","race":["Asian"],"education":"Some college","siblings":"2"},"trial_type":"survey-demo","trial_index":1,"time_elapsed":19200,"internal_node_id":"0.0-1.0","task_version":"prescreen-v0.3"},{"responses":{"Q15":"2","Q17":"1","Q05":"2","Q19":"1","Q13":"0","Q06":"1","Q21":"3","Q09":"2","Q20":"0","Q12":"2","Q14":"2","Q07":"0","Q04":"1","Q01":"3","Q11":"0","Q08":"1","Q03":"2","Q10":"1","Q02":"2","Q16":"1","Q18":"1"},"rt":105922,"item_order":[14,16,4,18,12,5,20,8,19,11,13,6,3,0,10,7,2,9,1,15,17],"radio_events":[5733,9363,17138,22402,22977,30017,34913,39856,42920,50104,51904,57295,60000,70896,76638,78752,81408,84774,85710,87807,91630,96503,101319,104876],"key_events":[],"mouse_events":[5733,8730,9363,15994,16449,16826,17138,22402,22977,29433,30017,34200,34913,39856,42488,42920,50104,51904,57295,60000,70478,70896,76638,78320,78752,81408,84774,85334,85710,87807,91630,96503,101319,104876,105922],"straightlining":0.38095238095238093,"zigzagging":0.65,"honeypot":0,"survey":"sns","trial_type":"survey-template","trial_index":2,"time_elapsed":125143,"internal_node_id":"0.0-2.0","task_version":"prescreen-v0.3","browser_interactions":0,"infrequency":0},{"responses":{"Q08":"2","Q01":"2","Q05":"2","Q02":"2","Q10":"2","Q13":"0","Q09":"2","Q06":"2","Q07":"2","Q12":"0","Q11":"2","Q03":"2","Q04":"2"},"rt":80478,"item_order":[7,0,4,1,9,12,8,5,6,11,10,2,3],"radio_events":[6167,10886,37812,39157,42940,44454,47868,49412,55804,60043,62123,65435,66939,70611,71755,73898],"key_events":[],"mouse_events":[6167,10510,10886,37077,37812,39157,42940,44454,47868,49412,55244,55804,60043,61220,62123,63835,65435,66939,70611,71755,73898,80478],"straightlining":0.8461538461538461,"zigzagging":0,"honeypot":0,"survey":"bisbas","trial_type":"survey-template","trial_index":3,"time_elapsed":205638,"internal_node_id":"0.0-3.0","task_version":"prescreen-v0.3","browser_interactions":0,"infrequency":0},{"responses":{"Q01":"2","Q02":"2","Q03":"2"},"rt":20354,"radio_events":[9119,14878,17790],"key_events":[],"mouse_events":[9119,14254,14878,17381,17790,20353],"survey":"map","page":1,"trial_type":"survey-map","trial_index":4,"time_elapsed":226004,"internal_node_id":"0.0-4.0","task_version":"prescreen-v0.3","browser_interactions":0},{"responses":{"Q04":"1","Q05":"1","Q06":"1"},"rt":17847,"radio_events":[12646,15781,16781],"key_events":[],"mouse_events":[1182,10805,12646,15173,15781,16781,17847],"survey":"map","page":2,"trial_type":"survey-map","trial_index":5,"time_elapsed":243864,"internal_node_id":"0.0-5.0","task_version":"prescreen-v0.3","browser_interactions":0},{"responses":{"Q07":"3","Q08":"3","Q09":"2"},"rt":11437,"radio_events":[5796,10051,10765],"key_events":[],"mouse_events":[5291,5796,7307,10051,10765,11437],"survey":"map","page":3,"trial_type":"survey-map","trial_index":6,"time_elapsed":255311,"internal_node_id":"0.0-6.0","task_version":"prescreen-v0.3","browser_interactions":0},{"responses":{"Q10":"1","Q11":"1","Q12":"1","Q13":"1","Q16":"0","Q14":"1","Q15":"1"},"rt":34534,"radio_events":[11387,15043,15930,19906,20818,23882,31218,33434],"key_events":[],"mouse_events":[10362,11387,15043,15930,19906,20818,21914,23338,23882,31218,33019,33434,34534],"survey":"map","page":4,"trial_type":"survey-map","trial_index":7,"time_elapsed":289857,"internal_node_id":"0.0-7.0","task_version":"prescreen-v0.3","browser_interactions":2,"infrequency":0},{"view_history":[{"page_index":0,"viewing_time":1873},{"page_index":1,"viewing_time":5422}],"rt":7296,"trial_type":"instructions","trial_index":8,"time_elapsed":297164,"internal_node_id":"0.0-8.0","task_version":"prescreen-v0.3"},{"responses":{"01":"No","02":"Yes","02_ages_11":"11","02_ages_12":"12","02_ages_13":"13","02_ages_14":"14","02_ages_15":"15","03":"Yes","03_ages_7":"7","03_ages_8":"8","03_ages_9":"9","03_ages_10":"10","04":"Yes","04_ages_5":"5","04_ages_6":"6","04_ages_7":"7","05":"No","06":"Yes","06_ages_8":"8","06_ages_9":"9","06_ages_10":"10","06_ages_11":"11"},"rt":64181,"item_order":[0,1,2,3,4,5],"radio_events":[5928,17400,17815,35775,44061,49789,54510,57549,58740],"checkbox_events":[23062,23856,24471,25062,25679,26487,37335,38357,39190,39663,40102,40469,41198,46039,46821,47574,61205,61629,62181,63277],"key_events":[],"mouse_events":[0,5026,5928,9343,11415,17400,17815,23062,23856,24471,25062,25679,26487,35775,37335,38357,38823,39190,39663,40102,40469,41198,44061,46039,46821,47574,49789,54510,57549,58740,60836,61205,61629,62181,63277,64180],"honeypot":0,"survey":"mace","page":1,"trial_type":"survey-mace","trial_index":9,"time_elapsed":361371,"internal_node_id":"0.0-9.0","task_version":"prescreen-v0.3","browser_interactions":0},{"responses":{"01":"No","02":"No","03":"Yes","03_ages_8":"8","03_ages_9":"9","03_ages_10":"10","03_ages_11":"11","04":"No","05":"Yes","05_ages_8":"8","05_ages_9":"9","05_ages_10":"10","05_ages_11":"11","06":"No","07":"No","08":"No"},"rt":33435,"item_order":[0,1,2,3,4,5,6,7],"radio_events":[2318,4294,7582,21237,23662,29205,30966,32885],"checkbox_events":[10382,10829,11365,11966,13798,16222,17157,17749,25173,25604,26309,26869],"key_events":[],"mouse_events":[2318,4294,7080,7582,10382,10829,11365,11966,13798,16222,17157,17749,21237,23662,25173,25604,26309,26869,29205,30966,31836,32373,32885,33435],"honeypot":0,"survey":"mace","page":2,"trial_type":"survey-mace","trial_index":10,"time_elapsed":394822,"internal_node_id":"0.0-10.0","task_version":"prescreen-v0.3","browser_interactions":0},{"responses":{"01":"Yes","01_ages_8":"8","01_ages_9":"9","01_ages_10":"10","01_ages_11":"11","01_ages_12":"12","02":"No","03":"No","04":"No"},"rt":35064,"item_order":[0,1,2,3],"radio_events":[20333,31454,32901,33877],"checkbox_events":[22437,23014,23717,24101,24685,25142,25957],"key_events":[],"mouse_events":[19333,20333,22437,23014,23717,24101,24685,25142,25596,25957,31454,32901,33877,35064],"honeypot":0,"survey":"mace","page":3,"trial_type":"survey-mace","trial_index":11,"time_elapsed":429904,"internal_node_id":"0.0-11.0","task_version":"prescreen-v0.3","browser_interactions":0},{"responses":{"01":"No","02":"No"},"rt":8962,"item_order":[0,1],"radio_events":[1799,8503],"checkbox_events":[],"key_events":[],"mouse_events":[1799,2671,7440,7903,8503,8962],"honeypot":0,"survey":"mace","page":4,"trial_type":"survey-mace","trial_index":12,"time_elapsed":438878,"internal_node_id":"0.0-12.0","task_version":"prescreen-v0.3","browser_interactions":0},{"responses":{"01":"No","02":"No","03":"No","04":"No","05":"No"},"rt":136986,"item_order":[0,1,2,3,4],"radio_events":[118103,124597,125653,130134,132101],"checkbox_events":[],"key_events":[],"mouse_events":[116702,118103,124597,125653,130134,132101,136986],"honeypot":0,"survey":"mace","page":5,"trial_type":"survey-mace","trial_index":13,"time_elapsed":575921,"internal_node_id":"0.0-13.0","task_version":"prescreen-v0.3","browser_interactions":0},{"responses":{"01":"Yes","01_ages_10":"10","01_ages_11":"11","01_ages_12":"12","01_ages_13":"13","01_ages_14":"14","02":"Yes","02_ages_10":"10","02_ages_11":"11","02_ages_12":"12","02_ages_13":"13","03":"No","04":"No","05":"Yes","05_ages_11":"11","05_ages_12":"12","05_ages_13":"13"},"rt":59467,"item_order":[0,1,2,3,4],"radio_events":[3848,35950,47270,51631,54238],"checkbox_events":[5416,5945,6418,7305,8721,37271,38183,38759,39302,55565,55885,57374,57861,58196],"key_events":[],"mouse_events":[3848,5416,5945,6418,6832,7305,8721,35950,37271,37750,38183,38759,39302,47270,51631,54238,55565,55885,56973,57374,57861,58196,59467],"honeypot":0,"survey":"mace","page":6,"trial_type":"survey-mace","trial_index":14,"time_elapsed":635405,"internal_node_id":"0.0-14.0","task_version":"prescreen-v0.3","browser_interactions":0},{"responses":{"01":"No","02":"No","03":"Yes","03_ages_10":"10","03_ages_11":"11","03_ages_12":"12","03_ages_13":"13","04":"No","05":"No","06":"No","07":"No"},"rt":23803,"item_order":[0,1,2,3,4,5,6],"radio_events":[6759,9231,11247,17496,20208,21735,22535],"checkbox_events":[12383,12752,13089,13640],"key_events":[],"mouse_events":[6759,9231,10727,11247,12383,12752,13089,13640,17496,18535,19727,20208,20823,21735,22535,23802],"honeypot":0,"survey":"mace","page":7,"trial_type":"survey-mace","trial_index":15,"time_elapsed":659226,"internal_node_id":"0.0-15.0","task_version":"prescreen-v0.3","browser_interactions":0},{"responses":{"01":"No","02":"Yes","02_ages_9":"9","02_ages_10":"10","02_ages_11":"11","02_ages_12":"12","02_ages_13":"13","02_ages_14":"14","02_ages_15":"15","02_ages_16":"16","03":"No","04":"Yes","04_ages_11":"11","04_ages_12":"12","04_ages_13":"13","04_ages_14":"14","04_ages_15":"15","04_ages_16":"16"},"rt":50470,"item_order":[0,1,2,3],"radio_events":[14907,16659,34138,41354,45505],"checkbox_events":[35474,35889,36250,36673,37114,37930,38273,38753,47065,47545,48025,48418,48809,49329],"key_events":[],"mouse_events":[14907,16659,34138,35474,35889,36250,36673,37114,37529,37930,38273,38753,41354,45505,47065,47545,48025,48418,48809,49329,50469],"honeypot":0,"survey":"mace","page":8,"trial_type":"survey-mace","trial_index":16,"time_elapsed":709711,"internal_node_id":"0.0-16.0","task_version":"prescreen-v0.3","browser_interactions":0},{"responses":{"01":"Yes","01_ages_1":"1","01_ages_2":"2","01_ages_3":"3","01_ages_4":"4","01_ages_5":"5","01_ages_6":"6","01_ages_7":"7","01_ages_8":"8","01_ages_9":"9","01_ages_10":"10","01_ages_11":"11","01_ages_12":"12","01_ages_13":"13","01_ages_14":"14","01_ages_15":"15","01_ages_16":"16","01_ages_17":"17","01_ages_18":"18","02":"Yes","02_ages_9":"9","02_ages_10":"10","02_ages_11":"11","02_ages_12":"12","02_ages_13":"13","02_ages_14":"14","02_ages_15":"15","02_ages_16":"16","03":"Yes","03_ages_9":"9","03_ages_10":"10","03_ages_11":"11","03_ages_12":"12","03_ages_13":"13","03_ages_14":"14","03_ages_15":"15","03_ages_16":"16","04":"Yes","04_ages_6":"6","04_ages_7":"7","04_ages_8":"8","04_ages_9":"9","04_ages_10":"10","04_ages_11":"11","04_ages_12":"12","04_ages_13":"13","04_ages_14":"14","04_ages_15":"15","04_ages_16":"16","04_ages_17":"17","04_ages_18":"18"},"rt":58308,"item_order":[0,1,2,3],"radio_events":[2837,25676,26028,35739,46514],"checkbox_events":[7572,7933,8349,8700,9092,10292,11429,11764,13157,15252,15684,16124,17132,17556,18060,19203,20412,21116,29244,29668,30075,30971,31347,31771,32211,32571,37187,37595,38539,38877,39291,39700,40042,40722,48970,49402,49875,50866,52386,52762,53170,53650,54026,54498,54938,55418,55970],"key_events":[],"mouse_events":[2837,7572,7933,8349,8700,9092,9485,9876,10292,10788,11429,11764,12149,12628,13157,15252,15684,16124,16493,17132,17556,18060,19203,19988,20412,20771,21116,25211,25676,26028,28819,29244,29668,30075,30971,31347,31771,32211,32571,35739,37187,37595,38539,38877,39291,39700,40042,40722,46050,46514,48970,49402,49875,50290,50866,51834,52386,52762,53170,53650,54026,54498,54938,55418,55970,58308],"honeypot":0,"survey":"mace","page":9,"trial_type":"survey-mace","trial_index":17,"time_elapsed":768034,"internal_node_id":"0.0-17.0","task_version":"prescreen-v0.3","browser_interactions":0},{"responses":{"01":"No","02":"No","03":"No","04":"No","05":"No","06":"Yes","06_ages_17":"17","07":"Yes","07_ages_9":"9","07_ages_10":"10","07_ages_11":"11","07_ages_12":"12","07_ages_13":"13","07_ages_14":"14","07_ages_15":"15","07_ages_16":"16","07_ages_17":"17","07_ages_18":"18","08":"Yes","08_ages_10":"10","08_ages_11":"11","08_ages_12":"12","08_ages_13":"13","08_ages_14":"14","08_ages_15":"15","08_ages_16":"16","08_ages_17":"17","08_ages_18":"18"},"rt":116313,"item_order":[0,1,2,3,4,5,6,7],"radio_events":[3914,6761,10642,13074,15553,88614,97797,114197],"checkbox_events":[16929,89997,90774,91157,91581,91973,93045,93373,94470,95230,95773,99356,99756,100125,101069,101988,102460,102877,103357,103828],"key_events":[],"mouse_events":[2762,3914,5522,6075,6761,7851,10642,11178,13074,15105,15553,16929,87677,88205,88614,89997,90774,91157,91581,91973,92308,93045,93373,93855,94470,94813,95230,95773,97797,98868,99356,99756,100125,100541,101069,101461,101988,102460,102877,103357,103828,105045,110156,114197,116011,116312],"honeypot":0,"survey":"mace","page":10,"trial_type":"survey-mace","trial_index":18,"time_elapsed":884367,"internal_node_id":"0.0-18.0","task_version":"prescreen-v0.3","browser_interactions":0,"instructed":0},{"rt":3995,"trial_type":"mental-health-alert","trial_index":19,"time_elapsed":888370,"internal_node_id":"0.0-19.0","task_version":"prescreen-v0.3","interactions":"[{\"event\":\"focus\",\"trial\":0,\"time\":4},{\"event\":\"blur\",\"trial\":7,\"time\":257599},{\"event\":\"focus\",\"trial\":7,\"time\":259264}]"}]