[{"view_history":[{"page_index":0,"viewing_time":1978},{"page_index":1,"viewing_time":2399.9000000003725},{"page_index":2,"viewing_time":3445},{"page_index":3,"viewing_time":1040.699999999255}],"rt":8865.300000000745,"trial_type":"instructions","trial_index":0,"time_elapsed":8907,"internal_node_id":"0.0-0.0","task_version":"prescreen-v0.3"},{"rt":17387.60000000149,"responses":{"age":"19","gender-categorical":"Other","gender-free-response":"Nonbinary","ethnicity":"Hispanic or Latino","race":["White"],"education":"High school"},"trial_type":"survey-demo","trial_index":1,"time_elapsed":26306,"internal_node_id":"0.0-1.0","task_version":"prescreen-v0.3"},{"responses":{"Q14":"3","Q20":"1","Q21":"3","Q15":"3","Q19":"2","Q07":"1","Q08":"3","Q04":"2","Q12":"3","Q03":"2","Q17":"1","Q13":"3","Q16":"3","Q10":"2","Q05":"1","Q02":"3","Q09":"3","Q18":"3","Q01":"3","Q11":"0","Q06":"0"},"rt":48088.79999999888,"item_order":[13,19,20,14,18,6,7,3,11,2,16,12,15,9,4,1,8,17,0,10,5],"radio_events":[3387.5,5653,6946,9126.099999999627,11806.099999999627,14469.89999999851,16185.5,18651.5,21531.39999999851,22481.699999999255,23831.599999999627,27307.699999999255,30246.299999998882,30980.099999999627,33480.59999999963,36733.5,38897.59999999963,40160.699999999255,42042.09999999963,43248.699999999255,45086.699999999255,46929.699999999255],"key_events":[],"mouse_events":[3387.5,4822.0999999996275,5653,6946,9126.099999999627,11806.099999999627,14469.89999999851,16185.5,18651.5,20806.699999999255,21531.39999999851,22481.699999999255,23831.599999999627,25759.89999999851,27307.699999999255,27831.299999998882,29272.39999999851,30246.299999998882,30980.099999999627,33480.59999999963,36733.5,38897.59999999963,40160.699999999255,41168.59999999963,42042.09999999963,43248.699999999255,45086.699999999255,46929.699999999255,48085.199999999255],"straightlining":0.5238095238095238,"zigzagging":0.45,"honeypot":0,"survey":"sns","trial_type":"survey-template","trial_index":2,"time_elapsed":74405,"internal_node_id":"0.0-2.0","task_version":"prescreen-v0.3","browser_interactions":0,"infrequency":0},{"responses":{"Q08":"1","Q09":"2","Q04":"3","Q02":"3","Q03":"3","Q12":"1","Q10":"2","Q11":"2","Q01":"3","Q06":"3","Q13":"0","Q05":"2","Q07":"2"},"rt":37383.39999999851,"item_order":[7,8,3,1,2,11,9,10,0,5,12,4,6],"radio_events":[4061.7999999988824,9858.799999998882,10682.89999999851,11705.5,12557.599999999627,15220,16996,19557.699999999255,20710,26156.699999999255,27668.099999999627,35187.29999999888,36574.89999999851],"key_events":[],"mouse_events":[4061.7999999988824,8734.099999999627,9858.799999998882,10682.89999999851,11705.5,12557.599999999627,15220,16996,19557.699999999255,20710,22977.5,26156.699999999255,27668.099999999627,30888.89999999851,31140.5,31301.699999999255,31462.099999999627,31969.39999999851,35187.29999999888,36574.89999999851,37380.79999999888],"straightlining":0.38461538461538464,"zigzagging":0.4166666666666667,"honeypot":0,"survey":"bisbas","trial_type":"survey-template","trial_index":3,"time_elapsed":111796,"internal_node_id":"0.0-3.0","task_version":"prescreen-v0.3","browser_interactions":0,"infrequency":0},{"responses":{"Q01":"3","Q02":"2","Q03":"2"},"rt":13061,"radio_events":[4995.699999999255,8007.699999999255,8917.299999998882,12129],"key_events":[],"mouse_events":[4995.699999999255,7344.799999998882,8007.699999999255,8917.299999998882,12129,13058.599999999627],"survey":"map","page":1,"trial_type":"survey-map","trial_index":4,"time_elapsed":124862,"internal_node_id":"0.0-4.0","task_version":"prescreen-v0.3","browser_interactions":0},{"responses":{"Q04":"3","Q05":"2","Q06":"2"},"rt":14541.5,"radio_events":[7722.4000000003725,10550.900000000373,11582.599999999627],"key_events":[],"mouse_events":[5784,5949.799999998882,6175.5,6771.5999999996275,7722.4000000003725,10550.900000000373,11582.599999999627,14540.5],"survey":"map","page":2,"trial_type":"survey-map","trial_index":5,"time_elapsed":139408,"internal_node_id":"0.0-5.0","task_version":"prescreen-v0.3","browser_interactions":0},{"responses":{"Q07":"2","Q08":"3","Q09":"2"},"rt":9545.900000000373,"radio_events":[5946.699999999255,7405,8845.199999999255],"key_events":[],"mouse_events":[5185.699999999255,5946.699999999255,7405,8845.199999999255,9544.900000000373],"survey":"map","page":3,"trial_type":"survey-map","trial_index":6,"time_elapsed":148959,"internal_node_id":"0.0-6.0","task_version":"prescreen-v0.3","browser_interactions":0},{"responses":{"Q10":"2","Q11":"1","Q12":"0","Q13":"2","Q16":"0","Q14":"1","Q15":"1"},"rt":53119.29999999888,"radio_events":[6340.9000000003725,10202.400000000373,13054.199999999255,20360.699999999255,23260.099999999627,48896.199999999255,50367.90000000037,52198.09999999963],"key_events":[],"mouse_events":[6340.9000000003725,10202.400000000373,13054.199999999255,20360.699999999255,22103.5,23260.099999999627,30538.099999999627,45965.40000000037,47795.09999999963,48896.199999999255,50367.90000000037,52198.09999999963,53116.40000000037],"survey":"map","page":4,"trial_type":"survey-map","trial_index":7,"time_elapsed":202084,"internal_node_id":"0.0-7.0","task_version":"prescreen-v0.3","browser_interactions":2,"infrequency":0},{"view_history":[{"page_index":0,"viewing_time":1889.2000000011176},{"page_index":1,"viewing_time":2991}],"rt":4882.10000000149,"trial_type":"instructions","trial_index":8,"time_elapsed":206970,"internal_node_id":"0.0-8.0","task_version":"prescreen-v0.3"},{"responses":{"01":"No","01_ages_8":"8","01_ages_9":"9","01_ages_10":"10","01_ages_11":"11","01_ages_12":"12","02":"Yes","02_ages_5":"5","02_ages_6":"6","02_ages_7":"7","02_ages_8":"8","02_ages_9":"9","02_ages_10":"10","02_ages_11":"11","02_ages_12":"12","02_ages_13":"13","02_ages_14":"14","02_ages_15":"15","02_ages_16":"16","02_ages_17":"17","02_ages_18":"18","03":"Yes","03_ages_6":"6","03_ages_7":"7","03_ages_8":"8","03_ages_9":"9","03_ages_10":"10","03_ages_11":"11","03_ages_12":"12","03_ages_14":"14","03_ages_16":"16","04":"Yes","04_ages_13":"13","04_ages_14":"14","04_ages_15":"15","04_ages_16":"16","05":"No","06":"Yes","06_ages_10":"10","06_ages_12":"12","06_ages_15":"15"},"rt":71589.30000000075,"item_order":[0,1,2,3,4,5],"radio_events":[4375.700000001118,20622.599999999627,23185.099999999627,25339.300000000745,42927.800000000745,55186.800000000745,56350.09999999963,67162.30000000075],"checkbox_events":[8526.300000000745,9299.5,10083.900000000373,11193.599999999627,12058.400000000373,12731,15193.200000001118,26570.099999999627,27703.5,28130.5,28914.099999999627,30874.599999999627,33244.90000000037,34350,35162.70000000112,35697.40000000037,36225.20000000112,37689.20000000112,38677.09999999963,39137.59999999963,39572.300000000745,40012.40000000037,41080.90000000037,45874.5,46294.40000000037,46854.40000000037,47463.20000000112,47925.20000000112,48896.300000000745,49344.5,50937.09999999963,51757.09999999963,62126.300000000745,62969.800000000745,65426.09999999963,68757.40000000037,69207.09999999963,69828.30000000075,70205.90000000037],"key_events":[],"mouse_events":[0.5,4375.700000001118,8526.300000000745,9299.5,10083.900000000373,11193.599999999627,12058.400000000373,12731,15193.200000001118,20622.599999999627,23185.099999999627,24377.700000001118,25339.300000000745,26570.099999999627,27004.200000001118,27703.5,28130.5,28543.599999999627,28914.099999999627,29347.900000000373,29796,30314.5,30874.599999999627,31408.599999999627,32853,33244.90000000037,34350,34804.20000000112,35162.70000000112,35697.40000000037,36225.20000000112,36671.90000000037,37164.300000000745,37689.20000000112,38158.300000000745,38677.09999999963,39137.59999999963,39572.300000000745,40012.40000000037,41080.90000000037,42444.800000000745,42927.800000000745,45874.5,46294.40000000037,46854.40000000037,47463.20000000112,47925.20000000112,48525.90000000037,48896.300000000745,49344.5,50937.09999999963,51757.09999999963,53743.09999999963,55186.800000000745,56350.09999999963,62126.300000000745,62969.800000000745,65062.5,65426.09999999963,67162.30000000075,68757.40000000037,69207.09999999963,69828.30000000075,70205.90000000037,71584.5],"honeypot":0,"survey":"mace","page":1,"trial_type":"survey-mace","trial_index":9,"time_elapsed":278576,"internal_node_id":"0.0-9.0","task_version":"prescreen-v0.3","browser_interactions":0},{"responses":{"01":"No","02":"No","03":"Yes","03_ages_3":"3","03_ages_4":"4","03_ages_5":"5","03_ages_6":"6","03_ages_7":"7","03_ages_8":"8","03_ages_9":"9","03_ages_10":"10","03_ages_12":"12","04":"Yes","04_ages_6":"6","04_ages_7":"7","04_ages_8":"8","05":"No","06":"No","07":"No","08":"No"},"rt":35345,"item_order":[0,1,2,3,4,5,6,7],"radio_events":[5357.0999999996275,6405.799999998882,19771.199999999255,23053.599999999627,24294.799999998882,26757,27442.400000000373,30272.400000000373],"checkbox_events":[8593.699999999255,8992.400000000373,9615.199999999255,10763,11385.400000000373,11805.5,13197.900000000373,13603.299999998882,14044.599999999627,14456.799999998882,14869.699999999255,15662.199999999255,16662.900000000373,32163,32596.299999998882,33365.79999999888],"key_events":[],"mouse_events":[4528.0999999996275,5357.0999999996275,6405.799999998882,8593.699999999255,8992.400000000373,9615.199999999255,10272.799999998882,10763,11385.400000000373,11805.5,13197.900000000373,13603.299999998882,14044.599999999627,14456.799999998882,14869.699999999255,15662.199999999255,16662.900000000373,19771.199999999255,22214.400000000373,23053.599999999627,23875,24294.799999998882,26091.900000000373,26757,27442.400000000373,30272.400000000373,31588.900000000373,32163,32596.299999998882,33365.79999999888,35337.59999999963],"honeypot":0,"survey":"mace","page":2,"trial_type":"survey-mace","trial_index":10,"time_elapsed":313931,"internal_node_id":"0.0-10.0","task_version":"prescreen-v0.3","browser_interactions":0},{"responses":{"01":"Yes","01_ages_15":"15","02":"No","03":"No","04":"No"},"rt":15189.400000000373,"item_order":[0,1,2,3],"radio_events":[4667.799999998882,8213.5,14016.5,14654.299999998882],"checkbox_events":[9539.699999999255],"key_events":[],"mouse_events":[3813.4000000003725,4667.799999998882,8213.5,9539.699999999255,14016.5,14654.299999998882,15186],"honeypot":0,"survey":"mace","page":3,"trial_type":"survey-mace","trial_index":11,"time_elapsed":329127,"internal_node_id":"0.0-11.0","task_version":"prescreen-v0.3","browser_interactions":0},{"responses":{"01":"No","02":"No"},"rt":8565.800000000745,"item_order":[0,1],"radio_events":[7360,7885.10000000149],"checkbox_events":[],"key_events":[],"mouse_events":[6772.60000000149,7360,7885.10000000149,8564],"honeypot":0,"survey":"mace","page":4,"trial_type":"survey-mace","trial_index":12,"time_elapsed":337697,"internal_node_id":"0.0-12.0","task_version":"prescreen-v0.3","browser_interactions":0},{"responses":{"01":"Yes","01_ages_16":"16","02":"No","03":"No","04":"Yes","04_ages_16":"16","05":"No"},"rt":25532.300000000745,"item_order":[0,1,2,3,4],"radio_events":[10595.599999999627,15211.300000000745,16245.800000000745,19064.400000000373,24961.200000001118],"checkbox_events":[12864.400000000373,19973.099999999627],"key_events":[],"mouse_events":[1712.5999999996275,2032.5999999996275,2351.5,2674.2000000011176,2868.2000000011176,3088.800000000745,3506.9000000003725,10595.599999999627,12864.400000000373,15211.300000000745,16245.800000000745,19064.400000000373,19973.099999999627,23816.5,24352.200000001118,24961.200000001118,25528.200000001118],"honeypot":0,"survey":"mace","page":5,"trial_type":"survey-mace","trial_index":13,"time_elapsed":363235,"internal_node_id":"0.0-13.0","task_version":"prescreen-v0.3","browser_interactions":0},{"responses":{"01":"Yes","01_ages_8":"8","01_ages_11":"11","01_ages_14":"14","02":"Yes","02_ages_5":"5","02_ages_6":"6","02_ages_7":"7","02_ages_8":"8","02_ages_9":"9","02_ages_10":"10","02_ages_11":"11","02_ages_12":"12","02_ages_13":"13","02_ages_14":"14","02_ages_15":"15","02_ages_16":"16","02_ages_17":"17","02_ages_18":"18","03":"No","04":"Yes","04_ages_10":"10","04_ages_11":"11","04_ages_12":"12","05":"No"},"rt":31667.900000000373,"item_order":[0,1,2,3,4],"radio_events":[4167.4000000003725,12097,25426.800000000745,29458.400000000373,30482.60000000149],"checkbox_events":[8164.10000000149,9402.400000000373,10380.60000000149,14447.800000000745,15297.5,16026.200000001118,16473.60000000149,16893.900000000373,17285.700000001118,17747.700000001118,18359.10000000149,19363.10000000149,20528.200000001118,21690.300000000745,22110.300000000745,22551.300000000745,22985.300000000745,26885.60000000149,28026.300000000745,28474.400000000373],"key_events":[],"mouse_events":[3481.7000000011176,4167.4000000003725,8164.10000000149,9402.400000000373,10380.60000000149,11523.10000000149,12097,13267.400000000373,14447.800000000745,14961.5,15297.5,15717.700000001118,16026.200000001118,16473.60000000149,16893.900000000373,17285.700000001118,17747.700000001118,18359.10000000149,18800.300000000745,19363.10000000149,19887.300000000745,20528.200000001118,21131.200000001118,21690.300000000745,22110.300000000745,22551.300000000745,22985.300000000745,25426.800000000745,26165.10000000149,26514.700000001118,26885.60000000149,27277.900000000373,27684.300000000745,28026.300000000745,28474.400000000373,29458.400000000373,30482.60000000149,31663.400000000373],"honeypot":0,"survey":"mace","page":6,"trial_type":"survey-mace","trial_index":14,"time_elapsed":394910,"internal_node_id":"0.0-14.0","task_version":"prescreen-v0.3","browser_interactions":0},{"responses":{"01":"No","02":"No","03":"No","04":"No","05":"No","06":"Yes","06_ages_16":"16","07":"Yes","07_ages_16":"16"},"rt":26847.5,"item_order":[0,1,2,3,4,5,6],"radio_events":[3469.4000000003725,4373.9000000003725,5886.4000000003725,6653.5,9049.300000000745,9532.200000001118,14699.700000001118,19117.099999999627],"checkbox_events":[15857.5,20699.900000000373,23551.599999999627,24334.900000000373,24355.400000000373,24943.700000001118,25789.800000000745,26398.700000001118],"key_events":[],"mouse_events":[2407.5,3469.4000000003725,4373.9000000003725,5886.4000000003725,6653.5,8127.9000000003725,9049.300000000745,9532.200000001118,14699.700000001118,15857.5,19117.099999999627,20699.900000000373,23551.599999999627,24334.900000000373,24355.400000000373,24943.700000001118,25789.800000000745,26398.700000001118,26840],"honeypot":0,"survey":"mace","page":7,"trial_type":"survey-mace","trial_index":15,"time_elapsed":421768,"internal_node_id":"0.0-15.0","task_version":"prescreen-v0.3","browser_interactions":0},{"responses":{"01":"No","02":"No","03":"Yes","03_ages_8":"8","03_ages_9":"9","03_ages_10":"10","03_ages_11":"11","03_ages_12":"12","03_ages_13":"13","03_ages_14":"14","04":"No"},"rt":23100.700000001118,"item_order":[0,1,2,3],"radio_events":[5067.5,5760.0999999996275,8280.900000000373,22642.300000000745],"checkbox_events":[13022.5,13905.300000000745,13953.200000001118,14709.099999999627,16396.200000001118,17179.900000000373,17669.800000000745,18236.5,18691.5,19174,19715.800000000745,20339.099999999627,21167.099999999627],"key_events":[],"mouse_events":[3348.300000000745,4262.200000001118,5067.5,5760.0999999996275,7400.4000000003725,8280.900000000373,13022.5,13513,13905.300000000745,13953.200000001118,14275.200000001118,14709.099999999627,16396.200000001118,17179.900000000373,17669.800000000745,18236.5,18691.5,19174,19715.800000000745,20339.099999999627,21167.099999999627,22313.400000000373,22642.300000000745,23096.900000000373],"honeypot":0,"survey":"mace","page":8,"trial_type":"survey-mace","trial_index":16,"time_elapsed":444875,"internal_node_id":"0.0-16.0","task_version":"prescreen-v0.3","browser_interactions":0},{"responses":{"01":"Yes","01_ages_1":"1","01_ages_2":"2","01_ages_3":"3","01_ages_4":"4","01_ages_5":"5","01_ages_6":"6","01_ages_7":"7","01_ages_8":"8","01_ages_9":"9","01_ages_10":"10","01_ages_11":"11","01_ages_12":"12","01_ages_13":"13","01_ages_14":"14","01_ages_15":"15","01_ages_16":"16","01_ages_17":"17","01_ages_18":"18","02":"Yes","02_ages_1":"1","02_ages_2":"2","02_ages_3":"3","02_ages_4":"4","02_ages_5":"5","02_ages_6":"6","02_ages_7":"7","02_ages_8":"8","02_ages_9":"9","02_ages_10":"10","02_ages_11":"11","02_ages_12":"12","02_ages_13":"13","02_ages_14":"14","02_ages_15":"15","02_ages_16":"16","02_ages_17":"17","02_ages_18":"18","03":"Yes","03_ages_1":"1","03_ages_2":"2","03_ages_3":"3","03_ages_4":"4","03_ages_5":"5","03_ages_6":"6","03_ages_7":"7","03_ages_8":"8","03_ages_9":"9","03_ages_10":"10","03_ages_11":"11","03_ages_12":"12","03_ages_13":"13","03_ages_14":"14","03_ages_15":"15","03_ages_16":"16","03_ages_17":"17","03_ages_18":"18","04":"Yes","04_ages_1":"1","04_ages_2":"2","04_ages_3":"3","04_ages_4":"4","04_ages_5":"5","04_ages_6":"6","04_ages_7":"7","04_ages_8":"8","04_ages_9":"9","04_ages_10":"10","04_ages_11":"11","04_ages_12":"12","04_ages_13":"13","04_ages_14":"14","04_ages_15":"15","04_ages_16":"16","04_ages_17":"17","04_ages_18":"18"},"rt":65158.09999999963,"item_order":[0,1,2,3],"radio_events":[1585.3999999985099,19069.39999999851,19084.199999999255,37815.5,38641.59999999963],"checkbox_events":[2939.5,2952.699999999255,3729.5,4289.299999998882,4907.0999999996275,5837.799999998882,6866.0999999996275,8895.299999998882,9272.89999999851,11498,13195.599999999627,13622.5,14728.199999999255,15198.799999998882,15603.299999998882,16009.099999999627,16528,16962.599999999627,17367.89999999851,17808.599999999627,20250.299999998882,20635.199999999255,20999.299999998882,21475.099999999627,21874.299999998882,22450.099999999627,23372.299999998882,24450.299999998882,25228,25577.099999999627,26030.5,26447,27439.799999998882,27852.599999999627,28216.599999999627,28664.5,28692.199999999255,29245.199999999255,29840,31064.599999999627,32680.599999999627,34430.199999999255,40466,40934.89999999851,41362,41805,42230.29999999888,42691.89999999851,43147.09999999963,43636.89999999851,44560.29999999888,44945.29999999888,45617.09999999963,46299.89999999851,46811,47613.699999999255,48110.59999999963,48593.39999999851,49203.59999999963,49636.89999999851,50686.59999999963,51085.699999999255,52780.09999999963,53820.79999999888,54360.89999999851,54976.699999999255,55611,56156.199999999255,56725,57279.89999999851,57888.09999999963,58286.5,58888.199999999255,59837.5,60292,60718.79999999888,61245.09999999963,62683.59999999963,63285.29999999888,63829.29999999888],"key_events":[],"mouse_events":[1585.3999999985099,2939.5,2952.699999999255,3310.5999999996275,3729.5,4289.299999998882,4907.0999999996275,5348.699999999255,5837.799999998882,6474.0999999996275,6866.0999999996275,7614.699999999255,8300.5,8895.299999998882,9272.89999999851,11498,12133.699999999255,12691.39999999851,13195.599999999627,13622.5,14098.099999999627,14728.199999999255,15198.799999998882,15603.299999998882,16009.099999999627,16528,16962.599999999627,17367.89999999851,17808.599999999627,18417.599999999627,19069.39999999851,19084.199999999255,20250.299999998882,20635.199999999255,20999.299999998882,21475.099999999627,21874.299999998882,22450.099999999627,22834.5,23372.299999998882,23800.5,24450.299999998882,24842.299999998882,25228,25577.099999999627,26030.5,26447,27005.699999999255,27439.799999998882,27852.599999999627,28216.599999999627,28664.5,28692.199999999255,29245.199999999255,29840,31064.599999999627,31511.699999999255,31966.5,32680.599999999627,33289.59999999963,33842.699999999255,34430.199999999255,37060.59999999963,37815.5,38333.5,38641.59999999963,40466,40934.89999999851,41362,41805,42230.29999999888,42691.89999999851,43147.09999999963,43636.89999999851,44077.89999999851,44560.29999999888,44945.29999999888,45617.09999999963,46299.89999999851,46811,47613.699999999255,48110.59999999963,48593.39999999851,49203.59999999963,49636.89999999851,50686.59999999963,51085.699999999255,51664.29999999888,52156.09999999963,52780.09999999963,53394.5,53820.79999999888,54360.89999999851,54976.699999999255,55611,56156.199999999255,56725,57279.89999999851,57888.09999999963,58286.5,58888.199999999255,59487.39999999851,59837.5,60292,60718.79999999888,61245.09999999963,61781.59999999963,62683.59999999963,63285.29999999888,63829.29999999888,65154.89999999851],"honeypot":0,"survey":"mace","page":9,"trial_type":"survey-mace","trial_index":17,"time_elapsed":510040,"internal_node_id":"0.0-17.0","task_version":"prescreen-v0.3","browser_interactions":0},{"responses":{"01":"No","02":"No","03":"Yes","03_ages_9":"9","03_ages_10":"10","03_ages_11":"11","03_ages_12":"12","03_ages_13":"13","04":"No","05":"No","06":"Yes","06_ages_17":"17","07":"Yes","07_ages_1":"1","07_ages_2":"2","07_ages_3":"3","07_ages_4":"4","07_ages_5":"5","07_ages_6":"6","07_ages_7":"7","07_ages_8":"8","07_ages_9":"9","07_ages_10":"10","07_ages_11":"11","07_ages_12":"12","07_ages_13":"13","07_ages_14":"14","07_ages_15":"15","07_ages_16":"16","07_ages_17":"17","07_ages_18":"18","08":"Yes","08_ages_1":"1","08_ages_2":"2","08_ages_3":"3","08_ages_4":"4","08_ages_5":"5","08_ages_6":"6","08_ages_7":"7","08_ages_8":"8","08_ages_9":"9","08_ages_10":"10","08_ages_11":"11","08_ages_12":"12","08_ages_13":"13","08_ages_14":"14","08_ages_15":"15","08_ages_16":"16","08_ages_17":"17","08_ages_18":"18"},"rt":65387.39999999851,"item_order":[0,1,2,3,4,5,6,7],"radio_events":[4160.5,5521,7165.799999998882,13414.5,16188.299999998882,16867.299999998882,20590.599999999627,28394.299999998882],"checkbox_events":[9243.299999998882,9895.39999999851,10224.299999998882,10693.199999999255,11179.89999999851,18545.199999999255,22658.099999999627,23133.39999999851,23574.099999999627,24364.799999998882,29387.199999999255,29848.799999998882,30949.299999998882,31894,32419,33392.39999999851,33875.09999999963,34302.5,35239.5,37007.199999999255,37833.29999999888,38358.09999999963,38959.39999999851,39578.699999999255,40076.199999999255,40628.79999999888,44003.79999999888,45140.89999999851,46059.09999999963,46985,47833.09999999963,52040.89999999851,57711.699999999255,58657.29999999888,59083.79999999888,59469,60040,60600,61163.5,61826.89999999851,62813.5,63418.39999999851,63895,64643.699999999255],"key_events":[],"mouse_events":[2557.2999999988824,3089.5,3117.0999999996275,3649.2999999988824,4160.5,4853.5999999996275,5521,6368.5999999996275,7165.799999998882,9243.299999998882,9895.39999999851,10224.299999998882,10693.199999999255,11179.89999999851,13414.5,14919.599999999627,16188.299999998882,16867.299999998882,18545.199999999255,20036.299999998882,20590.599999999627,22658.099999999627,23133.39999999851,23574.099999999627,24364.799999998882,25323.299999998882,26169.699999999255,26604.699999999255,27184.5,27639.199999999255,28394.299999998882,29387.199999999255,29848.799999998882,30334.699999999255,30949.299999998882,31285.39999999851,31894,32419,32965.79999999888,33392.39999999851,33875.09999999963,34302.5,35239.5,35855.39999999851,36475.5,37007.199999999255,37448.5,37833.29999999888,38358.09999999963,38959.39999999851,39578.699999999255,40076.199999999255,40628.79999999888,43050,44003.79999999888,45140.89999999851,46059.09999999963,46985,47833.09999999963,49880.59999999963,50294.39999999851,51139.39999999851,52040.89999999851,57711.699999999255,58307.199999999255,58657.29999999888,59083.79999999888,59469,60040,60600,61163.5,61826.89999999851,62302.79999999888,62813.5,63418.39999999851,63895,64272.89999999851,64643.699999999255,65379.89999999851],"honeypot":0,"survey":"mace","page":10,"trial_type":"survey-mace","trial_index":18,"time_elapsed":575436,"internal_node_id":"0.0-18.0","task_version":"prescreen-v0.3","browser_interactions":4,"instructed":0},{"rt":6095.0999999996275,"trial_type":"mental-health-alert","trial_index":19,"time_elapsed":581535,"internal_node_id":"0.0-19.0","task_version":"prescreen-v0.3","interactions":"[{\"event\":\"blur\",\"trial\":7,\"time\":181112},{\"event\":\"focus\",\"trial\":7,\"time\":193430},{\"event\":\"blur\",\"trial\":18,\"time\":562985},{\"event\":\"focus\",\"trial\":18,\"time\":563944},{\"event\":\"blur\",\"trial\":18,\"time\":564735},{\"event\":\"focus\",\"trial\":18,\"time\":566596}]"}]