[{"view_history":[{"page_index":0,"viewing_time":2752.800000011921},{"page_index":1,"viewing_time":2933.399999976158},{"page_index":2,"viewing_time":1920.800000011921},{"page_index":3,"viewing_time":905}],"rt":8513.300000011921,"trial_type":"instructions","trial_index":0,"time_elapsed":8529,"internal_node_id":"0.0-0.0","task_version":"prescreen-v0.3"},{"rt":9802.5,"responses":{"age":"32","gender-categorical":"Male","gender-free-response":"","ethnicity":"Not Hispanic or Latino","race":["White"],"education":"Bachelor degree","siblings":"2"},"trial_type":"survey-demo","trial_index":1,"time_elapsed":18340,"internal_node_id":"0.0-1.0","task_version":"prescreen-v0.3"},{"responses":{"Q19":"2","Q05":"2","Q02":"2","Q07":"0","Q16":"2","Q06":"0","Q14":"2","Q04":"2","Q08":"1","Q12":"1","Q18":"2","Q09":"2","Q03":"1","Q20":"2","Q17":"2","Q15":"2","Q11":"1","Q10":"2","Q13":"2","Q21":"3","Q01":"2"},"rt":97890.5,"item_order":[18,4,1,6,15,5,13,3,7,11,17,8,2,19,16,14,10,9,12,20,0],"radio_events":[6979.9000000059605,16959.40000000596,18498,22955,27888.09999999404,30312.70000001788,33394.59999999404,55118,57387.09999999404,60813.09999999404,63658.20000001788,67822.09999999404,69357.80000001192,71304.80000001192,77946.40000000596,79088.70000001788,81429.59999999404,83970.5,86755.90000000596,89629.70000001788,97169.40000000596],"key_events":[],"mouse_events":[6979.9000000059605,15865.09999999404,16959.40000000596,18498,22955,27888.09999999404,30312.70000001788,33394.59999999404,55118,57387.09999999404,60813.09999999404,63658.20000001788,67822.09999999404,69357.80000001192,71304.80000001192,74956.5,77946.40000000596,78347.40000000596,79088.70000001788,81429.59999999404,83970.5,86755.90000000596,89629.70000001788,97169.40000000596,97883.30000001192],"straightlining":0.6666666666666666,"zigzagging":0.4,"honeypot":0,"survey":"sns","trial_type":"survey-template","trial_index":2,"time_elapsed":116235,"internal_node_id":"0.0-2.0","task_version":"prescreen-v0.3","browser_interactions":0,"infrequency":0},{"responses":{"Q08":"1","Q01":"3","Q06":"2","Q03":"3","Q09":"1","Q05":"2","Q02":"3","Q12":"0","Q11":"0","Q13":"0","Q04":"3","Q10":"0","Q07":"2"},"rt":44601.19999998808,"item_order":[7,0,5,2,8,4,1,11,10,12,3,9,6],"radio_events":[3843.199999988079,5301.9000000059605,11005.09999999404,13189.59999999404,16251.799999982119,20584.09999999404,22416,26103.29999998212,28648.5,30961.40000000596,33750.90000000596,37882.79999998212,41342.09999999404,43137.79999998212,43835.09999999404],"key_events":[],"mouse_events":[3843.199999988079,5301.9000000059605,11005.09999999404,13189.59999999404,16251.799999982119,20584.09999999404,22416,26103.29999998212,27301.79999998212,28648.5,30961.40000000596,33173.90000000596,33750.90000000596,37882.79999998212,40452.29999998212,41342.09999999404,43137.79999998212,43835.09999999404,44596.90000000596],"straightlining":0.3076923076923077,"zigzagging":0.5833333333333334,"honeypot":0,"survey":"bisbas","trial_type":"survey-template","trial_index":3,"time_elapsed":160840,"internal_node_id":"0.0-3.0","task_version":"prescreen-v0.3","browser_interactions":0,"infrequency":0},{"responses":{"Q01":"2","Q02":"1","Q03":"1"},"rt":16261,"radio_events":[9814.09999999404,12639.699999988079,15521.5],"key_events":[],"mouse_events":[9814.09999999404,12639.699999988079,15521.5,16259],"survey":"map","page":1,"trial_type":"survey-map","trial_index":4,"time_elapsed":177104,"internal_node_id":"0.0-4.0","task_version":"prescreen-v0.3","browser_interactions":0},{"responses":{"Q04":"1","Q05":"1","Q06":"1"},"rt":7763.9000000059605,"radio_events":[4070.4000000059605,5633.5999999940395,7008.5999999940395],"key_events":[],"mouse_events":[4070.4000000059605,5633.5999999940395,6326.9000000059605,7008.5999999940395,7762.300000011921],"survey":"map","page":2,"trial_type":"survey-map","trial_index":5,"time_elapsed":184872,"internal_node_id":"0.0-5.0","task_version":"prescreen-v0.3","browser_interactions":0},{"responses":{"Q07":"2","Q08":"1","Q09":"1"},"rt":11660.09999999404,"radio_events":[3730,8287,10559.899999976158],"key_events":[],"mouse_events":[3730,7734.0999999940395,8287,10559.899999976158,11658.199999988079],"survey":"map","page":3,"trial_type":"survey-map","trial_index":6,"time_elapsed":196535,"internal_node_id":"0.0-6.0","task_version":"prescreen-v0.3","browser_interactions":0},{"responses":{"Q10":"0","Q11":"0","Q12":"0","Q13":"0","Q16":"0","Q14":"0","Q15":"0"},"rt":21397.59999999404,"radio_events":[3990.0999999940395,5039.799999982119,8146.799999982119,10627.299999982119,13457.199999988079,19016.69999998808,20103],"key_events":[],"mouse_events":[2811.899999976158,3990.0999999940395,5039.799999982119,8146.799999982119,10627.299999982119,13457.199999988079,19016.69999998808,20103,21393.59999999404],"survey":"map","page":4,"trial_type":"survey-map","trial_index":7,"time_elapsed":217938,"internal_node_id":"0.0-7.0","task_version":"prescreen-v0.3","browser_interactions":0,"infrequency":0},{"view_history":[{"page_index":0,"viewing_time":2180.9000000059605},{"page_index":1,"viewing_time":2704.7999999821186}],"rt":4887.4000000059605,"trial_type":"instructions","trial_index":8,"time_elapsed":222827,"internal_node_id":"0.0-8.0","task_version":"prescreen-v0.3"},{"responses":{"01":"Yes","01_ages_7":"7","01_ages_8":"8","01_ages_9":"9","01_ages_10":"10","01_ages_11":"11","01_ages_12":"12","01_ages_13":"13","01_ages_14":"14","01_ages_15":"15","01_ages_16":"16","01_ages_17":"17","02":"Yes","02_ages_15":"15","02_ages_16":"16","02_ages_17":"17","03":"No","04":"No","05":"No","06":"Yes","06_ages_16":"16","06_ages_17":"17"},"rt":44488.59999999404,"item_order":[0,1,2,3,4,5],"radio_events":[2279.0999999940395,23850.90000000596,33314.59999999404,36149,38097.09999999404,41139.59999999404],"checkbox_events":[9970.699999988079,10595.199999988079,11140.300000011921,12138.800000011921,12707.800000011921,13677.59999999404,14327.199999988079,14912,16010.199999988079,16972.30000001192,17553.5,25775.09999999404,26408.09999999404,27089.69999998808,42517.90000000596,43087.19999998808],"key_events":[],"mouse_events":[0.09999999403953552,2279.0999999940395,9970.699999988079,10595.199999988079,11140.300000011921,11556.90000000596,12138.800000011921,12707.800000011921,13108.5,13677.59999999404,14327.199999988079,14912,15376.699999988079,16010.199999988079,16467.40000000596,16972.30000001192,17553.5,23850.90000000596,25775.09999999404,26408.09999999404,27089.69999998808,33314.59999999404,36149,38097.09999999404,41139.59999999404,42517.90000000596,43087.19999998808,44478.90000000596],"honeypot":0,"survey":"mace","page":1,"trial_type":"survey-mace","trial_index":9,"time_elapsed":267324,"internal_node_id":"0.0-9.0","task_version":"prescreen-v0.3","browser_interactions":0},{"responses":{"01":"No","02":"No","03":"No","04":"No","05":"No","06":"No","07":"No","08":"No"},"rt":14094.199999988079,"item_order":[0,1,2,3,4,5,6,7],"radio_events":[2405.5,4157,5786.399999976158,7203.299999982119,8578,10566.199999988079,11969.09999999404,13456],"checkbox_events":[],"key_events":[],"mouse_events":[2405.5,4157,5786.399999976158,7203.299999982119,8578,10566.199999988079,11969.09999999404,12895.09999999404,13456,14081.699999988079],"honeypot":0,"survey":"mace","page":2,"trial_type":"survey-mace","trial_index":10,"time_elapsed":281424,"internal_node_id":"0.0-10.0","task_version":"prescreen-v0.3","browser_interactions":0},{"responses":{"01":"No","02":"No","03":"No","04":"No"},"rt":8832.09999999404,"item_order":[0,1,2,3],"radio_events":[3818.5999999940395,4828.5,7494.5999999940395,8207.90000000596],"checkbox_events":[],"key_events":[],"mouse_events":[3818.5999999940395,4828.5,6191.4000000059605,7494.5999999940395,8207.90000000596,8825.199999988079],"honeypot":0,"survey":"mace","page":3,"trial_type":"survey-mace","trial_index":11,"time_elapsed":290259,"internal_node_id":"0.0-11.0","task_version":"prescreen-v0.3","browser_interactions":0},{"responses":{"01":"No","02":"No"},"rt":4872.299999982119,"item_order":[0,1],"radio_events":[1577.5,4235.199999988079],"checkbox_events":[],"key_events":[],"mouse_events":[1577.5,3032.699999988079,4235.199999988079,4868.399999976158],"honeypot":0,"survey":"mace","page":4,"trial_type":"survey-mace","trial_index":12,"time_elapsed":295135,"internal_node_id":"0.0-12.0","task_version":"prescreen-v0.3","browser_interactions":0},{"responses":{"01":"No","02":"No","03":"No","04":"No","05":"No"},"rt":9211.40000000596,"item_order":[0,1,2,3,4],"radio_events":[3134.800000011921,5327.200000017881,6152.5999999940395,7387.0999999940395,8301],"checkbox_events":[],"key_events":[],"mouse_events":[3134.800000011921,5327.200000017881,6152.5999999940395,7387.0999999940395,8301,9202.90000000596],"honeypot":0,"survey":"mace","page":5,"trial_type":"survey-mace","trial_index":13,"time_elapsed":304351,"internal_node_id":"0.0-13.0","task_version":"prescreen-v0.3","browser_interactions":0},{"responses":{"01":"Yes","01_ages_16":"16","01_ages_17":"17","02":"Yes","02_ages_17":"17","03":"Yes","03_ages_15":"15","03_ages_16":"16","03_ages_17":"17","04":"Yes","04_ages_16":"16","04_ages_17":"17","04_ages_18":"18","05":"No"},"rt":33057.10000002384,"item_order":[0,1,2,3,4],"radio_events":[5828,6918.200000017881,14606.600000023842,18947.40000000596,20727.5,25741.90000000596,31558],"checkbox_events":[8990.100000023842,11106.800000011921,16001.300000011921,22169.5,22686.5,23239.80000001192,26703.20000001788,27536.80000001192,28503],"key_events":[],"mouse_events":[5828,6918.200000017881,8990.100000023842,9414.800000011921,10048.5,10593.700000017881,11106.800000011921,14606.600000023842,16001.300000011921,18947.40000000596,20727.5,22169.5,22686.5,23239.80000001192,25741.90000000596,26703.20000001788,27112.20000001788,27536.80000001192,28094.5,28503,31558,33049],"honeypot":0,"survey":"mace","page":6,"trial_type":"survey-mace","trial_index":14,"time_elapsed":337411,"internal_node_id":"0.0-14.0","task_version":"prescreen-v0.3","browser_interactions":0},{"responses":{"01":"No","02":"No","03":"No","04":"No","05":"No","06":"No","07":"No"},"rt":12242.899999976158,"item_order":[0,1,2,3,4,5,6],"radio_events":[1962.8999999761581,5112.799999982119,6944.5999999940395,7946.5999999940395,9421.699999988079,10234.899999976158,11237.59999999404],"checkbox_events":[],"key_events":[],"mouse_events":[1962.8999999761581,5112.799999982119,6944.5999999940395,7946.5999999940395,9421.699999988079,10234.899999976158,11237.59999999404,11686.09999999404,12231.399999976158],"honeypot":0,"survey":"mace","page":7,"trial_type":"survey-mace","trial_index":15,"time_elapsed":349658,"internal_node_id":"0.0-15.0","task_version":"prescreen-v0.3","browser_interactions":0},{"responses":{"01":"No","02":"No","03":"Yes","03_ages_12":"12","03_ages_13":"13","03_ages_14":"14","03_ages_15":"15","03_ages_16":"16","03_ages_17":"17","03_ages_18":"18","04":"No"},"rt":31117.59999999404,"item_order":[0,1,2,3],"radio_events":[3215.5999999940395,8983.09999999404,12169.799999982119,30536.69999998808],"checkbox_events":[17741.19999998808,18366.19999998808,18895.59999999404,19721.5,20707.69999998808,21317,22515.09999999404,23910.69999998808,25176.79999998212,25754.29999998212,26427.59999999404,27017,27489.79999998212],"key_events":[],"mouse_events":[3215.5999999940395,8983.09999999404,12169.799999982119,17741.19999998808,18366.19999998808,18895.59999999404,19721.5,20218.79999998212,20707.69999998808,21317,22515.09999999404,23036.19999998808,23469.09999999404,23910.69999998808,24600.09999999404,25176.79999998212,25754.29999998212,26427.59999999404,27017,27489.79999998212,30536.69999998808,31110.09999999404],"honeypot":0,"survey":"mace","page":8,"trial_type":"survey-mace","trial_index":16,"time_elapsed":380778,"internal_node_id":"0.0-16.0","task_version":"prescreen-v0.3","browser_interactions":0},{"responses":{"01":"Yes","01_ages_1":"1","01_ages_2":"2","01_ages_3":"3","01_ages_4":"4","01_ages_5":"5","01_ages_6":"6","01_ages_7":"7","01_ages_8":"8","01_ages_9":"9","01_ages_10":"10","01_ages_11":"11","01_ages_12":"12","01_ages_13":"13","01_ages_14":"14","01_ages_15":"15","01_ages_16":"16","01_ages_17":"17","01_ages_18":"18","02":"Yes","02_ages_1":"1","02_ages_2":"2","02_ages_3":"3","02_ages_4":"4","02_ages_5":"5","02_ages_6":"6","02_ages_7":"7","02_ages_8":"8","02_ages_9":"9","02_ages_10":"10","02_ages_11":"11","02_ages_12":"12","02_ages_13":"13","02_ages_14":"14","02_ages_15":"15","02_ages_16":"16","02_ages_17":"17","02_ages_18":"18","03":"Yes","03_ages_1":"1","03_ages_2":"2","03_ages_3":"3","03_ages_4":"4","03_ages_5":"5","03_ages_6":"6","03_ages_7":"7","03_ages_8":"8","03_ages_9":"9","03_ages_10":"10","03_ages_11":"11","03_ages_12":"12","03_ages_13":"13","03_ages_14":"14","03_ages_15":"15","03_ages_16":"16","03_ages_17":"17","03_ages_18":"18","04":"Yes","04_ages_1":"1","04_ages_2":"2","04_ages_3":"3","04_ages_4":"4","04_ages_5":"5","04_ages_6":"6","04_ages_7":"7","04_ages_8":"8","04_ages_9":"9","04_ages_10":"10","04_ages_11":"11","04_ages_12":"12","04_ages_13":"13","04_ages_14":"14","04_ages_15":"15","04_ages_16":"16","04_ages_17":"17","04_ages_18":"18"},"rt":64408.70000001788,"item_order":[0,1,2,3],"radio_events":[2346.100000023842,20063.5,35332.40000000596,50904.60000002384],"checkbox_events":[5091.800000011921,6061.5,7321,8010,8871.5,9497.200000017881,10162.600000023842,10796,11429.200000017881,12006,12604,13164.90000000596,14182.800000011921,14832.40000000596,15449.5,16098.5,16579.80000001192,17209.600000023842,21395.20000001788,22068.5,22789.90000000596,23342.80000001192,24060.20000001788,24669.80000001192,25206.70000001788,25896.5,26545.80000001192,27219.40000000596,27796.70000001788,29516.100000023842,30606.600000023842,31103.5,32374.100000023842,32951.80000001192,34026.10000002384,34482.60000002384,38768.60000002384,39241.5,39938.70000001788,40680.5,41466.40000000596,42075.90000000596,42661.40000000596,43222.30000001192,43944.5,44513.60000002384,45166.90000000596,45703.80000001192,46273.90000000596,47139.80000001192,47917.40000000596,48575.10000002384,49268.20000001788,50094.20000001788,52612,53221.40000000596,53766.60000002384,54379.90000000596,54980.70000001788,55566,56119.40000000596,56728.5,57297.90000000596,57827.20000001788,58344.20000001788,58809.40000000596,59907.70000001788,60918,61551.10000002384,62200.70000001788,63319,63808.10000002384],"key_events":[],"mouse_events":[2346.100000023842,5091.800000011921,5589,6061.5,6767.200000017881,7321,8010,8871.5,9497.200000017881,10162.600000023842,10796,11429.200000017881,12006,12604,13164.90000000596,13686,14182.800000011921,14832.40000000596,15449.5,16098.5,16579.80000001192,17209.600000023842,19096.20000001788,20063.5,21395.20000001788,22068.5,22789.90000000596,23342.80000001192,24060.20000001788,24669.80000001192,25206.70000001788,25896.5,26545.80000001192,27219.40000000596,27796.70000001788,29516.100000023842,29997.30000001192,30606.600000023842,31103.5,31672.90000000596,32374.100000023842,32951.80000001192,33553,34026.10000002384,34482.60000002384,35332.40000000596,38768.60000002384,39241.5,39938.70000001788,40680.5,41466.40000000596,42075.90000000596,42661.40000000596,43222.30000001192,43944.5,44513.60000002384,45166.90000000596,45703.80000001192,46273.90000000596,47139.80000001192,47917.40000000596,48575.10000002384,49268.20000001788,50094.20000001788,50904.60000002384,52612,53221.40000000596,53766.60000002384,54379.90000000596,54980.70000001788,55566,56119.40000000596,56728.5,57297.90000000596,57827.20000001788,58344.20000001788,58809.40000000596,59378.5,59907.70000001788,60324.5,60918,61551.10000002384,62200.70000001788,62738,63319,63808.10000002384,64401.70000001788],"honeypot":0,"survey":"mace","page":9,"trial_type":"survey-mace","trial_index":17,"time_elapsed":445187,"internal_node_id":"0.0-17.0","task_version":"prescreen-v0.3","browser_interactions":0},{"responses":{"01":"No","02":"No","03":"Yes","03_ages_15":"15","03_ages_16":"16","03_ages_17":"17","03_ages_18":"18","04":"Yes","04_ages_7":"7","04_ages_8":"8","04_ages_9":"9","04_ages_10":"10","04_ages_11":"11","04_ages_12":"12","04_ages_13":"13","04_ages_14":"14","04_ages_15":"15","04_ages_16":"16","04_ages_17":"17","04_ages_18":"18","05":"No","06":"Yes","06_ages_17":"17","07":"No","08":"Yes","08_ages_10":"10","08_ages_11":"11","08_ages_12":"12","08_ages_13":"13","08_ages_14":"14","08_ages_15":"15","08_ages_16":"16","08_ages_17":"17","08_ages_18":"18"},"rt":45813.5,"item_order":[0,1,2,3,4,5,6,7],"radio_events":[3054.800000011921,3791.9000000059605,5556,11381.59999999404,25758.30000001192,26745,30580.59999999404,35219.40000000596,37079.90000000596],"checkbox_events":[7183.0999999940395,7740.5,8823.200000017881,9344.09999999404,14224,15426.5,15996,16617.09999999404,17250.90000000596,17844,18509.5,19183.09999999404,19728.20000001788,20377.80000001192,21440.59999999404,22042.09999999404,28556.40000000596,38207.09999999404,39393.30000001192,40435.70000001788,41461.5,42103.20000001788,42683.80000001192,43261.70000001788,43870.70000001788,44464.40000000596],"key_events":[],"mouse_events":[2217,3054.800000011921,3791.9000000059605,5556,7183.0999999940395,7740.5,8230.09999999404,8823.200000017881,9344.09999999404,11381.59999999404,12948.800000011921,14224,14801,15426.5,15996,16617.09999999404,17250.90000000596,17844,18509.5,19183.09999999404,19728.20000001788,20377.80000001192,21440.59999999404,22042.09999999404,24623.80000001192,25758.30000001192,26745,27963,28556.40000000596,30580.59999999404,35219.40000000596,37079.90000000596,38207.09999999404,38792.20000001788,39393.30000001192,39842.59999999404,40435.70000001788,40996.40000000596,41461.5,42103.20000001788,42683.80000001192,43261.70000001788,43870.70000001788,44464.40000000596,45803.20000001788],"honeypot":0,"survey":"mace","page":10,"trial_type":"survey-mace","trial_index":18,"time_elapsed":491004,"internal_node_id":"0.0-18.0","task_version":"prescreen-v0.3","browser_interactions":0,"instructed":0},{"rt":4346.600000023842,"trial_type":"mental-health-alert","trial_index":19,"time_elapsed":495353,"internal_node_id":"0.0-19.0","task_version":"prescreen-v0.3","interactions":"[]"}]