[{"view_history":[{"page_index":0,"viewing_time":31708.099999999627},{"page_index":1,"viewing_time":3228},{"page_index":2,"viewing_time":11830.599999999627},{"page_index":3,"viewing_time":2312.300000000745}],"rt":49080,"trial_type":"instructions","trial_index":0,"time_elapsed":49098,"internal_node_id":"0.0-0.0","task_version":"prescreen-v0.3"},{"rt":15442.599999999627,"responses":{"age":"27","gender-categorical":"Female","gender-free-response":"","ethnicity":"Not Hispanic or Latino","race":["White"],"education":"Master degree or higher"},"trial_type":"survey-demo","trial_index":1,"time_elapsed":64548,"internal_node_id":"0.0-1.0","task_version":"prescreen-v0.3"},{"responses":{"Q06":"0","Q16":"2","Q21":"3","Q02":"1","Q04":"1","Q08":"2","Q18":"2","Q15":"3","Q20":"1","Q07":"0","Q17":"1","Q05":"1","Q03":"1","Q11":"2","Q09":"2","Q19":"1","Q10":"0","Q13":"3","Q12":"2","Q01":"2","Q14":"3"},"rt":176554.40000000037,"item_order":[5,15,20,1,3,7,17,14,19,6,16,4,2,10,8,18,9,12,11,0,13],"radio_events":[5606.5999999996275,8071,27272.900000000373,30830,33889.300000000745,37574,66851.40000000037,69917.69999999925,73879.40000000037,96664,118758.5,125935.90000000037,131988.5,135467.5,137194.40000000037,157608.59999999963,161143.19999999925,163618.30000000075,167087.69999999925,170725,172500.19999999925,175893.30000000075],"key_events":[],"mouse_events":[5606.5999999996275,8071,27272.900000000373,30830,33889.300000000745,37574,66851.40000000037,69917.69999999925,73879.40000000037,96664,118061.09999999963,118758.5,125935.90000000037,131988.5,135467.5,137194.40000000037,157608.59999999963,161143.19999999925,163618.30000000075,166033.5,167087.69999999925,170725,172500.19999999925,175893.30000000075,176550.80000000075],"straightlining":0.3333333333333333,"zigzagging":0.55,"honeypot":0,"survey":"sns","trial_type":"survey-template","trial_index":2,"time_elapsed":241117,"internal_node_id":"0.0-2.0","task_version":"prescreen-v0.3","browser_interactions":0,"infrequency":0},{"responses":{"Q08":"2","Q01":"3","Q13":"0","Q07":"2","Q04":"3","Q06":"1","Q05":"2","Q10":"2","Q11":"2","Q09":"2","Q03":"3","Q02":"3","Q12":"1"},"rt":49614.199999999255,"item_order":[7,0,12,6,3,5,4,9,10,8,2,1,11],"radio_events":[3501.199999999255,5649,7678.5999999996275,10358.400000000373,13742.900000000373,17064.5,19316.5,25972.5,29094.900000000373,31892.900000000373,38054.40000000037,42683.59999999963,44792.90000000037,48844.199999999255],"key_events":[],"mouse_events":[2843.2999999988824,3501.199999999255,5649,7678.5999999996275,10358.400000000373,13742.900000000373,17064.5,19316.5,25972.5,29094.900000000373,31892.900000000373,38054.40000000037,42683.59999999963,44792.90000000037,48391.5,48844.199999999255,49611.699999999255],"straightlining":0.46153846153846156,"zigzagging":0.4166666666666667,"honeypot":0,"survey":"bisbas","trial_type":"survey-template","trial_index":3,"time_elapsed":290738,"internal_node_id":"0.0-3.0","task_version":"prescreen-v0.3","browser_interactions":0,"infrequency":0},{"responses":{"Q01":"3","Q02":"3","Q03":"3"},"rt":16352.200000001118,"radio_events":[7449.4000000003725,9660.400000000373,15732.5],"key_events":[],"mouse_events":[7449.4000000003725,9660.400000000373,15732.5,16350.800000000745],"survey":"map","page":1,"trial_type":"survey-map","trial_index":4,"time_elapsed":307099,"internal_node_id":"0.0-4.0","task_version":"prescreen-v0.3","browser_interactions":0},{"responses":{"Q04":"1","Q05":"1","Q06":"1"},"rt":48660.300000000745,"radio_events":[43918.90000000037,46796.70000000112,47819.40000000037],"key_events":[],"mouse_events":[43918.90000000037,46796.70000000112,47819.40000000037,48659.09999999963],"survey":"map","page":2,"trial_type":"survey-map","trial_index":5,"time_elapsed":355766,"internal_node_id":"0.0-5.0","task_version":"prescreen-v0.3","browser_interactions":0},{"responses":{"Q07":"4","Q08":"4","Q09":"3"},"rt":37401.39999999851,"radio_events":[5324.5999999996275,33920.59999999963,36702.699999999255],"key_events":[],"mouse_events":[5324.5999999996275,33920.59999999963,36702.699999999255,37400.199999999255],"survey":"map","page":3,"trial_type":"survey-map","trial_index":6,"time_elapsed":393174,"internal_node_id":"0.0-6.0","task_version":"prescreen-v0.3","browser_interactions":0},{"responses":{"Q10":"2","Q11":"1","Q12":"1","Q13":"1","Q16":"0","Q14":"1","Q15":"1"},"rt":37656.90000000037,"radio_events":[6243.799999998882,7766.299999998882,16566.699999999255,20468,22973.299999998882,24059.400000000373,25027.099999999627,28412.099999999627,34182.699999999255,36781.79999999888],"key_events":[],"mouse_events":[6243.799999998882,7766.299999998882,16566.699999999255,20468,22973.299999998882,24059.400000000373,25027.099999999627,28412.099999999627,32993,33786.199999999255,34182.699999999255,36781.79999999888,37654.59999999963],"survey":"map","page":4,"trial_type":"survey-map","trial_index":7,"time_elapsed":430838,"internal_node_id":"0.0-7.0","task_version":"prescreen-v0.3","browser_interactions":0,"infrequency":0},{"view_history":[{"page_index":0,"viewing_time":16560.299999998882},{"page_index":1,"viewing_time":2243.800000000745}],"rt":18804.599999999627,"trial_type":"instructions","trial_index":8,"time_elapsed":449647,"internal_node_id":"0.0-8.0","task_version":"prescreen-v0.3"},{"responses":{"01":"Yes","01_ages_4":"4","01_ages_5":"5","01_ages_6":"6","01_ages_7":"7","01_ages_8":"8","01_ages_9":"9","01_ages_10":"10","01_ages_11":"11","01_ages_12":"12","01_ages_13":"13","01_ages_14":"14","01_ages_15":"15","01_ages_16":"16","01_ages_17":"17","01_ages_18":"18","02":"Yes","02_ages_4":"4","02_ages_5":"5","02_ages_6":"6","02_ages_7":"7","02_ages_8":"8","02_ages_9":"9","02_ages_10":"10","02_ages_11":"11","02_ages_12":"12","02_ages_13":"13","02_ages_14":"14","02_ages_15":"15","02_ages_16":"16","02_ages_17":"17","02_ages_18":"18","03":"Yes","03_ages_7":"7","03_ages_8":"8","03_ages_9":"9","03_ages_10":"10","03_ages_11":"11","03_ages_12":"12","03_ages_13":"13","03_ages_14":"14","03_ages_15":"15","03_ages_16":"16","03_ages_17":"17","03_ages_18":"18","04":"Yes","04_ages_7":"7","04_ages_8":"8","04_ages_9":"9","04_ages_10":"10","04_ages_11":"11","04_ages_12":"12","04_ages_13":"13","04_ages_14":"14","04_ages_15":"15","04_ages_16":"16","04_ages_17":"17","04_ages_18":"18","05":"Yes","05_ages_4":"4","05_ages_5":"5","05_ages_6":"6","05_ages_7":"7","05_ages_8":"8","05_ages_9":"9","05_ages_10":"10","05_ages_11":"11","05_ages_12":"12","05_ages_13":"13","05_ages_14":"14","05_ages_15":"15","05_ages_16":"16","05_ages_17":"17","05_ages_18":"18","06":"Yes","06_ages_12":"12","06_ages_13":"13","06_ages_14":"14","06_ages_15":"15","06_ages_16":"16","06_ages_17":"17","06_ages_18":"18"},"rt":133554.40000000037,"item_order":[0,1,2,3,4,5],"radio_events":[2974.4000000003725,20923.700000001118,35491.90000000037,77275.30000000075,113909.90000000037,125608.40000000037],"checkbox_events":[5598.0999999996275,6026.300000000745,7001.4000000003725,7429.0999999996275,8333.5,8943.400000000373,9847.5,10267.800000000745,10759.200000001118,11559.5,12043.400000000373,13082,13906.300000000745,14564.599999999627,15087.900000000373,16539.300000000745,17078.200000001118,17593.599999999627,22264.200000001118,22715.300000000745,23644.599999999627,24198.300000000745,24881.700000001118,26006.300000000745,26855,27323,27791.800000000745,28346.300000000745,28822,29321.400000000373,29789.099999999627,30376.099999999627,30844.300000000745,31391.700000001118,31915.900000000373,32565,36889.20000000112,37356.20000000112,38180.40000000037,39371.300000000745,42670.09999999963,43154.09999999963,43590.90000000037,44764.20000000112,45287.70000000112,45763.59999999963,46248.20000000112,46723.40000000037,47357.70000000112,47810.09999999963,48302.300000000745,48777.59999999963,49334,49840.90000000037,78353.59999999963,78749.70000000112,79193.59999999963,80995.5,81398.40000000037,81834.30000000075,82342.20000000112,82754.90000000037,83166.59999999963,83698.20000000112,84126.09999999963,84538.59999999963,84999,85450.80000000075,85878.70000000112,86346.80000000075,86862.5,87543.5,89289.5,89686.90000000037,90194.5,91233.59999999963,91693.70000000112,92693,97595.20000000112,98015.70000000112,98476.09999999963,99054.30000000075,99561.09999999963,100276.09999999963,104869.20000000112,105708.59999999963,106185.09999999963,110032.40000000037,110484.5,110936.30000000075,114980.80000000075,116257.59999999963,116859.90000000037,117368.09999999963,118430.40000000037,119937.20000000112,120413.20000000112,120881.30000000075,121389.20000000112,121817.5,122260.70000000112,122681.20000000112,123126.20000000112,123401.30000000075,123554,123998.70000000112,124569.70000000112,129177.5,129605.80000000075,130771.90000000037,131311.59999999963,131771,132239.59999999963,132770.5],"key_events":[],"mouse_events":[0.09999999962747097,2974.4000000003725,5598.0999999996275,6026.300000000745,6604.4000000003725,7001.4000000003725,7429.0999999996275,7913.0999999996275,8333.5,8943.400000000373,9847.5,10267.800000000745,10759.200000001118,11202.900000000373,11559.5,12043.400000000373,12638,13082,13906.300000000745,14564.599999999627,15087.900000000373,15611.200000001118,15999.800000000745,16539.300000000745,17078.200000001118,17593.599999999627,20923.700000001118,22264.200000001118,22715.300000000745,23215.800000000745,23644.599999999627,24198.300000000745,24881.700000001118,25379.900000000373,26006.300000000745,26474.5,26855,27323,27791.800000000745,28346.300000000745,28822,29321.400000000373,29789.099999999627,30376.099999999627,30844.300000000745,31391.700000001118,31915.900000000373,32565,33437.59999999963,34642.300000000745,35491.90000000037,36467.20000000112,36889.20000000112,37356.20000000112,37784.90000000037,38180.40000000037,38735.5,39371.300000000745,42670.09999999963,43154.09999999963,43590.90000000037,44121.5,44764.20000000112,45287.70000000112,45763.59999999963,46248.20000000112,46723.40000000037,47357.70000000112,47810.09999999963,48302.300000000745,48777.59999999963,49334,49840.90000000037,77275.30000000075,78353.59999999963,78749.70000000112,79193.59999999963,79645.90000000037,80145.09999999963,80638.30000000075,80995.5,81398.40000000037,81834.30000000075,82342.20000000112,82754.90000000037,83166.59999999963,83698.20000000112,84126.09999999963,84538.59999999963,84999,85450.80000000075,85878.70000000112,86346.80000000075,86862.5,87543.5,89289.5,89686.90000000037,90194.5,90694.09999999963,91233.59999999963,91693.70000000112,92216.90000000037,92693,97595.20000000112,98015.70000000112,98476.09999999963,99054.30000000075,99561.09999999963,100276.09999999963,104869.20000000112,105296.90000000037,105708.59999999963,106185.09999999963,110032.40000000037,110484.5,110936.30000000075,113909.90000000037,114980.80000000075,115853.09999999963,116257.59999999963,116859.90000000037,117368.09999999963,117899.30000000075,118430.40000000037,119937.20000000112,120413.20000000112,120881.30000000075,121389.20000000112,121817.5,122260.70000000112,122681.20000000112,123126.20000000112,123401.30000000075,123554,123998.70000000112,124569.70000000112,125608.40000000037,128765.30000000075,129177.5,129605.80000000075,130193.80000000075,130771.90000000037,131311.59999999963,131771,132239.59999999963,132770.5,133548.30000000075],"honeypot":0,"survey":"mace","page":1,"trial_type":"survey-mace","trial_index":9,"time_elapsed":583214,"internal_node_id":"0.0-9.0","task_version":"prescreen-v0.3","browser_interactions":0},{"responses":{"01":"Yes","01_ages_12":"12","01_ages_13":"13","01_ages_14":"14","01_ages_15":"15","01_ages_16":"16","01_ages_17":"17","01_ages_18":"18","02":"No","03":"Yes","03_ages_1":"1","03_ages_2":"2","03_ages_3":"3","03_ages_4":"4","03_ages_5":"5","03_ages_6":"6","03_ages_7":"7","03_ages_8":"8","04":"No","05":"Yes","05_ages_1":"1","05_ages_2":"2","05_ages_3":"3","05_ages_4":"4","05_ages_5":"5","05_ages_6":"6","05_ages_7":"7","05_ages_8":"8","06":"Yes","06_ages_16":"16","06_ages_17":"17","06_ages_18":"18","07":"No","08":"No"},"rt":152130.40000000037,"item_order":[0,1,2,3,4,5,6,7],"radio_events":[115915.19999999925,126593.59999999963,128441.5,135777.09999999963,138179.5,145071.29999999888,149711,150876.90000000037],"checkbox_events":[119313.59999999963,120178.5,120630.09999999963,121677,122136.59999999963,122564.59999999963,122953.19999999925,129678.40000000037,130186.29999999888,130670,131098.19999999925,131494.69999999925,132049.5,132502.19999999925,133009.5,139789.5,140242.59999999963,140678.5,141090.09999999963,142113.19999999925,142541,142978,143485.59999999963,146475.40000000037,146911.29999999888,147371],"key_events":[],"mouse_events":[115915.19999999925,119313.59999999963,119822,120178.5,120630.09999999963,121192.59999999963,121677,122136.59999999963,122564.59999999963,122953.19999999925,126593.59999999963,128441.5,129678.40000000037,130186.29999999888,130670,131098.19999999925,131494.69999999925,132049.5,132502.19999999925,133009.5,135777.09999999963,137775.59999999963,138179.5,139789.5,140242.59999999963,140678.5,141090.09999999963,141573.90000000037,142113.19999999925,142541,142978,143485.59999999963,145071.29999999888,146475.40000000037,146911.29999999888,147371,149711,150876.90000000037,152122.5],"honeypot":0,"survey":"mace","page":2,"trial_type":"survey-mace","trial_index":10,"time_elapsed":735356,"internal_node_id":"0.0-10.0","task_version":"prescreen-v0.3","browser_interactions":4},{"responses":{"01":"Yes","01_ages_16":"16","01_ages_17":"17","01_ages_18":"18","02":"No","03":"Yes","03_ages_16":"16","03_ages_17":"17","03_ages_18":"18","04":"No"},"rt":18455.10000000149,"item_order":[0,1,2,3],"radio_events":[2911.10000000149,11731.5,13539.60000000149,17561.400000000373],"checkbox_events":[7115.300000000745,8153,8549.60000000149,14420,14895.300000000745,15467.400000000373],"key_events":[],"mouse_events":[2911.10000000149,7115.300000000745,7527.10000000149,8153,8549.60000000149,11240.5,11731.5,13539.60000000149,14420,14895.300000000745,15467.400000000373,16966.400000000373,17561.400000000373,18451.400000000373],"honeypot":0,"survey":"mace","page":3,"trial_type":"survey-mace","trial_index":11,"time_elapsed":753817,"internal_node_id":"0.0-11.0","task_version":"prescreen-v0.3","browser_interactions":0},{"responses":{"01":"No","02":"No"},"rt":6146.5999999996275,"item_order":[0,1],"radio_events":[4573.300000000745,5604.300000000745],"checkbox_events":[],"key_events":[],"mouse_events":[4573.300000000745,5604.300000000745,6144.300000000745],"honeypot":0,"survey":"mace","page":4,"trial_type":"survey-mace","trial_index":12,"time_elapsed":759969,"internal_node_id":"0.0-12.0","task_version":"prescreen-v0.3","browser_interactions":0},{"responses":{"01":"Yes","01_ages_1":"1","01_ages_2":"2","01_ages_3":"3","01_ages_4":"4","01_ages_5":"5","01_ages_6":"6","01_ages_7":"7","01_ages_8":"8","01_ages_9":"9","01_ages_10":"10","02":"Yes","02_ages_1":"1","02_ages_2":"2","02_ages_3":"3","02_ages_4":"4","02_ages_5":"5","02_ages_6":"6","02_ages_7":"7","02_ages_8":"8","02_ages_9":"9","02_ages_10":"10","03":"Yes","03_ages_4":"4","04":"No","05":"No"},"rt":34482.60000000149,"item_order":[0,1,2,3,4],"radio_events":[7533.9000000003725,18153.10000000149,27179.900000000373,32446.60000000149,33699.70000000112],"checkbox_events":[8834.200000001118,9199.10000000149,9626.900000000373,10079,10658.200000001118,11157.700000001118,11705,12316.300000000745,12974.10000000149,13505.10000000149,19826.200000001118,20302.10000000149,20840.300000000745,21254,21666.300000000745,22491.5,22911.5,23347.900000000373,23776.300000000745,24252.200000001118,28092.200000001118],"key_events":[],"mouse_events":[7533.9000000003725,8834.200000001118,9199.10000000149,9626.900000000373,10079,10658.200000001118,11157.700000001118,11705,12316.300000000745,12974.10000000149,13505.10000000149,18153.10000000149,19438.400000000373,19826.200000001118,20302.10000000149,20840.300000000745,21254,21666.300000000745,22055,22491.5,22911.5,23347.900000000373,23776.300000000745,24252.200000001118,26736.200000001118,27179.900000000373,28092.200000001118,32446.60000000149,33699.70000000112,34477.300000000745],"honeypot":0,"survey":"mace","page":5,"trial_type":"survey-mace","trial_index":13,"time_elapsed":794459,"internal_node_id":"0.0-13.0","task_version":"prescreen-v0.3","browser_interactions":0},{"responses":{"01":"Yes","01_ages_10":"10","01_ages_11":"11","01_ages_12":"12","01_ages_13":"13","01_ages_14":"14","01_ages_15":"15","01_ages_16":"16","01_ages_17":"17","01_ages_18":"18","02":"Yes","02_ages_8":"8","02_ages_9":"9","02_ages_10":"10","02_ages_11":"11","02_ages_12":"12","02_ages_13":"13","02_ages_14":"14","02_ages_15":"15","02_ages_16":"16","02_ages_17":"17","02_ages_18":"18","03":"Yes","03_ages_15":"15","03_ages_16":"16","03_ages_17":"17","03_ages_18":"18","04":"Yes","04_ages_8":"8","04_ages_9":"9","04_ages_10":"10","04_ages_11":"11","04_ages_12":"12","04_ages_13":"13","04_ages_14":"14","04_ages_15":"15","04_ages_16":"16","04_ages_17":"17","04_ages_18":"18","05":"Yes","05_ages_16":"16","05_ages_17":"17","05_ages_18":"18"},"rt":41738,"item_order":[0,1,2,3,4],"radio_events":[5200,13647.099999999627,23088.299999998882,28261,38622.59999999963],"checkbox_events":[7333.199999999255,7824.199999999255,8276.599999999627,8681.39999999851,9173.299999998882,9799.699999999255,10283.5,10751.699999999255,11275.5,14654.599999999627,15805.89999999851,16177.799999998882,16566.89999999851,16947.39999999851,17939.5,19160.89999999851,19581.5,20002,20446.39999999851,20898.5,24381.5,25404.5,25801.599999999627,26221.799999998882,29696.799999998882,30268.5,31124.39999999851,31547.599999999627,31950,32409.89999999851,32893.89999999851,33370.39999999851,33845.199999999255,34274.699999999255,35496.39999999851,39629.699999999255,40051.199999999255,40558.09999999963],"key_events":[],"mouse_events":[5200,7333.199999999255,7824.199999999255,8276.599999999627,8681.39999999851,9173.299999998882,9799.699999999255,10283.5,10751.699999999255,11275.5,12171.799999998882,13647.099999999627,14654.599999999627,15353.099999999627,15805.89999999851,16177.799999998882,16566.89999999851,16947.39999999851,17360.099999999627,17939.5,18368.299999998882,19160.89999999851,19581.5,20002,20446.39999999851,20898.5,23088.299999998882,24381.5,24953,25404.5,25801.599999999627,26221.799999998882,28261,29696.799999998882,30268.5,30713.599999999627,31124.39999999851,31547.599999999627,31950,32409.89999999851,32893.89999999851,33370.39999999851,33845.199999999255,34274.699999999255,34719.09999999963,35496.39999999851,38622.59999999963,39629.699999999255,40051.199999999255,40558.09999999963,41732.79999999888],"honeypot":0,"survey":"mace","page":6,"trial_type":"survey-mace","trial_index":14,"time_elapsed":836205,"internal_node_id":"0.0-14.0","task_version":"prescreen-v0.3","browser_interactions":0},{"responses":{"01":"No","02":"No","03":"Yes","03_ages_15":"15","04":"No","05":"No","06":"Yes","06_ages_15":"15","06_ages_16":"16","06_ages_17":"17","06_ages_18":"18","07":"Yes","07_ages_15":"15","07_ages_16":"16","07_ages_17":"17","07_ages_18":"18"},"rt":32552,"item_order":[0,1,2,3,4,5,6],"radio_events":[4477,6921.300000000745,11839.699999999255,14742.900000000373,17971.099999999627,19597.800000000745,21485.599999999627,25594.599999999627],"checkbox_events":[15829.699999999255,22429.400000000373,23508.300000000745,26514.599999999627,27030.400000000373,28077.599999999627,29624.699999999255,30012.900000000373,30734.900000000373],"key_events":[],"mouse_events":[4477,6921.300000000745,11839.699999999255,14742.900000000373,15829.699999999255,17971.099999999627,19597.800000000745,20930.5,21485.599999999627,22429.400000000373,22897.599999999627,23508.300000000745,25594.599999999627,26514.599999999627,27030.400000000373,27649.099999999627,28077.599999999627,28949.300000000745,29624.699999999255,30012.900000000373,30734.900000000373,32543.800000000745],"honeypot":0,"survey":"mace","page":7,"trial_type":"survey-mace","trial_index":15,"time_elapsed":868765,"internal_node_id":"0.0-15.0","task_version":"prescreen-v0.3","browser_interactions":0},{"responses":{"01":"Yes","01_ages_1":"1","01_ages_2":"2","01_ages_3":"3","01_ages_4":"4","01_ages_5":"5","01_ages_6":"6","01_ages_7":"7","01_ages_8":"8","01_ages_9":"9","01_ages_10":"10","01_ages_11":"11","01_ages_12":"12","01_ages_13":"13","01_ages_14":"14","01_ages_15":"15","01_ages_16":"16","01_ages_17":"17","01_ages_18":"18","02":"Yes","02_ages_1":"1","02_ages_2":"2","02_ages_3":"3","02_ages_4":"4","02_ages_5":"5","02_ages_6":"6","02_ages_7":"7","02_ages_8":"8","02_ages_9":"9","02_ages_10":"10","02_ages_11":"11","02_ages_12":"12","02_ages_13":"13","02_ages_14":"14","02_ages_15":"15","02_ages_16":"16","02_ages_17":"17","02_ages_18":"18","03":"Yes","03_ages_1":"1","03_ages_2":"2","03_ages_3":"3","03_ages_4":"4","03_ages_5":"5","03_ages_6":"6","03_ages_7":"7","03_ages_8":"8","03_ages_9":"9","03_ages_10":"10","03_ages_11":"11","03_ages_12":"12","03_ages_13":"13","03_ages_14":"14","03_ages_15":"15","03_ages_16":"16","03_ages_17":"17","03_ages_18":"18","04":"Yes","04_ages_1":"1","04_ages_2":"2","04_ages_3":"3","04_ages_4":"4","04_ages_5":"5","04_ages_6":"6","04_ages_7":"7","04_ages_8":"8","04_ages_9":"9","04_ages_10":"10","04_ages_11":"11","04_ages_12":"12","04_ages_13":"13","04_ages_14":"14","04_ages_15":"15","04_ages_16":"16","04_ages_17":"17","04_ages_18":"18"},"rt":68991.30000000075,"item_order":[0,1,2,3],"radio_events":[8743.900000000373,25272,39007,54687.59999999963],"checkbox_events":[10736.800000000745,11504.800000000745,11925.900000000373,13140.300000000745,13545.5,13980.800000000745,14711.199999999255,15234.5,15766.300000000745,16854.400000000373,17235.099999999627,17711.300000000745,18289.199999999255,18790.5,19227,19709.800000000745,20368.800000000745,20853.199999999255,22377.099999999627,24280.400000000373,27771.699999999255,28240.099999999627,29176,29644,30176,30778.800000000745,32111.699999999255,32531.400000000373,32992.5,33438.09999999963,34207.40000000037,34651.09999999963,35595.699999999255,36134.59999999963,36612.09999999963,37087.800000000745,37539.40000000037,38015.59999999963,40642.699999999255,41246.5,41666.40000000037,42563.199999999255,42983.699999999255,43864.199999999255,44380.59999999963,45704.59999999963,46808,47229.199999999255,48180.300000000745,49148.699999999255,49602.199999999255,50592.300000000745,51093.09999999963,51664.800000000745,52616,53179.59999999963,56314.800000000745,56751.40000000037,57567.59999999963,57981,58409.5,58829.09999999963,60448.59999999963,60940.199999999255,61765.40000000037,62233,62717.59999999963,63812.5,64359.800000000745,65462.699999999255,66035.40000000037,66525.19999999925,67630.19999999925,68097.59999999963],"key_events":[],"mouse_events":[8743.900000000373,10371.900000000373,10736.800000000745,11125.599999999627,11504.800000000745,11925.900000000373,12386.5,13140.300000000745,13545.5,13980.800000000745,14711.199999999255,15234.5,15766.300000000745,16338.900000000373,16854.400000000373,17235.099999999627,17711.300000000745,18289.199999999255,18790.5,19227,19709.800000000745,20368.800000000745,20853.199999999255,21893.099999999627,22377.099999999627,22939.199999999255,24280.400000000373,25272,27771.699999999255,28240.099999999627,28683.900000000373,29176,29644,30176,30778.800000000745,31469.400000000373,32111.699999999255,32531.400000000373,32992.5,33438.09999999963,34207.40000000037,34651.09999999963,35096.199999999255,35595.699999999255,36134.59999999963,36612.09999999963,37087.800000000745,37539.40000000037,38015.59999999963,39007,40642.699999999255,41246.5,41666.40000000037,42071.800000000745,42563.199999999255,42983.699999999255,43435.5,43864.199999999255,44380.59999999963,45704.59999999963,46276.199999999255,46808,47229.199999999255,47680.800000000745,48180.300000000745,48649.699999999255,49148.699999999255,49602.199999999255,50076.699999999255,50592.300000000745,51093.09999999963,51664.800000000745,52124.59999999963,52616,53179.59999999963,54687.59999999963,56314.800000000745,56751.40000000037,57187.09999999963,57567.59999999963,57981,58409.5,58829.09999999963,59663.40000000037,60448.59999999963,60940.199999999255,61765.40000000037,62233,62717.59999999963,63250.40000000037,63812.5,64359.800000000745,65059.09999999963,65462.699999999255,66035.40000000037,66525.19999999925,67105.40000000037,67630.19999999925,68097.59999999963,68986.30000000075],"honeypot":0,"survey":"mace","page":8,"trial_type":"survey-mace","trial_index":16,"time_elapsed":937757,"internal_node_id":"0.0-16.0","task_version":"prescreen-v0.3","browser_interactions":0},{"responses":{"01":"Yes","01_ages_1":"1","01_ages_2":"2","01_ages_3":"3","01_ages_4":"4","01_ages_5":"5","01_ages_6":"6","01_ages_7":"7","01_ages_8":"8","01_ages_9":"9","01_ages_10":"10","01_ages_11":"11","01_ages_12":"12","01_ages_13":"13","01_ages_14":"14","01_ages_15":"15","01_ages_16":"16","01_ages_17":"17","01_ages_18":"18","02":"Yes","02_ages_1":"1","02_ages_2":"2","02_ages_3":"3","02_ages_4":"4","02_ages_5":"5","02_ages_6":"6","02_ages_7":"7","02_ages_8":"8","02_ages_9":"9","02_ages_10":"10","02_ages_11":"11","02_ages_12":"12","02_ages_13":"13","02_ages_14":"14","02_ages_15":"15","02_ages_16":"16","02_ages_17":"17","02_ages_18":"18","03":"Yes","03_ages_1":"1","03_ages_2":"2","03_ages_3":"3","03_ages_4":"4","03_ages_5":"5","03_ages_6":"6","03_ages_7":"7","03_ages_8":"8","03_ages_9":"9","03_ages_10":"10","03_ages_11":"11","03_ages_12":"12","03_ages_13":"13","04":"Yes","04_ages_1":"1","04_ages_2":"2","04_ages_3":"3","04_ages_4":"4","04_ages_5":"5","04_ages_6":"6","04_ages_7":"7","04_ages_8":"8","04_ages_9":"9","04_ages_10":"10","04_ages_11":"11","04_ages_12":"12","04_ages_13":"13","04_ages_14":"14","04_ages_15":"15","04_ages_16":"16","04_ages_17":"17","04_ages_18":"18"},"rt":54739.90000000037,"item_order":[0,1,2,3],"radio_events":[5334.4000000003725,17996.099999999627,31779.400000000373,41880.20000000112],"checkbox_events":[6634.9000000003725,8310.300000000745,8786.200000001118,9277.400000000373,9944.200000001118,10738,11244.599999999627,11752.700000001118,12315.900000000373,12760,13228.599999999627,13664.700000001118,14371.200000001118,14814.700000001118,15315,15791.200000001118,16251.5,16814.400000000373,19442.200000001118,20545.200000001118,21100.400000000373,21535.300000000745,21989.099999999627,22424.5,22916.300000000745,23392.200000001118,23853,25002.5,25694.5,26123.400000000373,26581.800000000745,28066.400000000373,28946.900000000373,29439.599999999627,30287.900000000373,30747,33597.90000000037,34064.800000000745,35414.70000000112,35850.800000000745,36397.70000000112,36873.59999999963,37778.59999999963,38231.300000000745,38691,39134.59999999963,39699,40159.300000000745,40626.90000000037,43374,44222,44651,45110.5,45594.800000000745,46047.59999999963,46530.70000000112,47617.5,48077.70000000112,48554.09999999963,49783.800000000745,50237.09999999963,50672.5,51347.40000000037,51894.20000000112,52631.59999999963,53497,54020.40000000037],"key_events":[],"mouse_events":[5334.4000000003725,6634.9000000003725,7301.700000001118,7706.300000000745,8310.300000000745,8786.200000001118,9277.400000000373,9944.200000001118,10738,11244.599999999627,11752.700000001118,12315.900000000373,12760,13228.599999999627,13664.700000001118,14371.200000001118,14814.700000001118,15315,15791.200000001118,16251.5,16814.400000000373,17996.099999999627,18901.599999999627,19442.200000001118,19894.400000000373,20545.200000001118,21100.400000000373,21535.300000000745,21989.099999999627,22424.5,22916.300000000745,23392.200000001118,23853,24392.200000001118,25002.5,25694.5,26123.400000000373,26581.800000000745,28066.400000000373,28502.800000000745,28946.900000000373,29439.599999999627,29908.200000001118,30287.900000000373,30747,31779.400000000373,33597.90000000037,34064.800000000745,34596.70000000112,35414.70000000112,35850.800000000745,36397.70000000112,36873.59999999963,37342.70000000112,37778.59999999963,38231.300000000745,38691,39134.59999999963,39699,40159.300000000745,40626.90000000037,41405.20000000112,41880.20000000112,43374,43802.300000000745,44222,44651,45110.5,45594.800000000745,46047.59999999963,46530.70000000112,47062.40000000037,47617.5,48077.70000000112,48554.09999999963,49291.70000000112,49783.800000000745,50237.09999999963,50672.5,51347.40000000037,51894.20000000112,52631.59999999963,53497,54020.40000000037,54735.40000000037],"honeypot":0,"survey":"mace","page":9,"trial_type":"survey-mace","trial_index":17,"time_elapsed":992498,"internal_node_id":"0.0-17.0","task_version":"prescreen-v0.3","browser_interactions":0},{"responses":{"01":"Yes","01_ages_8":"8","01_ages_9":"9","01_ages_10":"10","01_ages_11":"11","01_ages_12":"12","01_ages_13":"13","01_ages_14":"14","01_ages_15":"15","01_ages_16":"16","01_ages_17":"17","01_ages_18":"18","02":"Yes","02_ages_8":"8","02_ages_9":"9","02_ages_10":"10","02_ages_11":"11","02_ages_12":"12","03":"Yes","03_ages_12":"12","03_ages_13":"13","03_ages_14":"14","03_ages_15":"15","03_ages_16":"16","03_ages_17":"17","03_ages_18":"18","04":"Yes","04_ages_8":"8","04_ages_9":"9","04_ages_10":"10","04_ages_11":"11","04_ages_12":"12","04_ages_13":"13","04_ages_14":"14","04_ages_15":"15","04_ages_16":"16","04_ages_17":"17","04_ages_18":"18","05":"Yes","05_ages_8":"8","05_ages_9":"9","05_ages_10":"10","05_ages_11":"11","05_ages_12":"12","05_ages_13":"13","05_ages_14":"14","05_ages_15":"15","05_ages_16":"16","05_ages_17":"17","05_ages_18":"18","06":"Yes","06_ages_17":"17","07":"Yes","07_ages_1":"1","07_ages_2":"2","07_ages_3":"3","07_ages_4":"4","07_ages_5":"5","07_ages_6":"6","07_ages_7":"7","07_ages_8":"8","07_ages_9":"9","07_ages_10":"10","07_ages_11":"11","07_ages_12":"12","07_ages_13":"13","07_ages_14":"14","07_ages_15":"15","07_ages_16":"16","07_ages_17":"17","07_ages_18":"18","08":"No"},"rt":80898.59999999963,"item_order":[0,1,2,3,4,5,6,7],"radio_events":[8258.099999999627,24491.799999998882,30014.799999998882,39800.29999999888,52401.5,56678.5,64066.09999999963,79406.29999999888],"checkbox_events":[9376.099999999627,9805.099999999627,10947.5,11471.599999999627,11938.199999999255,12747.199999999255,13192.599999999627,13645.099999999627,14137.099999999627,14629.199999999255,17327,17755,18160,18620.400000000373,19103.400000000373,19540.299999998882,20627.699999999255,21135.199999999255,21627.599999999627,22055.599999999627,22698.5,25261,25737.5,26221.599999999627,26681.799999998882,27181.900000000373,31713.299999998882,32531.199999999255,33063.09999999963,33840.40000000037,34394.90000000037,35538.199999999255,35951.199999999255,36537.59999999963,37014.199999999255,37586.29999999888,38078,40910.90000000037,42109.199999999255,42657.699999999255,43141.29999999888,43681.29999999888,44831.59999999963,45617.199999999255,46601.699999999255,47092.90000000037,47894.5,48608.79999999888,53862,57758.199999999255,58590.699999999255,59448.199999999255,59844.199999999255,60312.5,60755.90000000037,61201.40000000037,61693.5,64970.59999999963,65422.59999999963,65875.09999999963,66320,66859.40000000037,67350.90000000037,68279.79999999888,68747.09999999963,69352,69834.79999999888,70406.59999999963,73066.5,73542.59999999963,73978.40000000037,74406.5,75335.09999999963,75764.79999999888,76233.59999999963,76763.19999999925,77231.19999999925,77684],"key_events":[],"mouse_events":[8258.099999999627,9376.099999999627,9805.099999999627,10439.799999998882,10947.5,11471.599999999627,11938.199999999255,12747.199999999255,13192.599999999627,13645.099999999627,14137.099999999627,14629.199999999255,17327,17755,18160,18620.400000000373,19103.400000000373,19540.299999998882,20127.299999998882,20627.699999999255,21135.199999999255,21627.599999999627,22055.599999999627,22698.5,23682.599999999627,24491.799999998882,25261,25737.5,26221.599999999627,26681.799999998882,27181.900000000373,30014.799999998882,31713.299999998882,32531.199999999255,33063.09999999963,33840.40000000037,34394.90000000037,34911.59999999963,35538.199999999255,35951.199999999255,36537.59999999963,37014.199999999255,37586.29999999888,38078,39800.29999999888,40910.90000000037,41696.79999999888,42109.199999999255,42657.699999999255,43141.29999999888,43681.29999999888,44204.29999999888,44831.59999999963,45243.40000000037,45617.199999999255,46061.29999999888,46601.699999999255,47092.90000000037,47894.5,48608.79999999888,52401.5,53862,55623.199999999255,56123.199999999255,56678.5,57758.199999999255,58211.40000000037,58590.699999999255,58971.5,59448.199999999255,59844.199999999255,60312.5,60755.90000000037,61201.40000000037,61693.5,62986.699999999255,64066.09999999963,64970.59999999963,65422.59999999963,65875.09999999963,66320,66859.40000000037,67350.90000000037,67787.5,68279.79999999888,68747.09999999963,69352,69834.79999999888,70406.59999999963,73066.5,73542.59999999963,73978.40000000037,74406.5,74843.40000000037,75335.09999999963,75764.79999999888,76233.59999999963,76763.19999999925,77231.19999999925,77684,79406.29999999888,80890.79999999888],"honeypot":0,"survey":"mace","page":10,"trial_type":"survey-mace","trial_index":18,"time_elapsed":1073405,"internal_node_id":"0.0-18.0","task_version":"prescreen-v0.3","browser_interactions":0,"instructed":0},{"rt":3278.699999999255,"trial_type":"mental-health-alert","trial_index":19,"time_elapsed":1076688,"internal_node_id":"0.0-19.0","task_version":"prescreen-v0.3","interactions":"[{\"event\":\"blur\",\"trial\":10,\"time\":594237},{\"event\":\"focus\",\"trial\":10,\"time\":695903},{\"event\":\"blur\",\"trial\":10,\"time\":696040},{\"event\":\"focus\",\"trial\":10,\"time\":697403}]"}]