[{"view_history":[{"page_index":0,"viewing_time":6247.79999999702},{"page_index":1,"viewing_time":3860.5},{"page_index":2,"viewing_time":3704.7999999970198},{"page_index":3,"viewing_time":2312.4000000059605}],"rt":16126.59999999404,"trial_type":"instructions","trial_index":0,"time_elapsed":16160,"internal_node_id":"0.0-0.0","task_version":"prescreen-v0.3"},{"rt":28905.80000000447,"responses":{"age":"32","gender-categorical":"Female","gender-free-response":"","ethnicity":"Not Hispanic or Latino","race":["White"],"education":"Associate degree"},"trial_type":"survey-demo","trial_index":1,"time_elapsed":45073,"internal_node_id":"0.0-1.0","task_version":"prescreen-v0.3"},{"responses":{"Q05":"0","Q19":"2","Q02":"1","Q08":"3","Q03":"3","Q21":"3","Q01":"3","Q09":"3","Q14":"1","Q10":"1","Q12":"2","Q13":"1","Q07":"0","Q20":"3","Q16":"3","Q06":"3","Q17":"2","Q11":"0","Q04":"3","Q15":"3","Q18":"3"},"rt":106789.29999999702,"item_order":[4,18,1,7,2,20,0,8,13,9,11,12,6,19,15,5,16,10,3,14,17],"radio_events":[10931,16077.5,20620.39999999851,23717.29999999702,26841.29999999702,29762.29999999702,34527,42882.79999999702,47689.19999999553,51829.19999999553,59757.89999999851,63356.29999999702,69618.19999999553,75539.89999999851,81406.19999999553,85641.19999999553,90080.29999999702,95176.39999999851,99242.10000000149,103473.29999999702,106003.10000000149],"key_events":[],"mouse_events":[10931,16077.5,20620.39999999851,23717.29999999702,26841.29999999702,29762.29999999702,34527,42882.79999999702,47689.19999999553,51829.19999999553,59757.89999999851,63356.29999999702,69618.19999999553,75539.89999999851,81406.19999999553,85641.19999999553,90080.29999999702,95176.39999999851,99242.10000000149,103473.29999999702,106003.10000000149,106786.39999999851],"straightlining":0.5238095238095238,"zigzagging":0.35,"honeypot":0,"survey":"sns","trial_type":"survey-template","trial_index":2,"time_elapsed":151869,"internal_node_id":"0.0-2.0","task_version":"prescreen-v0.3","browser_interactions":0,"infrequency":0},{"responses":{"Q05":"2","Q02":"2","Q13":"0","Q07":"2","Q09":"2","Q08":"2","Q04":"3","Q11":"1","Q10":"2","Q01":"2","Q03":"3","Q12":"1","Q06":"2"},"rt":88753.30000000447,"item_order":[4,1,12,6,8,7,3,10,9,0,2,11,5],"radio_events":[6181.60000000149,13454,17973.10000000149,28236.70000000298,33374.60000000149,42045.30000000447,48207.5,61334.5,63456.30000000447,66776.60000000149,69297.20000000298,76172.5,83351.30000000447,88071],"key_events":[],"mouse_events":[6181.60000000149,13454,17973.10000000149,28236.70000000298,33374.60000000149,42045.30000000447,48207.5,61334.5,63456.30000000447,66776.60000000149,69297.20000000298,76172.5,83351.30000000447,86928.80000000447,88071,88751.5],"straightlining":0.6153846153846154,"zigzagging":0.3333333333333333,"honeypot":0,"survey":"bisbas","trial_type":"survey-template","trial_index":3,"time_elapsed":240627,"internal_node_id":"0.0-3.0","task_version":"prescreen-v0.3","browser_interactions":0,"infrequency":0},{"responses":{"Q01":"2","Q02":"1","Q03":"1"},"rt":22737.89999999851,"radio_events":[6956,12327.70000000298,21507.5],"key_events":[],"mouse_events":[6956,12327.70000000298,21507.5,22737],"survey":"map","page":1,"trial_type":"survey-map","trial_index":4,"time_elapsed":263369,"internal_node_id":"0.0-4.0","task_version":"prescreen-v0.3","browser_interactions":0},{"responses":{"Q04":"2","Q05":"2","Q06":"2"},"rt":21002.30000000447,"radio_events":[9127.89999999851,16169.80000000447,20289],"key_events":[],"mouse_events":[9127.89999999851,16169.80000000447,20289,21001.39999999851],"survey":"map","page":2,"trial_type":"survey-map","trial_index":5,"time_elapsed":284374,"internal_node_id":"0.0-5.0","task_version":"prescreen-v0.3","browser_interactions":0},{"responses":{"Q07":"0","Q08":"3","Q09":"0"},"rt":18873,"radio_events":[4243.19999999553,13734.29999999702,17651.09999999404],"key_events":[],"mouse_events":[4243.19999999553,13734.29999999702,17651.09999999404,18872.29999999702],"survey":"map","page":3,"trial_type":"survey-map","trial_index":6,"time_elapsed":303250,"internal_node_id":"0.0-6.0","task_version":"prescreen-v0.3","browser_interactions":0},{"responses":{"Q10":"0","Q11":"1","Q12":"2","Q13":"3","Q16":"0","Q14":"1","Q15":"0"},"rt":69436.79999999702,"radio_events":[4831.69999999553,20416.29999999702,34921.69999999553,40290.89999999851,49967.39999999851,55861.5,66253.10000000149],"key_events":[],"mouse_events":[4831.69999999553,20416.29999999702,25403.29999999702,34921.69999999553,40290.89999999851,49967.39999999851,55861.5,56795,66253.10000000149,69435.39999999851],"survey":"map","page":4,"trial_type":"survey-map","trial_index":7,"time_elapsed":372689,"internal_node_id":"0.0-7.0","task_version":"prescreen-v0.3","browser_interactions":0,"infrequency":0},{"view_history":[{"page_index":0,"viewing_time":4221.10000000149},{"page_index":1,"viewing_time":4968.79999999702}],"rt":9191.10000000149,"trial_type":"instructions","trial_index":8,"time_elapsed":381882,"internal_node_id":"0.0-8.0","task_version":"prescreen-v0.3"},{"responses":{"01":"No","02":"No","03":"No","04":"No","05":"No","06":"No"},"rt":24571.89999999851,"item_order":[0,1,2,3,4,5],"radio_events":[8441.69999999553,10683.59999999404,14994.29999999702,17330.39999999851,18583.79999999702,20661.69999999553],"checkbox_events":[],"key_events":[],"mouse_events":[0.29999999701976776,8441.69999999553,10683.59999999404,14994.29999999702,17330.39999999851,18583.79999999702,20661.69999999553,24567.69999999553],"honeypot":0,"survey":"mace","page":1,"trial_type":"survey-mace","trial_index":9,"time_elapsed":406464,"internal_node_id":"0.0-9.0","task_version":"prescreen-v0.3","browser_interactions":0},{"responses":{"01":"No","02":"No","03":"No","04":"No","05":"No","06":"No","07":"No","08":"No"},"rt":24152,"item_order":[0,1,2,3,4,5,6,7],"radio_events":[7038.89999999851,9601.89999999851,10370.69999999553,12479,14972.89999999851,19191.89999999851,21269,22633.10000000149],"checkbox_events":[],"key_events":[],"mouse_events":[7038.89999999851,9601.89999999851,10370.69999999553,12479,14972.89999999851,17695,19191.89999999851,21269,22633.10000000149,24146.10000000149],"honeypot":0,"survey":"mace","page":2,"trial_type":"survey-mace","trial_index":10,"time_elapsed":430622,"internal_node_id":"0.0-10.0","task_version":"prescreen-v0.3","browser_interactions":0},{"responses":{"01":"No","02":"No","03":"No","04":"No"},"rt":21866.5,"item_order":[0,1,2,3],"radio_events":[16056.39999999851,17592.5,20141.29999999702,21128.39999999851],"checkbox_events":[],"key_events":[],"mouse_events":[16056.39999999851,17592.5,20141.29999999702,21128.39999999851,21863.59999999404],"honeypot":0,"survey":"mace","page":3,"trial_type":"survey-mace","trial_index":11,"time_elapsed":452493,"internal_node_id":"0.0-11.0","task_version":"prescreen-v0.3","browser_interactions":0},{"responses":{"01":"No","02":"No"},"rt":9315.70000000298,"item_order":[0,1],"radio_events":[6404.60000000149,8326.60000000149],"checkbox_events":[],"key_events":[],"mouse_events":[6404.60000000149,8326.60000000149,9314.20000000298],"honeypot":0,"survey":"mace","page":4,"trial_type":"survey-mace","trial_index":12,"time_elapsed":461811,"internal_node_id":"0.0-12.0","task_version":"prescreen-v0.3","browser_interactions":0},{"responses":{"01":"No","02":"No","03":"No","04":"No","05":"No"},"rt":27209,"item_order":[0,1,2,3,4],"radio_events":[11943.19999999553,13967.19999999553,17299.89999999851,23370.29999999702,26295.09999999404],"checkbox_events":[],"key_events":[],"mouse_events":[11943.19999999553,13967.19999999553,17299.89999999851,23370.29999999702,26295.09999999404,27205.5],"honeypot":0,"survey":"mace","page":5,"trial_type":"survey-mace","trial_index":13,"time_elapsed":489024,"internal_node_id":"0.0-13.0","task_version":"prescreen-v0.3","browser_interactions":0},{"responses":{"01":"Yes","01_ages_4":"4","01_ages_5":"5","01_ages_6":"6","01_ages_7":"7","01_ages_8":"8","01_ages_9":"9","01_ages_10":"10","01_ages_11":"11","01_ages_12":"12","01_ages_13":"13","01_ages_14":"14","01_ages_15":"15","01_ages_16":"16","02":"Yes","02_ages_4":"4","02_ages_5":"5","02_ages_6":"6","02_ages_7":"7","02_ages_8":"8","02_ages_9":"9","02_ages_10":"10","02_ages_11":"11","02_ages_12":"12","02_ages_13":"13","02_ages_14":"14","02_ages_15":"15","02_ages_16":"16","03":"Yes","03_ages_8":"8","03_ages_9":"9","03_ages_10":"10","03_ages_11":"11","03_ages_12":"12","03_ages_13":"13","03_ages_14":"14","03_ages_15":"15","03_ages_16":"16","03_ages_17":"17","04":"Yes","04_ages_7":"7","04_ages_8":"8","04_ages_9":"9","04_ages_10":"10","04_ages_11":"11","04_ages_12":"12","04_ages_13":"13","04_ages_14":"14","04_ages_15":"15","04_ages_16":"16","04_ages_17":"17","04_ages_18":"18","05":"Yes","05_ages_4":"4","05_ages_5":"5","05_ages_6":"6","05_ages_7":"7","05_ages_8":"8","05_ages_9":"9","05_ages_10":"10","05_ages_11":"11","05_ages_12":"12","05_ages_13":"13","05_ages_14":"14","05_ages_15":"15","05_ages_16":"16","05_ages_17":"17","05_ages_18":"18"},"rt":146894.3999999985,"item_order":[0,1,2,3,4],"radio_events":[14025.39999999851,42670.09999999404,68667.39999999851,83874.39999999851,119470.5],"checkbox_events":[21814,22684.39999999851,23782.39999999851,24888.39999999851,25578.89999999851,26622.69999999553,27806.59999999404,29069.29999999702,30436.5,31165.79999999702,32075.39999999851,32945.39999999851,33612.39999999851,34638.89999999851,35526.09999999404,37893.29999999702,46364.39999999851,47013.89999999851,47713,48277.29999999702,48991.5,49454.19999999553,49932.29999999702,51086.29999999702,51768.29999999702,52372.19999999553,52803.69999999553,53423.5,53980.39999999851,54757.09999999404,56255.29999999702,56907.09999999404,58036.5,61779.29999999702,71241,71609.89999999851,72276.89999999851,72944.29999999702,73525.5,74135.79999999702,74795.19999999553,92108.29999999702,92853.89999999851,93796.29999999702,94997.39999999851,95970.29999999702,96645.39999999851,97241.29999999702,97861.39999999851,98426.5,98992.59999999404,99509.39999999851,101456.39999999851,103442.39999999851,104698.39999999851,108709.5,109399.5,110231.19999999553,122076,122728.19999999553,123426.39999999851,124353,124831.19999999553,125592.39999999851,126253.19999999553,126801.5,127437.39999999851,128316.39999999851,129015.79999999702,129847.29999999702,130719.19999999553,132862.3999999985,133945.19999999553],"key_events":[],"mouse_events":[14025.39999999851,21814,22684.39999999851,23782.39999999851,24888.39999999851,25578.89999999851,26127.29999999702,26622.69999999553,27412.89999999851,27806.59999999404,29069.29999999702,30436.5,31165.79999999702,32075.39999999851,32945.39999999851,33612.39999999851,34638.89999999851,35526.09999999404,37893.29999999702,42670.09999999404,46364.39999999851,47013.89999999851,47713,48277.29999999702,48991.5,49454.19999999553,49932.29999999702,51086.29999999702,51768.29999999702,52372.19999999553,52803.69999999553,53423.5,53980.39999999851,54757.09999999404,56255.29999999702,56907.09999999404,58036.5,61779.29999999702,68667.39999999851,71241,71609.89999999851,72276.89999999851,72944.29999999702,73525.5,74135.79999999702,74795.19999999553,83874.39999999851,85814.59999999404,92108.29999999702,92853.89999999851,93796.29999999702,94997.39999999851,95970.29999999702,96645.39999999851,97241.29999999702,97861.39999999851,98426.5,98992.59999999404,99509.39999999851,101456.39999999851,103442.39999999851,104698.39999999851,108709.5,109399.5,110231.19999999553,119470.5,122076,122728.19999999553,123426.39999999851,124353,124831.19999999553,125592.39999999851,126253.19999999553,126801.5,127437.39999999851,127907.79999999702,128316.39999999851,129015.79999999702,129847.29999999702,130719.19999999553,132862.3999999985,133945.19999999553,146890.8999999985],"honeypot":0,"survey":"mace","page":6,"trial_type":"survey-mace","trial_index":14,"time_elapsed":635923,"internal_node_id":"0.0-14.0","task_version":"prescreen-v0.3","browser_interactions":0},{"responses":{"01":"Yes","01_ages_9":"9","01_ages_10":"10","01_ages_11":"11","01_ages_12":"12","01_ages_13":"13","01_ages_14":"14","01_ages_15":"15","01_ages_16":"16","01_ages_17":"17","01_ages_18":"18","02":"Yes","02_ages_9":"9","02_ages_10":"10","02_ages_11":"11","02_ages_12":"12","02_ages_13":"13","02_ages_14":"14","03":"Yes","03_ages_6":"6","03_ages_7":"7","03_ages_8":"8","03_ages_9":"9","03_ages_10":"10","03_ages_11":"11","03_ages_12":"12","03_ages_13":"13","03_ages_14":"14","03_ages_15":"15","04":"Yes","04_ages_9":"9","04_ages_10":"10","04_ages_11":"11","04_ages_12":"12","04_ages_13":"13","04_ages_14":"14","04_ages_15":"15","05":"Yes","05_ages_12":"12","05_ages_13":"13","05_ages_14":"14","05_ages_15":"15","06":"Yes","06_ages_9":"9","06_ages_10":"10","06_ages_11":"11","06_ages_12":"12","06_ages_13":"13","06_ages_14":"14","07":"Yes","07_ages_9":"9","07_ages_10":"10","07_ages_11":"11","07_ages_12":"12","07_ages_13":"13","07_ages_14":"14"},"rt":114048.79999999702,"item_order":[0,1,2,3,4,5,6],"radio_events":[7204.70000000298,21540.79999999702,39364.70000000298,60492.79999999702,80505.70000000298,91985.60000000149,106700.5],"checkbox_events":[11860.79999999702,12472.70000000298,13131.20000000298,13783.5,14427.5,15597,16837.70000000298,17513.70000000298,18715.39999999851,19381.70000000298,22773.60000000149,24093.29999999702,24861.70000000298,25230.20000000298,26369.29999999702,26808.70000000298,27633.70000000298,28332.20000000298,29180.79999999702,31339.70000000298,42623.79999999702,43667.29999999702,44970.89999999851,45826.70000000298,46964.20000000298,47734.29999999702,49571.20000000298,50214.89999999851,51211.20000000298,56056.29999999702,56708.20000000298,62605.29999999702,63264.39999999851,63930.29999999702,64535.60000000149,65069.60000000149,65721.60000000149,70196.60000000149,75912.79999999702,85075.70000000298,86087.60000000149,86983.60000000149,88074.29999999702,94395.60000000149,95629.60000000149,96319.20000000298,97018.70000000298,97811.79999999702,99335.60000000149,109017.70000000298,109528.60000000149,110242.70000000298,110831.5,111342.39999999851,112197.29999999702],"key_events":[],"mouse_events":[7204.70000000298,11860.79999999702,12472.70000000298,13131.20000000298,13783.5,14427.5,15181.79999999702,15597,16837.70000000298,17513.70000000298,18063.70000000298,18715.39999999851,19381.70000000298,21540.79999999702,22773.60000000149,24093.29999999702,24861.70000000298,25230.20000000298,26369.29999999702,26808.70000000298,27633.70000000298,28332.20000000298,29180.79999999702,31339.70000000298,39364.70000000298,42623.79999999702,43667.29999999702,44970.89999999851,45826.70000000298,46964.20000000298,47734.29999999702,49571.20000000298,50214.89999999851,51211.20000000298,56056.29999999702,56708.20000000298,60492.79999999702,62605.29999999702,63264.39999999851,63930.29999999702,64535.60000000149,65069.60000000149,65721.60000000149,70196.60000000149,75912.79999999702,80505.70000000298,85075.70000000298,86087.60000000149,86983.60000000149,88074.29999999702,91985.60000000149,94395.60000000149,94962.10000000149,95629.60000000149,96319.20000000298,97018.70000000298,97811.79999999702,99335.60000000149,106700.5,109017.70000000298,109528.60000000149,110242.70000000298,110831.5,111342.39999999851,112197.29999999702,114044.10000000149],"honeypot":0,"survey":"mace","page":7,"trial_type":"survey-mace","trial_index":15,"time_elapsed":749977,"internal_node_id":"0.0-15.0","task_version":"prescreen-v0.3","browser_interactions":0},{"responses":{"01":"Yes","01_ages_4":"4","01_ages_5":"5","01_ages_6":"6","01_ages_7":"7","01_ages_8":"8","01_ages_9":"9","01_ages_10":"10","01_ages_11":"11","01_ages_12":"12","01_ages_13":"13","01_ages_14":"14","01_ages_15":"15","01_ages_16":"16","01_ages_17":"17","01_ages_18":"18","02":"Yes","02_ages_9":"9","02_ages_10":"10","02_ages_11":"11","02_ages_12":"12","02_ages_13":"13","02_ages_14":"14","02_ages_15":"15","02_ages_16":"16","02_ages_17":"17","02_ages_18":"18","03":"Yes","03_ages_7":"7","03_ages_8":"8","03_ages_9":"9","03_ages_10":"10","03_ages_11":"11","03_ages_12":"12","03_ages_13":"13","03_ages_14":"14","03_ages_15":"15","03_ages_16":"16","03_ages_17":"17","03_ages_18":"18","04":"Yes","04_ages_7":"7","04_ages_8":"8","04_ages_9":"9","04_ages_10":"10","04_ages_11":"11","04_ages_12":"12","04_ages_13":"13","04_ages_14":"14","04_ages_15":"15","04_ages_16":"16","04_ages_17":"17","04_ages_18":"18"},"rt":79956.5,"item_order":[0,1,2,3],"radio_events":[9637.59999999404,34205.5,54684.39999999851,70034.59999999404],"checkbox_events":[12433.5,12873.5,13336.5,14130.09999999404,15048.59999999404,15850.79999999702,16722.69999999553,18409.39999999851,19934.29999999702,20703.5,21151.59999999404,21615.19999999553,22650.5,23805.39999999851,24732.19999999553,37643.09999999404,38106.39999999851,39401.39999999851,39888,44252.39999999851,44716.5,45517.09999999404,45973,46475.09999999404,46874.39999999851,47292.5,47730.59999999404,49009.39999999851,50367,58005.69999999553,60133.89999999851,60950.19999999553,61680.5,62167.29999999702,63203.59999999404,63603.5,64153.5,64671.09999999404,65158.69999999553,66257.29999999702,67286.19999999553,72036.09999999404,72477,73066,73520.39999999851,74054.29999999702,74541,75020.5,75499.59999999404,76010.69999999553,76497.29999999702,77463.39999999851,78138.09999999404],"key_events":[],"mouse_events":[9637.59999999404,12433.5,12873.5,13336.5,14130.09999999404,15048.59999999404,15850.79999999702,16722.69999999553,18409.39999999851,19934.29999999702,20703.5,21151.59999999404,21615.19999999553,22195.5,22650.5,23123.5,23805.39999999851,24732.19999999553,34205.5,37643.09999999404,38106.39999999851,39401.39999999851,39888,44252.39999999851,44716.5,45517.09999999404,45973,46475.09999999404,46874.39999999851,47292.5,47730.59999999404,48123.5,49009.39999999851,49992.69999999553,50367,54684.39999999851,58005.69999999553,60133.89999999851,60950.19999999553,61680.5,62167.29999999702,62716.29999999702,63203.59999999404,63603.5,64153.5,64671.09999999404,65158.69999999553,65629.69999999553,66257.29999999702,67286.19999999553,70034.59999999404,71377.5,72036.09999999404,72477,73066,73520.39999999851,74054.29999999702,74541,75020.5,75499.59999999404,76010.69999999553,76497.29999999702,76983.29999999702,77463.39999999851,78138.09999999404,79953.59999999404],"honeypot":0,"survey":"mace","page":8,"trial_type":"survey-mace","trial_index":16,"time_elapsed":829938,"internal_node_id":"0.0-16.0","task_version":"prescreen-v0.3","browser_interactions":0},{"responses":{"01":"Yes","01_ages_1":"1","01_ages_2":"2","01_ages_3":"3","01_ages_4":"4","01_ages_5":"5","01_ages_6":"6","01_ages_7":"7","01_ages_8":"8","01_ages_9":"9","01_ages_10":"10","01_ages_11":"11","01_ages_12":"12","01_ages_13":"13","01_ages_14":"14","01_ages_15":"15","01_ages_16":"16","01_ages_17":"17","01_ages_18":"18","02":"No","03":"Yes","03_ages_1":"1","03_ages_2":"2","03_ages_3":"3","03_ages_4":"4","03_ages_5":"5","03_ages_6":"6","03_ages_7":"7","03_ages_8":"8","03_ages_9":"9","03_ages_10":"10","03_ages_11":"11","03_ages_12":"12","03_ages_13":"13","03_ages_14":"14","04":"Yes","04_ages_1":"1","04_ages_2":"2","04_ages_3":"3","04_ages_4":"4","04_ages_5":"5","04_ages_6":"6","04_ages_7":"7","04_ages_8":"8","04_ages_9":"9","04_ages_10":"10","04_ages_11":"11","04_ages_12":"12","04_ages_13":"13","04_ages_14":"14","04_ages_15":"15","04_ages_16":"16"},"rt":285578.200000003,"item_order":[0,1,2,3],"radio_events":[6189.79999999702,239849.1000000015,245813.29999999702,270437.799999997],"checkbox_events":[9173.20000000298,10054,10579.20000000298,11333.29999999702,11985.20000000298,12519.20000000298,13438.39999999851,14421.29999999702,20018.29999999702,20654.20000000298,21408.29999999702,22139.10000000149,23254.29999999702,24031.39999999851,24729.89999999851,25656.29999999702,26291.89999999851,27046.29999999702,254065.1000000015,254622.29999999702,255313.79999999702,255908,256615.20000000298,257281.29999999702,257907.8999999985,258731.8999999985,259705.29999999702,260309.3999999985,260890.6000000015,261525.29999999702,262176.1000000015,262725.3999999985,272289.200000003,272894.6000000015,273474.8999999985,274016.5,274956.799999997,275914.299999997,276589.3999999985,277154,277907.200000003,278425.200000003,278952,279516.299999997,280206.5,280748.299999997,281415.299999997,282458.200000003],"key_events":[],"mouse_events":[6189.79999999702,9173.20000000298,10054,10579.20000000298,11333.29999999702,11985.20000000298,12519.20000000298,13438.39999999851,14421.29999999702,20018.29999999702,20654.20000000298,21408.29999999702,22139.10000000149,22768.20000000298,23254.29999999702,24031.39999999851,24729.89999999851,25656.29999999702,26291.89999999851,27046.29999999702,239849.1000000015,245813.29999999702,254065.1000000015,254622.29999999702,255313.79999999702,255908,256615.20000000298,257281.29999999702,257907.8999999985,258731.8999999985,259705.29999999702,260309.3999999985,260890.6000000015,261525.29999999702,262176.1000000015,262725.3999999985,270437.799999997,272289.200000003,272894.6000000015,273474.8999999985,274016.5,274956.799999997,275914.299999997,276589.3999999985,277154,277907.200000003,278425.200000003,278952,279516.299999997,280206.5,280748.299999997,281415.299999997,282458.200000003,285575.299999997],"honeypot":0,"survey":"mace","page":9,"trial_type":"survey-mace","trial_index":17,"time_elapsed":1115520,"internal_node_id":"0.0-17.0","task_version":"prescreen-v0.3","browser_interactions":0},{"responses":{"01":"No","02":"No","03":"Yes","03_ages_9":"9","03_ages_10":"10","03_ages_11":"11","03_ages_12":"12","03_ages_13":"13","03_ages_14":"14","03_ages_15":"15","03_ages_16":"16","03_ages_17":"17","03_ages_18":"18","04":"Yes","04_ages_9":"9","04_ages_10":"10","04_ages_11":"11","04_ages_12":"12","04_ages_13":"13","04_ages_14":"14","04_ages_15":"15","04_ages_16":"16","04_ages_17":"17","04_ages_18":"18","05":"Yes","05_ages_6":"6","05_ages_7":"7","05_ages_8":"8","05_ages_9":"9","05_ages_10":"10","05_ages_11":"11","05_ages_12":"12","05_ages_13":"13","05_ages_14":"14","05_ages_15":"15","05_ages_16":"16","05_ages_17":"17","05_ages_18":"18","06":"Yes","06_ages_17":"17","07":"Yes","07_ages_10":"10","07_ages_11":"11","07_ages_12":"12","07_ages_13":"13","07_ages_14":"14","07_ages_15":"15","07_ages_16":"16","08":"No"},"rt":107983.30000000447,"item_order":[0,1,2,3,4,5,6,7],"radio_events":[13592.30000000447,15593.30000000447,19587.10000000149,32254.80000000447,75945,88106,94180.10000000149,107129.10000000149],"checkbox_events":[22067.10000000149,22937.80000000447,23613.20000000298,24358.20000000298,25026,25542.80000000447,26312.70000000298,26776.20000000298,27529.20000000298,28039.40000000596,34531,35920.20000000298,36674.20000000298,37543.90000000596,38103,38879.20000000298,39484.10000000149,40119,40787.20000000298,41508.20000000298,76839.70000000298,77437.30000000447,77986.10000000149,78700,79211.90000000596,79783.80000000447,80264,80907.30000000447,81393.10000000149,81847.90000000596,82837.70000000298,83568.10000000149,84454.20000000298,89346.20000000298,97546.10000000149,98040,98644,100197.60000000149,100645.90000000596,101335.80000000447,104366.30000000447],"key_events":[],"mouse_events":[13592.30000000447,15593.30000000447,19587.10000000149,22067.10000000149,22937.80000000447,23613.20000000298,24358.20000000298,25026,25542.80000000447,26312.70000000298,26776.20000000298,27529.20000000298,28039.40000000596,32254.80000000447,34531,35308.5,35920.20000000298,36674.20000000298,37543.90000000596,38103,38879.20000000298,39484.10000000149,40119,40787.20000000298,41508.20000000298,75945,76839.70000000298,77437.30000000447,77986.10000000149,78700,79211.90000000596,79783.80000000447,80264,80907.30000000447,81393.10000000149,81847.90000000596,82837.70000000298,83568.10000000149,84454.20000000298,88106,89346.20000000298,94180.10000000149,97546.10000000149,98040,98644,100197.60000000149,100645.90000000596,101335.80000000447,104366.30000000447,107129.10000000149,107977.40000000596],"honeypot":0,"survey":"mace","page":10,"trial_type":"survey-mace","trial_index":18,"time_elapsed":1223509,"internal_node_id":"0.0-18.0","task_version":"prescreen-v0.3","browser_interactions":0,"instructed":0},{"rt":6443.30000000447,"trial_type":"mental-health-alert","trial_index":19,"time_elapsed":1229954,"internal_node_id":"0.0-19.0","task_version":"prescreen-v0.3","interactions":"[]"}]