[{"view_history":[{"page_index":0,"viewing_time":3627},{"page_index":1,"viewing_time":3104},{"page_index":2,"viewing_time":2704},{"page_index":3,"viewing_time":1135}],"rt":10572,"trial_type":"instructions","trial_index":0,"time_elapsed":10576,"internal_node_id":"0.0-0.0","task_version":"prescreen-v0.3"},{"rt":14144,"responses":{"age":"49","gender-categorical":"Female","gender-free-response":"","ethnicity":"Hispanic or Latino","race":["White"],"education":"Master degree or higher"},"trial_type":"survey-demo","trial_index":1,"time_elapsed":24730,"internal_node_id":"0.0-1.0","task_version":"prescreen-v0.3"},{"responses":{"Q18":"2","Q01":"1","Q04":"1","Q08":"2","Q02":"1","Q07":"2","Q19":"1","Q06":"1","Q21":"3","Q15":"2","Q12":"2","Q13":"1","Q11":"1","Q05":"1","Q03":"1","Q16":"1","Q09":"2","Q14":"2","Q10":"1","Q17":"1","Q20":"1"},"rt":95608,"item_order":[17,0,3,7,1,6,18,5,20,14,11,12,10,4,2,15,8,13,9,16,19],"radio_events":[8332,13276,15852,18075,22421,28627,33859,40755,45060,52716,58948,61836,62404,71428,76227,80259,83595,87068,90396,92715,94868],"key_events":[],"mouse_events":[8332,13276,15852,18075,22421,28627,33859,40755,45060,52716,58948,61836,62404,71428,76227,80259,83595,87068,90396,92715,94868,95608],"straightlining":0.6190476190476191,"zigzagging":0.45,"honeypot":0,"survey":"sns","trial_type":"survey-template","trial_index":2,"time_elapsed":120349,"internal_node_id":"0.0-2.0","task_version":"prescreen-v0.3","browser_interactions":0,"infrequency":0},{"responses":{"Q10":"2","Q11":"2","Q09":"2","Q03":"2","Q01":"3","Q12":"1","Q05":"2","Q02":"2","Q08":"1","Q06":"2","Q07":"2","Q04":"3","Q13":"0"},"rt":70397,"item_order":[9,10,8,2,0,11,4,1,7,5,6,3,12],"radio_events":[12738,20610,28595,30027,36155,40771,42955,47267,54514,55395,57491,62467,67267],"key_events":[],"mouse_events":[12738,20610,28595,30027,34059,36155,40771,42955,47267,54514,55395,57491,62467,63203,67267,70396],"straightlining":0.6153846153846154,"zigzagging":0.5,"honeypot":0,"survey":"bisbas","trial_type":"survey-template","trial_index":3,"time_elapsed":190754,"internal_node_id":"0.0-3.0","task_version":"prescreen-v0.3","browser_interactions":0,"infrequency":0},{"responses":{"Q01":"4","Q02":"2","Q03":"2"},"rt":18201,"radio_events":[11381,14710,16870],"key_events":[],"mouse_events":[11381,14710,16870,18201],"survey":"map","page":1,"trial_type":"survey-map","trial_index":4,"time_elapsed":208965,"internal_node_id":"0.0-4.0","task_version":"prescreen-v0.3","browser_interactions":0},{"responses":{"Q04":"2","Q05":"2","Q06":"2"},"rt":15852,"radio_events":[9820,13595,15323],"key_events":[],"mouse_events":[9820,13595,15323,15852],"survey":"map","page":2,"trial_type":"survey-map","trial_index":5,"time_elapsed":224822,"internal_node_id":"0.0-5.0","task_version":"prescreen-v0.3","browser_interactions":0},{"responses":{"Q07":"1","Q08":"4","Q09":"4"},"rt":13455,"radio_events":[7854,9414,11574],"key_events":[],"mouse_events":[7854,9414,11574,13455],"survey":"map","page":3,"trial_type":"survey-map","trial_index":6,"time_elapsed":238279,"internal_node_id":"0.0-6.0","task_version":"prescreen-v0.3","browser_interactions":0},{"responses":{"Q10":"1","Q11":"0","Q12":"3","Q13":"2","Q16":"0","Q14":"2","Q15":"2"},"rt":37100,"radio_events":[4552,12625,15505,20561,27649,30113,36065],"key_events":[],"mouse_events":[4552,12625,15505,20561,27649,30113,36065,37100],"survey":"map","page":4,"trial_type":"survey-map","trial_index":7,"time_elapsed":275387,"internal_node_id":"0.0-7.0","task_version":"prescreen-v0.3","browser_interactions":0,"infrequency":0},{"view_history":[{"page_index":0,"viewing_time":3062},{"page_index":1,"viewing_time":3433}],"rt":6495,"trial_type":"instructions","trial_index":8,"time_elapsed":281886,"internal_node_id":"0.0-8.0","task_version":"prescreen-v0.3"},{"responses":{"01":"No","02":"No","03":"No","04":"No","05":"No","06":"No"},"rt":18511,"item_order":[0,1,2,3,4,5],"radio_events":[10439,11894,12389,13405,17429,17853],"checkbox_events":[],"key_events":[],"mouse_events":[0,10439,11894,12389,13405,17429,17853,18511],"honeypot":0,"survey":"mace","page":1,"trial_type":"survey-mace","trial_index":9,"time_elapsed":300410,"internal_node_id":"0.0-9.0","task_version":"prescreen-v0.3","browser_interactions":0},{"responses":{"01":"No","02":"No","03":"Yes","03_ages_4":"4","03_ages_5":"5","03_ages_6":"6","03_ages_7":"7","03_ages_8":"8","03_ages_9":"9","04":"Yes","04_ages_2":"2","04_ages_3":"3","04_ages_4":"4","04_ages_5":"5","05":"Yes","05_ages_6":"6","05_ages_7":"7","05_ages_8":"8","05_ages_9":"9","06":"No","07":"No","08":"No"},"rt":57925,"item_order":[0,1,2,3,4,5,6,7],"radio_events":[12197,14181,17190,33541,41503,53343,56654,57269],"checkbox_events":[23926,24342,25685,27774,28174,29285,36174,36574,37358,49225,49958,50990,51407,52534],"key_events":[],"mouse_events":[12197,14181,17190,23926,24342,25685,27774,28174,28838,29285,33541,36174,36574,37358,41503,49225,49958,50990,51407,52534,53343,56654,57269,57925],"honeypot":0,"survey":"mace","page":2,"trial_type":"survey-mace","trial_index":10,"time_elapsed":358342,"internal_node_id":"0.0-10.0","task_version":"prescreen-v0.3","browser_interactions":0},{"responses":{"01":"Yes","01_ages_15":"15","01_ages_16":"16","02":"No","03":"No","04":"No"},"rt":26796,"item_order":[0,1,2,3],"radio_events":[6313,14184,22273,23361,26297],"checkbox_events":[20705,24160],"key_events":[],"mouse_events":[6313,14184,20705,22273,23361,24160,26297,26795],"honeypot":0,"survey":"mace","page":3,"trial_type":"survey-mace","trial_index":11,"time_elapsed":385145,"internal_node_id":"0.0-11.0","task_version":"prescreen-v0.3","browser_interactions":0},{"responses":{"01":"No","02":"No"},"rt":6937,"item_order":[0,1],"radio_events":[5895,6456],"checkbox_events":[],"key_events":[],"mouse_events":[5895,6456,6937],"honeypot":0,"survey":"mace","page":4,"trial_type":"survey-mace","trial_index":12,"time_elapsed":392089,"internal_node_id":"0.0-12.0","task_version":"prescreen-v0.3","browser_interactions":0},{"responses":{"01":"No","02":"No","03":"No","04":"No","05":"No"},"rt":35248,"item_order":[0,1,2,3,4],"radio_events":[16911,19552,26479,27400,33055],"checkbox_events":[],"key_events":[],"mouse_events":[11879,16911,19552,26479,27400,28207,33055,35248],"honeypot":0,"survey":"mace","page":5,"trial_type":"survey-mace","trial_index":13,"time_elapsed":427345,"internal_node_id":"0.0-13.0","task_version":"prescreen-v0.3","browser_interactions":0},{"responses":{"01":"Yes","01_ages_10":"10","01_ages_11":"11","01_ages_12":"12","01_ages_13":"13","02":"Yes","02_ages_11":"11","02_ages_12":"12","02_ages_13":"13","02_ages_14":"14","03":"Yes","03_ages_14":"14","03_ages_15":"15","04":"Yes","04_ages_7":"7","04_ages_8":"8","04_ages_9":"9","04_ages_10":"10","04_ages_11":"11","04_ages_12":"12","04_ages_13":"13","04_ages_14":"14","04_ages_15":"15","04_ages_16":"16","05":"Yes","05_ages_10":"10","05_ages_11":"11","05_ages_12":"12","05_ages_13":"13"},"rt":61030,"item_order":[0,1,2,3,4],"radio_events":[9438,20471,32231,38790,56583],"checkbox_events":[15055,16047,16502,18174,24639,25174,26263,27183,34831,35319,46166,46743,47247,47759,48191,48975,49535,49975,50678,51969,58054,58536,59072,59543],"key_events":[],"mouse_events":[9438,15055,16047,16502,18174,20471,24639,25174,26263,27183,32231,34831,35319,38790,46166,46743,47247,47759,48191,48975,49535,49975,50678,51030,51969,56583,58054,58536,59072,59543,61030],"honeypot":0,"survey":"mace","page":6,"trial_type":"survey-mace","trial_index":14,"time_elapsed":488383,"internal_node_id":"0.0-14.0","task_version":"prescreen-v0.3","browser_interactions":0},{"responses":{"01":"Yes","01_ages_9":"9","01_ages_10":"10","01_ages_11":"11","01_ages_12":"12","02":"Yes","02_ages_14":"14","02_ages_15":"15","02_ages_16":"16","02_ages_17":"17","03":"No","04":"No","05":"No","06":"No","07":"No"},"rt":34836,"item_order":[0,1,2,3,4,5,6],"radio_events":[7433,16120,28041,29392,32785,33745,34273],"checkbox_events":[8944,9409,9944,13513,17184,17713,18201,19648],"key_events":[],"mouse_events":[7433,8944,9409,9944,13513,16120,17184,17713,18201,19648,28041,29392,32785,33745,34273,34835],"honeypot":0,"survey":"mace","page":7,"trial_type":"survey-mace","trial_index":15,"time_elapsed":523226,"internal_node_id":"0.0-15.0","task_version":"prescreen-v0.3","browser_interactions":0},{"responses":{"01":"No","02":"Yes","02_ages_1":"1","02_ages_2":"2","02_ages_3":"3","02_ages_4":"4","02_ages_5":"5","02_ages_6":"6","02_ages_7":"7","02_ages_8":"8","02_ages_9":"9","02_ages_10":"10","03":"Yes","03_ages_1":"1","03_ages_2":"2","03_ages_3":"3","03_ages_4":"4","03_ages_5":"5","03_ages_6":"6","03_ages_7":"7","03_ages_8":"8","03_ages_9":"9","03_ages_10":"10","03_ages_11":"11","03_ages_12":"12","03_ages_13":"13","03_ages_14":"14","04":"Yes","04_ages_1":"1","04_ages_2":"2","04_ages_3":"3","04_ages_4":"4","04_ages_5":"5","04_ages_6":"6","04_ages_7":"7","04_ages_8":"8","04_ages_9":"9","04_ages_10":"10"},"rt":49596,"item_order":[0,1,2,3],"radio_events":[8863,13097,26367,40391],"checkbox_events":[15665,16143,16743,17191,17702,18271,18767,19448,19903,20496,27959,28495,28999,29959,30535,30998,31543,32103,33094,33597,34439,35055,35647,37190,41910,42575,43414,43903,44463,44870,45390,45919,46935,48040],"key_events":[],"mouse_events":[8863,13097,15665,16143,16743,17191,17702,18271,18767,19448,19903,20496,26367,27959,28495,28999,29959,30535,30998,31543,32103,33094,33597,34439,35055,35647,37190,40391,41910,42575,43414,43903,44463,44870,45390,45919,46935,48040,49596],"honeypot":0,"survey":"mace","page":8,"trial_type":"survey-mace","trial_index":16,"time_elapsed":572829,"internal_node_id":"0.0-16.0","task_version":"prescreen-v0.3","browser_interactions":0},{"responses":{"01":"Yes","01_ages_1":"1","01_ages_2":"2","01_ages_3":"3","01_ages_4":"4","01_ages_5":"5","01_ages_6":"6","01_ages_7":"7","01_ages_8":"8","01_ages_9":"9","01_ages_10":"10","01_ages_11":"11","01_ages_12":"12","01_ages_13":"13","01_ages_14":"14","01_ages_15":"15","01_ages_16":"16","01_ages_17":"17","01_ages_18":"18","02":"Yes","02_ages_1":"1","02_ages_2":"2","02_ages_3":"3","02_ages_4":"4","02_ages_5":"5","02_ages_6":"6","02_ages_7":"7","02_ages_8":"8","02_ages_9":"9","02_ages_10":"10","02_ages_11":"11","02_ages_12":"12","02_ages_13":"13","02_ages_14":"14","02_ages_15":"15","02_ages_16":"16","02_ages_17":"17","02_ages_18":"18","03":"Yes","03_ages_1":"1","03_ages_2":"2","03_ages_3":"3","03_ages_4":"4","03_ages_5":"5","03_ages_6":"6","03_ages_7":"7","03_ages_8":"8","03_ages_9":"9","03_ages_10":"10","03_ages_11":"11","03_ages_12":"12","03_ages_13":"13","03_ages_14":"14","03_ages_15":"15","03_ages_16":"16","03_ages_17":"17","03_ages_18":"18","04":"Yes","04_ages_1":"1","04_ages_2":"2","04_ages_3":"3","04_ages_4":"4","04_ages_5":"5","04_ages_6":"6","04_ages_7":"7","04_ages_8":"8","04_ages_9":"9","04_ages_10":"10","04_ages_11":"11","04_ages_12":"12","04_ages_13":"13","04_ages_14":"14","04_ages_15":"15","04_ages_16":"16","04_ages_17":"17","04_ages_18":"18"},"rt":65831,"item_order":[0,1,2,3],"radio_events":[4723,21003,38027,51290],"checkbox_events":[7659,8347,9179,9755,11322,11931,12419,12835,13217,13611,14475,15186,15851,16771,17507,17932,18411,18906,23738,24394,24786,25218,25611,26019,26939,27563,28595,29059,29451,29981,30531,31284,31826,32483,33115,33602,40156,42131,42628,43067,43547,44482,45354,45716,46171,46570,46947,47371,47794,48282,48675,49122,49530,49986,53011,53498,53995,55234,56866,57234,57650,58434,58835,59284,60211,60875,61299,62674,63138,63602,64075,64490],"key_events":[],"mouse_events":[4723,7659,8347,9179,9755,11322,11931,12419,12835,13217,13611,14475,15186,15851,16771,17507,17932,18411,18906,21003,23738,24394,24786,25218,25611,26019,26939,27563,28595,29059,29451,29981,30531,31284,31826,32483,33115,33602,38027,40156,42131,42628,43067,43547,44482,45354,45716,46171,46570,46947,47371,47794,48282,48675,49122,49530,49986,51290,52164,53011,53498,53995,54602,55234,56130,56866,57234,57650,58434,58835,59284,60211,60875,61299,61682,62098,62674,63138,63602,64075,64490,65831],"honeypot":0,"survey":"mace","page":9,"trial_type":"survey-mace","trial_index":17,"time_elapsed":638668,"internal_node_id":"0.0-17.0","task_version":"prescreen-v0.3","browser_interactions":0},{"responses":{"01":"No","02":"No","03":"Yes","03_ages_15":"15","03_ages_16":"16","03_ages_17":"17","03_ages_18":"18","04":"Yes","04_ages_10":"10","04_ages_11":"11","05":"No","06":"Yes","06_ages_17":"17","07":"Yes","07_ages_1":"1","07_ages_2":"2","07_ages_3":"3","07_ages_4":"4","07_ages_5":"5","07_ages_6":"6","07_ages_7":"7","07_ages_8":"8","07_ages_9":"9","07_ages_10":"10","07_ages_11":"11","07_ages_12":"12","07_ages_13":"13","07_ages_14":"14","07_ages_15":"15","07_ages_16":"16","07_ages_17":"17","07_ages_18":"18","08":"Yes","08_ages_1":"1","08_ages_2":"2","08_ages_3":"3","08_ages_4":"4","08_ages_5":"5","08_ages_6":"6","08_ages_7":"7","08_ages_8":"8","08_ages_9":"9","08_ages_10":"10","08_ages_11":"11","08_ages_12":"12","08_ages_13":"13","08_ages_14":"14","08_ages_15":"15","08_ages_16":"16","08_ages_17":"17","08_ages_18":"18"},"rt":60235,"item_order":[0,1,2,3,4,5,6,7],"radio_events":[5260,5796,7388,17444,24435,25460,30051,44748],"checkbox_events":[8964,10531,12147,12723,13772,14852,18515,19588,27468,31486,32108,32646,33212,33675,34356,34884,35355,36179,37037,37468,37964,38963,39964,40396,40844,41300,41756,47851,49268,49716,50507,51084,51611,52203,53044,53659,54227,54604,55221,55764,56188,57043,57715,58211,58740],"key_events":[],"mouse_events":[5260,5796,7388,8964,9571,10531,12147,12723,13772,14852,17444,18515,19588,24435,25460,27468,30051,31486,32108,32646,33212,33675,34356,34884,35355,36179,37037,37468,37964,38963,39380,39964,40396,40844,41300,41756,44748,47851,49268,49716,50507,51084,51611,52203,53044,53659,54227,54604,55221,55764,56188,57043,57715,58211,58740,60235],"honeypot":0,"survey":"mace","page":10,"trial_type":"survey-mace","trial_index":18,"time_elapsed":698912,"internal_node_id":"0.0-18.0","task_version":"prescreen-v0.3","browser_interactions":0,"instructed":0},{"rt":11932,"trial_type":"mental-health-alert","trial_index":19,"time_elapsed":710847,"internal_node_id":"0.0-19.0","task_version":"prescreen-v0.3","interactions":"[{\"event\":\"focus\",\"trial\":0,\"time\":1}]"}]