[{"view_history":[{"page_index":0,"viewing_time":4303.20000000298},{"page_index":1,"viewing_time":4306.0999999940395},{"page_index":2,"viewing_time":5268.70000000298},{"page_index":3,"viewing_time":1247.7999999970198}],"rt":15127.5,"trial_type":"instructions","trial_index":0,"time_elapsed":15138,"internal_node_id":"0.0-0.0","task_version":"prescreen-v0.3"},{"rt":12918,"responses":{"age":"31","gender-categorical":"Female","gender-free-response":"","ethnicity":"Hispanic or Latino","race":["White"],"education":"Bachelor degree"},"trial_type":"survey-demo","trial_index":1,"time_elapsed":28064,"internal_node_id":"0.0-1.0","task_version":"prescreen-v0.3"},{"responses":{"Q05":"1","Q19":"1","Q03":"0","Q15":"3","Q12":"3","Q18":"2","Q11":"2","Q02":"1","Q07":"0","Q16":"3","Q09":"3","Q21":"3","Q01":"3","Q20":"2","Q14":"3","Q10":"2","Q06":"0","Q04":"2","Q13":"3","Q17":"3","Q08":"2"},"rt":139085.59999999404,"item_order":[4,18,2,14,11,17,10,1,6,15,8,20,0,19,13,9,5,3,12,16,7],"radio_events":[19640.09999999404,33298.79999999702,39496.09999999404,49398.70000000298,55895.09999999404,61233.89999999106,66563.39999999106,79235.89999999106,85584.09999999404,90886,96322.39999999106,98915.20000000298,105682.89999999106,107843.89999999106,109613.79999999702,114212.29999999702,118763.20000000298,122909,126763.29999999702,129887,134406.79999999702,137758.79999999702],"key_events":[],"mouse_events":[19640.09999999404,33298.79999999702,39496.09999999404,49398.70000000298,55895.09999999404,61233.89999999106,66563.39999999106,79235.89999999106,85584.09999999404,90886,96322.39999999106,98915.20000000298,105682.89999999106,107843.89999999106,109613.79999999702,114212.29999999702,118763.20000000298,122909,126763.29999999702,129887,134406.79999999702,137758.79999999702,139079.5],"straightlining":0.42857142857142855,"zigzagging":0.55,"honeypot":0,"survey":"sns","trial_type":"survey-template","trial_index":2,"time_elapsed":167158,"internal_node_id":"0.0-2.0","task_version":"prescreen-v0.3","browser_interactions":0,"infrequency":0},{"responses":{"Q10":"1","Q02":"3","Q11":"1","Q05":"3","Q12":"0","Q09":"0","Q04":"3","Q07":"2","Q01":"3","Q06":"3","Q03":"3","Q13":"0","Q08":"3"},"rt":64943.79999999702,"item_order":[9,1,10,4,11,8,3,6,0,5,2,12,7],"radio_events":[8943.79999999702,11242.89999999106,20358.79999999702,24328.79999999702,32067,35157.59999999404,40845,46283.79999999702,47927.29999999702,50817.09999999404,54157.70000000298,56604.39999999106,63878.39999999106],"key_events":[],"mouse_events":[8943.79999999702,11242.89999999106,20358.79999999702,24328.79999999702,32067,35157.59999999404,40845,46283.79999999702,47927.29999999702,50817.09999999404,54157.70000000298,56604.39999999106,63878.39999999106,64939.5],"straightlining":0.5384615384615384,"zigzagging":0.5,"honeypot":0,"survey":"bisbas","trial_type":"survey-template","trial_index":3,"time_elapsed":232106,"internal_node_id":"0.0-3.0","task_version":"prescreen-v0.3","browser_interactions":0,"infrequency":0},{"responses":{"Q01":"2","Q02":"1","Q03":"1"},"rt":38046.60000000894,"radio_events":[12068.90000000596,20105.79999999702,33390],"key_events":[],"mouse_events":[12068.90000000596,20105.79999999702,33390,38044.60000000894],"survey":"map","page":1,"trial_type":"survey-map","trial_index":4,"time_elapsed":270158,"internal_node_id":"0.0-4.0","task_version":"prescreen-v0.3","browser_interactions":0},{"responses":{"Q04":"1","Q05":"1","Q06":"0"},"rt":27632.90000000596,"radio_events":[11390.40000000596,20237.79999999702,25519.29999999702],"key_events":[],"mouse_events":[11390.40000000596,20237.79999999702,25519.29999999702,27631.10000000894],"survey":"map","page":2,"trial_type":"survey-map","trial_index":5,"time_elapsed":297795,"internal_node_id":"0.0-5.0","task_version":"prescreen-v0.3","browser_interactions":0},{"responses":{"Q07":"3","Q08":"3","Q09":"0"},"rt":20262.30000001192,"radio_events":[8103.300000011921,13759.10000000894,18581.10000000894],"key_events":[],"mouse_events":[8103.300000011921,13759.10000000894,18581.10000000894,20260.40000000596],"survey":"map","page":3,"trial_type":"survey-map","trial_index":6,"time_elapsed":318061,"internal_node_id":"0.0-6.0","task_version":"prescreen-v0.3","browser_interactions":0},{"responses":{"Q10":"0","Q11":"0","Q12":"0","Q13":"0","Q16":"0","Q14":"1","Q15":"0"},"rt":52078.39999999106,"radio_events":[11858.59999999404,13888.39999999106,18209.79999999702,22375.5,26705.19999998808,34402.59999999404,37591.5],"key_events":[],"mouse_events":[11858.59999999404,13888.39999999106,18209.79999999702,22375.5,26705.19999998808,34402.59999999404,37591.5,52074.59999999404],"survey":"map","page":4,"trial_type":"survey-map","trial_index":7,"time_elapsed":370144,"internal_node_id":"0.0-7.0","task_version":"prescreen-v0.3","browser_interactions":0,"infrequency":0},{"view_history":[{"page_index":0,"viewing_time":2600.0999999940395},{"page_index":1,"viewing_time":4495.5999999940395}],"rt":7096.399999991059,"trial_type":"instructions","trial_index":8,"time_elapsed":377243,"internal_node_id":"0.0-8.0","task_version":"prescreen-v0.3"},{"responses":{"01":"No","02":"No","03":"No","04":"No","05":"No","06":"No"},"rt":48608.10000000894,"item_order":[0,1,2,3,4,5],"radio_events":[8745.20000000298,17215.29999999702,37690,39784.79999999702,41130,43184.79999999702,45239.20000000298],"checkbox_events":[31453.79999999702,32317.70000000298,36319.40000000596,36947.29999999702],"key_events":[],"mouse_events":[0.20000000298023224,8745.20000000298,17215.29999999702,31453.79999999702,32317.70000000298,36319.40000000596,36947.29999999702,37690,39784.79999999702,41130,43184.79999999702,45239.20000000298,48599.20000000298],"honeypot":0,"survey":"mace","page":1,"trial_type":"survey-mace","trial_index":9,"time_elapsed":425860,"internal_node_id":"0.0-9.0","task_version":"prescreen-v0.3","browser_interactions":0},{"responses":{"01":"No","02":"No","03":"No","04":"No","05":"No","06":"No","07":"No","08":"No"},"rt":18946.59999999404,"item_order":[0,1,2,3,4,5,6,7],"radio_events":[2300.7999999970198,5635.899999991059,7062.899999991059,10315.5,13716.5,15151.199999988079,16627,17662.79999999702],"checkbox_events":[],"key_events":[],"mouse_events":[2300.7999999970198,5635.899999991059,7062.899999991059,10315.5,13716.5,15151.199999988079,16627,17662.79999999702,18934.59999999404],"honeypot":0,"survey":"mace","page":2,"trial_type":"survey-mace","trial_index":10,"time_elapsed":444813,"internal_node_id":"0.0-10.0","task_version":"prescreen-v0.3","browser_interactions":0},{"responses":{"01":"Yes","01_ages_18":"18","02":"No","03":"No","04":"No"},"rt":38346.70000000298,"item_order":[0,1,2,3],"radio_events":[9063.20000000298,29314.89999999106,33030.89999999106,34474.5],"checkbox_events":[15536.70000000298,20793.79999999702,22782.39999999106],"key_events":[],"mouse_events":[9063.20000000298,15536.70000000298,20793.79999999702,22782.39999999106,29314.89999999106,33030.89999999106,34474.5,38339.59999999404],"honeypot":0,"survey":"mace","page":3,"trial_type":"survey-mace","trial_index":11,"time_elapsed":483164,"internal_node_id":"0.0-11.0","task_version":"prescreen-v0.3","browser_interactions":0},{"responses":{"01":"No","02":"No"},"rt":109492,"item_order":[0,1],"radio_events":[99810.20000000298,101604.5],"checkbox_events":[],"key_events":[],"mouse_events":[99810.20000000298,101604.5,109488.20000000298],"honeypot":0,"survey":"mace","page":4,"trial_type":"survey-mace","trial_index":12,"time_elapsed":592688,"internal_node_id":"0.0-12.0","task_version":"prescreen-v0.3","browser_interactions":2},{"responses":{"01":"No","02":"No","03":"No","04":"No","05":"No"},"rt":188429.29999999702,"item_order":[0,1,2,3,4],"radio_events":[160391.90000000596,161851.59999999404,163881.79999999702,175708.20000000298,187719.59999999404],"checkbox_events":[],"key_events":[],"mouse_events":[160391.90000000596,161851.59999999404,163881.79999999702,175708.20000000298,187719.59999999404,188421],"honeypot":0,"survey":"mace","page":5,"trial_type":"survey-mace","trial_index":13,"time_elapsed":781129,"internal_node_id":"0.0-13.0","task_version":"prescreen-v0.3","browser_interactions":6},{"responses":{"01":"Yes","01_ages_7":"7","02":"Yes","02_ages_12":"12","02_ages_13":"13","02_ages_14":"14","02_ages_15":"15","02_ages_16":"16","02_ages_17":"17","02_ages_18":"18","03":"Yes","03_ages_12":"12","03_ages_13":"13","03_ages_16":"16","04":"Yes","04_ages_12":"12","04_ages_13":"13","05":"No"},"rt":111060.5,"item_order":[0,1,2,3,4],"radio_events":[17232.40000000596,48575.70000000298,81904,91209.5,110186.79999999702],"checkbox_events":[37769.29999999702,52466,57643.59999999404,60620.40000000596,65959.59999999404,66874.59999999404,67664,68309.90000000596,84203.90000000596,92482,93191.90000000596,94463.70000000298,97357.40000000596],"key_events":[],"mouse_events":[17232.40000000596,37769.29999999702,48575.70000000298,52466,57643.59999999404,60620.40000000596,65959.59999999404,66874.59999999404,67664,68309.90000000596,81904,84203.90000000596,91209.5,92482,93191.90000000596,94463.70000000298,97357.40000000596,110186.79999999702,111051.70000000298],"honeypot":0,"survey":"mace","page":6,"trial_type":"survey-mace","trial_index":14,"time_elapsed":892195,"internal_node_id":"0.0-14.0","task_version":"prescreen-v0.3","browser_interactions":0},{"responses":{"01":"No","02":"No","03":"No","04":"No","05":"No","06":"No","07":"No"},"rt":22099.19999998808,"item_order":[0,1,2,3,4,5,6],"radio_events":[7309.5,14994.699999988079,16723.19999998808,17709.89999999106,19088.59999999404,20169.89999999106,21363.59999999404],"checkbox_events":[],"key_events":[],"mouse_events":[7309.5,14994.699999988079,16723.19999998808,17709.89999999106,19088.59999999404,20169.89999999106,21363.59999999404,22088.89999999106],"honeypot":0,"survey":"mace","page":7,"trial_type":"survey-mace","trial_index":15,"time_elapsed":914300,"internal_node_id":"0.0-15.0","task_version":"prescreen-v0.3","browser_interactions":0},{"responses":{"01":"No","02":"No","03":"No","04":"No"},"rt":38894.09999999404,"item_order":[0,1,2,3],"radio_events":[7441.399999991059,9521.59999999404,25612,32461.29999999702,37933.29999999702],"checkbox_events":[29183,29742.59999999404,30764.89999999106,31262.19999998808],"key_events":[],"mouse_events":[7441.399999991059,9521.59999999404,25612,29183,29742.59999999404,30764.89999999106,31262.19999998808,32461.29999999702,37933.29999999702,38887.5],"honeypot":0,"survey":"mace","page":8,"trial_type":"survey-mace","trial_index":16,"time_elapsed":953198,"internal_node_id":"0.0-16.0","task_version":"prescreen-v0.3","browser_interactions":0},{"responses":{"01":"Yes","01_ages_3":"3","01_ages_4":"4","01_ages_5":"5","01_ages_6":"6","01_ages_7":"7","01_ages_8":"8","01_ages_9":"9","01_ages_10":"10","01_ages_11":"11","01_ages_12":"12","01_ages_13":"13","01_ages_14":"14","01_ages_15":"15","01_ages_16":"16","01_ages_17":"17","01_ages_18":"18","02":"Yes","02_ages_3":"3","02_ages_4":"4","02_ages_11":"11","02_ages_16":"16","02_ages_17":"17","02_ages_18":"18","03":"Yes","03_ages_3":"3","03_ages_4":"4","03_ages_5":"5","03_ages_6":"6","03_ages_7":"7","03_ages_8":"8","03_ages_9":"9","03_ages_10":"10","03_ages_11":"11","03_ages_12":"12","03_ages_13":"13","03_ages_14":"14","03_ages_15":"15","03_ages_16":"16","03_ages_17":"17","03_ages_18":"18","04":"Yes","04_ages_3":"3","04_ages_4":"4","04_ages_5":"5","04_ages_6":"6","04_ages_7":"7","04_ages_8":"8","04_ages_9":"9","04_ages_10":"10","04_ages_11":"11","04_ages_12":"12","04_ages_13":"13","04_ages_14":"14","04_ages_15":"15","04_ages_16":"16","04_ages_17":"17","04_ages_18":"18"},"rt":130492.70000000298,"item_order":[0,1,2,3],"radio_events":[6006.20000000298,37229.90000000596,41803.90000000596,59067.80000001192],"checkbox_events":[10474.20000000298,10986.20000000298,11404.10000000894,11974.40000000596,13287.40000000596,13825.70000000298,14861.40000000596,15473,16174.300000011921,17054.90000000596,17951.60000000894,18514.5,19012.10000000894,19591,20422.80000001192,21850,43076,43599.5,44121.40000000596,44675.90000000596,45230.30000001192,45784.70000000298,46331.20000000298,46852.80000001192,47446.90000000596,48492.5,49136.60000000894,49715.60000000894,50813,51328.5,52006.90000000596,52944.40000000596,60607.60000000894,61081.5,61661,62215.80000001192,63461.70000000298,64491.10000000894,64947.20000000298,65534.5,66088.70000000298,66632.30000001192,67147.30000001192,67654.40000000596,68274.5,68983.80000001192,69497.60000000894,70239.20000000298,99666,101866.30000001192,113186.60000000894,122322.90000000596,124687.40000000596,127183.20000000298],"key_events":[],"mouse_events":[6006.20000000298,10474.20000000298,10986.20000000298,11404.10000000894,11974.40000000596,12543.70000000298,13287.40000000596,13825.70000000298,14861.40000000596,15473,16174.300000011921,17054.90000000596,17951.60000000894,18514.5,19012.10000000894,19591,20422.80000001192,21850,37229.90000000596,41803.90000000596,43076,43599.5,44121.40000000596,44675.90000000596,45230.30000001192,45784.70000000298,46331.20000000298,46852.80000001192,47446.90000000596,48492.5,49136.60000000894,49715.60000000894,50302.60000000894,50813,51328.5,52006.90000000596,52944.40000000596,59067.80000001192,60607.60000000894,61081.5,61661,62215.80000001192,62802.40000000596,63461.70000000298,63984.60000000894,64491.10000000894,64947.20000000298,65534.5,66088.70000000298,66632.30000001192,67147.30000001192,67654.40000000596,68274.5,68983.80000001192,69497.60000000894,70239.20000000298,99666,101866.30000001192,113186.60000000894,122322.90000000596,124687.40000000596,127183.20000000298,130486.40000000596],"honeypot":0,"survey":"mace","page":9,"trial_type":"survey-mace","trial_index":17,"time_elapsed":1083695,"internal_node_id":"0.0-17.0","task_version":"prescreen-v0.3","browser_interactions":0},{"responses":{"01":"No","02":"No","03":"No","04":"Yes","04_ages_9":"9","04_ages_10":"10","04_ages_11":"11","05":"Yes","05_ages_11":"11","05_ages_12":"12","05_ages_13":"13","05_ages_14":"14","05_ages_15":"15","05_ages_16":"16","05_ages_17":"17","05_ages_18":"18","06":"Yes","06_ages_17":"17","07":"Yes","07_ages_3":"3","07_ages_4":"4","07_ages_5":"5","07_ages_6":"6","07_ages_7":"7","07_ages_8":"8","07_ages_9":"9","07_ages_10":"10","07_ages_11":"11","07_ages_12":"12","07_ages_13":"13","07_ages_14":"14","07_ages_15":"15","07_ages_16":"16","07_ages_17":"17","07_ages_18":"18","08":"Yes","08_ages_3":"3","08_ages_4":"4","08_ages_5":"5","08_ages_6":"6","08_ages_7":"7","08_ages_8":"8","08_ages_9":"9","08_ages_10":"10","08_ages_11":"11","08_ages_12":"12","08_ages_13":"13","08_ages_14":"14","08_ages_15":"15","08_ages_16":"16","08_ages_17":"17","08_ages_18":"18"},"rt":124969.79999999702,"item_order":[0,1,2,3,4,5,6,7],"radio_events":[3788.0999999940395,4733.899999991059,10735.20000000298,13679,73758.20000000298,89968.29999999702,94804.09999999404,114374.29999999702],"checkbox_events":[26327.5,28690.79999999702,34237.20000000298,78895,82270.59999999404,82850,83378.39999999106,84505,85100.29999999702,86313.89999999106,87024.59999999404,91663,98082.29999999702,100689.59999999404,101107.59999999404,101612.89999999106,102100.5,102640.39999999106,103178.59999999404,104157,104587.29999999702,105111,106585.59999999404,107630.79999999702,108185.39999999106,109139.29999999702,109595.89999999106,110248.20000000298,115928.29999999702,116557.5,117130.59999999404,117546.59999999404,118084.20000000298,118688,119095.29999999702,119812.5,120294.5,120865.20000000298,121297,122080.09999999404,122575.39999999106,123164.39999999106,123645.29999999702,124126.20000000298],"key_events":[],"mouse_events":[3788.0999999940395,4733.899999991059,10735.20000000298,13679,26327.5,28690.79999999702,34237.20000000298,73758.20000000298,78895,82270.59999999404,82850,83378.39999999106,84505,85100.29999999702,85866.79999999702,86313.89999999106,87024.59999999404,89968.29999999702,91663,94804.09999999404,98082.29999999702,100689.59999999404,101107.59999999404,101612.89999999106,102100.5,102640.39999999106,103178.59999999404,104157,104587.29999999702,105111,105633,106585.59999999404,106986.70000000298,107630.79999999702,108185.39999999106,109139.29999999702,109595.89999999106,110248.20000000298,114374.29999999702,115928.29999999702,116557.5,117130.59999999404,117546.59999999404,118084.20000000298,118688,119095.29999999702,119812.5,120294.5,120865.20000000298,121297,122080.09999999404,122575.39999999106,123164.39999999106,123645.29999999702,124126.20000000298,124958.59999999404],"honeypot":0,"survey":"mace","page":10,"trial_type":"survey-mace","trial_index":18,"time_elapsed":1208671,"internal_node_id":"0.0-18.0","task_version":"prescreen-v0.3","browser_interactions":0,"instructed":0},{"rt":6491.0999999940395,"trial_type":"mental-health-alert","trial_index":19,"time_elapsed":1215164,"internal_node_id":"0.0-19.0","task_version":"prescreen-v0.3","interactions":"[{\"event\":\"blur\",\"trial\":12,\"time\":491330},{\"event\":\"focus\",\"trial\":12,\"time\":580134},{\"event\":\"blur\",\"trial\":13,\"time\":595139},{\"event\":\"focus\",\"trial\":13,\"time\":655351},{\"event\":\"blur\",\"trial\":13,\"time\":664829},{\"event\":\"focus\",\"trial\":13,\"time\":689574},{\"event\":\"blur\",\"trial\":13,\"time\":747701},{\"event\":\"focus\",\"trial\":13,\"time\":749380}]"}]