[{"view_history":[{"page_index":0,"viewing_time":5158.5},{"page_index":1,"viewing_time":3963.5},{"page_index":2,"viewing_time":4061.5},{"page_index":3,"viewing_time":4993.199999999953}],"rt":18179.5,"trial_type":"instructions","trial_index":0,"time_elapsed":18209,"internal_node_id":"0.0-0.0","task_version":"prescreen-v0.3"},{"rt":17558.400000000023,"responses":{"age":"37","gender-categorical":"Male","gender-free-response":"","ethnicity":"Not Hispanic or Latino","race":["White"],"education":"Bachelor degree"},"trial_type":"survey-demo","trial_index":1,"time_elapsed":35804,"internal_node_id":"0.0-1.0","task_version":"prescreen-v0.3"},{"responses":{"Q05":"2","Q12":"1","Q16":"1","Q20":"0","Q06":"1","Q15":"2","Q09":"1","Q11":"2","Q02":"1","Q01":"2","Q13":"1","Q19":"1","Q07":"1","Q10":"0","Q17":"2","Q04":"2","Q21":"3","Q18":"1","Q14":"2","Q03":"1","Q08":"2"},"rt":122027.90000000002,"item_order":[4,11,15,19,5,14,8,10,1,0,12,18,6,9,16,3,20,17,13,2,7],"radio_events":[7422.79999999993,14598.400000000023,17976.199999999953,23850,27971.699999999953,36357.19999999995,42100.29999999993,47394,53333.09999999998,56870.69999999995,62392.59999999998,65159.09999999998,71080.90000000002,77499.19999999995,84866.09999999998,89677.69999999995,91803.5,95308.79999999993,100153.79999999993,103096.29999999993,109261.29999999993,113486,115921,120607.19999999995],"key_events":[],"mouse_events":[7422.79999999993,14598.400000000023,17976.199999999953,23850,27103.199999999953,27971.699999999953,36357.19999999995,42100.29999999993,47394,53333.09999999998,56870.69999999995,62392.59999999998,65159.09999999998,71080.90000000002,77499.19999999995,84866.09999999998,89677.69999999995,91803.5,95308.79999999993,100153.79999999993,103096.29999999993,108804,109261.29999999993,113486,115921,119812.19999999995,120607.19999999995,122014.5],"straightlining":0.47619047619047616,"zigzagging":0.7,"honeypot":0,"survey":"sns","trial_type":"survey-template","trial_index":2,"time_elapsed":157855,"internal_node_id":"0.0-2.0","task_version":"prescreen-v0.3","browser_interactions":0,"infrequency":0},{"responses":{"Q07":"3","Q04":"2","Q03":"2","Q11":"1","Q12":"0","Q06":"2","Q13":"0","Q09":"1","Q10":"1","Q02":"1","Q01":"2","Q08":"2","Q05":"2"},"rt":59695.5,"item_order":[6,3,2,10,11,5,12,8,9,1,0,7,4],"radio_events":[8380.800000000047,13452.400000000023,17895.20000000007,22589.100000000093,26470,30699.300000000047,33227.60000000009,38348.5,41113.10000000009,43968.10000000009,46939.20000000007,53038.5,55443.80000000005],"key_events":[],"mouse_events":[8380.800000000047,13452.400000000023,17895.20000000007,22589.100000000093,26470,30699.300000000047,33227.60000000009,38348.5,41113.10000000009,43968.10000000009,46939.20000000007,53038.5,55443.80000000005,59688.40000000002],"straightlining":0.46153846153846156,"zigzagging":0.4166666666666667,"honeypot":0,"survey":"bisbas","trial_type":"survey-template","trial_index":3,"time_elapsed":217565,"internal_node_id":"0.0-3.0","task_version":"prescreen-v0.3","browser_interactions":0,"infrequency":0},{"responses":{"Q01":"3","Q02":"2","Q03":"3"},"rt":18763.5,"radio_events":[9731.300000000047,13325.699999999953,17514.300000000047],"key_events":[],"mouse_events":[9073.300000000047,9731.300000000047,13325.699999999953,17514.300000000047,18760.099999999977],"survey":"map","page":1,"trial_type":"survey-map","trial_index":4,"time_elapsed":236343,"internal_node_id":"0.0-4.0","task_version":"prescreen-v0.3","browser_interactions":0},{"responses":{"Q04":"3","Q05":"3","Q06":"2"},"rt":23947.29999999993,"radio_events":[11746.29999999993,17137.399999999907,22851.5],"key_events":[],"mouse_events":[11746.29999999993,17137.399999999907,22851.5,23943.699999999953],"survey":"map","page":2,"trial_type":"survey-map","trial_index":5,"time_elapsed":260299,"internal_node_id":"0.0-5.0","task_version":"prescreen-v0.3","browser_interactions":0},{"responses":{"Q07":"4","Q08":"3","Q09":"2"},"rt":21445.400000000023,"radio_events":[8561.900000000023,12321.300000000047,18656.800000000047],"key_events":[],"mouse_events":[8561.900000000023,12321.300000000047,18656.800000000047,21443.099999999977],"survey":"map","page":3,"trial_type":"survey-map","trial_index":6,"time_elapsed":281754,"internal_node_id":"0.0-6.0","task_version":"prescreen-v0.3","browser_interactions":0},{"responses":{"Q10":"2","Q11":"2","Q12":"2","Q13":"3","Q16":"0","Q14":"2","Q15":"2"},"rt":36413.80000000005,"radio_events":[6637.800000000047,10744.600000000093,16872.5,24233.300000000047,28535,31545.800000000047,35175.60000000009],"key_events":[],"mouse_events":[6637.800000000047,10744.600000000093,16872.5,24233.300000000047,28535,31545.800000000047,35175.60000000009,36408.5],"survey":"map","page":4,"trial_type":"survey-map","trial_index":7,"time_elapsed":318178,"internal_node_id":"0.0-7.0","task_version":"prescreen-v0.3","browser_interactions":0,"infrequency":0},{"view_history":[{"page_index":0,"viewing_time":4234.300000000047},{"page_index":1,"viewing_time":5318.099999999977}],"rt":9553.900000000023,"trial_type":"instructions","trial_index":8,"time_elapsed":327737,"internal_node_id":"0.0-8.0","task_version":"prescreen-v0.3"},{"responses":{"01":"No","02":"No","03":"No","04":"No","05":"No","06":"Yes","06_ages_9":"9","06_ages_10":"10","06_ages_11":"11","06_ages_12":"12"},"rt":45798,"item_order":[0,1,2,3,4,5],"radio_events":[8945.70000000007,11995,14857.20000000007,16800,24124.100000000093,27879.400000000023],"checkbox_events":[37693,38416.70000000007,38972.30000000005,42633.20000000007],"key_events":[],"mouse_events":[0.9000000000232831,8945.70000000007,11995,14857.20000000007,16800,24124.100000000093,27879.400000000023,37693,38416.70000000007,38972.30000000005,42633.20000000007,45788.10000000009],"honeypot":0,"survey":"mace","page":1,"trial_type":"survey-mace","trial_index":9,"time_elapsed":373582,"internal_node_id":"0.0-9.0","task_version":"prescreen-v0.3","browser_interactions":0},{"responses":{"01":"No","02":"No","03":"Yes","03_ages_9":"9","03_ages_10":"10","04":"No","05":"No","06":"No","07":"No","08":"No"},"rt":24292.800000000047,"item_order":[0,1,2,3,4,5,6,7],"radio_events":[3800.9000000000233,7186.699999999953,11464,16058.400000000023,18270.300000000047,20412.199999999953,21907.5,23530.5],"checkbox_events":[12674.300000000047,12920.5],"key_events":[],"mouse_events":[3800.9000000000233,7186.699999999953,11464,12674.300000000047,12920.5,16058.400000000023,18270.300000000047,20412.199999999953,21907.5,23530.5,24274.300000000047],"honeypot":0,"survey":"mace","page":2,"trial_type":"survey-mace","trial_index":10,"time_elapsed":397895,"internal_node_id":"0.0-10.0","task_version":"prescreen-v0.3","browser_interactions":0},{"responses":{"01":"No","02":"No","03":"No","04":"No"},"rt":11198.599999999977,"item_order":[0,1,2,3],"radio_events":[4490.20000000007,6457.499999999884,9483.400000000023,10261.900000000023],"checkbox_events":[],"key_events":[],"mouse_events":[4490.20000000007,6457.499999999884,9483.400000000023,10261.900000000023,11192.20000000007],"honeypot":0,"survey":"mace","page":3,"trial_type":"survey-mace","trial_index":11,"time_elapsed":409108,"internal_node_id":"0.0-11.0","task_version":"prescreen-v0.3","browser_interactions":0},{"responses":{"01":"No","02":"No"},"rt":6214,"item_order":[0,1],"radio_events":[3997.399999999907,5426.5],"checkbox_events":[],"key_events":[],"mouse_events":[3997.399999999907,5426.5,6209.899999999907],"honeypot":0,"survey":"mace","page":4,"trial_type":"survey-mace","trial_index":12,"time_elapsed":415331,"internal_node_id":"0.0-12.0","task_version":"prescreen-v0.3","browser_interactions":0},{"responses":{"01":"No","02":"No","03":"No","04":"No","05":"No"},"rt":17624.700000000186,"item_order":[0,1,2,3,4],"radio_events":[3819.2000000001863,10777.5,12757.800000000047,14867.800000000047,16339.90000000014],"checkbox_events":[],"key_events":[],"mouse_events":[3819.2000000001863,10777.5,12757.800000000047,14867.800000000047,16339.90000000014,17615.600000000093],"honeypot":0,"survey":"mace","page":5,"trial_type":"survey-mace","trial_index":13,"time_elapsed":432971,"internal_node_id":"0.0-13.0","task_version":"prescreen-v0.3","browser_interactions":0},{"responses":{"01":"No","02":"Yes","02_ages_12":"12","02_ages_13":"13","03":"No","04":"Yes","04_ages_12":"12","04_ages_13":"13","04_ages_14":"14","04_ages_15":"15","05":"No"},"rt":40955.19999999995,"item_order":[0,1,2,3,4],"radio_events":[9317.199999999953,16046.199999999953,29157.300000000047,33057.19999999995,40094.69999999995],"checkbox_events":[22277.199999999953,22515.300000000047,34212.90000000014,34624.30000000005,35581.19999999995,36043.40000000014],"key_events":[],"mouse_events":[9317.199999999953,16046.199999999953,22277.199999999953,22515.300000000047,29157.300000000047,33057.19999999995,34212.90000000014,34624.30000000005,35581.19999999995,36043.40000000014,40094.69999999995,40940.40000000014],"honeypot":0,"survey":"mace","page":6,"trial_type":"survey-mace","trial_index":14,"time_elapsed":473944,"internal_node_id":"0.0-14.0","task_version":"prescreen-v0.3","browser_interactions":0},{"responses":{"01":"No","02":"No","03":"Yes","03_ages_13":"13","03_ages_14":"14","04":"No","05":"No","06":"No","07":"No"},"rt":33054.299999999814,"item_order":[0,1,2,3,4,5,6],"radio_events":[5595.399999999907,7774.299999999814,9744.299999999814,14933.399999999907,27806.199999999953,29678.199999999953,30849.899999999907,32349.09999999986],"checkbox_events":[18872.799999999814,19104.09999999986,25269,25753.59999999986],"key_events":[],"mouse_events":[4303.699999999953,5595.399999999907,7774.299999999814,9744.299999999814,14933.399999999907,18872.799999999814,19104.09999999986,25269,25753.59999999986,27806.199999999953,29678.199999999953,30849.899999999907,32349.09999999986,33044.59999999986],"honeypot":0,"survey":"mace","page":7,"trial_type":"survey-mace","trial_index":15,"time_elapsed":507019,"internal_node_id":"0.0-15.0","task_version":"prescreen-v0.3","browser_interactions":0},{"responses":{"01":"No","02":"No","03":"Yes","03_ages_9":"9","03_ages_10":"10","03_ages_11":"11","03_ages_12":"12","03_ages_13":"13","03_ages_14":"14","04":"No"},"rt":29409.300000000047,"item_order":[0,1,2,3],"radio_events":[6810.399999999907,8802.5,17034.800000000047,19774.699999999953],"checkbox_events":[23189.300000000047,23581.399999999907,23958.100000000093,24395.699999999953,25825.800000000047,27632.399999999907],"key_events":[],"mouse_events":[6810.399999999907,8802.5,17034.800000000047,19774.699999999953,23189.300000000047,23581.399999999907,23958.100000000093,24395.699999999953,25825.800000000047,27632.399999999907,29402.600000000093],"honeypot":0,"survey":"mace","page":8,"trial_type":"survey-mace","trial_index":16,"time_elapsed":536442,"internal_node_id":"0.0-16.0","task_version":"prescreen-v0.3","browser_interactions":0},{"responses":{"01":"Yes","01_ages_1":"1","01_ages_2":"2","01_ages_3":"3","01_ages_4":"4","01_ages_5":"5","01_ages_6":"6","01_ages_7":"7","01_ages_8":"8","01_ages_9":"9","01_ages_10":"10","01_ages_11":"11","01_ages_12":"12","01_ages_13":"13","01_ages_14":"14","01_ages_15":"15","01_ages_16":"16","01_ages_17":"17","01_ages_18":"18","02":"Yes","02_ages_1":"1","02_ages_2":"2","02_ages_3":"3","02_ages_4":"4","02_ages_5":"5","02_ages_6":"6","02_ages_7":"7","02_ages_8":"8","02_ages_9":"9","02_ages_10":"10","02_ages_11":"11","02_ages_12":"12","02_ages_13":"13","02_ages_14":"14","02_ages_15":"15","02_ages_16":"16","02_ages_17":"17","02_ages_18":"18","03":"Yes","03_ages_1":"1","03_ages_2":"2","03_ages_3":"3","03_ages_4":"4","03_ages_5":"5","03_ages_6":"6","03_ages_7":"7","03_ages_8":"8","03_ages_9":"9","03_ages_10":"10","03_ages_11":"11","03_ages_12":"12","03_ages_13":"13","03_ages_14":"14","03_ages_15":"15","03_ages_16":"16","03_ages_17":"17","03_ages_18":"18","04":"Yes","04_ages_1":"1","04_ages_2":"2","04_ages_3":"3","04_ages_4":"4","04_ages_5":"5","04_ages_6":"6","04_ages_7":"7","04_ages_8":"8","04_ages_9":"9","04_ages_10":"10","04_ages_11":"11","04_ages_12":"12","04_ages_13":"13","04_ages_14":"14","04_ages_15":"15","04_ages_16":"16","04_ages_17":"17","04_ages_18":"18"},"rt":77390.6000000001,"item_order":[0,1,2,3],"radio_events":[7356.90000000014,24712.90000000014,35833.69999999995,67795.19999999995],"checkbox_events":[10038.699999999953,10461.5,11049.600000000093,11459,11880.90000000014,12479.199999999953,13177.100000000093,13529.100000000093,13873.90000000014,14518.199999999953,14783.300000000047,15038.699999999953,15460.600000000093,17204.800000000047,17655.5,17978.300000000047,18299.300000000047,18652.300000000047,19118.800000000047,19518.90000000014,19878.90000000014,20281.5,20574.199999999953,20929.600000000093,21282.699999999953,21577.600000000093,25715.90000000014,26083.199999999953,26612.90000000014,26908.300000000047,28118.300000000047,28407.300000000047,28762.800000000047,29162.699999999953,29569.5,29968.699999999953,30374,30777.300000000047,31232,31646.699999999953,38084.60000000009,38515,39872.40000000014,40352.10000000009,40771,41338.5,41769,42164.60000000009,42502,42970.60000000009,43281,43792.60000000009,44216.90000000014,44640.30000000005,45023.30000000005,45398.40000000014,45796,46193.40000000014,46557.90000000014,46901.60000000009,47299.30000000005,47727.40000000014,49606.90000000014,49867.10000000009,50146.69999999995,50606.19999999995,51112.69999999995,51397,51671.19999999995,51916.10000000009,52643.5,52910.30000000005,53525.40000000014,53847.40000000014,54205.10000000009,54604.69999999995,68611.6000000001,68910.30000000005,69243.69999999995,69875.90000000014,70261.19999999995,70601.5,70967.5,71389.90000000014,71703.19999999995,72035.90000000014,73609.69999999995,73985.40000000014,74332.80000000005,74839,75278.90000000014,75701.6000000001,76113.30000000005,76521.19999999995],"key_events":[],"mouse_events":[7356.90000000014,10038.699999999953,10461.5,11049.600000000093,11459,11880.90000000014,12479.199999999953,13177.100000000093,13529.100000000093,13873.90000000014,14518.199999999953,14783.300000000047,15038.699999999953,15460.600000000093,17204.800000000047,17655.5,17978.300000000047,18299.300000000047,18652.300000000047,19118.800000000047,19518.90000000014,19878.90000000014,20281.5,20574.199999999953,20929.600000000093,21282.699999999953,21577.600000000093,24100,24712.90000000014,25715.90000000014,26083.199999999953,26612.90000000014,26908.300000000047,28118.300000000047,28407.300000000047,28762.800000000047,29162.699999999953,29569.5,29968.699999999953,30374,30777.300000000047,31232,31646.699999999953,35833.69999999995,38084.60000000009,38515,39872.40000000014,40352.10000000009,40771,41338.5,41769,42164.60000000009,42502,42970.60000000009,43281,43792.60000000009,44216.90000000014,44640.30000000005,45023.30000000005,45398.40000000014,45796,46193.40000000014,46557.90000000014,46901.60000000009,47299.30000000005,47727.40000000014,49606.90000000014,49867.10000000009,50146.69999999995,50606.19999999995,51112.69999999995,51397,51671.19999999995,51916.10000000009,52120.80000000005,52643.5,52910.30000000005,53525.40000000014,53847.40000000014,54205.10000000009,54604.69999999995,67795.19999999995,68611.6000000001,68910.30000000005,69243.69999999995,69875.90000000014,70261.19999999995,70601.5,70967.5,71389.90000000014,71703.19999999995,72035.90000000014,73609.69999999995,73985.40000000014,74332.80000000005,74839,75278.90000000014,75701.6000000001,76113.30000000005,76521.19999999995,77376.69999999995],"honeypot":0,"survey":"mace","page":9,"trial_type":"survey-mace","trial_index":17,"time_elapsed":613852,"internal_node_id":"0.0-17.0","task_version":"prescreen-v0.3","browser_interactions":0},{"responses":{"01":"No","02":"No","03":"No","04":"No","05":"Yes","05_ages_12":"12","05_ages_13":"13","05_ages_14":"14","05_ages_15":"15","05_ages_16":"16","05_ages_17":"17","05_ages_18":"18","06":"Yes","06_ages_17":"17","07":"No","08":"Yes","08_ages_1":"1","08_ages_2":"2","08_ages_3":"3","08_ages_4":"4","08_ages_5":"5","08_ages_6":"6","08_ages_7":"7","08_ages_8":"8","08_ages_9":"9","08_ages_10":"10","08_ages_11":"11","08_ages_12":"12","08_ages_13":"13","08_ages_14":"14","08_ages_15":"15","08_ages_16":"16","08_ages_17":"17","08_ages_18":"18"},"rt":44038.200000000186,"item_order":[0,1,2,3,4,5,6,7],"radio_events":[4533.600000000093,4851.200000000186,7170.300000000047,9066.90000000014,16969,19710.5,30933.200000000186,33072.60000000009],"checkbox_events":[18341.600000000093,25213.300000000047,25489.200000000186,25824.800000000047,26098.300000000047,26385.300000000047,26649.100000000093,26842.40000000014,34802,35272,35642.80000000005,35943.10000000009,36446.40000000014,36847.10000000009,37255.90000000014,37690.200000000186,38065.30000000005,38429.40000000014,39299.90000000014,39894.90000000014,40471.200000000186,41115.700000000186,41738.700000000186,42090.700000000186,42485.30000000005,42841.5],"key_events":[],"mouse_events":[4533.600000000093,4851.200000000186,7170.300000000047,9066.90000000014,16969,18341.600000000093,19710.5,25213.300000000047,25489.200000000186,25824.800000000047,26098.300000000047,26385.300000000047,26649.100000000093,26842.40000000014,30933.200000000186,33072.60000000009,34802,35272,35642.80000000005,35943.10000000009,36446.40000000014,36847.10000000009,37255.90000000014,37690.200000000186,38065.30000000005,38429.40000000014,39299.90000000014,39894.90000000014,40471.200000000186,41115.700000000186,41738.700000000186,42090.700000000186,42485.30000000005,42841.5,44025],"honeypot":0,"survey":"mace","page":10,"trial_type":"survey-mace","trial_index":18,"time_elapsed":657916,"internal_node_id":"0.0-18.0","task_version":"prescreen-v0.3","browser_interactions":0,"instructed":0},{"rt":8046.800000000047,"trial_type":"mental-health-alert","trial_index":19,"time_elapsed":665979,"internal_node_id":"0.0-19.0","task_version":"prescreen-v0.3","interactions":"[]"}]