[{"view_history":[{"page_index":0,"viewing_time":3016.800000011921},{"page_index":1,"viewing_time":6181.899999976158},{"page_index":2,"viewing_time":2622.300000011921},{"page_index":3,"viewing_time":2593.300000011921}],"rt":14415,"trial_type":"instructions","trial_index":0,"time_elapsed":14454,"internal_node_id":"0.0-0.0","task_version":"prescreen-v0.3"},{"rt":16352,"responses":{"age":"25","gender-categorical":"Male","gender-free-response":"","ethnicity":"Not Hispanic or Latino","race":["Asian"],"education":"Bachelor degree","siblings":"4"},"trial_type":"survey-demo","trial_index":1,"time_elapsed":30813,"internal_node_id":"0.0-1.0","task_version":"prescreen-v0.3"},{"responses":{"Q12":"1","Q17":"0","Q02":"0","Q11":"0","Q14":"0","Q21":"1","Q03":"0","Q10":"0","Q13":"0","Q15":"0","Q20":"2","Q09":"0","Q19":"0","Q05":"0","Q04":"0","Q08":"1","Q07":"1","Q16":"1","Q06":"2","Q18":"0","Q01":"0"},"rt":122770.10000002384,"item_order":[11,16,1,10,13,20,2,9,12,14,19,8,18,4,3,7,6,15,5,17,0],"radio_events":[6287.800000011921,11529.200000017881,14942,18428.100000023842,23717.90000000596,30305.40000000596,34411.90000000596,40644,43941.10000002384,47147.30000001192,50966,57635.30000001192,64698.40000000596,68070,77401.60000002384,86494.30000001192,95020.90000000596,103047.70000001788,109708.10000002384,115683.10000002384,121732.70000001788],"key_events":[],"mouse_events":[6287.800000011921,10328.600000023842,11529.200000017881,14942,18428.100000023842,23717.90000000596,29340,30305.40000000596,34411.90000000596,40644,43941.10000002384,47147.30000001192,50083.40000000596,50966,57635.30000001192,64698.40000000596,68070,77401.60000002384,86494.30000001192,95020.90000000596,103047.70000001788,109708.10000002384,115683.10000002384,121732.70000001788,122765.90000000596],"straightlining":0.6666666666666666,"zigzagging":0.25,"honeypot":0,"survey":"sns","trial_type":"survey-template","trial_index":2,"time_elapsed":153611,"internal_node_id":"0.0-2.0","task_version":"prescreen-v0.3","browser_interactions":0,"infrequency":1},{"responses":{"Q05":"3","Q03":"2","Q04":"3","Q13":"0","Q11":"3","Q01":"2","Q07":"2","Q08":"3","Q06":"3","Q10":"3","Q02":"2","Q09":"3","Q12":"0"},"rt":113677.59999999404,"item_order":[4,2,3,12,10,0,6,7,5,9,1,8,11],"radio_events":[54602.5,59499.90000000596,64219.09999999404,67589.80000001192,73200.70000001788,76577.59999999404,79218.80000001192,84051.80000001192,85514.30000001192,89292.5,93393.20000001788,97314.30000001192,101070.5,107940.40000000596,111385.80000001192],"key_events":[],"mouse_events":[10375.40000000596,31042.30000001192,54602.5,59499.90000000596,64219.09999999404,66685.30000001192,67589.80000001192,73200.70000001788,75741.80000001192,76577.59999999404,79218.80000001192,84051.80000001192,85514.30000001192,88560.90000000596,89292.5,92738.59999999404,93393.20000001788,97314.30000001192,101070.5,107940.40000000596,111385.80000001192,113671.80000001192],"straightlining":0.5384615384615384,"zigzagging":0.75,"honeypot":0,"survey":"bisbas","trial_type":"survey-template","trial_index":3,"time_elapsed":267304,"internal_node_id":"0.0-3.0","task_version":"prescreen-v0.3","browser_interactions":0,"infrequency":0},{"responses":{"Q01":"4","Q02":"4","Q03":"4"},"rt":23575.69999998808,"radio_events":[6993.9000000059605,16931.5,22805],"key_events":[],"mouse_events":[6993.9000000059605,16931.5,22805,23574],"survey":"map","page":1,"trial_type":"survey-map","trial_index":4,"time_elapsed":290898,"internal_node_id":"0.0-4.0","task_version":"prescreen-v0.3","browser_interactions":0},{"responses":{"Q04":"3","Q05":"3","Q06":"4"},"rt":16892.20000001788,"radio_events":[8347.40000000596,13880.800000011921,16173.40000000596],"key_events":[],"mouse_events":[8347.40000000596,13059.40000000596,13880.800000011921,16173.40000000596,16889.30000001192],"survey":"map","page":2,"trial_type":"survey-map","trial_index":5,"time_elapsed":307804,"internal_node_id":"0.0-5.0","task_version":"prescreen-v0.3","browser_interactions":0},{"responses":{"Q07":"4","Q08":"3","Q09":"4"},"rt":43294.80000001192,"radio_events":[7606.100000023842,19828.40000000596,42515.70000001788],"key_events":[],"mouse_events":[7606.100000023842,19828.40000000596,42515.70000001788,43292.70000001788],"survey":"map","page":3,"trial_type":"survey-map","trial_index":6,"time_elapsed":351113,"internal_node_id":"0.0-6.0","task_version":"prescreen-v0.3","browser_interactions":0},{"responses":{"Q10":"4","Q11":"2","Q12":"1","Q13":"2","Q16":"0","Q14":"3","Q15":"3"},"rt":50880.90000000596,"radio_events":[5141.600000023842,13148.40000000596,19935.40000000596,33789.70000001788,39669.5,45367.60000002384,50026.10000002384],"key_events":[],"mouse_events":[5141.600000023842,13148.40000000596,19935.40000000596,33789.70000001788,39669.5,45367.60000002384,50026.10000002384,50877.40000000596],"survey":"map","page":4,"trial_type":"survey-map","trial_index":7,"time_elapsed":402007,"internal_node_id":"0.0-7.0","task_version":"prescreen-v0.3","browser_interactions":0,"infrequency":0},{"view_history":[{"page_index":0,"viewing_time":3201.7999999821186},{"page_index":1,"viewing_time":10814}],"rt":14016.90000000596,"trial_type":"instructions","trial_index":8,"time_elapsed":416035,"internal_node_id":"0.0-8.0","task_version":"prescreen-v0.3"},{"responses":{"01":"No","02":"No","03":"No","04":"No","05":"No","06":"No"},"rt":25544.80000001192,"item_order":[0,1,2,3,4,5],"radio_events":[7583.300000011921,12128.5,16653.30000001192,18691.70000001788,20749.20000001788,24223.09999999404],"checkbox_events":[],"key_events":[],"mouse_events":[0.09999999403953552,7583.300000011921,12128.5,16653.30000001192,18691.70000001788,20749.20000001788,24223.09999999404,25535.90000000596],"honeypot":0,"survey":"mace","page":1,"trial_type":"survey-mace","trial_index":9,"time_elapsed":441608,"internal_node_id":"0.0-9.0","task_version":"prescreen-v0.3","browser_interactions":0},{"responses":{"01":"No","02":"No","03":"No","04":"No","05":"No","06":"No","07":"No","08":"No"},"rt":24233.29999998212,"item_order":[0,1,2,3,4,5,6,7],"radio_events":[3043.0999999940395,5598,8928.59999999404,13542.5,17400.399999976158,20543.69999998808,21808.399999976158,23670.5],"checkbox_events":[],"key_events":[],"mouse_events":[3043.0999999940395,5598,8928.59999999404,13542.5,17400.399999976158,20543.69999998808,21808.399999976158,23670.5,24220.69999998808],"honeypot":0,"survey":"mace","page":2,"trial_type":"survey-mace","trial_index":10,"time_elapsed":465861,"internal_node_id":"0.0-10.0","task_version":"prescreen-v0.3","browser_interactions":0},{"responses":{"01":"No","02":"No","03":"No","04":"No"},"rt":15343.600000023842,"item_order":[0,1,2,3],"radio_events":[4778,8425.300000011921,12246.5,14763.600000023842],"checkbox_events":[],"key_events":[],"mouse_events":[4778,8425.300000011921,12246.5,14763.600000023842,15336.100000023842],"honeypot":0,"survey":"mace","page":3,"trial_type":"survey-mace","trial_index":11,"time_elapsed":481221,"internal_node_id":"0.0-11.0","task_version":"prescreen-v0.3","browser_interactions":0},{"responses":{"01":"No","02":"No"},"rt":7115.199999988079,"item_order":[0,1],"radio_events":[3796.2999999821186,6139.699999988079],"checkbox_events":[],"key_events":[],"mouse_events":[3796.2999999821186,6139.699999988079,7111.799999982119],"honeypot":0,"survey":"mace","page":4,"trial_type":"survey-mace","trial_index":12,"time_elapsed":488351,"internal_node_id":"0.0-12.0","task_version":"prescreen-v0.3","browser_interactions":0},{"responses":{"01":"No","02":"No","03":"No","04":"No","05":"No"},"rt":27810.30000001192,"item_order":[0,1,2,3,4],"radio_events":[7868.4000000059605,11236.40000000596,14867.800000011921,22076.59999999404,23968.30000001192],"checkbox_events":[],"key_events":[],"mouse_events":[7868.4000000059605,11236.40000000596,14867.800000011921,22076.59999999404,23968.30000001192,27803.80000001192],"honeypot":0,"survey":"mace","page":5,"trial_type":"survey-mace","trial_index":13,"time_elapsed":516181,"internal_node_id":"0.0-13.0","task_version":"prescreen-v0.3","browser_interactions":0},{"responses":{"01":"Yes","01_ages_11":"11","01_ages_12":"12","01_ages_13":"13","02":"Yes","02_ages_12":"12","02_ages_13":"13","02_ages_14":"14","02_ages_15":"15","02_ages_16":"16","03":"Yes","03_ages_15":"15","03_ages_16":"16","04":"No","05":"No"},"rt":68563.90000000596,"item_order":[0,1,2,3,4],"radio_events":[11588.299999982119,25901.90000000596,54492.29999998212,62762.40000000596,67440.09999999404],"checkbox_events":[18632.59999999404,19241.5,19972.5,29208.90000000596,29819.79999998212,30580.69999998808,32220.79999998212,32951.5,58205.59999999404,58897.59999999404],"key_events":[],"mouse_events":[11588.299999982119,18632.59999999404,19241.5,19972.5,25901.90000000596,29208.90000000596,29819.79999998212,30580.69999998808,31446.5,32220.79999998212,32951.5,54492.29999998212,58205.59999999404,58897.59999999404,62762.40000000596,67440.09999999404,68555.5],"honeypot":0,"survey":"mace","page":6,"trial_type":"survey-mace","trial_index":14,"time_elapsed":584762,"internal_node_id":"0.0-14.0","task_version":"prescreen-v0.3","browser_interactions":0},{"responses":{"01":"No","02":"No","03":"No","04":"Yes","04_ages_9":"9","04_ages_10":"10","05":"No","06":"No","07":"No"},"rt":26942.59999999404,"item_order":[0,1,2,3,4,5,6],"radio_events":[3297,4780.699999988079,8969.199999988079,10490.40000000596,11522.90000000596,21375.79999998212,23387.5,26340],"checkbox_events":[14709.5,15281.199999988079],"key_events":[],"mouse_events":[3297,4780.699999988079,8969.199999988079,10490.40000000596,11522.90000000596,14143.799999982119,14709.5,15281.199999988079,21375.79999998212,23387.5,25187.5,26340,26926.79999998212],"honeypot":0,"survey":"mace","page":7,"trial_type":"survey-mace","trial_index":15,"time_elapsed":611723,"internal_node_id":"0.0-15.0","task_version":"prescreen-v0.3","browser_interactions":0},{"responses":{"01":"No","02":"No","03":"Yes","03_ages_9":"9","03_ages_10":"10","03_ages_17":"17","03_ages_18":"18","04":"No"},"rt":62883.5,"item_order":[0,1,2,3],"radio_events":[9935.799999982119,11027.09999999404,13302,18651.69999998808,23886.29999998212,50833.09999999404],"checkbox_events":[58681,60126.79999998212,61271.90000000596,62130.19999998808],"key_events":[],"mouse_events":[9935.799999982119,11027.09999999404,11945.59999999404,12374.40000000596,13302,18651.69999998808,23886.29999998212,50833.09999999404,58681,59336.09999999404,60126.79999998212,61271.90000000596,62130.19999998808,62876.19999998808],"honeypot":0,"survey":"mace","page":8,"trial_type":"survey-mace","trial_index":16,"time_elapsed":674622,"internal_node_id":"0.0-16.0","task_version":"prescreen-v0.3","browser_interactions":0},{"responses":{"01":"Yes","01_ages_1":"1","01_ages_2":"2","01_ages_3":"3","01_ages_4":"4","01_ages_5":"5","01_ages_6":"6","01_ages_7":"7","01_ages_8":"8","01_ages_9":"9","01_ages_10":"10","01_ages_11":"11","01_ages_12":"12","01_ages_13":"13","01_ages_14":"14","01_ages_15":"15","01_ages_16":"16","01_ages_17":"17","01_ages_18":"18","02":"Yes","02_ages_1":"1","02_ages_2":"2","02_ages_3":"3","02_ages_4":"4","02_ages_5":"5","02_ages_6":"6","02_ages_7":"7","02_ages_8":"8","02_ages_9":"9","02_ages_10":"10","02_ages_11":"11","02_ages_12":"12","02_ages_13":"13","02_ages_14":"14","02_ages_15":"15","02_ages_16":"16","02_ages_17":"17","02_ages_18":"18","03":"Yes","03_ages_1":"1","03_ages_2":"2","03_ages_3":"3","03_ages_4":"4","03_ages_5":"5","03_ages_6":"6","03_ages_7":"7","03_ages_8":"8","03_ages_9":"9","03_ages_10":"10","03_ages_11":"11","03_ages_12":"12","03_ages_13":"13","03_ages_14":"14","03_ages_15":"15","03_ages_16":"16","03_ages_17":"17","03_ages_18":"18","04":"Yes","04_ages_9":"9","04_ages_10":"10","04_ages_11":"11","04_ages_15":"15","04_ages_16":"16","04_ages_17":"17","04_ages_18":"18"},"rt":73251.59999999404,"item_order":[0,1,2,3],"radio_events":[6070,20785.79999998212,35778.69999998808,58160.29999998212],"checkbox_events":[7380.4000000059605,7854.799999982119,8291.90000000596,8721.199999988079,9330.5,9993.59999999404,10573.59999999404,11258.199999988079,11951.699999988079,12636.90000000596,14346.799999982119,14821,15814.90000000596,16319.699999988079,16929.40000000596,17509.79999998212,18563.19999998808,19896.79999998212,22494.59999999404,23804.79999998212,24800.29999998212,25311.59999999404,26109.90000000596,26801.09999999404,27262.5,28015.40000000596,28497.29999998212,29122.09999999404,29882.5,30447.79999998212,31765.40000000596,32593.19999998808,33150.19999998808,33775.90000000596,34348.5,34935.90000000596,37563.5,38166.40000000596,39107.09999999404,39856.29999998212,40365.19999998808,40944.59999999404,41735.90000000596,42269.90000000596,42902.79999998212,43767.90000000596,45770.90000000596,46938.69999998808,48611,49220.40000000596,49807.59999999404,50387.40000000596,50945,51577.79999998212,63935.19999998808,65427.5,66458.90000000596,67671,69696,72076.29999998212,72626.29999998212],"key_events":[],"mouse_events":[4096.199999988079,4962.5999999940395,5279.299999982119,6070,7380.4000000059605,7854.799999982119,8291.90000000596,8721.199999988079,9330.5,9993.59999999404,10573.59999999404,11258.199999988079,11951.699999988079,12636.90000000596,14346.799999982119,14821,15348,15814.90000000596,16319.699999988079,16929.40000000596,17509.79999998212,18563.19999998808,19106.09999999404,19896.79999998212,20785.79999998212,21741.79999998212,22494.59999999404,23248.29999998212,23804.79999998212,24800.29999998212,25311.59999999404,26109.90000000596,26801.09999999404,27262.5,28015.40000000596,28497.29999998212,29122.09999999404,29882.5,30447.79999998212,30929.5,31765.40000000596,32593.19999998808,33150.19999998808,33775.90000000596,34348.5,34935.90000000596,35778.69999998808,37563.5,38166.40000000596,39107.09999999404,39856.29999998212,40365.19999998808,40944.59999999404,41735.90000000596,42269.90000000596,42902.79999998212,43767.90000000596,44416.69999998808,45146.5,45770.90000000596,46298.90000000596,46938.69999998808,47714.40000000596,48611,49220.40000000596,49807.59999999404,50387.40000000596,50945,51577.79999998212,58160.29999998212,63935.19999998808,64492.29999998212,65427.5,66458.90000000596,66977.69999998808,67671,69696,71323.29999998212,72076.29999998212,72626.29999998212,73244],"honeypot":0,"survey":"mace","page":9,"trial_type":"survey-mace","trial_index":17,"time_elapsed":747890,"internal_node_id":"0.0-17.0","task_version":"prescreen-v0.3","browser_interactions":0},{"responses":{"01":"No","02":"No","03":"No","04":"Yes","04_ages_13":"13","04_ages_14":"14","04_ages_15":"15","05":"Yes","05_ages_11":"11","05_ages_12":"12","05_ages_13":"13","05_ages_14":"14","05_ages_15":"15","05_ages_16":"16","05_ages_17":"17","06":"Yes","06_ages_17":"17","07":"Yes","07_ages_1":"1","07_ages_2":"2","07_ages_3":"3","07_ages_4":"4","07_ages_5":"5","07_ages_6":"6","07_ages_7":"7","07_ages_8":"8","07_ages_9":"9","07_ages_10":"10","07_ages_11":"11","07_ages_12":"12","07_ages_13":"13","07_ages_14":"14","07_ages_15":"15","07_ages_16":"16","07_ages_17":"17","07_ages_18":"18","08":"Yes","08_ages_1":"1","08_ages_2":"2","08_ages_3":"3","08_ages_4":"4","08_ages_5":"5","08_ages_6":"6","08_ages_7":"7","08_ages_8":"8","08_ages_9":"9","08_ages_10":"10","08_ages_11":"11","08_ages_12":"12","08_ages_13":"13","08_ages_14":"14","08_ages_15":"15","08_ages_16":"16","08_ages_17":"17","08_ages_18":"18"},"rt":88459.90000000596,"item_order":[0,1,2,3,4,5,6,7],"radio_events":[2827.7000000178814,11722.800000011921,16082.59999999404,18739.59999999404,34395.5,48332.90000000596,54115.09999999404,72923.40000000596],"checkbox_events":[25668.5,26172.40000000596,26797.59999999404,40720.40000000596,41233.20000001788,41729.70000001788,42280.20000001788,43386.30000001192,44801.59999999404,45366.59999999404,49907.90000000596,57308.40000000596,57955.5,58618.30000001192,60055.40000000596,61404,62563.40000000596,63128.5,63768.70000001788,64573.80000001192,65266.59999999404,66056.70000001788,66614,67721.20000001788,68699.30000001192,70069.59999999404,70733,71394.59999999404,71998.40000000596,74022.59999999404,74625.20000001788,75814.30000001192,76364.09999999404,76891,77410.30000001192,79043.20000001788,79586.40000000596,80370,80902.70000001788,81468.80000001192,82093.40000000596,83674.59999999404,84967.70000001788,85773.30000001192,86383.09999999404,87001.59999999404,87725.20000001788],"key_events":[],"mouse_events":[2827.7000000178814,11722.800000011921,16082.59999999404,18739.59999999404,25668.5,26172.40000000596,26797.59999999404,34395.5,40720.40000000596,41233.20000001788,41729.70000001788,42280.20000001788,42783.59999999404,43386.30000001192,43935.59999999404,44801.59999999404,45366.59999999404,48332.90000000596,49907.90000000596,54115.09999999404,57308.40000000596,57955.5,58618.30000001192,60055.40000000596,60598.70000001788,61404,61939.20000001788,62563.40000000596,63128.5,63768.70000001788,64573.80000001192,65266.59999999404,66056.70000001788,66614,67186.70000001788,67721.20000001788,68232.80000001192,68699.30000001192,70069.59999999404,70733,71394.59999999404,71998.40000000596,72923.40000000596,74022.59999999404,74625.20000001788,75814.30000001192,76364.09999999404,76891,77410.30000001192,77945,79043.20000001788,79586.40000000596,80370,80902.70000001788,81468.80000001192,82093.40000000596,83192,83674.59999999404,84246.80000001192,84967.70000001788,85773.30000001192,86383.09999999404,87001.59999999404,87725.20000001788,88447.30000001192],"honeypot":0,"survey":"mace","page":10,"trial_type":"survey-mace","trial_index":18,"time_elapsed":836369,"internal_node_id":"0.0-18.0","task_version":"prescreen-v0.3","browser_interactions":2,"instructed":0},{"rt":6439.5999999940395,"trial_type":"mental-health-alert","trial_index":19,"time_elapsed":842822,"internal_node_id":"0.0-19.0","task_version":"prescreen-v0.3","interactions":"[{\"event\":\"blur\",\"trial\":8,\"time\":406912},{\"event\":\"focus\",\"trial\":8,\"time\":412192},{\"event\":\"blur\",\"trial\":18,\"time\":753209},{\"event\":\"focus\",\"trial\":18,\"time\":756607}]"}]