[{"view_history":[{"page_index":0,"viewing_time":3414},{"page_index":1,"viewing_time":2525.699999809265},{"page_index":2,"viewing_time":2974.100000143051},{"page_index":3,"viewing_time":1015.5999999046326}],"rt":9930,"trial_type":"instructions","trial_index":0,"time_elapsed":9955,"internal_node_id":"0.0-0.0","task_version":"prescreen-v0.3"},{"rt":14411.699999809265,"responses":{"age":"24","gender-categorical":"Male","gender-free-response":"","ethnicity":"Hispanic or Latino","race":["White"],"education":"Associate degree"},"trial_type":"survey-demo","trial_index":1,"time_elapsed":24373,"internal_node_id":"0.0-1.0","task_version":"prescreen-v0.3"},{"responses":{"Q16":"0","Q07":"1","Q12":"0","Q15":"0","Q02":"1","Q20":"0","Q05":"0","Q10":"1","Q04":"1","Q14":"0","Q06":"0","Q11":"0","Q01":"1","Q18":"0","Q17":"0","Q19":"0","Q21":"3","Q08":"2","Q09":"2","Q13":"0","Q03":"0"},"rt":134156.19999980927,"item_order":[15,6,11,14,1,19,4,9,3,13,5,10,0,17,16,18,20,7,8,12,2],"radio_events":[8750.799999952316,19724.799999952316,25238.5,28696.39999985695,31992.799999952316,35996.59999990463,43952.5,52284.59999990463,53848.699999809265,64430.699999809265,69406.79999995232,76222.79999995232,79404.89999985695,82893.09999990463,88123,91872.69999980927,95938.89999985695,105213,115656.19999980927,121546.89999985695,123641.19999980927,129317.19999980927,133383.29999995232],"key_events":[8750.799999952316,19724.799999952316,24960.299999952316,25238.5,28696.39999985695,31992.799999952316,35180.5,35664.299999952316,35996.59999990463,43952.5,52284.59999990463,53256.59999990463,53848.699999809265,64430.699999809265,69406.79999995232,75938.89999985695,76222.79999995232,79404.89999985695,82568.89999985695,82893.09999990463,88123,91872.69999980927,95938.89999985695,105213,115656.19999980927,121546.89999985695,123641.19999980927,129317.19999980927,133043.19999980927,133383.29999995232,134153.5],"mouse_events":[],"straightlining":0.6190476190476191,"zigzagging":0.5,"honeypot":0,"survey":"sns","trial_type":"survey-template","trial_index":2,"time_elapsed":158537,"internal_node_id":"0.0-2.0","task_version":"prescreen-v0.3","browser_interactions":0,"infrequency":0},{"responses":{"Q01":"3","Q06":"3","Q05":"3","Q09":"3","Q03":"2","Q04":"3","Q11":"3","Q08":"3","Q10":"2","Q12":"0","Q02":"2","Q13":"0","Q07":"3"},"rt":76977.70000004768,"item_order":[0,5,4,8,2,3,10,7,9,11,1,12,6],"radio_events":[5097.800000190735,9285.5,12051.800000190735,15177.5,27621.700000047684,31087.60000014305,33035.60000014305,41290,46665.700000047684,50702.10000014305,59201.800000190735,62265.700000047684,67026,71969.70000004768,75949.80000019073],"key_events":[5097.800000190735,9285.5,12051.800000190735,15177.5,27621.700000047684,31087.60000014305,32211.800000190735,32658,33035.60000014305,40919.40000009537,41290,46665.700000047684,49824,50702.10000014305,57416,58116.10000014305,58873,59201.800000190735,62265.700000047684,67026,71969.70000004768,75949.80000019073,76976.20000004768],"mouse_events":[],"straightlining":0.6153846153846154,"zigzagging":0.3333333333333333,"honeypot":0,"survey":"bisbas","trial_type":"survey-template","trial_index":3,"time_elapsed":235521,"internal_node_id":"0.0-3.0","task_version":"prescreen-v0.3","browser_interactions":0,"infrequency":0},{"responses":{"Q01":"3","Q02":"3","Q03":"4"},"rt":38113.89999985695,"radio_events":[15711.5,27847.5,29444.199999809265,37713.299999952316],"key_events":[15711.5,27847.5,28903.799999952316,29181.39999985695,29444.199999809265,37035.699999809265,37713.299999952316,38113.299999952316],"mouse_events":[],"survey":"map","page":1,"trial_type":"survey-map","trial_index":4,"time_elapsed":273639,"internal_node_id":"0.0-4.0","task_version":"prescreen-v0.3","browser_interactions":0},{"responses":{"Q04":"4","Q05":"3","Q06":"4"},"rt":22947.900000095367,"radio_events":[10410,15147.600000143051,16247.300000190735,22471.400000095367],"key_events":[10410,15147.600000143051,16247.300000190735,22123.700000047684,22471.400000095367,22947.200000047684],"mouse_events":[],"survey":"map","page":2,"trial_type":"survey-map","trial_index":5,"time_elapsed":296590,"internal_node_id":"0.0-5.0","task_version":"prescreen-v0.3","browser_interactions":0},{"responses":{"Q07":"3","Q08":"2","Q09":"4"},"rt":20376.200000047684,"radio_events":[8685.299999952316,16787.200000047684,19745],"key_events":[8685.299999952316,16425.200000047684,16787.200000047684,19745,20128.900000095367,20375.5],"mouse_events":[],"survey":"map","page":3,"trial_type":"survey-map","trial_index":6,"time_elapsed":316969,"internal_node_id":"0.0-6.0","task_version":"prescreen-v0.3","browser_interactions":0},{"responses":{"Q10":"4","Q11":"4","Q12":"3","Q13":"3","Q16":"0","Q14":"4","Q15":"3"},"rt":65007.700000047684,"radio_events":[6104.099999904633,13774.200000047684,21036,43288.299999952316,47424.200000047684,51343.89999985695,64220.39999985695],"key_events":[4502.200000047684,5780.099999904633,6104.099999904633,13774.200000047684,21036,43288.299999952316,47070.299999952316,47424.200000047684,51343.89999985695,64220.39999985695,64606.39999985695,65006.5],"mouse_events":[],"survey":"map","page":4,"trial_type":"survey-map","trial_index":7,"time_elapsed":381980,"internal_node_id":"0.0-7.0","task_version":"prescreen-v0.3","browser_interactions":2,"infrequency":0},{"view_history":[{"page_index":0,"viewing_time":3237.7000000476837},{"page_index":1,"viewing_time":2379.9000000953674}],"rt":5618.400000095367,"trial_type":"instructions","trial_index":8,"time_elapsed":387600,"internal_node_id":"0.0-8.0","task_version":"prescreen-v0.3"},{"responses":{"01":"Yes","01_ages_12":"12","01_ages_13":"13","01_ages_14":"14","02":"Yes","02_ages_11":"11","02_ages_12":"12","02_ages_13":"13","03":"Yes","03_ages_6":"6","03_ages_7":"7","03_ages_8":"8","03_ages_9":"9","03_ages_10":"10","03_ages_11":"11","03_ages_12":"12","03_ages_13":"13","04":"No","05":"No","06":"Yes","06_ages_11":"11","06_ages_12":"12","06_ages_13":"13","06_ages_14":"14"},"rt":95086.10000014305,"item_order":[0,1,2,3,4,5],"radio_events":[15869.200000047684,34003.40000009537,39603.200000047684,82646.60000014305,85247.80000019073,91423.5],"checkbox_events":[20667.400000095367,35774.10000014305,41210,47377.700000047684,48593.200000047684,55163.40000009537,55925.800000190735,57387.90000009537,57766.10000014305,58082.200000047684,59281.700000047684,59829.5,63455.700000047684,64025.700000047684,68431.80000019073,68785.40000009537,69208.20000004768,70963.80000019073,76291.60000014305,76653.80000019073,76977.5,77423.80000019073,78325.60000014305,78964,79665.80000019073,80057.5,92879.5,93279.60000014305,93657,94435.10000014305],"key_events":[0.20000004768371582,15637.700000047684,15869.200000047684,20667.400000095367,34003.40000009537,35435.300000190735,35774.10000014305,38753.40000009537,39247.200000047684,39603.200000047684,41210,47377.700000047684,48593.200000047684,55163.40000009537,55925.800000190735,56271.700000047684,56717.200000047684,57025.5,57387.90000009537,57766.10000014305,58082.200000047684,59281.700000047684,59829.5,63455.700000047684,64025.700000047684,68431.80000019073,68785.40000009537,69208.20000004768,70963.80000019073,73581.60000014305,76291.60000014305,76653.80000019073,76977.5,77423.80000019073,77963.60000014305,78325.60000014305,78964,79379.40000009537,79665.80000019073,80057.5,82646.60000014305,84931.5,85247.80000019073,87319.70000004768,91423.5,92879.5,93279.60000014305,93657,94435.10000014305,95082.5],"mouse_events":[],"honeypot":0,"survey":"mace","page":1,"trial_type":"survey-mace","trial_index":9,"time_elapsed":482699,"internal_node_id":"0.0-9.0","task_version":"prescreen-v0.3","browser_interactions":0},{"responses":{"01":"Yes","01_ages_11":"11","01_ages_12":"12","01_ages_13":"13","02":"No","03":"Yes","03_ages_7":"7","03_ages_8":"8","03_ages_9":"9","03_ages_10":"10","04":"No","05":"Yes","05_ages_7":"7","05_ages_8":"8","05_ages_9":"9","05_ages_10":"10","06":"No","07":"No","08":"No"},"rt":86321.70000004768,"item_order":[0,1,2,3,4,5,6,7],"radio_events":[53978.200000047684,62800.200000047684,65327.10000014305,74112.29999995232,76638.20000004768,82828,84405.5,85778.10000014305],"checkbox_events":[56664.700000047684,56972.200000047684,57380.5,57788.799999952316,58580,66820,67120.5,67466.29999995232,67868.10000014305,69114.10000014305,70346.20000004768,77754.10000014305,78171.20000004768,78657.10000014305,79201.40000009537],"key_events":[53978.200000047684,55400,56664.700000047684,56972.200000047684,57380.5,57788.799999952316,58580,62800.200000047684,65327.10000014305,66820,67120.5,67466.29999995232,67868.10000014305,69114.10000014305,70346.20000004768,74112.29999995232,76346.20000004768,76638.20000004768,77292.90000009537,77754.10000014305,78171.20000004768,78657.10000014305,79201.40000009537,82828,84405.5,85778.10000014305,86317],"mouse_events":[],"honeypot":0,"survey":"mace","page":2,"trial_type":"survey-mace","trial_index":10,"time_elapsed":569026,"internal_node_id":"0.0-10.0","task_version":"prescreen-v0.3","browser_interactions":2},{"responses":{"01":"No","02":"No","03":"No","04":"No"},"rt":13529.200000047684,"item_order":[0,1,2,3],"radio_events":[5519.5,7992,9493.700000047684,13043.600000143051],"checkbox_events":[],"key_events":[5233.799999952316,5519.5,7992,8993.900000095367,9493.700000047684,11579.5,12475.400000095367,13043.600000143051,13527.200000047684],"mouse_events":[],"honeypot":0,"survey":"mace","page":3,"trial_type":"survey-mace","trial_index":11,"time_elapsed":582559,"internal_node_id":"0.0-11.0","task_version":"prescreen-v0.3","browser_interactions":0},{"responses":{"01":"No","02":"No"},"rt":9114.799999952316,"item_order":[0,1],"radio_events":[3029.7000000476837,8567.400000095367],"checkbox_events":[],"key_events":[2035.4000000953674,3029.7000000476837,8567.400000095367,9113.400000095367],"mouse_events":[],"honeypot":0,"survey":"mace","page":4,"trial_type":"survey-mace","trial_index":12,"time_elapsed":591677,"internal_node_id":"0.0-12.0","task_version":"prescreen-v0.3","browser_interactions":0},{"responses":{"01":"No","02":"No","03":"No","04":"No","05":"No"},"rt":38886.90000009537,"item_order":[0,1,2,3,4],"radio_events":[10205.200000047684,16113.5,23489.200000047684,27427.5,38413.5],"checkbox_events":[],"key_events":[9913.599999904633,10205.200000047684,15759.299999952316,16113.5,23489.200000047684,27079,27427.5,38413.5,38883.90000009537],"mouse_events":[],"honeypot":0,"survey":"mace","page":5,"trial_type":"survey-mace","trial_index":13,"time_elapsed":630568,"internal_node_id":"0.0-13.0","task_version":"prescreen-v0.3","browser_interactions":0},{"responses":{"01":"Yes","01_ages_7":"7","01_ages_8":"8","01_ages_9":"9","01_ages_10":"10","02":"Yes","02_ages_5":"5","02_ages_6":"6","02_ages_7":"7","02_ages_8":"8","02_ages_9":"9","02_ages_10":"10","03":"No","04":"No","05":"No"},"rt":42784.299999952316,"item_order":[0,1,2,3,4],"radio_events":[13737.799999952316,22793.599999904633,35821.700000047684,38609.5,42411.700000047684],"checkbox_events":[16687.700000047684,17295.799999952316,17672.5,18120.099999904633,27943.799999952316,28290.5,28676.599999904633,29051.599999904633,29430.599999904633,29737.799999952316],"key_events":[13445.799999952316,13737.799999952316,16687.700000047684,17295.799999952316,17672.5,18120.099999904633,22793.599999904633,27943.799999952316,28290.5,28676.599999904633,29051.599999904633,29430.599999904633,29737.799999952316,35821.700000047684,38609.5,41982.09999990463,42411.700000047684,42781.799999952316],"mouse_events":[],"honeypot":0,"survey":"mace","page":6,"trial_type":"survey-mace","trial_index":14,"time_elapsed":673357,"internal_node_id":"0.0-14.0","task_version":"prescreen-v0.3","browser_interactions":0},{"responses":{"01":"No","02":"No","03":"No","04":"No","05":"No","06":"No","07":"No"},"rt":21362.39999985695,"item_order":[0,1,2,3,4,5,6],"radio_events":[7169.399999856949,9725.399999856949,12405.599999904633,14523.099999904633,16485.599999904633,19589.299999952316,20459.200000047684],"checkbox_events":[],"key_events":[6785.399999856949,7169.399999856949,9725.399999856949,12405.599999904633,14523.099999904633,16485.599999904633,18897.5,19589.299999952316,20459.200000047684,21359.39999985695],"mouse_events":[],"honeypot":0,"survey":"mace","page":7,"trial_type":"survey-mace","trial_index":15,"time_elapsed":694724,"internal_node_id":"0.0-15.0","task_version":"prescreen-v0.3","browser_interactions":0},{"responses":{"01":"No","02":"Yes","02_ages_8":"8","02_ages_9":"9","02_ages_10":"10","02_ages_11":"11","02_ages_12":"12","02_ages_13":"13","02_ages_14":"14","03":"No","04":"No"},"rt":38668.59999990463,"item_order":[0,1,2,3],"radio_events":[12715.400000095367,19077.700000047684,33060.59999990463,38220.09999990463],"checkbox_events":[22689.900000095367,23083.200000047684,23389.700000047684,24289.900000095367,25113.799999952316,25467.599999904633,26830.900000095367],"key_events":[12399.299999952316,12715.400000095367,19077.700000047684,22689.900000095367,23083.200000047684,23389.700000047684,23973.799999952316,24289.900000095367,25113.799999952316,25467.599999904633,25915.5,26329.700000047684,26830.900000095367,33060.59999990463,36933.799999952316,37888.5,38220.09999990463,38665.59999990463],"mouse_events":[],"honeypot":0,"survey":"mace","page":8,"trial_type":"survey-mace","trial_index":16,"time_elapsed":733396,"internal_node_id":"0.0-16.0","task_version":"prescreen-v0.3","browser_interactions":0},{"responses":{"01":"Yes","01_ages_1":"1","01_ages_2":"2","01_ages_3":"3","01_ages_4":"4","01_ages_5":"5","01_ages_6":"6","01_ages_7":"7","01_ages_8":"8","01_ages_9":"9","01_ages_10":"10","01_ages_11":"11","01_ages_12":"12","01_ages_13":"13","01_ages_14":"14","01_ages_15":"15","01_ages_16":"16","01_ages_17":"17","01_ages_18":"18","02":"Yes","02_ages_1":"1","02_ages_2":"2","02_ages_3":"3","02_ages_4":"4","02_ages_5":"5","02_ages_6":"6","02_ages_7":"7","02_ages_8":"8","02_ages_9":"9","02_ages_10":"10","02_ages_11":"11","02_ages_12":"12","02_ages_13":"13","02_ages_14":"14","02_ages_15":"15","02_ages_16":"16","02_ages_17":"17","02_ages_18":"18","03":"Yes","03_ages_1":"1","03_ages_2":"2","03_ages_3":"3","03_ages_4":"4","03_ages_5":"5","03_ages_6":"6","03_ages_7":"7","03_ages_8":"8","03_ages_9":"9","03_ages_10":"10","03_ages_11":"11","03_ages_12":"12","03_ages_13":"13","03_ages_14":"14","03_ages_15":"15","03_ages_16":"16","03_ages_17":"17","03_ages_18":"18","04":"No"},"rt":61526.39999985695,"item_order":[0,1,2,3],"radio_events":[9373.899999856949,29800.200000047684,45154.700000047684,60600.5],"checkbox_events":[11160.5,17528.39999985695,18568.099999904633,18991,19531.799999952316,19914.39999985695,20269.39999985695,21176.39999985695,21684.39999985695,22524.599999904633,23023.799999952316,23686,24426.099999904633,24803.299999952316,25934.5,26958.39999985695,27367.200000047684,27769.599999904633,33604.200000047684,33897,34436.700000047684,34974.799999952316,35652.299999952316,36114.799999952316,36522.39999985695,36839.299999952316,37193,37546.299999952316,37884.700000047684,38355,38909.09999990463,39787.39999985695,40402.799999952316,40602.5,41042.59999990463,41404.200000047684,42051.39999985695,42750.5,46686.59999990463,47165.39999985695,47548.39999985695,47918.39999985695,48356.89999985695,49782.299999952316,50128.5,50661.39999985695,50999.200000047684,51638.5,52285.59999990463,52979.59999990463,53317.5,54070.39999985695,54378.799999952316,54748.700000047684,55518.200000047684,56010.59999990463],"key_events":[8857.799999952316,9081.700000047684,9373.899999856949,11160.5,12054.799999952316,17528.39999985695,17899.200000047684,18568.099999904633,18991,19531.799999952316,19914.39999985695,20269.39999985695,20700.099999904633,21176.39999985695,21684.39999985695,22171.39999985695,22524.599999904633,23023.799999952316,23686,24073.200000047684,24426.099999904633,24803.299999952316,25151.299999952316,25496.5,25934.5,26382.200000047684,26958.39999985695,27367.200000047684,27769.599999904633,29800.200000047684,32340.299999952316,33010.5,33288.299999952316,33604.200000047684,33897,34436.700000047684,34974.799999952316,35352.09999990463,35652.299999952316,36114.799999952316,36522.39999985695,36839.299999952316,37193,37546.299999952316,37884.700000047684,38355,38909.09999990463,39302.5,39787.39999985695,40402.799999952316,40602.5,41042.59999990463,41404.200000047684,42051.39999985695,42412.89999985695,42750.5,45154.700000047684,46686.59999990463,47165.39999985695,47548.39999985695,47918.39999985695,48356.89999985695,48727,48989.59999990463,49313.89999985695,49782.299999952316,50128.5,50661.39999985695,50999.200000047684,51353.09999990463,51638.5,51961.5,52285.59999990463,52576.59999990463,52979.59999990463,53317.5,53808.5,54070.39999985695,54378.799999952316,54748.700000047684,55518.200000047684,56010.59999990463,60024.700000047684,60600.5,61170.59999990463,61524.799999952316],"mouse_events":[],"honeypot":0,"survey":"mace","page":9,"trial_type":"survey-mace","trial_index":17,"time_elapsed":794926,"internal_node_id":"0.0-17.0","task_version":"prescreen-v0.3","browser_interactions":0},{"responses":{"01":"No","02":"No","03":"Yes","03_ages_9":"9","03_ages_10":"10","03_ages_11":"11","03_ages_12":"12","03_ages_13":"13","04":"No","05":"No","06":"Yes","06_ages_17":"17","07":"Yes","07_ages_1":"1","07_ages_2":"2","07_ages_3":"3","07_ages_4":"4","07_ages_5":"5","07_ages_6":"6","07_ages_7":"7","07_ages_8":"8","07_ages_9":"9","07_ages_10":"10","07_ages_11":"11","07_ages_12":"12","07_ages_13":"13","07_ages_14":"14","07_ages_15":"15","07_ages_16":"16","07_ages_17":"17","07_ages_18":"18","08":"Yes","08_ages_1":"1","08_ages_2":"2","08_ages_3":"3","08_ages_4":"4","08_ages_5":"5","08_ages_6":"6","08_ages_7":"7","08_ages_8":"8","08_ages_9":"9","08_ages_10":"10","08_ages_11":"11","08_ages_12":"12","08_ages_13":"13","08_ages_14":"14","08_ages_15":"15","08_ages_16":"16","08_ages_17":"17","08_ages_18":"18"},"rt":66047.70000004768,"item_order":[0,1,2,3,4,5,6,7],"radio_events":[5308.599999904633,7411.700000047684,11422.900000095367,21077.400000095367,25274.799999952316,29663,37062.90000009537,42125.200000047684],"checkbox_events":[12917.200000047684,13571.200000047684,14627.099999904633,15435.200000047684,16150.900000095367,17051.200000047684,18053.099999904633,30935.400000095367,44971,45333.90000009537,45958,46374.5,46794.700000047684,47166,47535.799999952316,47843.40000009537,48567.09999990463,49545.5,50731.5,51178,51661.200000047684,52631.200000047684,52931,53255,53925.200000047684,54471.299999952316,54994.90000009537,55427,56236.200000047684,56651.09999990463,57097.5,57758.90000009537,58083.200000047684,59262.5,59815.299999952316,60337.40000009537,61131,61531.09999990463,61885.40000009537,63094.90000009537,63503.299999952316,64311.40000009537,64703.299999952316,65181.200000047684],"key_events":[4701.099999904633,5308.599999904633,7411.700000047684,11114.700000047684,11422.900000095367,12917.200000047684,13571.200000047684,14627.099999904633,15051.200000047684,15435.200000047684,15819.900000095367,16150.900000095367,16581.099999904633,17051.200000047684,17445,17737.200000047684,18053.099999904633,21077.400000095367,25274.799999952316,29663,30935.400000095367,37062.90000009537,40243.09999990463,42125.200000047684,43893.09999990463,44239.40000009537,44533.09999990463,44971,45333.90000009537,45958,46374.5,46794.700000047684,47166,47535.799999952316,47843.40000009537,48268.09999990463,48567.09999990463,48929.90000009537,49197.09999990463,49545.5,49945.09999990463,50383.700000047684,50731.5,51178,51661.200000047684,52001.299999952316,52277.40000009537,52631.200000047684,52931,53255,53925.200000047684,54471.299999952316,54994.90000009537,55427,55811.200000047684,56236.200000047684,56651.09999990463,57097.5,57421.40000009537,57758.90000009537,58083.200000047684,58597.5,58937.200000047684,59262.5,59815.299999952316,60337.40000009537,60784.90000009537,61131,61531.09999990463,61885.40000009537,62241.40000009537,62647.09999990463,62901.09999990463,63094.90000009537,63503.299999952316,63941.5,64311.40000009537,64703.299999952316,65181.200000047684,66043.09999990463],"mouse_events":[],"honeypot":0,"survey":"mace","page":10,"trial_type":"survey-mace","trial_index":18,"time_elapsed":860979,"internal_node_id":"0.0-18.0","task_version":"prescreen-v0.3","browser_interactions":0,"instructed":0},{"rt":4149.400000095367,"trial_type":"mental-health-alert","trial_index":19,"time_elapsed":865131,"internal_node_id":"0.0-19.0","task_version":"prescreen-v0.3","interactions":"[{\"event\":\"blur\",\"trial\":7,\"time\":373725},{\"event\":\"focus\",\"trial\":7,\"time\":375771},{\"event\":\"blur\",\"trial\":10,\"time\":491060},{\"event\":\"focus\",\"trial\":10,\"time\":536628}]"}]