[{"view_history":[{"page_index":0,"viewing_time":3460.7000000476837},{"page_index":1,"viewing_time":4098.299999952316},{"page_index":2,"viewing_time":3515},{"page_index":3,"viewing_time":1292.1000001430511}],"rt":12369.400000095367,"trial_type":"instructions","trial_index":0,"time_elapsed":12406,"internal_node_id":"0.0-0.0","task_version":"prescreen-v0.3"},{"rt":12330.200000047684,"responses":{"age":"25","gender-categorical":"Female","gender-free-response":"","ethnicity":"Not Hispanic or Latino","race":["White"],"education":"Associate degree"},"trial_type":"survey-demo","trial_index":1,"time_elapsed":24753,"internal_node_id":"0.0-1.0","task_version":"prescreen-v0.3"},{"responses":{"Q19":"0","Q07":"0","Q14":"0","Q08":"1","Q13":"0","Q12":"1","Q04":"0","Q18":"0","Q10":"1","Q01":"1","Q17":"0","Q16":"0","Q09":"0","Q03":"0","Q20":"0","Q05":"3","Q02":"0","Q21":"3","Q06":"1","Q11":"0","Q15":"0"},"rt":113937.70000004768,"item_order":[18,6,13,7,12,11,3,17,9,0,16,15,8,2,19,4,1,20,5,10,14],"radio_events":[9805.399999856949,16884.89999985695,18885.799999952316,22823.89999985695,24625,29831,32589.39999985695,55968.799999952316,58765,61112.700000047684,63262.09999990463,65746.59999990463,69139.70000004768,73201.79999995232,76083.89999985695,80693.79999995232,82744.29999995232,87142.29999995232,88658.20000004768,90858.20000004768,95244.29999995232,97306.29999995232,102846.89999985695,109257.70000004768,111568.79999995232],"key_events":[],"mouse_events":[9805.399999856949,16884.89999985695,18885.799999952316,22823.89999985695,24625,29831,32589.39999985695,55968.799999952316,58765,61112.700000047684,63262.09999990463,65746.59999990463,69139.70000004768,73201.79999995232,76083.89999985695,80693.79999995232,82744.29999995232,87142.29999995232,88658.20000004768,90858.20000004768,95244.29999995232,97306.29999995232,102846.89999985695,109257.70000004768,111568.79999995232,113930.09999990463],"straightlining":0.6666666666666666,"zigzagging":0.5,"honeypot":0,"survey":"sns","trial_type":"survey-template","trial_index":2,"time_elapsed":138716,"internal_node_id":"0.0-2.0","task_version":"prescreen-v0.3","browser_interactions":0,"infrequency":0},{"responses":{"Q07":"2","Q02":"1","Q09":"3","Q06":"3","Q03":"2","Q04":"2","Q08":"3","Q10":"2","Q11":"3","Q13":"0","Q12":"1","Q01":"1","Q05":"3"},"rt":54235.199999809265,"item_order":[6,1,8,5,2,3,7,9,10,12,11,0,4],"radio_events":[5137.099999904633,8517.199999809265,12990.199999809265,15909.099999904633,19599.89999985695,24110.699999809265,27664,33753.5,36983.799999952316,41209.59999990463,47372.39999985695,49335.199999809265,52043.699999809265,53324],"key_events":[],"mouse_events":[5137.099999904633,8517.199999809265,12990.199999809265,15909.099999904633,19599.89999985695,24110.699999809265,27664,33753.5,36983.799999952316,41209.59999990463,47372.39999985695,49335.199999809265,52043.699999809265,53324,54231.699999809265],"straightlining":0.38461538461538464,"zigzagging":0.5833333333333334,"honeypot":0,"survey":"bisbas","trial_type":"survey-template","trial_index":3,"time_elapsed":192971,"internal_node_id":"0.0-3.0","task_version":"prescreen-v0.3","browser_interactions":0,"infrequency":0},{"responses":{"Q01":"4","Q02":"3","Q03":"4"},"rt":15237.600000143051,"radio_events":[5605.400000095367,10897.900000095367,13929.800000190735],"key_events":[],"mouse_events":[5605.400000095367,10897.900000095367,13929.800000190735,15235.900000095367],"survey":"map","page":1,"trial_type":"survey-map","trial_index":4,"time_elapsed":208226,"internal_node_id":"0.0-4.0","task_version":"prescreen-v0.3","browser_interactions":0},{"responses":{"Q04":"3","Q05":"3","Q06":"4"},"rt":17095,"radio_events":[5922.5,9973.700000047684,16198.099999904633],"key_events":[],"mouse_events":[5922.5,9973.700000047684,14769.900000095367,16198.099999904633,17093.5],"survey":"map","page":2,"trial_type":"survey-map","trial_index":5,"time_elapsed":225335,"internal_node_id":"0.0-5.0","task_version":"prescreen-v0.3","browser_interactions":0},{"responses":{"Q07":"4","Q08":"4","Q09":"3"},"rt":19964.200000047684,"radio_events":[6259.399999856949,12992.299999952316,18509.39999985695],"key_events":[],"mouse_events":[6259.399999856949,11166.899999856949,12992.299999952316,14757.700000047684,18509.39999985695,19962.700000047684],"survey":"map","page":3,"trial_type":"survey-map","trial_index":6,"time_elapsed":245313,"internal_node_id":"0.0-6.0","task_version":"prescreen-v0.3","browser_interactions":0},{"responses":{"Q10":"3","Q11":"4","Q12":"2","Q13":"3","Q16":"0","Q14":"4","Q15":"4"},"rt":35260.59999990463,"radio_events":[6593.399999856949,8905.200000047684,12818.099999904633,18260.599999904633,22794.89999985695,30387,34088.89999985695],"key_events":[],"mouse_events":[6593.399999856949,8905.200000047684,12818.099999904633,18260.599999904633,22794.89999985695,30387,34088.89999985695,35257.59999990463],"survey":"map","page":4,"trial_type":"survey-map","trial_index":7,"time_elapsed":280589,"internal_node_id":"0.0-7.0","task_version":"prescreen-v0.3","browser_interactions":0,"infrequency":0},{"view_history":[{"page_index":0,"viewing_time":1908.6999998092651},{"page_index":1,"viewing_time":1762.9000000953674}],"rt":3672.2999999523163,"trial_type":"instructions","trial_index":8,"time_elapsed":284273,"internal_node_id":"0.0-8.0","task_version":"prescreen-v0.3"},{"responses":{"01":"No","02":"No","03":"No","04":"No","05":"No","06":"No"},"rt":19469.60000014305,"item_order":[0,1,2,3,4,5],"radio_events":[7681.900000095367,9954.700000047684,12303.600000143051,13533.100000143051,15012.299999952316,18502.799999952316],"checkbox_events":[],"key_events":[],"mouse_events":[0.20000004768371582,7681.900000095367,9954.700000047684,12303.600000143051,13533.100000143051,15012.299999952316,17608.60000014305,18502.799999952316,19460.700000047684],"honeypot":0,"survey":"mace","page":1,"trial_type":"survey-mace","trial_index":9,"time_elapsed":303758,"internal_node_id":"0.0-9.0","task_version":"prescreen-v0.3","browser_interactions":0},{"responses":{"01":"No","02":"No","03":"Yes","03_ages_8":"8","03_ages_9":"9","03_ages_10":"10","03_ages_11":"11","03_ages_12":"12","03_ages_13":"13","04":"No","05":"No","06":"No","07":"No","08":"No"},"rt":30309.300000190735,"item_order":[0,1,2,3,4,5,6,7],"radio_events":[3137.600000143051,6504.400000095367,8082.200000047684,23773.800000190735,25798.800000190735,27277.5,28407.5,29377],"checkbox_events":[14406,15188.5,16145.400000095367,17064.200000047684,18046.200000047684,18878.800000190735],"key_events":[],"mouse_events":[3137.600000143051,6504.400000095367,8082.200000047684,14406,15188.5,16145.400000095367,17064.200000047684,18046.200000047684,18878.800000190735,23773.800000190735,25798.800000190735,27277.5,28407.5,29377,30297.700000047684],"honeypot":0,"survey":"mace","page":2,"trial_type":"survey-mace","trial_index":10,"time_elapsed":334089,"internal_node_id":"0.0-10.0","task_version":"prescreen-v0.3","browser_interactions":0},{"responses":{"01":"No","02":"No","03":"No","04":"No"},"rt":7861.299999952316,"item_order":[0,1,2,3],"radio_events":[3208.399999856949,4836,6004.099999904633,6973],"checkbox_events":[],"key_events":[],"mouse_events":[3208.399999856949,4836,6004.099999904633,6973,7855.399999856949],"honeypot":0,"survey":"mace","page":3,"trial_type":"survey-mace","trial_index":11,"time_elapsed":341969,"internal_node_id":"0.0-11.0","task_version":"prescreen-v0.3","browser_interactions":0},{"responses":{"01":"No","02":"No"},"rt":7932.200000047684,"item_order":[0,1],"radio_events":[2425.300000190735,6984.400000095367],"checkbox_events":[],"key_events":[],"mouse_events":[2425.300000190735,3344.300000190735,4960.200000047684,6984.400000095367,7929],"honeypot":0,"survey":"mace","page":4,"trial_type":"survey-mace","trial_index":12,"time_elapsed":349916,"internal_node_id":"0.0-12.0","task_version":"prescreen-v0.3","browser_interactions":0},{"responses":{"01":"No","02":"No","03":"No","04":"No","05":"No"},"rt":19631.400000095367,"item_order":[0,1,2,3,4],"radio_events":[6665.600000143051,8131.300000190735,11946.300000190735,13386.700000047684,17761.10000014305],"checkbox_events":[],"key_events":[],"mouse_events":[5511.100000143051,6665.600000143051,8131.300000190735,10604.700000047684,11946.300000190735,13386.700000047684,14455.800000190735,15337.700000047684,17761.10000014305,19623.900000095367],"honeypot":0,"survey":"mace","page":5,"trial_type":"survey-mace","trial_index":13,"time_elapsed":369565,"internal_node_id":"0.0-13.0","task_version":"prescreen-v0.3","browser_interactions":0},{"responses":{"01":"No","02":"Yes","02_ages_5":"5","02_ages_6":"6","02_ages_7":"7","02_ages_8":"8","02_ages_9":"9","02_ages_10":"10","02_ages_11":"11","02_ages_12":"12","02_ages_13":"13","02_ages_14":"14","02_ages_15":"15","02_ages_16":"16","02_ages_17":"17","03":"Yes","03_ages_14":"14","03_ages_15":"15","03_ages_16":"16","03_ages_17":"17","04":"Yes","04_ages_5":"5","04_ages_6":"6","04_ages_7":"7","04_ages_11":"11","04_ages_12":"12","04_ages_15":"15","04_ages_16":"16","04_ages_17":"17","04_ages_18":"18","05":"No"},"rt":63071.90000009537,"item_order":[0,1,2,3,4],"radio_events":[3302.800000190735,7278.100000143051,26286.300000190735,37641.800000190735,62193.60000014305],"checkbox_events":[10271.800000190735,11104.900000095367,12111.700000047684,13080.200000047684,14011.900000095367,15291.600000143051,16211,17056.5,18844.800000190735,19838.400000095367,20770.10000014305,21689.300000190735,22645.800000190735,28199.300000190735,29018.400000095367,29764.60000014305,30634.400000095367,41443.60000014305,43444.10000014305,45545,46450.60000014305,48638,50328.800000190735,51979.90000009537,52825.40000009537,53831.300000190735],"key_events":[],"mouse_events":[3302.800000190735,7278.100000143051,10271.800000190735,11104.900000095367,12111.700000047684,13080.200000047684,14011.900000095367,15291.600000143051,16211,17056.5,17987.700000047684,18844.800000190735,19838.400000095367,20770.10000014305,21689.300000190735,22645.800000190735,26286.300000190735,28199.300000190735,29018.400000095367,29764.60000014305,30634.400000095367,37641.800000190735,41443.60000014305,42822.5,43444.10000014305,44240.40000009537,45545,46450.60000014305,48638,50328.800000190735,51979.90000009537,52825.40000009537,53831.300000190735,55992.90000009537,59981.5,62193.60000014305,63064.5],"honeypot":0,"survey":"mace","page":6,"trial_type":"survey-mace","trial_index":14,"time_elapsed":432657,"internal_node_id":"0.0-14.0","task_version":"prescreen-v0.3","browser_interactions":0},{"responses":{"01":"No","02":"No","03":"No","04":"No","05":"No","06":"No","07":"No"},"rt":17809.89999985695,"item_order":[0,1,2,3,4,5,6],"radio_events":[5911.099999904633,8320.099999904633,9911.099999904633,11228.799999952316,12681.199999809265,14084.899999856949,16942.39999985695],"checkbox_events":[],"key_events":[],"mouse_events":[5911.099999904633,8320.099999904633,9911.099999904633,11228.799999952316,12681.199999809265,14084.899999856949,16942.39999985695,17799.799999952316],"honeypot":0,"survey":"mace","page":7,"trial_type":"survey-mace","trial_index":15,"time_elapsed":450487,"internal_node_id":"0.0-15.0","task_version":"prescreen-v0.3","browser_interactions":0},{"responses":{"01":"No","02":"No","03":"No","04":"No"},"rt":23967,"item_order":[0,1,2,3],"radio_events":[12567.799999952316,16928.099999904633,20332.5,23090.89999985695],"checkbox_events":[],"key_events":[],"mouse_events":[12567.799999952316,16928.099999904633,20332.5,23090.89999985695,23960.89999985695],"honeypot":0,"survey":"mace","page":8,"trial_type":"survey-mace","trial_index":16,"time_elapsed":474472,"internal_node_id":"0.0-16.0","task_version":"prescreen-v0.3","browser_interactions":0},{"responses":{"01":"Yes","01_ages_1":"1","01_ages_2":"2","01_ages_3":"3","01_ages_4":"4","01_ages_5":"5","01_ages_6":"6","01_ages_7":"7","01_ages_8":"8","01_ages_9":"9","01_ages_10":"10","01_ages_11":"11","01_ages_12":"12","01_ages_13":"13","01_ages_14":"14","01_ages_15":"15","01_ages_16":"16","01_ages_17":"17","01_ages_18":"18","02":"Yes","02_ages_1":"1","02_ages_2":"2","02_ages_3":"3","02_ages_4":"4","02_ages_5":"5","02_ages_6":"6","02_ages_7":"7","02_ages_8":"8","02_ages_9":"9","02_ages_10":"10","02_ages_11":"11","02_ages_12":"12","02_ages_13":"13","02_ages_14":"14","02_ages_15":"15","02_ages_16":"16","02_ages_17":"17","02_ages_18":"18","03":"Yes","03_ages_1":"1","03_ages_2":"2","03_ages_3":"3","03_ages_4":"4","03_ages_5":"5","03_ages_6":"6","03_ages_7":"7","03_ages_8":"8","03_ages_9":"9","03_ages_10":"10","03_ages_11":"11","03_ages_12":"12","03_ages_13":"13","03_ages_14":"14","03_ages_15":"15","03_ages_16":"16","03_ages_17":"17","03_ages_18":"18","04":"Yes","04_ages_1":"1","04_ages_2":"2","04_ages_3":"3","04_ages_4":"4","04_ages_5":"5","04_ages_6":"6","04_ages_7":"7","04_ages_8":"8","04_ages_9":"9","04_ages_10":"10","04_ages_11":"11","04_ages_12":"12","04_ages_13":"13","04_ages_14":"14","04_ages_15":"15","04_ages_16":"16","04_ages_17":"17","04_ages_18":"18"},"rt":110001.80000019073,"item_order":[0,1,2,3],"radio_events":[3568,26217.5,61887.700000047684,85792.70000004768],"checkbox_events":[7083.900000095367,8139.900000095367,9059.900000095367,9904.100000143051,10873.5,12140.5,13035.100000143051,13904.400000095367,14749.5,15556.700000047684,16389.60000014305,17172.400000095367,17955.400000095367,19856.60000014305,21731.200000047684,22850.200000047684,23832,24714.300000190735,28056.60000014305,28875.700000047684,29658.800000190735,30304.800000190735,31820.400000095367,32628.300000190735,33759.200000047684,34803.300000190735,35797.800000190735,52034.10000014305,52842.90000009537,53601.300000190735,54333.60000014305,55252.800000190735,56085.700000047684,56893.40000009537,57675.800000190735,58769.5,63490.300000190735,64223.300000190735,65043.90000009537,66919.60000014305,67703.20000004768,68672.20000004768,69417.10000014305,70174.30000019073,70945.30000019073,71790,72646.80000019073,74237.30000019073,75058.10000014305,75890.70000004768,76822.40000009537,77916.10000014305,78860.5,79742.70000004768,89233.70000004768,91072.70000004768,91979.5,93992.40000009537,94762.70000004768,96316.5,97235.60000014305,98217.10000014305,98478,99135.5,99906.30000019073,100725.70000004768,101507.90000009537,102291.40000009537,103048.60000014305,104042.60000014305,104937.90000009537,105807.90000009537,106677.20000004768,107597.10000014305],"key_events":[],"mouse_events":[3568,7083.900000095367,8139.900000095367,9059.900000095367,9904.100000143051,10873.5,12140.5,13035.100000143051,13904.400000095367,14749.5,15556.700000047684,16389.60000014305,17172.400000095367,17955.400000095367,18824.10000014305,19856.60000014305,20639.800000190735,21731.200000047684,22850.200000047684,23832,24714.300000190735,26217.5,28056.60000014305,28875.700000047684,29658.800000190735,30304.800000190735,31820.400000095367,32628.300000190735,33759.200000047684,34803.300000190735,35797.800000190735,52034.10000014305,52842.90000009537,53601.300000190735,54333.60000014305,55252.800000190735,56085.700000047684,56893.40000009537,57675.800000190735,58769.5,61887.700000047684,63490.300000190735,64223.300000190735,65043.90000009537,66919.60000014305,67703.20000004768,68672.20000004768,69417.10000014305,70174.30000019073,70945.30000019073,71790,72646.80000019073,73492.10000014305,74237.30000019073,75058.10000014305,75890.70000004768,76822.40000009537,77916.10000014305,78860.5,79742.70000004768,85792.70000004768,88786,89233.70000004768,90178.90000009537,91072.70000004768,91979.5,93073.20000004768,93992.40000009537,94762.70000004768,96316.5,97235.60000014305,98217.10000014305,98478,99135.5,99906.30000019073,100725.70000004768,101507.90000009537,102291.40000009537,103048.60000014305,104042.60000014305,104937.90000009537,105807.90000009537,106677.20000004768,107597.10000014305,109995.90000009537],"honeypot":0,"survey":"mace","page":9,"trial_type":"survey-mace","trial_index":17,"time_elapsed":584492,"internal_node_id":"0.0-17.0","task_version":"prescreen-v0.3","browser_interactions":0},{"responses":{"01":"No","02":"No","03":"No","04":"No","05":"No","06":"Yes","06_ages_17":"17","07":"Yes","07_ages_1":"1","07_ages_2":"2","07_ages_3":"3","07_ages_4":"4","07_ages_5":"5","07_ages_6":"6","07_ages_7":"7","07_ages_8":"8","07_ages_9":"9","07_ages_10":"10","07_ages_11":"11","07_ages_12":"12","07_ages_13":"13","07_ages_14":"14","07_ages_15":"15","07_ages_16":"16","07_ages_17":"17","07_ages_18":"18","08":"Yes","08_ages_1":"1","08_ages_2":"2","08_ages_3":"3","08_ages_4":"4","08_ages_5":"5","08_ages_6":"6","08_ages_7":"7","08_ages_8":"8","08_ages_9":"9","08_ages_10":"10","08_ages_11":"11","08_ages_12":"12","08_ages_13":"13","08_ages_14":"14","08_ages_15":"15","08_ages_16":"16","08_ages_17":"17","08_ages_18":"18"},"rt":70623.90000009537,"item_order":[0,1,2,3,4,5,6,7],"radio_events":[4730,5835.5,7711.099999904633,9737.700000047684,11960.200000047684,14159.5,21389.5,25079.299999952316,49665.799999952316],"checkbox_events":[17265.299999952316,27316.299999952316,28135.900000095367,28955.900000095367,29974,30781.799999952316,31601.5,33079.299999952316,34521.700000047684,35378.700000047684,36235,37775.5,38583.200000047684,39540.299999952316,40360,41217.59999990463,42870.200000047684,43652.90000009537,45044.59999990463,51155.59999990463,52099.299999952316,53032.90000009537,53939.40000009537,54784.700000047684,55579.5,56374.09999990463,57144.90000009537,57890,58647.5,59717.09999990463,59915.09999990463,60735.09999990463,61901.90000009537,62920.59999990463,63715.799999952316,64548.90000009537,65555.20000004768,66363.5,67605.09999990463],"key_events":[],"mouse_events":[3462.4000000953674,4730,5835.5,7711.099999904633,9737.700000047684,11960.200000047684,14159.5,17265.299999952316,21389.5,25079.299999952316,27316.299999952316,28135.900000095367,28955.900000095367,29974,30781.799999952316,31601.5,32334.700000047684,33079.299999952316,33838.799999952316,34521.700000047684,35378.700000047684,36235,37068.09999990463,37775.5,38583.200000047684,39540.299999952316,40360,41217.59999990463,42050.700000047684,42870.200000047684,43652.90000009537,45044.59999990463,49665.799999952316,51155.59999990463,52099.299999952316,53032.90000009537,53939.40000009537,54784.700000047684,55579.5,56374.09999990463,57144.90000009537,57890,58647.5,59717.09999990463,59915.09999990463,60735.09999990463,61901.90000009537,62920.59999990463,63715.799999952316,64548.90000009537,65555.20000004768,66363.5,67605.09999990463,70612.29999995232],"honeypot":0,"survey":"mace","page":10,"trial_type":"survey-mace","trial_index":18,"time_elapsed":655139,"internal_node_id":"0.0-18.0","task_version":"prescreen-v0.3","browser_interactions":0,"instructed":0},{"rt":5782.399999856949,"trial_type":"mental-health-alert","trial_index":19,"time_elapsed":660936,"internal_node_id":"0.0-19.0","task_version":"prescreen-v0.3","interactions":"[]"}]