[{"view_history":[{"page_index":0,"viewing_time":3125},{"page_index":1,"viewing_time":4897},{"page_index":2,"viewing_time":3635},{"page_index":3,"viewing_time":31522}],"rt":43179,"trial_type":"instructions","trial_index":0,"time_elapsed":43182,"internal_node_id":"0.0-0.0","task_version":"prescreen-v0.3"},{"rt":59824,"responses":{"age":"38","gender-categorical":"Male","gender-free-response":"","ethnicity":"Hispanic or Latino","race":["American Indian/Alaska Native"],"education":"Bachelor degree","siblings":"0"},"trial_type":"survey-demo","trial_index":1,"time_elapsed":103018,"internal_node_id":"0.0-1.0","task_version":"prescreen-v0.3"},{"responses":{"Q05":"1","Q10":"2","Q08":"2","Q15":"3","Q16":"1","Q06":"2","Q21":"3","Q12":"2","Q13":"3","Q18":"2","Q17":"2","Q07":"1","Q01":"1","Q02":"2","Q03":"2","Q09":"2","Q20":"1","Q11":"2","Q14":"2","Q04":"2","Q19":"2"},"rt":320122,"item_order":[4,9,7,14,15,5,20,11,12,17,16,6,0,1,2,8,19,10,13,3,18],"radio_events":[105962,111967,114245,119170,120594,126342,129791,133674,277058,278833,282303,284953,291010,293034,296343,300126,302029,305212,308127,311929,314290,318828],"key_events":[],"mouse_events":[105962,110789,111967,114245,119170,120594,125663,126342,129791,132891,133674,275473,276149,277058,278833,281657,282303,284953,291010,293034,296343,300126,302029,305212,308127,310979,311929,313526,314290,318236,318828,320122],"straightlining":0.6190476190476191,"zigzagging":0.55,"honeypot":0,"survey":"sns","trial_type":"survey-template","trial_index":2,"time_elapsed":423142,"internal_node_id":"0.0-2.0","task_version":"prescreen-v0.3","browser_interactions":0,"infrequency":0},{"responses":{"Q10":"1","Q02":"2","Q06":"2","Q05":"2","Q01":"3","Q08":"2","Q13":"0","Q07":"2","Q12":"1","Q09":"1","Q11":"1","Q03":"2","Q04":"3"},"rt":262483,"item_order":[9,1,5,4,0,7,12,6,11,8,10,2,3],"radio_events":[216016,217938,222313,227068,229502,235711,237197,241117,245953,247734,251137,255959,259993,261683],"key_events":[],"mouse_events":[215376,216016,217938,222313,226059,227068,229502,235711,237197,240146,241117,245953,247061,247734,251137,255959,259281,259993,261683,262483],"straightlining":0.46153846153846156,"zigzagging":0.5,"honeypot":0,"survey":"bisbas","trial_type":"survey-template","trial_index":3,"time_elapsed":685627,"internal_node_id":"0.0-3.0","task_version":"prescreen-v0.3","browser_interactions":0,"infrequency":0},{"responses":{"Q01":"1","Q02":"2","Q03":"1"},"rt":17676,"radio_events":[3534,7414,16462],"key_events":[],"mouse_events":[3534,7414,14753,15416,15682,15890,16462,17676],"survey":"map","page":1,"trial_type":"survey-map","trial_index":4,"time_elapsed":703307,"internal_node_id":"0.0-4.0","task_version":"prescreen-v0.3","browser_interactions":0},{"responses":{"Q04":"1","Q05":"1","Q06":"1"},"rt":117310,"radio_events":[110596,113810,116327],"key_events":[],"mouse_events":[110596,113810,116327,117310],"survey":"map","page":2,"trial_type":"survey-map","trial_index":5,"time_elapsed":820617,"internal_node_id":"0.0-5.0","task_version":"prescreen-v0.3","browser_interactions":0},{"responses":{"Q07":"1","Q08":"3","Q09":"1"},"rt":18309,"radio_events":[5505,12433,17211],"key_events":[],"mouse_events":[5505,12433,16341,17211,18309],"survey":"map","page":3,"trial_type":"survey-map","trial_index":6,"time_elapsed":838931,"internal_node_id":"0.0-6.0","task_version":"prescreen-v0.3","browser_interactions":0},{"responses":{"Q10":"1","Q11":"1","Q12":"2","Q13":"3","Q16":"0","Q14":"1","Q15":"1"},"rt":48887,"radio_events":[20181,22125,30192,35408,38487,45137,47864],"key_events":[],"mouse_events":[20181,22125,30192,34815,35408,38487,45137,47219,47864,48887],"survey":"map","page":4,"trial_type":"survey-map","trial_index":7,"time_elapsed":887824,"internal_node_id":"0.0-7.0","task_version":"prescreen-v0.3","browser_interactions":0,"infrequency":0},{"view_history":[{"page_index":0,"viewing_time":230283},{"page_index":1,"viewing_time":4865}],"rt":235148,"trial_type":"instructions","trial_index":8,"time_elapsed":1122969,"internal_node_id":"0.0-8.0","task_version":"prescreen-v0.3"},{"responses":{"01":"No","01_ages_13":"13","01_ages_14":"14","01_ages_15":"15","01_ages_16":"16","02":"Yes","02_ages_11":"11","02_ages_12":"12","02_ages_13":"13","02_ages_14":"14","02_ages_15":"15","02_ages_16":"16","03":"No","04":"No","05":"No","06":"No"},"rt":58088,"item_order":[0,1,2,3,4,5],"radio_events":[8436,22040,31623,32472,43850,51822,53965],"checkbox_events":[16452,17118,17935,18608,23493,24110,24757,25336,25944,26552],"key_events":[],"mouse_events":[0,8436,16452,17118,17935,18608,22040,23493,24110,24757,25336,25944,26552,28962,30866,31623,32472,43850,51822,53965,58087],"honeypot":0,"survey":"mace","page":1,"trial_type":"survey-mace","trial_index":9,"time_elapsed":1181071,"internal_node_id":"0.0-9.0","task_version":"prescreen-v0.3","browser_interactions":0},{"responses":{"01":"No","02":"No","03":"No","04":"No","05":"No","06":"No","07":"No","08":"No"},"rt":18308,"item_order":[0,1,2,3,4,5,6,7],"radio_events":[2868,5139,8091,10424,13014,14560,15366,17497],"checkbox_events":[],"key_events":[],"mouse_events":[2868,5139,8091,10424,13014,14560,15366,17497,18308],"honeypot":0,"survey":"mace","page":2,"trial_type":"survey-mace","trial_index":10,"time_elapsed":1199394,"internal_node_id":"0.0-10.0","task_version":"prescreen-v0.3","browser_interactions":0},{"responses":{"01":"No","02":"No","03":"No","04":"No"},"rt":7317,"item_order":[0,1,2,3],"radio_events":[2573,4183,5444,6619],"checkbox_events":[],"key_events":[],"mouse_events":[2573,4183,5444,6619,7317],"honeypot":0,"survey":"mace","page":3,"trial_type":"survey-mace","trial_index":11,"time_elapsed":1206726,"internal_node_id":"0.0-11.0","task_version":"prescreen-v0.3","browser_interactions":0},{"responses":{"01":"No","02":"No"},"rt":7022,"item_order":[0,1],"radio_events":[3815,5775],"checkbox_events":[],"key_events":[],"mouse_events":[3815,5033,5775,7022],"honeypot":0,"survey":"mace","page":4,"trial_type":"survey-mace","trial_index":12,"time_elapsed":1213764,"internal_node_id":"0.0-12.0","task_version":"prescreen-v0.3","browser_interactions":0},{"responses":{"01":"No","02":"No","03":"No","04":"No","05":"No"},"rt":85830,"item_order":[0,1,2,3,4],"radio_events":[73680,75624,79289,81509,82733],"checkbox_events":[],"key_events":[],"mouse_events":[72962,73680,75624,77979,79289,81509,82733,85830],"honeypot":0,"survey":"mace","page":5,"trial_type":"survey-mace","trial_index":13,"time_elapsed":1299610,"internal_node_id":"0.0-13.0","task_version":"prescreen-v0.3","browser_interactions":0},{"responses":{"01":"Yes","01_ages_14":"14","01_ages_15":"15","01_ages_16":"16","02":"Yes","02_ages_14":"14","02_ages_15":"15","02_ages_16":"16","03":"No","04":"No","05":"Yes","05_ages_14":"14","05_ages_15":"15","05_ages_16":"16"},"rt":32240,"item_order":[0,1,2,3,4],"radio_events":[6049,16133,22526,24375,28097],"checkbox_events":[8867,10144,10728,17760,18335,19188,29835,30493,31121],"key_events":[],"mouse_events":[6049,8867,9468,10144,10728,16133,17760,18335,19188,22526,24375,27136,28097,29835,30493,31121,32240],"honeypot":0,"survey":"mace","page":6,"trial_type":"survey-mace","trial_index":14,"time_elapsed":1331868,"internal_node_id":"0.0-14.0","task_version":"prescreen-v0.3","browser_interactions":0},{"responses":{"01":"No","02":"No","03":"Yes","03_ages_11":"11","03_ages_12":"12","03_ages_14":"14","03_ages_15":"15","03_ages_16":"16","04":"Yes","04_ages_14":"14","04_ages_15":"15","05":"Yes","05_ages_11":"11","06":"No","07":"No"},"rt":38508,"item_order":[0,1,2,3,4,5,6],"radio_events":[4811,7441,10044,21736,29592,36818,37505],"checkbox_events":[11482,12050,12643,13723,14253,22750,23311,34764],"key_events":[],"mouse_events":[4811,7441,10044,11482,12050,12643,13723,14253,21736,22750,23311,29592,34214,34764,36818,37505,38508],"honeypot":0,"survey":"mace","page":7,"trial_type":"survey-mace","trial_index":15,"time_elapsed":1370403,"internal_node_id":"0.0-15.0","task_version":"prescreen-v0.3","browser_interactions":0},{"responses":{"01":"No","02":"No","03":"No","04":"No"},"rt":199516,"item_order":[0,1,2,3],"radio_events":[189284,191038,194447,198239],"checkbox_events":[],"key_events":[],"mouse_events":[189284,191038,194447,198239,199516],"honeypot":0,"survey":"mace","page":8,"trial_type":"survey-mace","trial_index":16,"time_elapsed":1569932,"internal_node_id":"0.0-16.0","task_version":"prescreen-v0.3","browser_interactions":0},{"responses":{"01":"Yes","01_ages_3":"3","01_ages_4":"4","01_ages_5":"5","01_ages_6":"6","01_ages_7":"7","01_ages_8":"8","01_ages_9":"9","01_ages_10":"10","01_ages_17":"17","01_ages_18":"18","02":"No","03":"Yes","03_ages_1":"1","03_ages_2":"2","03_ages_3":"3","03_ages_4":"4","03_ages_5":"5","03_ages_6":"6","03_ages_7":"7","03_ages_8":"8","03_ages_9":"9","03_ages_10":"10","03_ages_11":"11","04":"Yes","04_ages_1":"1","04_ages_2":"2","04_ages_3":"3","04_ages_4":"4","04_ages_5":"5","04_ages_6":"6","04_ages_7":"7","04_ages_8":"8","04_ages_9":"9","04_ages_10":"10","04_ages_11":"11","04_ages_12":"12","04_ages_13":"13","04_ages_14":"14","04_ages_15":"15","04_ages_16":"16","04_ages_17":"17","04_ages_18":"18"},"rt":63288,"item_order":[0,1,2,3],"radio_events":[6631,29006,32208,46223],"checkbox_events":[18473,19163,20513,21542,22529,23145,23724,24756,26144,26947,33297,34401,35276,35856,37115,37738,38291,38851,39675,39987,40822,41850,42878,47781,48934,50192,50856,51518,52951,53632,54233,54868,55490,56137,57184,58091,58766,59541,60288,60938,61874],"key_events":[],"mouse_events":[6631,18473,19163,19769,20513,21542,22529,23145,23724,24756,26144,26947,29006,32208,33297,33858,34401,35276,35856,36434,37115,37738,38291,38851,39675,39987,40822,41850,42878,46223,47781,48317,48934,49546,50192,50856,51518,52951,53632,54233,54868,55490,56137,57184,58091,58766,59541,60288,60938,61874,63288],"honeypot":0,"survey":"mace","page":9,"trial_type":"survey-mace","trial_index":17,"time_elapsed":1633235,"internal_node_id":"0.0-17.0","task_version":"prescreen-v0.3","browser_interactions":0},{"responses":{"01":"No","02":"No","03":"No","04":"No","05":"No","06":"Yes","06_ages_17":"17","07":"Yes","07_ages_6":"6","07_ages_7":"7","07_ages_8":"8","07_ages_9":"9","07_ages_10":"10","07_ages_11":"11","07_ages_12":"12","08":"No"},"rt":39379,"item_order":[0,1,2,3,4,5,6,7],"radio_events":[2395,3592,10639,12417,14697,17461,25092,38541],"checkbox_events":[19947,30945,31552,32459,33137,34193,35194,36216],"key_events":[],"mouse_events":[2395,3592,10639,12417,14697,17461,19947,25092,30945,31552,32459,33137,34193,35194,36216,38541,39379],"honeypot":0,"survey":"mace","page":10,"trial_type":"survey-mace","trial_index":18,"time_elapsed":1672637,"internal_node_id":"0.0-18.0","task_version":"prescreen-v0.3","browser_interactions":0,"instructed":0},{"rt":7122,"trial_type":"mental-health-alert","trial_index":19,"time_elapsed":1679763,"internal_node_id":"0.0-19.0","task_version":"prescreen-v0.3","interactions":"[{\"event\":\"focus\",\"trial\":0,\"time\":1}]"}]