[{"view_history":[{"page_index":0,"viewing_time":3017},{"page_index":1,"viewing_time":3311.7000000476837},{"page_index":2,"viewing_time":4928},{"page_index":3,"viewing_time":1240.1000001430511}],"rt":12497.5,"trial_type":"instructions","trial_index":0,"time_elapsed":12515,"internal_node_id":"0.0-0.0","task_version":"prescreen-v0.3"},{"rt":18692.299999952316,"responses":{"age":"18","gender-categorical":"Female","gender-free-response":"","ethnicity":"Hispanic or Latino","race":["White"],"education":"Some college"},"trial_type":"survey-demo","trial_index":1,"time_elapsed":31211,"internal_node_id":"0.0-1.0","task_version":"prescreen-v0.3"},{"responses":{"Q09":"1","Q03":"1","Q14":"2","Q06":"1","Q13":"0","Q21":"3","Q16":"2","Q15":"2","Q20":"1","Q19":"1","Q07":"1","Q08":"1","Q05":"0","Q12":"1","Q02":"0","Q10":"1","Q18":"1","Q17":"1","Q04":"2","Q01":"2","Q11":"1"},"rt":93997.79999995232,"item_order":[8,2,13,5,12,20,15,14,19,18,6,7,4,11,1,9,17,16,3,0,10],"radio_events":[9092.5,12004.099999904633,17732.099999904633,21092.099999904633,26140.200000047684,31788.099999904633,35228.200000047684,43548.200000047684,45564,50332.200000047684,59652,61580,66260,69676.09999990463,73324.40000009537,77404,80580,83388,87932,90596,92099.90000009537],"key_events":[],"mouse_events":[9092.5,12004.099999904633,17732.099999904633,21092.099999904633,26140.200000047684,31788.099999904633,35228.200000047684,43548.200000047684,45564,50332.200000047684,57292.200000047684,59652,61580,66260,69676.09999990463,73324.40000009537,77404,80580,83388,87932,90596,92099.90000009537,93996],"straightlining":0.5714285714285714,"zigzagging":0.6,"honeypot":0,"survey":"sns","trial_type":"survey-template","trial_index":2,"time_elapsed":125214,"internal_node_id":"0.0-2.0","task_version":"prescreen-v0.3","browser_interactions":0,"infrequency":0},{"responses":{"Q07":"3","Q01":"2","Q11":"2","Q09":"2","Q04":"3","Q13":"0","Q10":"2","Q03":"3","Q02":"2","Q05":"3","Q12":"2","Q08":"2","Q06":"3"},"rt":50747.5,"item_order":[6,0,10,8,3,12,9,2,1,4,11,7,5],"radio_events":[5946.699999809265,7522.599999904633,13706.699999809265,16810.599999904633,21154.699999809265,23354.5,26674.599999904633,35098.59999990463,36378.5,38994.59999990463,43090.5,48154.5,49994.5],"key_events":[],"mouse_events":[5946.699999809265,7522.599999904633,13706.699999809265,16810.599999904633,21154.699999809265,23354.5,26674.599999904633,35098.59999990463,36378.5,38994.59999990463,43090.5,48154.5,49994.5,50746.59999990463],"straightlining":0.5384615384615384,"zigzagging":0.6666666666666666,"honeypot":0,"survey":"bisbas","trial_type":"survey-template","trial_index":3,"time_elapsed":175963,"internal_node_id":"0.0-3.0","task_version":"prescreen-v0.3","browser_interactions":0,"infrequency":0},{"responses":{"Q01":"3","Q02":"2","Q03":"4"},"rt":13540.900000095367,"radio_events":[5588.5,9860.400000095367,12732.200000047684],"key_events":[],"mouse_events":[5588.5,9860.400000095367,12732.200000047684,13540.200000047684],"survey":"map","page":1,"trial_type":"survey-map","trial_index":4,"time_elapsed":189507,"internal_node_id":"0.0-4.0","task_version":"prescreen-v0.3","browser_interactions":0},{"responses":{"Q04":"2","Q05":"3","Q06":"4"},"rt":22790.10000014305,"radio_events":[7981.800000190735,17885.800000190735,21893.60000014305],"key_events":[],"mouse_events":[7981.800000190735,17885.800000190735,21293.700000047684,21893.60000014305,22789.700000047684],"survey":"map","page":2,"trial_type":"survey-map","trial_index":5,"time_elapsed":212299,"internal_node_id":"0.0-5.0","task_version":"prescreen-v0.3","browser_interactions":0},{"responses":{"Q07":"4","Q08":"1","Q09":"2"},"rt":18086.60000014305,"radio_events":[7542,12933.900000095367,16638.10000014305],"key_events":[],"mouse_events":[7542,12933.900000095367,16638.10000014305,18086],"survey":"map","page":3,"trial_type":"survey-map","trial_index":6,"time_elapsed":230387,"internal_node_id":"0.0-6.0","task_version":"prescreen-v0.3","browser_interactions":0},{"responses":{"Q10":"2","Q11":"1","Q12":"3","Q13":"2","Q16":"0","Q14":"1","Q15":"1"},"rt":50526.09999990463,"radio_events":[26781.299999952316,29493.299999952316,33189.299999952316,38781.200000047684,42973.299999952316,46693.299999952316,49637],"key_events":[],"mouse_events":[26781.299999952316,29493.299999952316,33189.299999952316,38781.200000047684,42973.299999952316,46693.299999952316,49637,50525.299999952316],"survey":"map","page":4,"trial_type":"survey-map","trial_index":7,"time_elapsed":280915,"internal_node_id":"0.0-7.0","task_version":"prescreen-v0.3","browser_interactions":0,"infrequency":0},{"view_history":[{"page_index":0,"viewing_time":3197.399999856949},{"page_index":1,"viewing_time":5312.100000143051}],"rt":8509.799999952316,"trial_type":"instructions","trial_index":8,"time_elapsed":289426,"internal_node_id":"0.0-8.0","task_version":"prescreen-v0.3"},{"responses":{"01":"No","02":"No","03":"No","04":"No","05":"No","06":"No"},"rt":23038.800000190735,"item_order":[0,1,2,3,4,5],"radio_events":[11525.100000143051,16148.800000190735,16916.800000190735,18292.700000047684,19284.800000190735,21972.60000014305],"checkbox_events":[],"key_events":[],"mouse_events":[0,11525.100000143051,16148.800000190735,16916.800000190735,18292.700000047684,19284.800000190735,21972.60000014305,23036.900000095367],"honeypot":0,"survey":"mace","page":1,"trial_type":"survey-mace","trial_index":9,"time_elapsed":312469,"internal_node_id":"0.0-9.0","task_version":"prescreen-v0.3","browser_interactions":0},{"responses":{"01":"No","02":"No","03":"Yes","03_ages_6":"6","03_ages_7":"7","04":"No","05":"Yes","05_ages_6":"6","05_ages_7":"7","06":"No","07":"No","08":"No"},"rt":32124.60000014305,"item_order":[0,1,2,3,4,5,6,7],"radio_events":[2401.9000000953674,3714,8553.799999952316,20082.299999952316,23601.799999952316,28602.200000047684,29682.10000014305,31553.900000095367],"checkbox_events":[13906.200000047684,16545.900000095367,17074,18370,25586,26545.900000095367],"key_events":[],"mouse_events":[2401.9000000953674,3714,8553.799999952316,13906.200000047684,16545.900000095367,17074,18370,20082.299999952316,23601.799999952316,25586,26545.900000095367,28602.200000047684,29682.10000014305,31553.900000095367,32122.10000014305],"honeypot":0,"survey":"mace","page":2,"trial_type":"survey-mace","trial_index":10,"time_elapsed":344597,"internal_node_id":"0.0-10.0","task_version":"prescreen-v0.3","browser_interactions":0},{"responses":{"01":"No","02":"No","03":"No","04":"No"},"rt":21259.700000047684,"item_order":[0,1,2,3],"radio_events":[13482.400000095367,17834.400000095367,19698.299999952316,20210.400000095367],"checkbox_events":[],"key_events":[],"mouse_events":[13482.400000095367,17834.400000095367,19698.299999952316,20210.400000095367,21258.299999952316],"honeypot":0,"survey":"mace","page":3,"trial_type":"survey-mace","trial_index":11,"time_elapsed":365859,"internal_node_id":"0.0-11.0","task_version":"prescreen-v0.3","browser_interactions":0},{"responses":{"01":"No","02":"No"},"rt":4285.5,"item_order":[0,1],"radio_events":[2212.7999999523163,3756.7000000476837],"checkbox_events":[],"key_events":[],"mouse_events":[2212.7999999523163,3756.7000000476837,4284.700000047684],"honeypot":0,"survey":"mace","page":4,"trial_type":"survey-mace","trial_index":12,"time_elapsed":370146,"internal_node_id":"0.0-12.0","task_version":"prescreen-v0.3","browser_interactions":0},{"responses":{"01":"No","02":"No","03":"No","04":"No","05":"No"},"rt":14975,"item_order":[0,1,2,3,4],"radio_events":[5853.299999952316,7821.299999952316,10621.299999952316,11733.299999952316,14117.299999952316],"checkbox_events":[],"key_events":[],"mouse_events":[5853.299999952316,7821.299999952316,10621.299999952316,11733.299999952316,14117.299999952316,14973.400000095367],"honeypot":0,"survey":"mace","page":5,"trial_type":"survey-mace","trial_index":13,"time_elapsed":385125,"internal_node_id":"0.0-13.0","task_version":"prescreen-v0.3","browser_interactions":0},{"responses":{"01":"No","02":"No","03":"Yes","03_ages_12":"12","03_ages_14":"14","03_ages_16":"16","04":"Yes","04_ages_11":"11","04_ages_12":"12","04_ages_13":"13","05":"No"},"rt":123829.40000009537,"item_order":[0,1,2,3,4],"radio_events":[86691.59999990463,91331.40000009537,93315.40000009537,97100.09999990463,102692.29999995232,103883.40000009537],"checkbox_events":[110211.5,110683.40000009537,111627.40000009537,113379.5,115723.40000009537,116339.40000009537,118731.29999995232,122211.59999990463],"key_events":[],"mouse_events":[86691.59999990463,91331.40000009537,93315.40000009537,97100.09999990463,102692.29999995232,103883.40000009537,110211.5,110683.40000009537,111627.40000009537,113379.5,115723.40000009537,116339.40000009537,118731.29999995232,122211.59999990463,123827.59999990463],"honeypot":0,"survey":"mace","page":6,"trial_type":"survey-mace","trial_index":14,"time_elapsed":508957,"internal_node_id":"0.0-14.0","task_version":"prescreen-v0.3","browser_interactions":0},{"responses":{"01":"No","02":"No","03":"No","04":"No","05":"No","06":"No","07":"No"},"rt":13789.099999904633,"item_order":[0,1,2,3,4,5,6],"radio_events":[3859.2999999523163,5466.599999904633,6698.599999904633,8026.700000047684,11258.599999904633,12290.700000047684,13250.700000047684],"checkbox_events":[],"key_events":[],"mouse_events":[3859.2999999523163,5466.599999904633,6698.599999904633,8026.700000047684,11258.599999904633,12290.700000047684,13250.700000047684,13786.799999952316],"honeypot":0,"survey":"mace","page":7,"trial_type":"survey-mace","trial_index":15,"time_elapsed":522749,"internal_node_id":"0.0-15.0","task_version":"prescreen-v0.3","browser_interactions":0},{"responses":{"01":"No","02":"No","03":"No","04":"No"},"rt":18836.200000047684,"item_order":[0,1,2,3],"radio_events":[11802.5,15122.599999904633,16778.700000047684,18282.700000047684],"checkbox_events":[],"key_events":[],"mouse_events":[11802.5,12722.700000047684,15122.599999904633,16778.700000047684,18282.700000047684,18834.599999904633],"honeypot":0,"survey":"mace","page":8,"trial_type":"survey-mace","trial_index":16,"time_elapsed":541588,"internal_node_id":"0.0-16.0","task_version":"prescreen-v0.3","browser_interactions":0},{"responses":{"01":"Yes","01_ages_1":"1","01_ages_2":"2","01_ages_3":"3","01_ages_4":"4","01_ages_5":"5","01_ages_6":"6","01_ages_7":"7","01_ages_8":"8","01_ages_9":"9","01_ages_10":"10","01_ages_11":"11","01_ages_12":"12","01_ages_13":"13","01_ages_14":"14","01_ages_15":"15","01_ages_16":"16","01_ages_17":"17","01_ages_18":"18","02":"Yes","02_ages_1":"1","02_ages_2":"2","02_ages_3":"3","02_ages_4":"4","02_ages_5":"5","02_ages_6":"6","02_ages_7":"7","02_ages_8":"8","02_ages_9":"9","02_ages_10":"10","02_ages_11":"11","02_ages_12":"12","02_ages_13":"13","02_ages_14":"14","02_ages_15":"15","02_ages_16":"16","02_ages_17":"17","02_ages_18":"18","03":"Yes","03_ages_1":"1","03_ages_2":"2","03_ages_3":"3","03_ages_4":"4","03_ages_5":"5","03_ages_6":"6","03_ages_7":"7","03_ages_8":"8","03_ages_9":"9","03_ages_10":"10","03_ages_11":"11","03_ages_12":"12","03_ages_13":"13","03_ages_14":"14","03_ages_15":"15","03_ages_16":"16","03_ages_17":"17","03_ages_18":"18","04":"Yes","04_ages_1":"1","04_ages_2":"2","04_ages_3":"3","04_ages_4":"4","04_ages_5":"5","04_ages_6":"6","04_ages_7":"7","04_ages_8":"8","04_ages_9":"9","04_ages_10":"10","04_ages_11":"11","04_ages_12":"12","04_ages_13":"13","04_ages_14":"14","04_ages_15":"15","04_ages_16":"16","04_ages_17":"17","04_ages_18":"18"},"rt":69917.09999990463,"item_order":[0,1,2,3],"radio_events":[3523.5,22907.5,27683.39999985695,28779.599999904633],"checkbox_events":[7891.599999904633,8571.700000047684,9099.599999904633,9747.700000047684,10499.5,10923.599999904633,11491.599999904633,12019.399999856949,12539.700000047684,13051.5,13915.599999904633,16531.599999904633,17339.5,17739.599999904633,18179.5,18891.5,19571.5,20171.599999904633,24323.599999904633,30131.599999904633,30507.5,32371.5,33635.5,34419.5,34931.5,35467.5,36107.5,36779.5,37427.59999990463,37955.39999985695,38483.5,39043.5,39619.5,40171.5,40700,41636.200000047684,42331.39999985695,43731.5,44443.5,44963.799999952316,45675.5,46147.799999952316,46939.5,48491.59999990463,49027.5,49891.5,51235.5,52571.5,53091.5,53587.5,54395.5,54883.5,55635.39999985695,56435.39999985695,57595.5,58259.5,58747.5,59299.39999985695,59947.59999990463,60715.5,61355.39999985695,61955.5,62539.5,63011.39999985695,63979.39999985695,64739.39999985695,65427.89999985695,65931.5,66675.29999995232,67531.5,68467.39999985695,69163.29999995232],"key_events":[],"mouse_events":[3523.5,7891.599999904633,8571.700000047684,9099.599999904633,9747.700000047684,10499.5,10923.599999904633,11491.599999904633,12019.399999856949,12539.700000047684,13051.5,13915.599999904633,16531.599999904633,17339.5,17739.599999904633,18179.5,18891.5,19571.5,20171.599999904633,22907.5,24323.599999904633,27683.39999985695,28779.599999904633,30131.599999904633,30507.5,30900,31723.89999985695,32371.5,33195.5,33635.5,34419.5,34931.5,35467.5,36107.5,36779.5,37427.59999990463,37955.39999985695,38483.5,39043.5,39619.5,40171.5,40700,41636.200000047684,42331.39999985695,43731.5,44443.5,44963.799999952316,45675.5,46147.799999952316,46939.5,47619.39999985695,48491.59999990463,49027.5,49891.5,51235.5,52011.799999952316,52571.5,53091.5,53587.5,54395.5,54883.5,55635.39999985695,56435.39999985695,57595.5,58259.5,58747.5,59299.39999985695,59947.59999990463,60715.5,61355.39999985695,61955.5,62539.5,63011.39999985695,63483.299999952316,63979.39999985695,64739.39999985695,65427.89999985695,65931.5,66675.29999995232,67531.5,68467.39999985695,69163.29999995232,69915.70000004768],"honeypot":0,"survey":"mace","page":9,"trial_type":"survey-mace","trial_index":17,"time_elapsed":611507,"internal_node_id":"0.0-17.0","task_version":"prescreen-v0.3","browser_interactions":0},{"responses":{"01":"No","02":"No","03":"Yes","03_ages_15":"15","03_ages_16":"16","03_ages_17":"17","03_ages_18":"18","04":"No","05":"No","06":"Yes","06_ages_17":"17","07":"Yes","07_ages_1":"1","07_ages_2":"2","07_ages_3":"3","07_ages_4":"4","07_ages_5":"5","07_ages_6":"6","07_ages_7":"7","07_ages_8":"8","07_ages_9":"9","07_ages_10":"10","07_ages_11":"11","07_ages_12":"12","07_ages_13":"13","07_ages_14":"14","07_ages_15":"15","07_ages_16":"16","07_ages_17":"17","07_ages_18":"18","08":"Yes","08_ages_14":"14","08_ages_15":"15","08_ages_16":"16","08_ages_17":"17","08_ages_18":"18"},"rt":46949.700000047684,"item_order":[0,1,2,3,4,5,6,7],"radio_events":[4243.100000143051,5051.100000143051,7827.100000143051,16651.10000014305,18275,20627.10000014305,26387.200000047684,30242.900000095367],"checkbox_events":[9818.900000095367,10555,10987.100000143051,11483.100000143051,22139,32578.900000095367,33235,34034.800000190735,34571,35563,37211,37731,38194.90000009537,38690.90000009537,39227.10000014305,39731,40346.90000009537,40779,41563,42147,42619,43091.700000047684,43594.90000009537,44074.90000009537,44530.90000009537,44971.60000014305,45627.10000014305,46170.90000009537],"key_events":[],"mouse_events":[4243.100000143051,5051.100000143051,7827.100000143051,9818.900000095367,10555,10987.100000143051,11483.100000143051,16651.10000014305,18275,20627.10000014305,22139,26387.200000047684,30242.900000095367,32578.900000095367,33235,34034.800000190735,34571,35563,37211,37731,38194.90000009537,38690.90000009537,39227.10000014305,39731,40346.90000009537,40779,41563,42147,42619,43091.700000047684,43594.90000009537,44074.90000009537,44530.90000009537,44971.60000014305,45627.10000014305,46170.90000009537,46947.200000047684],"honeypot":0,"survey":"mace","page":10,"trial_type":"survey-mace","trial_index":18,"time_elapsed":658461,"internal_node_id":"0.0-18.0","task_version":"prescreen-v0.3","browser_interactions":0,"instructed":0},{"rt":10898.699999809265,"trial_type":"mental-health-alert","trial_index":19,"time_elapsed":669361,"internal_node_id":"0.0-19.0","task_version":"prescreen-v0.3","interactions":"[]"}]