[{"view_history":[{"page_index":0,"viewing_time":5799.400000035763},{"page_index":1,"viewing_time":6585},{"page_index":2,"viewing_time":5135.699999988079},{"page_index":3,"viewing_time":1737.0999999642372}],"rt":19257.69999998808,"trial_type":"instructions","trial_index":0,"time_elapsed":19261,"internal_node_id":"0.0-0.0","task_version":"prescreen-v0.3"},{"rt":15238,"responses":{"age":"38","gender-categorical":"Male","gender-free-response":"","ethnicity":"Hispanic or Latino","race":["White"],"education":"Associate degree","siblings":"4"},"trial_type":"survey-demo","trial_index":1,"time_elapsed":34502,"internal_node_id":"0.0-1.0","task_version":"prescreen-v0.3"},{"responses":{"Q18":"2","Q12":"2","Q21":"3","Q11":"1","Q08":"1","Q06":"1","Q19":"1","Q09":"2","Q02":"1","Q03":"2","Q01":"2","Q16":"2","Q07":"1","Q14":"2","Q10":"1","Q04":"2","Q13":"2","Q05":"1","Q15":"2","Q20":"2","Q17":"1"},"rt":136240.39999997616,"item_order":[17,11,20,10,7,5,18,8,1,2,0,15,6,13,9,3,12,4,14,19,16],"radio_events":[20250.19999998808,21473.19999998808,25385.19999998808,30506,35183.10000002384,50746.80000001192,54271.89999997616,60603.89999997616,64572.60000002384,67244.5,72060.30000001192,77156.39999997616,86465.5,91981,102411,103463.30000001192,110302.69999998808,117082.69999998808,122070.60000002384,129870.5,134827.19999998808],"key_events":[],"mouse_events":[20250.19999998808,21473.19999998808,25385.19999998808,30506,35183.10000002384,41122.80000001192,48886.69999998808,50246.69999998808,50746.80000001192,54271.89999997616,60603.89999997616,64572.60000002384,67244.5,72060.30000001192,77156.39999997616,86465.5,91981,97562.10000002384,102411,103463.30000001192,108142.89999997616,110302.69999998808,117082.69999998808,122070.60000002384,123358.60000002384,129870.5,134827.19999998808,136239.5],"straightlining":0.5238095238095238,"zigzagging":0.55,"honeypot":0,"survey":"sns","trial_type":"survey-template","trial_index":2,"time_elapsed":170747,"internal_node_id":"0.0-2.0","task_version":"prescreen-v0.3","browser_interactions":0,"infrequency":0},{"responses":{"Q04":"2","Q13":"0","Q03":"2","Q09":"1","Q12":"1","Q10":"1","Q01":"2","Q07":"2","Q02":"2","Q08":"2","Q11":"2","Q05":"2","Q06":"2"},"rt":118601,"item_order":[3,12,2,8,11,9,0,6,1,7,10,4,5],"radio_events":[54756.80000001192,59536.89999997616,75798.30000001192,79036.30000001192,83812.09999996424,85905,88469.09999996424,91272.89999997616,94307,99503.89999997616,105171.69999998808,111819.59999996424,117363.59999996424],"key_events":[],"mouse_events":[54756.80000001192,59536.89999997616,66077.39999997616,75798.30000001192,79036.30000001192,83812.09999996424,85905,88469.09999996424,91272.89999997616,94307,99503.89999997616,105171.69999998808,111819.59999996424,117363.59999996424,118600.5],"straightlining":0.6923076923076923,"zigzagging":0.16666666666666666,"honeypot":0,"survey":"bisbas","trial_type":"survey-template","trial_index":3,"time_elapsed":289352,"internal_node_id":"0.0-3.0","task_version":"prescreen-v0.3","browser_interactions":4,"infrequency":0},{"responses":{"Q01":"2","Q02":"2","Q03":"2"},"rt":21649.5,"radio_events":[9241.5,13753.300000011921,20117.19999998808],"key_events":[],"mouse_events":[9241.5,13753.300000011921,20117.19999998808,21649.19999998808],"survey":"map","page":1,"trial_type":"survey-map","trial_index":4,"time_elapsed":311005,"internal_node_id":"0.0-4.0","task_version":"prescreen-v0.3","browser_interactions":0},{"responses":{"Q04":"3","Q05":"3","Q06":"3"},"rt":21356.400000035763,"radio_events":[1804.6000000238419,2592.5,3488.400000035763,8720.600000023842,15792.400000035763,20668.30000001192],"key_events":[],"mouse_events":[1804.6000000238419,2592.5,3488.400000035763,8720.600000023842,15792.400000035763,20020.5,20668.30000001192,21356.100000023842],"survey":"map","page":2,"trial_type":"survey-map","trial_index":5,"time_elapsed":332365,"internal_node_id":"0.0-5.0","task_version":"prescreen-v0.3","browser_interactions":0},{"responses":{"Q07":"3","Q08":"2","Q09":"2"},"rt":35041,"radio_events":[11208.800000011921,29460.5,33516.5],"key_events":[],"mouse_events":[11208.800000011921,29460.5,32736.399999976158,33516.5,35040.69999998808],"survey":"map","page":3,"trial_type":"survey-map","trial_index":6,"time_elapsed":367408,"internal_node_id":"0.0-6.0","task_version":"prescreen-v0.3","browser_interactions":0},{"responses":{"Q10":"1","Q11":"1","Q12":"2","Q13":"1","Q16":"0","Q14":"2","Q15":"2"},"rt":48875.39999997616,"radio_events":[8459.199999988079,12311.399999976158,19879.19999998808,31482.799999952316,36474.799999952316,42774.59999996424,47226.69999998808],"key_events":[],"mouse_events":[8459.199999988079,12311.399999976158,14607.399999976158,19879.19999998808,31482.799999952316,36474.799999952316,42774.59999996424,47226.69999998808,48874.799999952316],"survey":"map","page":4,"trial_type":"survey-map","trial_index":7,"time_elapsed":416287,"internal_node_id":"0.0-7.0","task_version":"prescreen-v0.3","browser_interactions":0,"infrequency":0},{"view_history":[{"page_index":0,"viewing_time":4352.400000035763},{"page_index":1,"viewing_time":7783.799999952316}],"rt":12136.699999988079,"trial_type":"instructions","trial_index":8,"time_elapsed":428426,"internal_node_id":"0.0-8.0","task_version":"prescreen-v0.3"},{"responses":{"01":"Yes","01_ages_10":"10","01_ages_11":"11","01_ages_12":"12","01_ages_13":"13","01_ages_14":"14","01_ages_15":"15","01_ages_16":"16","01_ages_17":"17","01_ages_18":"18","02":"Yes","02_ages_12":"12","02_ages_13":"13","02_ages_14":"14","02_ages_15":"15","02_ages_16":"16","02_ages_17":"17","02_ages_18":"18","03":"Yes","03_ages_15":"15","03_ages_16":"16","03_ages_17":"17","03_ages_18":"18","04":"No","05":"No","06":"Yes","06_ages_5":"5","06_ages_6":"6","06_ages_7":"7","06_ages_8":"8","06_ages_9":"9","06_ages_10":"10","06_ages_11":"11"},"rt":100890.69999998808,"item_order":[0,1,2,3,4,5],"radio_events":[9853.800000011921,49219.80000001192,61551.80000001192,72456.59999996424,74544.69999998808,86753.39999997616],"checkbox_events":[18925.80000001192,19915.599999964237,20715.5,22395.5,23115.5,24319.599999964237,32403.30000001192,33383.39999997616,34303.30000001192,35075.30000001192,35691.30000001192,36303.19999998808,37147.09999996424,38203.09999996424,40471.09999996424,51646.89999997616,52206.89999997616,52702.80000001192,53231,53770.89999997616,54222.89999997616,56082.69999998808,64091.89999997616,64835.69999998808,65499.80000001192,65999.80000001192,92313.30000001192,93337.39999997616,93977.30000001192,95681.30000001192,96557,97101.19999998808,98089.09999996424],"key_events":[],"mouse_events":[0,9853.800000011921,18925.80000001192,19471.399999976158,19915.599999964237,20715.5,22395.5,23115.5,24319.599999964237,32403.30000001192,33383.39999997616,34303.30000001192,35075.30000001192,35691.30000001192,36303.19999998808,37147.09999996424,38203.09999996424,40471.09999996424,49219.80000001192,51646.89999997616,52206.89999997616,52702.80000001192,53231,53770.89999997616,54222.89999997616,56082.69999998808,61551.80000001192,64091.89999997616,64835.69999998808,65499.80000001192,65999.80000001192,72456.59999996424,74544.69999998808,86753.39999997616,92313.30000001192,93337.39999997616,93977.30000001192,94545.39999997616,95681.30000001192,96557,97101.19999998808,98089.09999996424,100889.5],"honeypot":0,"survey":"mace","page":1,"trial_type":"survey-mace","trial_index":9,"time_elapsed":529320,"internal_node_id":"0.0-9.0","task_version":"prescreen-v0.3","browser_interactions":0},{"responses":{"01":"Yes","01_ages_5":"5","01_ages_6":"6","01_ages_7":"7","01_ages_8":"8","01_ages_9":"9","01_ages_10":"10","01_ages_11":"11","02":"No","03":"Yes","03_ages_5":"5","03_ages_6":"6","03_ages_7":"7","03_ages_8":"8","03_ages_9":"9","03_ages_10":"10","03_ages_11":"11","04":"No","05":"Yes","05_ages_5":"5","05_ages_6":"6","05_ages_7":"7","05_ages_8":"8","05_ages_9":"9","05_ages_10":"10","05_ages_11":"11","06":"No","07":"No","08":"No"},"rt":58263.5,"item_order":[0,1,2,3,4,5,6,7],"radio_events":[3998.2999999523163,20478.19999998808,22594.099999964237,36921.59999996424,39969.69999998808,49545.59999996424,51961.39999997616,56701.39999997616],"checkbox_events":[6102.399999976158,7010.199999988079,7554.199999988079,8574,9258.199999988079,11598.099999964237,12090.199999988079,23981.899999976158,25217.899999976158,25729.799999952316,26606.19999998808,27249.799999952316,28081.899999976158,29689.69999998808,41121.5,41693.69999998808,42273.5,43097.799999952316,43581.69999998808,44173.69999998808,45621.59999996424],"key_events":[],"mouse_events":[3998.2999999523163,6102.399999976158,7010.199999988079,7554.199999988079,8574,9258.199999988079,11598.099999964237,12090.199999988079,20478.19999998808,22594.099999964237,23981.899999976158,24645.899999976158,25217.899999976158,25729.799999952316,26606.19999998808,27249.799999952316,28081.899999976158,29689.69999998808,36921.59999996424,39969.69999998808,41121.5,41693.69999998808,42273.5,43097.799999952316,43581.69999998808,44173.69999998808,45621.59999996424,49545.59999996424,51961.39999997616,56701.39999997616,58261.69999998808],"honeypot":0,"survey":"mace","page":2,"trial_type":"survey-mace","trial_index":10,"time_elapsed":587588,"internal_node_id":"0.0-10.0","task_version":"prescreen-v0.3","browser_interactions":0},{"responses":{"01":"Yes","01_ages_7":"7","01_ages_8":"8","01_ages_9":"9","02":"No","03":"No","04":"No"},"rt":24151.5,"item_order":[0,1,2,3],"radio_events":[6302.799999952316,17538.69999998808,19886.299999952316,23270.599999964237],"checkbox_events":[9594.699999988079,10130.699999988079,10838.699999988079],"key_events":[],"mouse_events":[6302.799999952316,9594.699999988079,10130.699999988079,10838.699999988079,17538.69999998808,19886.299999952316,20654.5,22402.399999976158,23270.599999964237,24150.599999964237],"honeypot":0,"survey":"mace","page":3,"trial_type":"survey-mace","trial_index":11,"time_elapsed":611743,"internal_node_id":"0.0-11.0","task_version":"prescreen-v0.3","browser_interactions":0},{"responses":{"01":"No","02":"No"},"rt":16687.80000001192,"item_order":[0,1],"radio_events":[10555.399999976158,15523.300000011921],"checkbox_events":[],"key_events":[],"mouse_events":[10555.399999976158,15523.300000011921,16687.19999998808],"honeypot":0,"survey":"mace","page":4,"trial_type":"survey-mace","trial_index":12,"time_elapsed":628434,"internal_node_id":"0.0-12.0","task_version":"prescreen-v0.3","browser_interactions":0},{"responses":{"01":"Yes","01_ages_5":"5","01_ages_6":"6","01_ages_7":"7","01_ages_8":"8","01_ages_9":"9","01_ages_10":"10","01_ages_11":"11","02":"Yes","02_ages_5":"5","02_ages_6":"6","02_ages_7":"7","02_ages_8":"8","02_ages_9":"9","02_ages_10":"10","02_ages_11":"11","03":"No","04":"Yes","04_ages_5":"5","04_ages_6":"6","04_ages_7":"7","04_ages_8":"8","04_ages_9":"9","04_ages_10":"10","04_ages_11":"11","05":"No"},"rt":57694.80000001192,"item_order":[0,1,2,3,4],"radio_events":[7417.400000035763,20142,33650,39933.60000002384,56813.30000001192],"checkbox_events":[8521.200000047684,9169.100000023842,10153.300000011921,11777.100000023842,12549.100000023842,13201.200000047684,13929.100000023842,22293.900000035763,23041.900000035763,23658.30000001192,24189.900000035763,24649.900000035763,25338,25841.900000035763,41309.80000001192,42545.700000047684,43309.700000047684,43981.700000047684,44545.60000002384,45121.60000002384,46069.80000001192],"key_events":[],"mouse_events":[7417.400000035763,8521.200000047684,9169.100000023842,9705.200000047684,10153.300000011921,10697.300000011921,11777.100000023842,12549.100000023842,13201.200000047684,13929.100000023842,20142,22293.900000035763,23041.900000035763,23658.30000001192,24189.900000035763,24649.900000035763,25338,25841.900000035763,33650,39933.60000002384,41309.80000001192,41893.700000047684,42545.700000047684,43309.700000047684,43981.700000047684,44545.60000002384,45121.60000002384,46069.80000001192,55349.5,56813.30000001192,57693.700000047684],"honeypot":0,"survey":"mace","page":5,"trial_type":"survey-mace","trial_index":13,"time_elapsed":686133,"internal_node_id":"0.0-13.0","task_version":"prescreen-v0.3","browser_interactions":0},{"responses":{"01":"Yes","01_ages_10":"10","01_ages_11":"11","01_ages_12":"12","01_ages_13":"13","01_ages_14":"14","01_ages_15":"15","01_ages_16":"16","01_ages_17":"17","02":"Yes","02_ages_10":"10","02_ages_11":"11","02_ages_12":"12","02_ages_13":"13","02_ages_14":"14","02_ages_15":"15","02_ages_16":"16","02_ages_17":"17","03":"Yes","03_ages_12":"12","03_ages_13":"13","03_ages_14":"14","03_ages_15":"15","04":"No","05":"Yes","05_ages_13":"13","05_ages_14":"14","05_ages_15":"15","05_ages_16":"16","05_ages_17":"17"},"rt":108940.59999996424,"item_order":[0,1,2,3,4],"radio_events":[63662.19999998808,75109.79999995232,87714.69999998808,100427.59999996424,103559.5],"checkbox_events":[66298.09999996424,66898,67518,68134.09999996424,68898,69462.09999996424,70566,72281.89999997616,75981.89999997616,77021.79999995232,77645.89999997616,78314,79049.89999997616,79966,80593.79999995232,81317.79999995232,90414.59999996424,91558.69999998808,92106.59999996424,92686.59999996424,105275.39999997616,105887.29999995232,106763.5,107303.29999995232,107875.59999996424],"key_events":[],"mouse_events":[63662.19999998808,66298.09999996424,66898,67518,68134.09999996424,68898,69462.09999996424,70566,72281.89999997616,75109.79999995232,75981.89999997616,76474,77021.79999995232,77645.89999997616,78314,79049.89999997616,79966,80593.79999995232,81317.79999995232,87714.69999998808,90414.59999996424,91038.5,91558.69999998808,92106.59999996424,92686.59999996424,100427.59999996424,103559.5,105275.39999997616,105887.29999995232,106763.5,107303.29999995232,107875.59999996424,108939.39999997616],"honeypot":0,"survey":"mace","page":6,"trial_type":"survey-mace","trial_index":14,"time_elapsed":795077,"internal_node_id":"0.0-14.0","task_version":"prescreen-v0.3","browser_interactions":0},{"responses":{"01":"No","02":"No","03":"No","04":"No","05":"No","06":"No","07":"No"},"rt":22982.200000047684,"item_order":[0,1,2,3,4,5,6],"radio_events":[5251.200000047684,7391.900000035763,13512.900000035763,16589,18880.700000047684,19900.700000047684,20608.80000001192],"checkbox_events":[],"key_events":[],"mouse_events":[5251.200000047684,7391.900000035763,13512.900000035763,16589,18880.700000047684,19900.700000047684,20608.80000001192,22980.700000047684],"honeypot":0,"survey":"mace","page":7,"trial_type":"survey-mace","trial_index":15,"time_elapsed":818063,"internal_node_id":"0.0-15.0","task_version":"prescreen-v0.3","browser_interactions":0},{"responses":{"01":"No","02":"No","03":"No","04":"No"},"rt":33660.40000003576,"item_order":[0,1,2,3],"radio_events":[21815.600000023842,24583.600000023842,28891.400000035763,32559.30000001192],"checkbox_events":[],"key_events":[],"mouse_events":[21815.600000023842,24583.600000023842,28891.400000035763,32559.30000001192,33659.5],"honeypot":0,"survey":"mace","page":8,"trial_type":"survey-mace","trial_index":16,"time_elapsed":851726,"internal_node_id":"0.0-16.0","task_version":"prescreen-v0.3","browser_interactions":0},{"responses":{"01":"Yes","01_ages_3":"3","01_ages_4":"4","01_ages_5":"5","01_ages_6":"6","01_ages_7":"7","01_ages_8":"8","01_ages_9":"9","01_ages_10":"10","01_ages_11":"11","01_ages_12":"12","01_ages_13":"13","01_ages_14":"14","01_ages_15":"15","01_ages_16":"16","01_ages_17":"17","01_ages_18":"18","02":"Yes","02_ages_3":"3","02_ages_4":"4","02_ages_5":"5","02_ages_6":"6","02_ages_7":"7","02_ages_8":"8","02_ages_9":"9","02_ages_10":"10","02_ages_11":"11","02_ages_12":"12","02_ages_13":"13","02_ages_14":"14","02_ages_15":"15","02_ages_16":"16","02_ages_17":"17","02_ages_18":"18","03":"Yes","03_ages_1":"1","03_ages_2":"2","03_ages_3":"3","03_ages_4":"4","03_ages_5":"5","03_ages_6":"6","03_ages_7":"7","03_ages_8":"8","03_ages_9":"9","03_ages_10":"10","03_ages_11":"11","03_ages_12":"12","03_ages_13":"13","03_ages_14":"14","03_ages_15":"15","03_ages_16":"16","03_ages_17":"17","03_ages_18":"18","04":"Yes","04_ages_1":"1","04_ages_2":"2","04_ages_3":"3","04_ages_4":"4","04_ages_5":"5","04_ages_6":"6","04_ages_7":"7","04_ages_8":"8","04_ages_9":"9","04_ages_10":"10","04_ages_11":"11","04_ages_12":"12","04_ages_13":"13","04_ages_14":"14","04_ages_15":"15","04_ages_16":"16","04_ages_17":"17","04_ages_18":"18"},"rt":108219.10000002384,"item_order":[0,1,2,3],"radio_events":[8487.400000035763,28707.30000001192,69915.60000002384,88884.20000004768],"checkbox_events":[11575.800000011921,12531.600000023842,13267.400000035763,13795.400000035763,14483.300000011921,14943.400000035763,15519.400000035763,16319.5,16971.400000035763,17675.5,18295.400000035763,18819.400000035763,19515.30000001192,20719.5,21415.400000035763,22291.30000001192,22959.30000001192,23663.200000047684,30047.100000023842,30811.200000047684,31447.100000023842,31891.100000023842,32679.200000047684,33883,34415.10000002384,36127.10000002384,36879.10000002384,37910.80000001192,38654.90000003576,39274.90000003576,39787,40423,40910.90000003576,42302.90000003576,42847,43491,44447,45534.80000001192,46459,47202.90000003576,71155.60000002384,71631.60000002384,72231.40000003576,73479.70000004768,74067.40000003576,74587.60000002384,75215.60000002384,75879.5,76479.30000001192,77119.5,77667.40000003576,78191.40000003576,78715.5,79615.5,80075.20000004768,80511.30000001192,81083.40000003576,81547.60000002384,90084.30000001192,90632.10000002384,91176.10000002384,91760.10000002384,92268.10000002384,92868.10000002384,93592.10000002384,94088.10000002384,94524.40000003576,95175.90000003576,97116.10000002384,97764,98384,99008,99612.10000002384,101464.30000001192,104168,105668],"key_events":[],"mouse_events":[8487.400000035763,11575.800000011921,12075.5,12531.600000023842,13267.400000035763,13795.400000035763,14483.300000011921,14943.400000035763,15519.400000035763,16319.5,16971.400000035763,17675.5,18295.400000035763,18819.400000035763,19515.30000001192,20231.200000047684,20719.5,21415.400000035763,22291.30000001192,22959.30000001192,23663.200000047684,28707.30000001192,30047.100000023842,30811.200000047684,31447.100000023842,31891.100000023842,32679.200000047684,33883,34415.10000002384,36127.10000002384,36879.10000002384,37910.80000001192,38654.90000003576,39274.90000003576,39787,40423,40910.90000003576,41391.10000002384,42302.90000003576,42847,43491,44447,45534.80000001192,46459,47202.90000003576,69915.60000002384,71155.60000002384,71631.60000002384,72231.40000003576,72879.40000003576,73479.70000004768,74067.40000003576,74587.60000002384,75215.60000002384,75879.5,76479.30000001192,77119.5,77667.40000003576,78191.40000003576,78715.5,79615.5,80075.20000004768,80511.30000001192,81083.40000003576,81547.60000002384,88884.20000004768,90084.30000001192,90632.10000002384,91176.10000002384,91760.10000002384,92268.10000002384,92868.10000002384,93592.10000002384,94088.10000002384,94524.40000003576,95175.90000003576,95991.90000003576,97116.10000002384,97764,98384,99008,99612.10000002384,100439.80000001192,101464.30000001192,104168,104783.80000001192,105668,108218.10000002384],"honeypot":0,"survey":"mace","page":9,"trial_type":"survey-mace","trial_index":17,"time_elapsed":959949,"internal_node_id":"0.0-17.0","task_version":"prescreen-v0.3","browser_interactions":0},{"responses":{"01":"Yes","01_ages_5":"5","01_ages_6":"6","01_ages_7":"7","02":"No","03":"No","04":"Yes","04_ages_5":"5","04_ages_6":"6","04_ages_7":"7","04_ages_8":"8","05":"No","06":"Yes","06_ages_17":"17","07":"Yes","07_ages_3":"3","07_ages_4":"4","07_ages_5":"5","07_ages_6":"6","07_ages_7":"7","07_ages_8":"8","07_ages_9":"9","07_ages_10":"10","07_ages_11":"11","07_ages_12":"12","07_ages_13":"13","07_ages_14":"14","07_ages_15":"15","07_ages_16":"16","07_ages_17":"17","07_ages_18":"18","08":"Yes","08_ages_5":"5","08_ages_6":"6","08_ages_7":"7","08_ages_8":"8","08_ages_9":"9","08_ages_10":"10","08_ages_11":"11","08_ages_12":"12","08_ages_13":"13","08_ages_14":"14","08_ages_15":"15","08_ages_16":"16","08_ages_17":"17","08_ages_18":"18"},"rt":70360.60000002384,"item_order":[0,1,2,3,4,5,6,7],"radio_events":[4456,10051.900000035763,15155.900000035763,18147.700000047684,30259.5,32491.400000035763,39747.200000047684,57778.90000003576],"checkbox_events":[6331.800000011921,6767.600000023842,7500,19487.700000047684,19951.400000035763,20539.5,21155.700000047684,34071.30000001192,43107.10000002384,45138.90000003576,45903.40000003576,46575,47419.10000002384,47899.5,48331.30000001192,48807.40000003576,49371,49831.200000047684,50295,50971.10000002384,51559,52027,52427,52983,60066.80000001192,60530.80000001192,61006.90000003576,61658.700000047684,62086.80000001192,62590.80000001192,63126.700000047684,63630.80000001192,64066.80000001192,64518.90000003576,65798.90000003576,66430.80000001192,67170.90000003576,67622.5],"key_events":[],"mouse_events":[4456,6331.800000011921,6767.600000023842,7500,10051.900000035763,15155.900000035763,18147.700000047684,19487.700000047684,19951.400000035763,20539.5,21155.700000047684,30259.5,32491.400000035763,34071.30000001192,39747.200000047684,43107.10000002384,45138.90000003576,45903.40000003576,46575,47419.10000002384,47899.5,48331.30000001192,48807.40000003576,49371,49831.200000047684,50295,50971.10000002384,51559,52027,52427,52983,57778.90000003576,60066.80000001192,60530.80000001192,61006.90000003576,61658.700000047684,62086.80000001192,62590.80000001192,63126.700000047684,63630.80000001192,64066.80000001192,64518.90000003576,65130.700000047684,65798.90000003576,66430.80000001192,67170.90000003576,67622.5,70358.90000003576],"honeypot":0,"survey":"mace","page":10,"trial_type":"survey-mace","trial_index":18,"time_elapsed":1030314,"internal_node_id":"0.0-18.0","task_version":"prescreen-v0.3","browser_interactions":0,"instructed":0},{"rt":34121.80000001192,"trial_type":"mental-health-alert","trial_index":19,"time_elapsed":1064438,"internal_node_id":"0.0-19.0","task_version":"prescreen-v0.3","interactions":"[{\"event\":\"blur\",\"trial\":3,\"time\":176674},{\"event\":\"focus\",\"trial\":3,\"time\":185122},{\"event\":\"blur\",\"trial\":3,\"time\":234967},{\"event\":\"focus\",\"trial\":3,\"time\":236731}]"}]