[{"view_history":[{"page_index":0,"viewing_time":3993.300000011921},{"page_index":1,"viewing_time":3438.7999999523163},{"page_index":2,"viewing_time":5135.800000011921},{"page_index":3,"viewing_time":1224}],"rt":13795.099999964237,"trial_type":"instructions","trial_index":0,"time_elapsed":13828,"internal_node_id":"0.0-0.0","task_version":"prescreen-v0.3"},{"rt":14180.100000023842,"responses":{"age":"42","gender-categorical":"Female","gender-free-response":"","ethnicity":"Not Hispanic or Latino","race":["White"],"education":"Master degree or higher"},"trial_type":"survey-demo","trial_index":1,"time_elapsed":28029,"internal_node_id":"0.0-1.0","task_version":"prescreen-v0.3"},{"responses":{"Q11":"2","Q14":"3","Q21":"3","Q02":"2","Q13":"3","Q20":"3","Q17":"2","Q01":"2","Q16":"3","Q07":"0","Q10":"0","Q18":"2","Q15":"3","Q12":"3","Q06":"0","Q09":"3","Q05":"0","Q08":"0","Q19":"2","Q04":"3","Q03":"2"},"rt":99441,"item_order":[10,13,20,1,12,19,16,0,15,6,9,17,14,11,5,8,4,7,18,3,2],"radio_events":[8762.899999976158,12738.100000023842,17346.5,25745.69999998808,29090.100000023842,30513.100000023842,34217.89999997616,36538,39145.60000002384,44584.30000001192,50600.80000001192,55097,67888.5,71504.30000001192,77120.10000002384,78840.19999998808,81959.69999998808,83335.89999997616,92415.5,96143.19999998808,97727.19999998808,98607.30000001192],"key_events":[],"mouse_events":[8762.899999976158,12738.100000023842,17346.5,25745.69999998808,29090.100000023842,30513.100000023842,34217.89999997616,36538,39145.60000002384,44584.30000001192,50600.80000001192,55097,67888.5,71504.30000001192,76040.60000002384,77120.10000002384,78840.19999998808,81959.69999998808,83335.89999997616,92415.5,96143.19999998808,97727.19999998808,98607.30000001192,99431.80000001192],"straightlining":0.42857142857142855,"zigzagging":0.6,"honeypot":0,"survey":"sns","trial_type":"survey-template","trial_index":2,"time_elapsed":127504,"internal_node_id":"0.0-2.0","task_version":"prescreen-v0.3","browser_interactions":0,"infrequency":0},{"responses":{"Q05":"2","Q06":"2","Q11":"0","Q07":"2","Q02":"3","Q01":"3","Q12":"1","Q03":"3","Q09":"1","Q10":"1","Q08":"2","Q04":"3","Q13":"0"},"rt":50479.80000001192,"item_order":[4,5,10,6,1,0,11,2,8,9,7,3,12],"radio_events":[12659.5,15811,18739.19999998808,23563.100000023842,26978.899999976158,27746.80000001192,30034.5,34082.60000002384,36954.60000002384,38498.19999998808,42986.19999998808,45914,48018],"key_events":[],"mouse_events":[12659.5,15811,18739.19999998808,23563.100000023842,25443.100000023842,26978.899999976158,27746.80000001192,30034.5,34082.60000002384,36954.60000002384,38498.19999998808,42986.19999998808,45914,48018,50474.39999997616],"straightlining":0.3076923076923077,"zigzagging":0.3333333333333333,"honeypot":0,"survey":"bisbas","trial_type":"survey-template","trial_index":3,"time_elapsed":177999,"internal_node_id":"0.0-3.0","task_version":"prescreen-v0.3","browser_interactions":0,"infrequency":0},{"responses":{"Q01":"2","Q02":"1","Q03":"2"},"rt":18170.600000023842,"radio_events":[8899,11954.700000047684,17345.700000047684],"key_events":[],"mouse_events":[8899,11954.700000047684,16385.80000001192,17345.700000047684,18169.80000001192],"survey":"map","page":1,"trial_type":"survey-map","trial_index":4,"time_elapsed":196181,"internal_node_id":"0.0-4.0","task_version":"prescreen-v0.3","browser_interactions":0},{"responses":{"Q04":"3","Q05":"1","Q06":"1"},"rt":21029.69999998808,"radio_events":[7003.199999988079,13227.799999952316,16667.599999964237,19699.5],"key_events":[],"mouse_events":[7003.199999988079,10435.699999988079,12779.699999988079,13227.799999952316,16667.599999964237,19699.5,21027.5],"survey":"map","page":2,"trial_type":"survey-map","trial_index":5,"time_elapsed":217216,"internal_node_id":"0.0-5.0","task_version":"prescreen-v0.3","browser_interactions":0},{"responses":{"Q07":"4","Q08":"4","Q09":"1"},"rt":51774.19999998808,"radio_events":[40220.39999997616,46660.09999996424,51139.89999997616],"key_events":[],"mouse_events":[40220.39999997616,46660.09999996424,49492.09999996424,51139.89999997616,51772],"survey":"map","page":3,"trial_type":"survey-map","trial_index":6,"time_elapsed":268999,"internal_node_id":"0.0-6.0","task_version":"prescreen-v0.3","browser_interactions":0},{"responses":{"Q10":"2","Q11":"3","Q12":"0","Q13":"2","Q16":"0","Q14":"2","Q15":"3"},"rt":49407.39999997616,"radio_events":[4148.099999964237,10372.199999988079,12131.399999976158,17419.80000001192,34723.19999998808,37547.19999998808,41458.89999997616,46226.80000001192,47210.59999996424],"key_events":[],"mouse_events":[4148.099999964237,10372.199999988079,12131.399999976158,17419.80000001192,34723.19999998808,37547.19999998808,41458.89999997616,43643,46226.80000001192,47210.59999996424,49402.89999997616],"survey":"map","page":4,"trial_type":"survey-map","trial_index":7,"time_elapsed":318416,"internal_node_id":"0.0-7.0","task_version":"prescreen-v0.3","browser_interactions":0,"infrequency":0},{"view_history":[{"page_index":0,"viewing_time":4778.900000035763},{"page_index":1,"viewing_time":3696.5}],"rt":8476.5,"trial_type":"instructions","trial_index":8,"time_elapsed":326898,"internal_node_id":"0.0-8.0","task_version":"prescreen-v0.3"},{"responses":{"01":"No","02":"No","03":"No","04":"No","05":"No","06":"No"},"rt":33336.19999998808,"item_order":[0,1,2,3,4,5],"radio_events":[7587.699999988079,11266.799999952316,13555,15362.5,16978.299999952316,32745.69999998808],"checkbox_events":[],"key_events":[],"mouse_events":[0.3999999761581421,7587.699999988079,11266.799999952316,13555,15362.5,16978.299999952316,32384.69999998808,32745.69999998808,33322.69999998808],"honeypot":0,"survey":"mace","page":1,"trial_type":"survey-mace","trial_index":9,"time_elapsed":360261,"internal_node_id":"0.0-9.0","task_version":"prescreen-v0.3","browser_interactions":0},{"responses":{"01":"No","02":"No","03":"No","04":"No","05":"No","06":"No","07":"No","08":"No"},"rt":30985.80000001192,"item_order":[0,1,2,3,4,5,6,7],"radio_events":[5049.100000023842,7441.400000035763,13600.100000023842,20784.30000001192,23647.900000035763,25056.100000023842,26944.100000023842,28703.900000035763,30055.700000047684],"checkbox_events":[],"key_events":[],"mouse_events":[5049.100000023842,7441.400000035763,13600.100000023842,20784.30000001192,23647.900000035763,25056.100000023842,26944.100000023842,28152.100000023842,28703.900000035763,30055.700000047684,30968.100000023842],"honeypot":0,"survey":"mace","page":2,"trial_type":"survey-mace","trial_index":10,"time_elapsed":391261,"internal_node_id":"0.0-10.0","task_version":"prescreen-v0.3","browser_interactions":0},{"responses":{"01":"No","02":"No","03":"No","04":"No"},"rt":8492.800000011921,"item_order":[0,1,2,3],"radio_events":[3348,4739.900000035763,6323.800000011921,7499.699999988079],"checkbox_events":[],"key_events":[],"mouse_events":[3348,4075.800000011921,4739.900000035763,5571.400000035763,6323.800000011921,7499.699999988079,8483.800000011921],"honeypot":0,"survey":"mace","page":3,"trial_type":"survey-mace","trial_index":11,"time_elapsed":399763,"internal_node_id":"0.0-11.0","task_version":"prescreen-v0.3","browser_interactions":0},{"responses":{"01":"No","02":"No"},"rt":5832.699999988079,"item_order":[0,1],"radio_events":[3795.300000011921,5003.100000023842],"checkbox_events":[],"key_events":[],"mouse_events":[3795.300000011921,4586.800000011921,5003.100000023842,5827.199999988079],"honeypot":0,"survey":"mace","page":4,"trial_type":"survey-mace","trial_index":12,"time_elapsed":405607,"internal_node_id":"0.0-12.0","task_version":"prescreen-v0.3","browser_interactions":0},{"responses":{"01":"No","02":"No","03":"No","04":"No","05":"No"},"rt":23412.399999976158,"item_order":[0,1,2,3,4],"radio_events":[10065.800000011921,12729.899999976158,17529,20265.30000001192,22649.099999964237],"checkbox_events":[],"key_events":[],"mouse_events":[10065.800000011921,12729.899999976158,17529,20265.30000001192,22649.099999964237,23401.19999998808],"honeypot":0,"survey":"mace","page":5,"trial_type":"survey-mace","trial_index":13,"time_elapsed":429037,"internal_node_id":"0.0-13.0","task_version":"prescreen-v0.3","browser_interactions":0},{"responses":{"01":"Yes","01_ages_9":"9","01_ages_10":"10","01_ages_11":"11","01_ages_12":"12","01_ages_13":"13","02":"Yes","02_ages_7":"7","02_ages_8":"8","02_ages_9":"9","02_ages_10":"10","02_ages_11":"11","02_ages_12":"12","02_ages_13":"13","02_ages_14":"14","03":"Yes","03_ages_11":"11","03_ages_12":"12","03_ages_13":"13","03_ages_14":"14","03_ages_15":"15","03_ages_16":"16","03_ages_17":"17","04":"Yes","04_ages_7":"7","04_ages_8":"8","04_ages_9":"9","04_ages_10":"10","04_ages_11":"11","04_ages_12":"12","04_ages_13":"13","04_ages_14":"14","04_ages_15":"15","04_ages_16":"16","05":"Yes","05_ages_11":"11","05_ages_12":"12","05_ages_13":"13","05_ages_14":"14"},"rt":87237.90000003576,"item_order":[0,1,2,3,4],"radio_events":[7740.800000011921,23948.100000023842,49819.200000047684,63538.60000002384,78610],"checkbox_events":[16853.5,17205,17740.600000023842,18444.5,18924.400000035763,25844.100000023842,28148.200000047684,29172,29780.100000023842,30243.900000035763,32147.900000035763,32763.80000001192,33547.80000001192,52763.200000047684,53203.10000002384,53851.200000047684,54379.10000002384,54851.10000002384,55306.700000047684,55786.90000003576,67426.60000002384,67970.5,68730.5,69258.40000003576,69914.40000003576,70570.40000003576,71337.70000004768,71722.30000001192,73154.30000001192,73898.20000004768,80010.10000002384,80665.90000003576,81314,84545.80000001192],"key_events":[],"mouse_events":[7740.800000011921,16853.5,17205,17740.600000023842,18444.5,18924.400000035763,23948.100000023842,25844.100000023842,28148.200000047684,28827.900000035763,29172,29780.100000023842,30243.900000035763,30620.30000001192,31595.5,32147.900000035763,32763.80000001192,33547.80000001192,49819.200000047684,52763.200000047684,53203.10000002384,53851.200000047684,54379.10000002384,54851.10000002384,55306.700000047684,55786.90000003576,63538.60000002384,67426.60000002384,67970.5,68338.5,68730.5,69258.40000003576,69914.40000003576,70570.40000003576,71337.70000004768,71722.30000001192,72218.40000003576,73154.30000001192,73898.20000004768,78610,80010.10000002384,80665.90000003576,81314,83897.90000003576,84545.80000001192,87227.10000002384],"honeypot":0,"survey":"mace","page":6,"trial_type":"survey-mace","trial_index":14,"time_elapsed":516291,"internal_node_id":"0.0-14.0","task_version":"prescreen-v0.3","browser_interactions":0},{"responses":{"01":"No","02":"Yes","02_ages_11":"11","02_ages_12":"12","02_ages_13":"13","03":"Yes","03_ages_7":"7","03_ages_8":"8","04":"No","05":"No","06":"No","07":"No"},"rt":37555.80000001192,"item_order":[0,1,2,3,4,5,6],"radio_events":[6221.400000035763,13941,25892.100000023842,31788.400000035763,32948.30000001192,34596.200000047684,35564.10000002384],"checkbox_events":[15357.200000047684,15885,16436.900000035763,28564.5,29172.5],"key_events":[],"mouse_events":[6221.400000035763,13941,15357.200000047684,15885,16436.900000035763,25892.100000023842,28108.5,28564.5,29172.5,31788.400000035763,32948.30000001192,33860.30000001192,34596.200000047684,35564.10000002384,37540.60000002384],"honeypot":0,"survey":"mace","page":7,"trial_type":"survey-mace","trial_index":15,"time_elapsed":553860,"internal_node_id":"0.0-15.0","task_version":"prescreen-v0.3","browser_interactions":0},{"responses":{"01":"No","02":"No","03":"Yes","03_ages_5":"5","03_ages_6":"6","03_ages_7":"7","03_ages_8":"8","03_ages_9":"9","03_ages_10":"10","03_ages_11":"11","03_ages_12":"12","03_ages_13":"13","03_ages_14":"14","03_ages_15":"15","03_ages_16":"16","03_ages_17":"17","03_ages_18":"18","04":"Yes","04_ages_4":"4","04_ages_5":"5","04_ages_6":"6","04_ages_7":"7","04_ages_8":"8","04_ages_9":"9","04_ages_10":"10","04_ages_11":"11","04_ages_12":"12","04_ages_13":"13","04_ages_14":"14","04_ages_15":"15","04_ages_16":"16","04_ages_17":"17","04_ages_18":"18"},"rt":44118.09999996424,"item_order":[0,1,2,3],"radio_events":[9790.5,15998.099999964237,17533.30000001192,30021.5],"checkbox_events":[19757.899999976158,20189.899999976158,20629.899999976158,21085.80000001192,21517.69999998808,21941.599999964237,22309.69999998808,22957.599999964237,23557.69999998808,23957.69999998808,24421.69999998808,24869.5,25318.599999964237,26301.5,31589.5,32173.399999976158,32589.5,33317.5,34453.30000001192,34941.19999998808,35909.30000001192,37005.09999996424,37629.19999998808,38333.19999998808,39037.19999998808,40029.09999996424,40549,41181.09999996424,41853],"key_events":[],"mouse_events":[9790.5,15998.099999964237,17533.30000001192,19757.899999976158,20189.899999976158,20629.899999976158,21085.80000001192,21517.69999998808,21941.599999964237,22309.69999998808,22957.599999964237,23557.69999998808,23957.69999998808,24421.69999998808,24869.5,25318.599999964237,25861.69999998808,26301.5,30021.5,31589.5,32173.399999976158,32589.5,33317.5,33765.30000001192,34453.30000001192,34941.19999998808,35909.30000001192,36261.19999998808,37005.09999996424,37629.19999998808,38333.19999998808,39037.19999998808,39645.19999998808,40029.09999996424,40549,41181.09999996424,41853,44109.30000001192],"honeypot":0,"survey":"mace","page":8,"trial_type":"survey-mace","trial_index":16,"time_elapsed":597988,"internal_node_id":"0.0-16.0","task_version":"prescreen-v0.3","browser_interactions":0},{"responses":{"01":"Yes","01_ages_1":"1","01_ages_2":"2","01_ages_3":"3","01_ages_4":"4","01_ages_5":"5","01_ages_6":"6","01_ages_7":"7","01_ages_8":"8","01_ages_9":"9","01_ages_10":"10","01_ages_11":"11","01_ages_12":"12","01_ages_13":"13","01_ages_14":"14","01_ages_15":"15","01_ages_16":"16","01_ages_17":"17","01_ages_18":"18","02":"Yes","02_ages_1":"1","02_ages_2":"2","02_ages_3":"3","02_ages_4":"4","02_ages_5":"5","02_ages_6":"6","02_ages_7":"7","02_ages_8":"8","02_ages_9":"9","02_ages_10":"10","02_ages_11":"11","02_ages_12":"12","02_ages_13":"13","02_ages_14":"14","02_ages_15":"15","02_ages_16":"16","02_ages_17":"17","02_ages_18":"18","03":"Yes","03_ages_1":"1","03_ages_2":"2","03_ages_3":"3","03_ages_4":"4","03_ages_5":"5","03_ages_6":"6","03_ages_7":"7","03_ages_8":"8","03_ages_9":"9","03_ages_10":"10","03_ages_11":"11","03_ages_12":"12","03_ages_13":"13","03_ages_14":"14","03_ages_15":"15","03_ages_16":"16","03_ages_17":"17","03_ages_18":"18","04":"Yes","04_ages_1":"1","04_ages_2":"2","04_ages_3":"3","04_ages_4":"4","04_ages_5":"5","04_ages_6":"6","04_ages_7":"7","04_ages_8":"8","04_ages_9":"9","04_ages_10":"10","04_ages_11":"11","04_ages_12":"12","04_ages_13":"13","04_ages_14":"14","04_ages_15":"15","04_ages_16":"16","04_ages_17":"17","04_ages_18":"18"},"rt":60017,"item_order":[0,1,2,3],"radio_events":[3568.399999976158,19280.399999976158,33560,48479.39999997616],"checkbox_events":[4921.599999964237,5697.099999964237,7153.099999964237,7561.099999964237,8657,9233,10073,10945.699999988079,11704.699999988079,12112.899999976158,12800.899999976158,13377,13912.799999952316,14592.799999952316,15120.799999952316,15880.799999952316,16688.5,17504.399999976158,20233.099999964237,20840.5,21312.899999976158,22264.5,23304.19999998808,23856.5,24664.399999976158,25688.399999976158,26600.299999952316,27040.19999998808,27456.099999964237,28784.19999998808,29176.19999998808,29663.899999976158,30288.19999998808,30928.5,31312.19999998808,32608.099999964237,34736,35384.39999997616,36055.89999997616,37183.89999997616,37847.89999997616,38439.69999998808,39175.799999952316,39663.799999952316,42071.69999998808,42711.59999996424,43327.69999998808,43735.69999998808,44311.69999998808,44775.89999997616,45519.59999996424,46143.5,46911.69999998808,47535.59999996424,49959.39999997616,50375.39999997616,50791.299999952316,51215.299999952316,51663.299999952316,52087.19999998808,52823.299999952316,53303.299999952316,53727.299999952316,54399.299999952316,55367.19999998808,56023.19999998808,56503.19999998808,56999.09999996424,57391.19999998808,57791.09999996424,58454.39999997616,58903.09999996424],"key_events":[],"mouse_events":[3568.399999976158,4921.599999964237,5697.099999964237,6209,7153.099999964237,7561.099999964237,8032.799999952316,8432.599999964237,8657,9233,10073,10624.899999976158,10945.699999988079,11360.799999952316,11704.699999988079,12112.899999976158,12800.899999976158,13377,13912.799999952316,14592.799999952316,15120.799999952316,15880.799999952316,16688.5,17504.399999976158,19280.399999976158,20233.099999964237,20840.5,21312.899999976158,21792.399999976158,22264.5,22824.399999976158,23304.19999998808,23856.5,24664.399999976158,25064.299999952316,25352.799999952316,25688.399999976158,26600.299999952316,27040.19999998808,27456.099999964237,28232.299999952316,28784.19999998808,29176.19999998808,29663.899999976158,30288.19999998808,30928.5,31312.19999998808,31727.69999998808,32608.099999964237,33560,34736,35384.39999997616,36055.89999997616,36671.89999997616,37183.89999997616,37847.89999997616,38439.69999998808,39175.799999952316,39663.799999952316,40391.799999952316,40735.39999997616,42071.69999998808,42711.59999996424,43327.69999998808,43735.69999998808,44311.69999998808,44775.89999997616,45207.59999996424,45519.59999996424,46143.5,46911.69999998808,47535.59999996424,48479.39999997616,49959.39999997616,50375.39999997616,50791.299999952316,51215.299999952316,51663.299999952316,52087.19999998808,52823.299999952316,53303.299999952316,53727.299999952316,54399.299999952316,55367.19999998808,56023.19999998808,56503.19999998808,56999.09999996424,57391.19999998808,57791.09999996424,58454.39999997616,58903.09999996424,60014.5],"honeypot":0,"survey":"mace","page":9,"trial_type":"survey-mace","trial_index":17,"time_elapsed":658016,"internal_node_id":"0.0-17.0","task_version":"prescreen-v0.3","browser_interactions":0},{"responses":{"01":"No","02":"No","03":"No","04":"Yes","04_ages_9":"9","04_ages_10":"10","04_ages_11":"11","04_ages_12":"12","04_ages_13":"13","04_ages_14":"14","04_ages_15":"15","04_ages_16":"16","04_ages_17":"17","04_ages_18":"18","05":"Yes","05_ages_4":"4","05_ages_5":"5","05_ages_6":"6","05_ages_7":"7","05_ages_8":"8","05_ages_9":"9","05_ages_10":"10","05_ages_11":"11","05_ages_12":"12","05_ages_13":"13","05_ages_14":"14","05_ages_15":"15","05_ages_16":"16","05_ages_17":"17","05_ages_18":"18","06":"Yes","06_ages_17":"17","07":"Yes","07_ages_1":"1","07_ages_2":"2","07_ages_3":"3","07_ages_4":"4","07_ages_5":"5","07_ages_6":"6","07_ages_7":"7","07_ages_8":"8","07_ages_9":"9","07_ages_10":"10","07_ages_11":"11","07_ages_12":"12","07_ages_13":"13","07_ages_14":"14","07_ages_15":"15","07_ages_16":"16","07_ages_17":"17","07_ages_18":"18","08":"Yes","08_ages_1":"1","08_ages_2":"2","08_ages_3":"3","08_ages_4":"4","08_ages_5":"5","08_ages_6":"6","08_ages_7":"7","08_ages_8":"8","08_ages_9":"9","08_ages_10":"10","08_ages_11":"11","08_ages_12":"12","08_ages_13":"13","08_ages_14":"14","08_ages_15":"15","08_ages_16":"16","08_ages_17":"17","08_ages_18":"18"},"rt":64071.19999998808,"item_order":[0,1,2,3,4,5,6,7],"radio_events":[4631.699999988079,5919.599999964237,7743.399999976158,10463.099999964237,22182.69999998808,36205.89999997616,39501.89999997616,52525.5],"checkbox_events":[13935.099999964237,14455,14839.099999964237,15255,15775,16279,17222.899999976158,17950.899999976158,18534.80000001192,19158.899999976158,25326.599999964237,25990.599999964237,26526.5,26950.5,27430.599999964237,27854.399999976158,28526.5,29022.5,29694.599999964237,30814.399999976158,31198.399999976158,31550.399999976158,32278.599999964237,32894.59999996424,33590.30000001192,37437.39999997616,40830,41358.39999997616,41902,42365.89999997616,42837.89999997616,43638.5,44701.89999997616,45221.69999998808,45837.80000001192,46397.69999998808,46837.80000001192,47277.69999998808,47773.69999998808,48389.69999998808,48885.59999996424,49565.59999996424,49981.59999996424,50485.59999996424,53581.5,54005.5,54581.39999997616,55157.59999996424,55693.19999998808,56061.69999998808,56477.30000001192,56989.30000001192,57389.19999998808,58429.19999998808,58905.09999996424,59373.5,59989.19999998808,60469.09999996424,61149.09999996424,61565.09999996424,62053.09999996424,62397.09999996424],"key_events":[],"mouse_events":[4631.699999988079,5919.599999964237,7743.399999976158,9878.699999988079,10463.099999964237,13935.099999964237,14455,14839.099999964237,15255,15775,16279,16719.099999964237,17222.899999976158,17950.899999976158,18534.80000001192,19158.899999976158,22182.69999998808,23902.69999998808,25326.599999964237,25678.69999998808,25990.599999964237,26526.5,26950.5,27430.599999964237,27854.399999976158,28526.5,29022.5,29694.599999964237,30158.69999998808,30814.399999976158,31198.399999976158,31550.399999976158,32278.599999964237,32894.59999996424,33590.30000001192,35457.59999996424,36205.89999997616,37437.39999997616,39501.89999997616,40830,41358.39999997616,41902,42365.89999997616,42837.89999997616,43638.5,44222,44701.89999997616,45221.69999998808,45837.80000001192,46397.69999998808,46837.80000001192,47277.69999998808,47773.69999998808,48389.69999998808,48885.59999996424,49565.59999996424,49981.59999996424,50485.59999996424,52525.5,53581.5,54005.5,54581.39999997616,55157.59999996424,55693.19999998808,56061.69999998808,56477.30000001192,56989.30000001192,57389.19999998808,58429.19999998808,58905.09999996424,59373.5,59989.19999998808,60469.09999996424,61149.09999996424,61565.09999996424,62053.09999996424,62397.09999996424,64054],"honeypot":0,"survey":"mace","page":10,"trial_type":"survey-mace","trial_index":18,"time_elapsed":722099,"internal_node_id":"0.0-18.0","task_version":"prescreen-v0.3","browser_interactions":0,"instructed":0},{"rt":11931.099999964237,"trial_type":"mental-health-alert","trial_index":19,"time_elapsed":734034,"internal_node_id":"0.0-19.0","task_version":"prescreen-v0.3","interactions":"[]"}]