[{"view_history":[{"page_index":0,"viewing_time":3566.9000000059605},{"page_index":1,"viewing_time":5504},{"page_index":2,"viewing_time":4963.0999999940395},{"page_index":3,"viewing_time":2064.2999999970198}],"rt":16101.40000000596,"trial_type":"instructions","trial_index":0,"time_elapsed":16192,"internal_node_id":"0.0-0.0","task_version":"prescreen-v0.3"},{"rt":13044.09999999404,"responses":{"age":"23","gender-categorical":"Female","gender-free-response":"","ethnicity":"Not Hispanic or Latino","race":["White"],"education":"Some college"},"trial_type":"survey-demo","trial_index":1,"time_elapsed":29252,"internal_node_id":"0.0-1.0","task_version":"prescreen-v0.3"},{"responses":{"Q12":"2","Q19":"1","Q03":"2","Q13":"1","Q20":"3","Q18":"2","Q08":"1","Q14":"1","Q16":"2","Q11":"0","Q02":"0","Q04":"0","Q21":"1","Q15":"2","Q05":"2","Q06":"2","Q07":"0","Q09":"2","Q01":"1","Q17":"0","Q10":"1"},"rt":132710.40000000596,"item_order":[11,18,2,12,19,17,7,13,15,10,1,3,20,14,4,5,6,8,0,16,9],"radio_events":[11482.90000000596,19622,23892.40000000596,37083.5,38352.10000000894,42700.79999999702,44907.10000000894,56260.79999999702,61917.79999999702,65154.40000000596,69867.60000000894,75527.5,80258,86810.5,98430.10000000894,107622.79999999702,114543,121091.60000000894,123755.60000000894,127576.20000000298,131729.79999999702],"key_events":[],"mouse_events":[11482.90000000596,18402.79999999702,19622,22878.29999999702,23892.40000000596,31982.29999999702,32775.60000000894,36446,37083.5,38352.10000000894,42700.79999999702,44907.10000000894,55541.5,56260.79999999702,61917.79999999702,65154.40000000596,68696.60000000894,69010.10000000894,69867.60000000894,75527.5,79398.20000000298,80258,86810.5,98430.10000000894,107622.79999999702,114543,120199.29999999702,121091.60000000894,123755.60000000894,127576.20000000298,131729.79999999702,132702.79999999702],"straightlining":0.38095238095238093,"zigzagging":0.55,"honeypot":0,"survey":"sns","trial_type":"survey-template","trial_index":2,"time_elapsed":161979,"internal_node_id":"0.0-2.0","task_version":"prescreen-v0.3","browser_interactions":0,"infrequency":1},{"responses":{"Q08":"2","Q13":"0","Q10":"2","Q03":"2","Q05":"3","Q09":"2","Q12":"3","Q04":"2","Q06":"1","Q01":"3","Q11":"2","Q02":"3","Q07":"2"},"rt":71851.70000000298,"item_order":[7,12,9,2,4,8,11,3,5,0,10,1,6],"radio_events":[11233.40000000596,14533.300000011921,21600,26469.5,31234.10000000894,37266.80000001192,40171.5,45547.40000000596,50091,53902.20000000298,56921.60000000894,62219.30000001192,67284.5,70908.80000001192],"key_events":[],"mouse_events":[11233.40000000596,14533.300000011921,21600,26469.5,30547.20000000298,31234.10000000894,35489.60000000894,36502.30000001192,37266.80000001192,40171.5,44805,45547.40000000596,49478,50091,53902.20000000298,56921.60000000894,61619.40000000596,62219.30000001192,67284.5,70908.80000001192,71847.30000001192],"straightlining":0.5384615384615384,"zigzagging":0.6666666666666666,"honeypot":0,"survey":"bisbas","trial_type":"survey-template","trial_index":3,"time_elapsed":233841,"internal_node_id":"0.0-3.0","task_version":"prescreen-v0.3","browser_interactions":0,"infrequency":0},{"responses":{"Q01":"2","Q02":"4","Q03":"3"},"rt":40685.5,"radio_events":[25783.20000000298,32329.59999999404,34407,39120.29999999702],"key_events":[],"mouse_events":[25783.20000000298,32329.59999999404,34407,38301.79999999702,39120.29999999702,40683.29999999702],"survey":"map","page":1,"trial_type":"survey-map","trial_index":4,"time_elapsed":274536,"internal_node_id":"0.0-4.0","task_version":"prescreen-v0.3","browser_interactions":0},{"responses":{"Q04":"4","Q05":"2","Q06":"1"},"rt":26063,"radio_events":[7346.5,13244.70000000298,24733.29999999702],"key_events":[],"mouse_events":[7346.5,13244.70000000298,23420.20000000298,24103.79999999702,24733.29999999702,26061.39999999106],"survey":"map","page":2,"trial_type":"survey-map","trial_index":5,"time_elapsed":300606,"internal_node_id":"0.0-5.0","task_version":"prescreen-v0.3","browser_interactions":0},{"responses":{"Q07":"4","Q08":"0","Q09":"2"},"rt":24862.80000001192,"radio_events":[14779.5,20409,23537.10000000894],"key_events":[],"mouse_events":[14779.5,20409,23537.10000000894,24861.20000000298],"survey":"map","page":3,"trial_type":"survey-map","trial_index":6,"time_elapsed":325474,"internal_node_id":"0.0-6.0","task_version":"prescreen-v0.3","browser_interactions":0},{"responses":{"Q10":"3","Q11":"0","Q12":"1","Q13":"0","Q16":"0","Q14":"2","Q15":"2"},"rt":53365.5,"radio_events":[16120.59999999404,19753.5,23565.5,26877.59999999404,30855.89999999106,39481.09999999404,46023.39999999106,47292.29999999702,52249.59999999404],"key_events":[],"mouse_events":[16120.59999999404,19753.5,23565.5,26877.59999999404,30071.89999999106,30855.89999999106,39481.09999999404,45200.79999999702,46023.39999999106,47292.29999999702,52249.59999999404,53362.39999999106],"survey":"map","page":4,"trial_type":"survey-map","trial_index":7,"time_elapsed":378848,"internal_node_id":"0.0-7.0","task_version":"prescreen-v0.3","browser_interactions":0,"infrequency":0},{"view_history":[{"page_index":0,"viewing_time":5923.4000000059605},{"page_index":1,"viewing_time":7103}],"rt":13027.70000000298,"trial_type":"instructions","trial_index":8,"time_elapsed":391880,"internal_node_id":"0.0-8.0","task_version":"prescreen-v0.3"},{"responses":{"01":"Yes","01_ages_14":"14","01_ages_15":"15","01_ages_17":"17","01_ages_18":"18","02":"Yes","02_ages_16":"16","02_ages_17":"17","02_ages_18":"18","03":"No","04":"No","05":"No","06":"No"},"rt":43964.90000000596,"item_order":[0,1,2,3,4,5],"radio_events":[11808.60000000894,25772.70000000298,34944.90000000596,38292.70000000298,40177.79999999702,42687.10000000894],"checkbox_events":[18095.29999999702,19016.5,19986.40000000596,20979.5,27177.20000000298,28035.20000000298,29326.79999999702],"key_events":[],"mouse_events":[0.29999999701976776,11808.60000000894,18095.29999999702,19016.5,19986.40000000596,20979.5,25772.70000000298,27177.20000000298,28035.20000000298,28720.20000000298,29326.79999999702,34944.90000000596,38292.70000000298,40177.79999999702,42687.10000000894,43955.40000000596],"honeypot":0,"survey":"mace","page":1,"trial_type":"survey-mace","trial_index":9,"time_elapsed":435863,"internal_node_id":"0.0-9.0","task_version":"prescreen-v0.3","browser_interactions":0},{"responses":{"01":"No","02":"No","03":"Yes","03_ages_4":"4","03_ages_5":"5","03_ages_6":"6","03_ages_7":"7","03_ages_8":"8","03_ages_9":"9","04":"No","05":"Yes","05_ages_7":"7","05_ages_8":"8","05_ages_9":"9","05_ages_10":"10","06":"No","07":"No","08":"No"},"rt":46983.19999998808,"item_order":[0,1,2,3,4,5,6,7],"radio_events":[4503.399999991059,8622.09999999404,11620.79999999702,28098.19999998808,31556.19999998808,41141.79999999702,43256.59999999404,45018.79999999702],"checkbox_events":[15275.29999999702,16854.09999999404,17618.69999998808,18398,19381.09999999404,21172.89999999106,22489.29999999702,23881.29999999702,34004.19999998808,35061.39999999106,36432,37045.29999999702,37601,38210.19999998808],"key_events":[],"mouse_events":[4503.399999991059,8622.09999999404,11620.79999999702,15275.29999999702,16212.59999999404,16854.09999999404,17618.69999998808,18398,19381.09999999404,21172.89999999106,22489.29999999702,23881.29999999702,28098.19999998808,31556.19999998808,34004.19999998808,35061.39999999106,35874.69999998808,36432,37045.29999999702,37601,38210.19999998808,41141.79999999702,43256.59999999404,45018.79999999702,46970.5],"honeypot":0,"survey":"mace","page":2,"trial_type":"survey-mace","trial_index":10,"time_elapsed":482860,"internal_node_id":"0.0-10.0","task_version":"prescreen-v0.3","browser_interactions":0},{"responses":{"01":"No","02":"No","03":"No","04":"No"},"rt":15153.40000000596,"item_order":[0,1,2,3],"radio_events":[7884.70000000298,10575.29999999702,12610.40000000596,14297.09999999404],"checkbox_events":[],"key_events":[],"mouse_events":[7884.70000000298,10575.29999999702,12610.40000000596,14297.09999999404,15147],"honeypot":0,"survey":"mace","page":3,"trial_type":"survey-mace","trial_index":11,"time_elapsed":498022,"internal_node_id":"0.0-11.0","task_version":"prescreen-v0.3","browser_interactions":0},{"responses":{"01":"No","02":"No"},"rt":9076.60000000894,"item_order":[0,1],"radio_events":[6041.800000011921,8209.10000000894],"checkbox_events":[],"key_events":[],"mouse_events":[6041.800000011921,8209.10000000894,9072.800000011921],"honeypot":0,"survey":"mace","page":4,"trial_type":"survey-mace","trial_index":12,"time_elapsed":507105,"internal_node_id":"0.0-12.0","task_version":"prescreen-v0.3","browser_interactions":0},{"responses":{"01":"No","02":"No","03":"No","04":"No","05":"No"},"rt":23236.5,"item_order":[0,1,2,3,4],"radio_events":[13434.09999999404,16545.40000000596,19257.90000000596,21116.90000000596,22472.5],"checkbox_events":[],"key_events":[],"mouse_events":[13434.09999999404,16545.40000000596,19257.90000000596,21116.90000000596,22472.5,23228.90000000596],"honeypot":0,"survey":"mace","page":5,"trial_type":"survey-mace","trial_index":13,"time_elapsed":530353,"internal_node_id":"0.0-13.0","task_version":"prescreen-v0.3","browser_interactions":0},{"responses":{"01":"Yes","01_ages_15":"15","01_ages_16":"16","01_ages_17":"17","01_ages_18":"18","02":"Yes","02_ages_14":"14","02_ages_15":"15","02_ages_16":"16","02_ages_17":"17","02_ages_18":"18","03":"No","04":"Yes","04_ages_14":"14","04_ages_15":"15","04_ages_16":"16","04_ages_17":"17","04_ages_18":"18","05":"No"},"rt":39376.60000000894,"item_order":[0,1,2,3,4],"radio_events":[6476.4000000059605,15516,26653,28583.29999999702,37226.60000000894],"checkbox_events":[8825.79999999702,9697.90000000596,10975.60000000894,12054.5,17003.40000000596,17573.60000000894,18180.29999999702,19372.5,20029.5,31259.10000000894,31866.60000000894,32459.40000000596,33059.5,34856.90000000596],"key_events":[],"mouse_events":[6476.4000000059605,8825.79999999702,9697.90000000596,10395.79999999702,10975.60000000894,12054.5,15516,17003.40000000596,17573.60000000894,18180.29999999702,18815,19372.5,20029.5,25922.79999999702,26653,28583.29999999702,30033.40000000596,30574,31259.10000000894,31866.60000000894,32459.40000000596,33059.5,33679.70000000298,34856.90000000596,37226.60000000894,37986.5,39368.79999999702],"honeypot":0,"survey":"mace","page":6,"trial_type":"survey-mace","trial_index":14,"time_elapsed":569740,"internal_node_id":"0.0-14.0","task_version":"prescreen-v0.3","browser_interactions":0},{"responses":{"01":"No","02":"No","03":"No","04":"No","05":"No","06":"Yes","06_ages_18":"18","07":"Yes","07_ages_18":"18"},"rt":32074.29999999702,"item_order":[0,1,2,3,4,5,6],"radio_events":[4757,6863.9000000059605,7855.79999999702,9754.20000000298,11041.20000000298,12453.79999999702,14897,16253,19670.90000000596,26462.60000000894],"checkbox_events":[21677,31358.10000000894],"key_events":[],"mouse_events":[4757,6863.9000000059605,7855.79999999702,9754.20000000298,11041.20000000298,12453.79999999702,14897,16253,19670.90000000596,21677,26462.60000000894,31358.10000000894,32063.40000000596],"honeypot":0,"survey":"mace","page":7,"trial_type":"survey-mace","trial_index":15,"time_elapsed":601826,"internal_node_id":"0.0-15.0","task_version":"prescreen-v0.3","browser_interactions":0},{"responses":{"01":"No","02":"No","03":"No","04":"Yes","04_ages_18":"18"},"rt":35571,"item_order":[0,1,2,3],"radio_events":[10552.70000000298,19205.5,27917.5,31564],"checkbox_events":[34864.20000000298],"key_events":[],"mouse_events":[10552.70000000298,19205.5,27917.5,31564,34864.20000000298,35564],"honeypot":0,"survey":"mace","page":8,"trial_type":"survey-mace","trial_index":16,"time_elapsed":637406,"internal_node_id":"0.0-16.0","task_version":"prescreen-v0.3","browser_interactions":0},{"responses":{"01":"Yes","01_ages_1":"1","01_ages_2":"2","01_ages_3":"3","01_ages_4":"4","01_ages_5":"5","01_ages_6":"6","01_ages_7":"7","01_ages_8":"8","01_ages_9":"9","01_ages_10":"10","01_ages_11":"11","01_ages_12":"12","01_ages_13":"13","01_ages_14":"14","01_ages_15":"15","01_ages_16":"16","01_ages_17":"17","01_ages_18":"18","02":"Yes","02_ages_1":"1","02_ages_2":"2","02_ages_3":"3","02_ages_4":"4","02_ages_5":"5","02_ages_6":"6","02_ages_7":"7","02_ages_8":"8","02_ages_9":"9","02_ages_10":"10","02_ages_11":"11","02_ages_12":"12","02_ages_13":"13","02_ages_14":"14","02_ages_15":"15","02_ages_16":"16","02_ages_17":"17","02_ages_18":"18","03":"Yes","03_ages_1":"1","03_ages_2":"2","03_ages_3":"3","03_ages_4":"4","03_ages_5":"5","03_ages_6":"6","03_ages_7":"7","03_ages_8":"8","03_ages_9":"9","03_ages_10":"10","03_ages_11":"11","03_ages_12":"12","03_ages_13":"13","03_ages_14":"14","03_ages_15":"15","03_ages_16":"16","03_ages_17":"17","03_ages_18":"18","04":"Yes","04_ages_1":"1","04_ages_2":"2","04_ages_3":"3","04_ages_4":"4","04_ages_5":"5","04_ages_6":"6","04_ages_7":"7","04_ages_8":"8","04_ages_9":"9","04_ages_10":"10","04_ages_11":"11","04_ages_12":"12","04_ages_13":"13","04_ages_14":"14","04_ages_15":"15","04_ages_16":"16","04_ages_17":"17","04_ages_18":"18"},"rt":72271.70000000298,"item_order":[0,1,2,3],"radio_events":[6209.20000000298,27053.5,46549.70000000298,63400.90000000596],"checkbox_events":[8207.60000000894,8844,10372.10000000894,11805.5,12366.60000000894,13640.20000000298,14347.10000000894,14967.10000000894,16773.40000000596,17418.90000000596,18266.20000000298,19207.5,20314,20941.90000000596,21698.70000000298,22455.90000000596,23420,24077.10000000894,30401.5,31315,31936.60000000894,32521,33106.60000000894,33700.90000000596,34264.5,34885.5,35486,36100.20000000298,36705.80000001192,37427,37998.30000001192,38584.20000000298,40288.70000000298,40938.90000000596,41545.30000001192,42172.20000000298,47769.5,48734.10000000894,49519.90000000596,50458.5,51042.10000000894,51473.40000000596,51922.80000001192,52253,52674.20000000298,53174.10000000894,53582.70000000298,54133.60000000894,54592.80000001192,55022.70000000298,55453.5,55863.90000000596,56283.40000000596,56633.10000000894,64376.10000000894,65064.60000000894,65514.10000000894,65993,66383.40000000596,66773.70000000298,67242.90000000596,67663.40000000596,68043.30000001192,68463,68881.30000001192,69273.20000000298,69712.80000001192,70110.70000000298,70512.10000000894,70942.40000000596,71341.20000000298,71726],"key_events":[],"mouse_events":[6209.20000000298,8207.60000000894,8844,9456.40000000596,10372.10000000894,11055.5,11805.5,12366.60000000894,13077.300000011921,13640.20000000298,14347.10000000894,14967.10000000894,15611.70000000298,16202.300000011921,16773.40000000596,17418.90000000596,18266.20000000298,19207.5,19937,20314,20941.90000000596,21698.70000000298,22455.90000000596,23420,24077.10000000894,27053.5,30401.5,31315,31936.60000000894,32521,33106.60000000894,33700.90000000596,34264.5,34885.5,35486,36100.20000000298,36705.80000001192,37427,37998.30000001192,38584.20000000298,39161.20000000298,39660.5,40288.70000000298,40938.90000000596,41545.30000001192,42172.20000000298,45215.30000001192,45836.70000000298,46549.70000000298,47769.5,48282.80000001192,48734.10000000894,49519.90000000596,50458.5,51042.10000000894,51473.40000000596,51922.80000001192,52253,52674.20000000298,53174.10000000894,53582.70000000298,54133.60000000894,54592.80000001192,55022.70000000298,55453.5,55863.90000000596,56283.40000000596,56633.10000000894,63400.90000000596,64376.10000000894,65064.60000000894,65514.10000000894,65993,66383.40000000596,66773.70000000298,67242.90000000596,67663.40000000596,68043.30000001192,68463,68881.30000001192,69273.20000000298,69712.80000001192,70110.70000000298,70512.10000000894,70942.40000000596,71341.20000000298,71726,72265.40000000596],"honeypot":0,"survey":"mace","page":9,"trial_type":"survey-mace","trial_index":17,"time_elapsed":709687,"internal_node_id":"0.0-17.0","task_version":"prescreen-v0.3","browser_interactions":0},{"responses":{"01":"No","02":"Yes","02_ages_10":"10","02_ages_11":"11","02_ages_12":"12","02_ages_13":"13","02_ages_14":"14","02_ages_15":"15","02_ages_16":"16","02_ages_17":"17","02_ages_18":"18","03":"No","04":"Yes","04_ages_8":"8","04_ages_9":"9","04_ages_10":"10","04_ages_11":"11","04_ages_12":"12","04_ages_13":"13","04_ages_14":"14","04_ages_15":"15","04_ages_16":"16","04_ages_17":"17","04_ages_18":"18","05":"No","06":"Yes","06_ages_17":"17","07":"Yes","07_ages_1":"1","07_ages_2":"2","07_ages_3":"3","07_ages_4":"4","07_ages_5":"5","07_ages_6":"6","07_ages_7":"7","07_ages_8":"8","07_ages_9":"9","07_ages_10":"10","07_ages_11":"11","07_ages_12":"12","07_ages_13":"13","07_ages_14":"14","07_ages_15":"15","07_ages_16":"16","07_ages_17":"17","07_ages_18":"18","08":"Yes","08_ages_10":"10","08_ages_11":"11","08_ages_12":"12","08_ages_13":"13","08_ages_14":"14","08_ages_15":"15","08_ages_16":"16","08_ages_17":"17","08_ages_18":"18"},"rt":61022.09999999404,"item_order":[0,1,2,3,4,5,6,7],"radio_events":[3648.2999999970198,5003.399999991059,21075.39999999106,24380.29999999702,33161,35913.19999998808,43849.59999999404,54973.19999998808],"checkbox_events":[7877.0999999940395,8749.09999999404,9417.59999999404,10607.699999988079,11213.79999999702,11994,12456.5,12868.29999999702,13268,13609.09999999404,13972.59999999404,14317.29999999702,14778.09999999404,16931.5,17292.29999999702,25429.59999999404,25793.19999998808,26312,26753.59999999404,27162.5,27512.69999998808,28636.69999998808,28952,29416.09999999404,29767.5,30147.5,37189.59999999404,46024.69999998808,46376.5,46788,47272.29999999702,47775.79999999702,48195.69999998808,48536,48905.59999999404,49315.79999999702,49924.89999999106,50336.59999999404,50726.19999998808,51107.59999999404,51446.19999998808,51845.69999998808,52282.19999998808,52625.09999999404,52985.19999998808,57359.19999998808,57693.39999999106,58115.69999998808,58506.89999999106,58857.09999999404,59226.89999999106,59556.79999999702,59997.79999999702,60416.59999999404],"key_events":[],"mouse_events":[3648.2999999970198,5003.399999991059,7877.0999999940395,8749.09999999404,9417.59999999404,10607.699999988079,11213.79999999702,11994,12456.5,12868.29999999702,13268,13609.09999999404,13972.59999999404,14317.29999999702,14778.09999999404,16097.699999988079,16532.19999998808,16931.5,17292.29999999702,21075.39999999106,24380.29999999702,25429.59999999404,25793.19999998808,26312,26753.59999999404,27162.5,27512.69999998808,28636.69999998808,28952,29416.09999999404,29767.5,30147.5,33161,35913.19999998808,37189.59999999404,43480.69999998808,43849.59999999404,46024.69999998808,46376.5,46788,47272.29999999702,47775.79999999702,48195.69999998808,48536,48905.59999999404,49315.79999999702,49924.89999999106,50336.59999999404,50726.19999998808,51107.59999999404,51446.19999998808,51845.69999998808,52282.19999998808,52625.09999999404,52985.19999998808,54973.19999998808,57359.19999998808,57693.39999999106,58115.69999998808,58506.89999999106,58857.09999999404,59226.89999999106,59556.79999999702,59997.79999999702,60416.59999999404,61009.89999999106],"honeypot":0,"survey":"mace","page":10,"trial_type":"survey-mace","trial_index":18,"time_elapsed":770721,"internal_node_id":"0.0-18.0","task_version":"prescreen-v0.3","browser_interactions":0,"instructed":0},{"rt":3288.2999999970198,"trial_type":"mental-health-alert","trial_index":19,"time_elapsed":774015,"internal_node_id":"0.0-19.0","task_version":"prescreen-v0.3","interactions":"[]"}]