[{"view_history":[{"page_index":0,"viewing_time":4016.10000000149},{"page_index":1,"viewing_time":4479.70000000298},{"page_index":2,"viewing_time":4732},{"page_index":3,"viewing_time":1594}],"rt":14822.40000000596,"trial_type":"instructions","trial_index":0,"time_elapsed":14836,"internal_node_id":"0.0-0.0","task_version":"prescreen-v0.3"},{"rt":10174.5,"responses":{"age":"20","gender-categorical":"Female","gender-free-response":"","ethnicity":"Hispanic or Latino","race":["Rather not say"],"education":"Some college"},"trial_type":"survey-demo","trial_index":1,"time_elapsed":25014,"internal_node_id":"0.0-1.0","task_version":"prescreen-v0.3"},{"responses":{"Q13":"2","Q20":"0","Q06":"1","Q01":"2","Q05":"1","Q18":"2","Q07":"0","Q04":"1","Q17":"0","Q12":"3","Q10":"1","Q15":"3","Q02":"1","Q09":"1","Q11":"0","Q21":"3","Q03":"1","Q16":"3","Q14":"3","Q19":"1","Q08":"2"},"rt":196244,"item_order":[12,19,5,0,4,17,6,3,16,11,9,14,1,8,10,20,2,15,13,18,7],"radio_events":[5316.60000000149,6314.60000000149,13894.60000000149,17058.60000000149,24638.5,30178.60000000149,42896.5,50250.5,52970.60000000149,134654.3999999985,143400.3999999985,148852.5,156810.3999999985,160592.5,164652.29999999702,168232.3999999985,171860.3999999985,175108.3999999985,184272.3999999985,188416.29999999702,194000.29999999702],"key_events":[5316.60000000149,6314.60000000149,13894.60000000149,17058.60000000149,22496.70000000298,24638.5,30178.60000000149,40822.60000000149,42896.5,50250.5,52970.60000000149,134654.3999999985,136300.79999999702,142743,143400.3999999985,147554.3999999985,147948.29999999702,148852.5,155186.29999999702,156810.3999999985,158852.6000000015,160090.29999999702,160592.5,164652.29999999702,166098.29999999702,168232.3999999985,171358.5,171860.3999999985,174620.5,175108.3999999985,184272.3999999985,185734.3999999985,187148.29999999702,187542.29999999702,188416.29999999702,189090.8999999985,189846.6000000015,193458.3999999985,194000.29999999702,196242.5],"mouse_events":[],"straightlining":0.38095238095238093,"zigzagging":0.5,"honeypot":0,"survey":"sns","trial_type":"survey-template","trial_index":2,"time_elapsed":221267,"internal_node_id":"0.0-2.0","task_version":"prescreen-v0.3","browser_interactions":2,"infrequency":0},{"responses":{"Q10":"1","Q02":"3","Q11":"2","Q01":"3","Q04":"3","Q07":"3","Q09":"1","Q08":"3","Q06":"2","Q05":"3","Q13":"0","Q03":"3","Q12":"1"},"rt":126624.30000000447,"item_order":[9,1,10,0,3,6,8,7,5,4,12,2,11],"radio_events":[79533.39999999851,84969.30000000447,87235.5,90961.39999999851,92663.5,96327.30000000447,98245.39999999851,108885.39999999851,110523.30000000447,112085.30000000447,113207.39999999851,116453.20000000298,120521.30000000447,125935.30000000447],"key_events":[79533.39999999851,82935.39999999851,84969.30000000447,87235.5,89216,90961.39999999851,92663.5,94417.30000000447,96327.30000000447,98245.39999999851,103595.5,108885.39999999851,110523.30000000447,112085.30000000447,113207.39999999851,116453.20000000298,120521.30000000447,125935.30000000447,126623.39999999851],"mouse_events":[],"straightlining":0.5384615384615384,"zigzagging":0.5,"honeypot":0,"survey":"bisbas","trial_type":"survey-template","trial_index":3,"time_elapsed":347897,"internal_node_id":"0.0-3.0","task_version":"prescreen-v0.3","browser_interactions":0,"infrequency":0},{"responses":{"Q01":"2","Q02":"2","Q03":"2"},"rt":27719,"radio_events":[7140.5,18454.40000000596,26928.40000000596],"key_events":[7140.5,18454.40000000596,25916.40000000596,26928.40000000596,27718.40000000596],"mouse_events":[],"survey":"map","page":1,"trial_type":"survey-map","trial_index":4,"time_elapsed":375620,"internal_node_id":"0.0-4.0","task_version":"prescreen-v0.3","browser_interactions":0},{"responses":{"Q04":"1","Q05":"1","Q06":"2"},"rt":15950.30000000447,"radio_events":[5171.80000000447,12223.80000000447,15145.60000000149],"key_events":[5171.80000000447,12223.80000000447,14163.80000000447,15145.60000000149,15949.70000000298],"mouse_events":[],"survey":"map","page":2,"trial_type":"survey-map","trial_index":5,"time_elapsed":391572,"internal_node_id":"0.0-5.0","task_version":"prescreen-v0.3","browser_interactions":0},{"responses":{"Q07":"3","Q08":"0","Q09":"3"},"rt":29980.20000000298,"radio_events":[18921.90000000596,22285.90000000596,29353.80000000447],"key_events":[18921.90000000596,22285.90000000596,29353.80000000447,29979.80000000447],"mouse_events":[],"survey":"map","page":3,"trial_type":"survey-map","trial_index":6,"time_elapsed":421555,"internal_node_id":"0.0-6.0","task_version":"prescreen-v0.3","browser_interactions":0},{"responses":{"Q10":"1","Q11":"1","Q12":"0","Q13":"0","Q16":"0","Q14":"1","Q15":"1"},"rt":28884.89999999851,"radio_events":[4180.10000000149,8288.19999999553,9756,12524.10000000149,17726,20634,22876,25489.89999999851,28042],"key_events":[4180.10000000149,7444,8288.19999999553,9756,12524.10000000149,17726,20634,22876,24200,25489.89999999851,27648.69999999553,28042,28884],"mouse_events":[],"survey":"map","page":4,"trial_type":"survey-map","trial_index":7,"time_elapsed":450442,"internal_node_id":"0.0-7.0","task_version":"prescreen-v0.3","browser_interactions":0,"infrequency":0},{"view_history":[{"page_index":0,"viewing_time":82645.70000000298},{"page_index":1,"viewing_time":3579.6999999955297}],"rt":86225.79999999702,"trial_type":"instructions","trial_index":8,"time_elapsed":536671,"internal_node_id":"0.0-8.0","task_version":"prescreen-v0.3"},{"responses":{"01":"Yes","01_ages_8":"8","01_ages_9":"9","01_ages_10":"10","01_ages_11":"11","01_ages_12":"12","01_ages_13":"13","01_ages_14":"14","01_ages_15":"15","01_ages_16":"16","01_ages_17":"17","01_ages_18":"18","02":"Yes","02_ages_8":"8","02_ages_9":"9","02_ages_10":"10","02_ages_11":"11","02_ages_12":"12","02_ages_13":"13","02_ages_14":"14","02_ages_15":"15","02_ages_16":"16","02_ages_17":"17","03":"No","04":"No","05":"No","06":"Yes","06_ages_8":"8","06_ages_9":"9","06_ages_10":"10","06_ages_11":"11","06_ages_12":"12","06_ages_13":"13","06_ages_14":"14"},"rt":81116.89999999851,"item_order":[0,1,2,3,4,5],"radio_events":[7127,32206.70000000298,51066.60000000149,58002.70000000298,59820.80000000447,67328.5],"checkbox_events":[17065,20010.70000000298,20576.80000000447,20984.80000000447,21642.60000000149,22022.80000000447,22385,23336.89999999851,23816.70000000298,24219,25432.80000000447,25942.80000000447,27582.60000000149,34726.60000000149,34982.60000000149,35307.10000000149,35617.30000000447,36226.70000000298,36984.5,37610.70000000298,38538.70000000298,38878.70000000298,39267.10000000149,39744.89999999851,42922.70000000298,69160.60000000149,70530.70000000298,71658.60000000149,71990.60000000149,72362.5,72718.60000000149,73034.60000000149,73654.80000000447,74064.39999999851,74512.60000000149,75030.60000000149,76142.70000000298,76738.60000000149,77140.60000000149,77588.60000000149],"key_events":[0,7127,17065,17582.5,20010.70000000298,20576.80000000447,20984.80000000447,21364.60000000149,21642.60000000149,22022.80000000447,22385,23336.89999999851,23816.70000000298,24219,25432.80000000447,25942.80000000447,27582.60000000149,32206.70000000298,34062.39999999851,34726.60000000149,34982.60000000149,35307.10000000149,35617.30000000447,35940.70000000298,36226.70000000298,36574.89999999851,36984.5,37610.70000000298,37990.60000000149,38538.70000000298,38878.70000000298,39267.10000000149,39744.89999999851,40132.5,42922.70000000298,51066.60000000149,58002.70000000298,59820.80000000447,67328.5,68566.60000000149,69160.60000000149,69880.5,70530.70000000298,71658.60000000149,71990.60000000149,72362.5,72718.60000000149,73034.60000000149,73654.80000000447,74064.39999999851,74512.60000000149,75030.60000000149,76142.70000000298,76738.60000000149,77140.60000000149,77588.60000000149,81114.80000000447],"mouse_events":[],"honeypot":0,"survey":"mace","page":1,"trial_type":"survey-mace","trial_index":9,"time_elapsed":617794,"internal_node_id":"0.0-9.0","task_version":"prescreen-v0.3","browser_interactions":0},{"responses":{"01":"No","02":"No","03":"No","04":"No","05":"No","06":"Yes","06_ages_18":"18","07":"No","08":"No"},"rt":20965.69999999553,"item_order":[0,1,2,3,4,5,6,7],"radio_events":[2879,4850.79999999702,6582.79999999702,8608.79999999702,9690.79999999702,12488.69999999553,19022.69999999553,20260.79999999702],"checkbox_events":[13912.79999999702,14476.79999999702,16309.09999999404],"key_events":[2879,4850.79999999702,6582.79999999702,8608.79999999702,9690.79999999702,12488.69999999553,13912.79999999702,14476.79999999702,16309.09999999404,19022.69999999553,20260.79999999702,20962.79999999702],"mouse_events":[],"honeypot":0,"survey":"mace","page":2,"trial_type":"survey-mace","trial_index":10,"time_elapsed":638762,"internal_node_id":"0.0-10.0","task_version":"prescreen-v0.3","browser_interactions":0},{"responses":{"01":"No","02":"No","03":"No","04":"No"},"rt":36342.39999999851,"item_order":[0,1,2,3],"radio_events":[27222.69999999553,31576.79999999702,33764.89999999851,34398.5],"checkbox_events":[],"key_events":[26086.59999999404,27222.69999999553,31576.79999999702,33764.89999999851,34398.5,36341],"mouse_events":[],"honeypot":0,"survey":"mace","page":3,"trial_type":"survey-mace","trial_index":11,"time_elapsed":675108,"internal_node_id":"0.0-11.0","task_version":"prescreen-v0.3","browser_interactions":0},{"responses":{"01":"No","02":"No"},"rt":11773.20000000298,"item_order":[0,1],"radio_events":[10032.60000000149,11308.60000000149],"checkbox_events":[],"key_events":[10032.60000000149,11308.60000000149,11772.39999999851],"mouse_events":[],"honeypot":0,"survey":"mace","page":4,"trial_type":"survey-mace","trial_index":12,"time_elapsed":686883,"internal_node_id":"0.0-12.0","task_version":"prescreen-v0.3","browser_interactions":0},{"responses":{"01":"No","02":"No","03":"No","04":"No","05":"No"},"rt":22633.29999999702,"item_order":[0,1,2,3,4],"radio_events":[13221.89999999851,17297.5,17939.89999999851,21007.39999999851,21989.5],"checkbox_events":[],"key_events":[13221.89999999851,14583.39999999851,17297.5,17939.89999999851,21007.39999999851,21989.5,22631.39999999851],"mouse_events":[],"honeypot":0,"survey":"mace","page":5,"trial_type":"survey-mace","trial_index":13,"time_elapsed":709518,"internal_node_id":"0.0-13.0","task_version":"prescreen-v0.3","browser_interactions":0},{"responses":{"01":"Yes","01_ages_8":"8","01_ages_9":"9","01_ages_10":"10","01_ages_11":"11","01_ages_12":"12","01_ages_13":"13","01_ages_14":"14","01_ages_15":"15","01_ages_16":"16","01_ages_17":"17","01_ages_18":"18","02":"Yes","02_ages_8":"8","02_ages_9":"9","02_ages_10":"10","02_ages_11":"11","02_ages_12":"12","02_ages_13":"13","02_ages_14":"14","02_ages_15":"15","02_ages_16":"16","02_ages_17":"17","02_ages_18":"18","03":"Yes","03_ages_8":"8","03_ages_9":"9","03_ages_10":"10","03_ages_11":"11","03_ages_12":"12","03_ages_13":"13","03_ages_14":"14","03_ages_15":"15","03_ages_16":"16","03_ages_17":"17","03_ages_18":"18","04":"Yes","04_ages_8":"8","04_ages_9":"9","04_ages_10":"10","04_ages_11":"11","04_ages_12":"12","04_ages_13":"13","04_ages_14":"14","04_ages_15":"15","04_ages_16":"16","04_ages_17":"17","04_ages_18":"18","05":"No"},"rt":66501.80000000447,"item_order":[0,1,2,3,4],"radio_events":[6152,16280.20000000298,17564.10000000149,34720.10000000149,53208,65828],"checkbox_events":[8650.20000000298,9764.20000000298,10436.20000000298,10784.10000000149,11108.20000000298,11488.10000000149,12600.10000000149,13026.40000000596,13404,13838,14278.10000000149,24128,25318,25652,27104,27491.90000000596,28442,29138,29904.10000000149,30228.20000000298,30638.10000000149,31704.10000000149,36746.5,37426,37828,38772.10000000149,39514,40944.10000000149,42635.90000000596,42938.10000000149,43332.10000000149,43680.10000000149,44384.10000000149,44856.10000000149,45644.10000000149,54946,55620,58350.10000000149,58906.30000000447,60306.10000000149,60770.70000000298,61180,61635.90000000596,62122,62540.20000000298,62920],"key_events":[6152,8650.20000000298,9044,9764.20000000298,10436.20000000298,10784.10000000149,11108.20000000298,11488.10000000149,11998.40000000596,12600.10000000149,13026.40000000596,13404,13838,14278.10000000149,16280.20000000298,17564.10000000149,24128,24452.40000000596,24753.90000000596,25318,25652,26030.5,26680,27104,27491.90000000596,27815.90000000596,28442,29138,29904.10000000149,30228.20000000298,30638.10000000149,31380,31704.10000000149,33535.90000000596,34093.90000000596,34379.90000000596,34720.10000000149,36746.5,37094.70000000298,37426,37828,38252.60000000149,38553.90000000596,38772.10000000149,39514,40944.10000000149,41284.10000000149,41817.90000000596,42258.60000000149,42635.90000000596,42938.10000000149,43332.10000000149,43680.10000000149,44384.10000000149,44856.10000000149,45644.10000000149,53208,54304.10000000149,54946,55620,57969.90000000596,58350.10000000149,58906.30000000447,59401.90000000596,59755.90000000596,60306.10000000149,60770.70000000298,61180,61635.90000000596,62122,62540.20000000298,62920,65828,66499.90000000596],"mouse_events":[],"honeypot":0,"survey":"mace","page":6,"trial_type":"survey-mace","trial_index":14,"time_elapsed":776025,"internal_node_id":"0.0-14.0","task_version":"prescreen-v0.3","browser_interactions":0},{"responses":{"01":"No","02":"No","03":"No","04":"No","05":"No","06":"No","07":"No"},"rt":66564,"item_order":[0,1,2,3,4,5,6],"radio_events":[23841.79999999702,55101.69999999553,56871.60000000149,62919.60000000149,63955.69999999553,64813.69999999553,65849.69999999553],"checkbox_events":[],"key_events":[23841.79999999702,55101.69999999553,56871.60000000149,62919.60000000149,63955.69999999553,64813.69999999553,65849.69999999553,66561.5],"mouse_events":[],"honeypot":0,"survey":"mace","page":7,"trial_type":"survey-mace","trial_index":15,"time_elapsed":842592,"internal_node_id":"0.0-15.0","task_version":"prescreen-v0.3","browser_interactions":0},{"responses":{"01":"Yes","01_ages_12":"12","01_ages_13":"13","01_ages_14":"14","02":"Yes","02_ages_15":"15","02_ages_16":"16","02_ages_17":"17","02_ages_18":"18","03":"Yes","03_ages_4":"4","03_ages_5":"5","03_ages_6":"6","03_ages_7":"7","03_ages_8":"8","03_ages_9":"9","03_ages_10":"10","03_ages_11":"11","03_ages_12":"12","03_ages_13":"13","03_ages_14":"14","04":"Yes","04_ages_14":"14","04_ages_15":"15","04_ages_16":"16"},"rt":92351,"item_order":[0,1,2,3],"radio_events":[15463.40000000596,51069.40000000596,61653.40000000596,83929.40000000596],"checkbox_events":[25423.5,26629.5,27325.5,29505.40000000596,35559.40000000596,36379.40000000596,40793.5,41659.40000000596,42339.5,45169.40000000596,46191.40000000596,52197.5,52901.30000000447,54331.30000000447,56945.5,68325.5,68805.90000000596,69153.40000000596,69509.90000000596,69887.20000000298,70227.30000000447,71141.30000000447,71643.40000000596,72153.30000000447,72803.30000000447,73993.30000000447,85785.70000000298,86211.20000000298,86813.30000000447,88707.40000000596,89581.20000000298,90525.30000000447,90865.30000000447],"key_events":[15463.40000000596,25423.5,25871.20000000298,26629.5,27325.5,29505.40000000596,35087.40000000596,35559.40000000596,36379.40000000596,39047.40000000596,39479.40000000596,39843.30000000447,40383.30000000447,40793.5,41133.30000000447,41659.40000000596,42339.5,45169.40000000596,46191.40000000596,51069.40000000596,52197.5,52901.30000000447,54331.30000000447,56589.30000000447,56945.5,61653.40000000596,68325.5,68805.90000000596,69153.40000000596,69509.90000000596,69887.20000000298,70227.30000000447,70599.30000000447,71141.30000000447,71643.40000000596,72153.30000000447,72803.30000000447,73453.40000000596,73993.30000000447,83929.40000000596,85785.70000000298,86211.20000000298,86813.30000000447,88707.40000000596,89581.20000000298,90525.30000000447,90865.30000000447,92349.60000000149],"mouse_events":[],"honeypot":0,"survey":"mace","page":8,"trial_type":"survey-mace","trial_index":16,"time_elapsed":934947,"internal_node_id":"0.0-16.0","task_version":"prescreen-v0.3","browser_interactions":0},{"responses":{"01":"Yes","01_ages_5":"5","01_ages_6":"6","01_ages_7":"7","01_ages_8":"8","01_ages_9":"9","01_ages_10":"10","01_ages_11":"11","01_ages_12":"12","01_ages_13":"13","01_ages_14":"14","01_ages_15":"15","01_ages_16":"16","01_ages_17":"17","01_ages_18":"18","02":"Yes","02_ages_13":"13","02_ages_14":"14","02_ages_15":"15","02_ages_16":"16","02_ages_17":"17","02_ages_18":"18","03":"Yes","03_ages_1":"1","03_ages_2":"2","03_ages_3":"3","03_ages_4":"4","03_ages_5":"5","03_ages_6":"6","03_ages_7":"7","03_ages_8":"8","03_ages_9":"9","03_ages_10":"10","03_ages_11":"11","03_ages_12":"12","03_ages_13":"13","04":"Yes","04_ages_5":"5","04_ages_6":"6","04_ages_7":"7","04_ages_8":"8","04_ages_9":"9","04_ages_10":"10","04_ages_11":"11","04_ages_12":"12"},"rt":216335.6000000015,"item_order":[0,1,2,3],"radio_events":[7234.20000000298,103814.30000000447,135320.1000000015,196866.1000000015,198110.1000000015],"checkbox_events":[10202.30000000447,10620.39999999851,11486.60000000149,11842.30000000447,12198.10000000149,12630.20000000298,13002.20000000298,13342.39999999851,13752.5,14092.10000000149,14478.10000000149,14842.80000000447,15304.20000000298,15776.20000000298,16170.80000000447,16982.20000000298,18010,18574.30000000447,109118.5,109914.20000000298,111182.60000000149,111616.20000000298,116564.30000000447,116950.10000000149,118186,118582.20000000298,118930.20000000298,119562.20000000298,119896.10000000149,120452.10000000149,120816.10000000149,121588.39999999851,122516.30000000447,122910.10000000149,124024.89999999851,124317.89999999851,125316.10000000149,125672.20000000298,127094.30000000447,127574.10000000149,136132.80000000447,136456.1000000015,136882.70000000298,137500.1000000015,138047.8999999985,138366,138768,139162.80000000447,139510,144226.1000000015,144660.1000000015,145200.1000000015,145742,211386.6000000015,211856,212614,213024,213396.1000000015,214570,214980,215475.8999999985],"key_events":[7234.20000000298,9352.20000000298,10202.30000000447,10620.39999999851,11084.20000000298,11486.60000000149,11842.30000000447,12198.10000000149,12630.20000000298,13002.20000000298,13342.39999999851,13752.5,14092.10000000149,14478.10000000149,14842.80000000447,15304.20000000298,15776.20000000298,16170.80000000447,16982.20000000298,17422.20000000298,18010,18574.30000000447,103814.30000000447,109118.5,109512.10000000149,109914.20000000298,110248.20000000298,110718.5,111182.60000000149,111616.20000000298,115434,116052,116564.30000000447,116950.10000000149,117320.10000000149,117970.70000000298,118186,118582.20000000298,118930.20000000298,119262.10000000149,119562.20000000298,119896.10000000149,120452.10000000149,120816.10000000149,121588.39999999851,121906.60000000149,122516.30000000447,122910.10000000149,124024.89999999851,124317.89999999851,124696,125316.10000000149,125672.20000000298,126406,127094.30000000447,127574.10000000149,135320.1000000015,136132.80000000447,136456.1000000015,136882.70000000298,137198.30000000447,137500.1000000015,138047.8999999985,138366,138768,139162.80000000447,139510,140190,144226.1000000015,144660.1000000015,145200.1000000015,145742,196866.1000000015,198110.1000000015,199734.20000000298,211386.6000000015,211856,212306,212614,213024,213396.1000000015,214570,214980,215475.8999999985,216334.1000000015],"mouse_events":[],"honeypot":0,"survey":"mace","page":9,"trial_type":"survey-mace","trial_index":17,"time_elapsed":1151289,"internal_node_id":"0.0-17.0","task_version":"prescreen-v0.3","browser_interactions":2},{"responses":{"01":"No","02":"No","03":"No","04":"No","05":"Yes","05_ages_14":"14","05_ages_15":"15","05_ages_16":"16","05_ages_17":"17","05_ages_18":"18","06":"Yes","06_ages_17":"17","07":"Yes","07_ages_18":"18","08":"Yes","08_ages_14":"14","08_ages_15":"15","08_ages_16":"16","08_ages_17":"17","08_ages_18":"18"},"rt":82096.69999999553,"item_order":[0,1,2,3,4,5,6,7],"radio_events":[7781.89999999851,8307.89999999851,9729.69999999553,11677.89999999851,13897.79999999702,28865.69999999553,71425.59999999404,77385.59999999404],"checkbox_events":[22727.69999999553,23275.59999999404,23615.79999999702,24049.69999999553,24573.79999999702,30303.79999999702,74401.69999999553,78389.29999999702,78891.59999999404,79409.79999999702,79922.29999999702,80453.59999999404],"key_events":[289.5,7781.89999999851,8307.89999999851,9729.69999999553,11677.89999999851,13897.79999999702,21514.09999999404,22727.69999999553,23275.59999999404,23615.79999999702,24049.69999999553,24573.79999999702,28865.69999999553,30303.79999999702,71425.59999999404,74401.69999999553,77385.59999999404,78389.29999999702,78891.59999999404,79409.79999999702,79922.29999999702,80453.59999999404,82093.79999999702],"mouse_events":[],"honeypot":0,"survey":"mace","page":10,"trial_type":"survey-mace","trial_index":18,"time_elapsed":1233389,"internal_node_id":"0.0-18.0","task_version":"prescreen-v0.3","browser_interactions":2,"instructed":0},{"rt":32253,"trial_type":"mental-health-alert","trial_index":19,"time_elapsed":1265645,"internal_node_id":"0.0-19.0","task_version":"prescreen-v0.3","interactions":"[{\"event\":\"blur\",\"trial\":2,\"time\":128163},{\"event\":\"focus\",\"trial\":2,\"time\":154455},{\"event\":\"blur\",\"trial\":17,\"time\":960678},{\"event\":\"focus\",\"trial\":17,\"time\":980626},{\"event\":\"blur\",\"trial\":18,\"time\":1190557},{\"event\":\"focus\",\"trial\":18,\"time\":1222612}]"}]