[{"view_history":[{"page_index":0,"viewing_time":2724},{"page_index":1,"viewing_time":2087},{"page_index":2,"viewing_time":2198},{"page_index":3,"viewing_time":980}],"rt":7989,"trial_type":"instructions","trial_index":0,"time_elapsed":7998,"internal_node_id":"0.0-0.0","task_version":"prescreen-v0.3"},{"rt":13682,"responses":{"age":"21","gender-categorical":"Female","gender-free-response":"","ethnicity":"Not Hispanic or Latino","race":["White"],"education":"Associate degree"},"trial_type":"survey-demo","trial_index":1,"time_elapsed":21690,"internal_node_id":"0.0-1.0","task_version":"prescreen-v0.3"},{"responses":{"Q18":"1","Q01":"2","Q07":"1","Q15":"2","Q21":"3","Q10":"1","Q06":"1","Q04":"2","Q19":"1","Q03":"1","Q12":"2","Q02":"1","Q17":"1","Q14":"2","Q20":"1","Q09":"1","Q08":"1","Q05":"2","Q11":"1","Q16":"1","Q13":"1"},"rt":102782.00000000001,"item_order":[17,0,6,14,20,9,5,3,18,2,11,1,16,13,19,8,7,4,10,15,12],"radio_events":[4744,6959,13403,21245,26796.000000000007,35239,39212,44708,51358,52666.000000000015,55210,59897,63564,65450,68283,73367,75911,80093,82453,88637,91463,100874],"key_events":[],"mouse_events":[4744,6261,6959,13403,17946,20483,21245,26796.000000000007,32744.000000000007,33425,33842,34797,35239,39212,44708,46417,51358,52666.000000000015,55210,59415,59897,63564,64511,64905,65450,68283,73367,75911,80093,82453,86005,88637,90508,91062.00000000001,91463,92128,100336,100874,102768],"straightlining":0.6666666666666666,"zigzagging":0.6,"honeypot":0,"survey":"sns","trial_type":"survey-template","trial_index":2,"time_elapsed":124481,"internal_node_id":"0.0-2.0","task_version":"prescreen-v0.3","browser_interactions":0,"infrequency":0},{"responses":{"Q11":"2","Q13":"0","Q07":"3","Q10":"1","Q06":"3","Q12":"2","Q09":"2","Q05":"3","Q03":"3","Q02":"3","Q08":"2","Q01":"3","Q04":"2"},"rt":47436,"item_order":[10,12,6,9,5,11,8,4,2,1,7,0,3],"radio_events":[7695,13934,16237,20963,24206,26587,29461.00000000003,32536,37632,38266,42086.00000000003,42945,45529,46797],"key_events":[],"mouse_events":[7695,13934,16237,20963,23692,24206,26587,29461.00000000003,32536,36099,37632,38266,42086.00000000003,42945,45529,46797,47425.00000000003],"straightlining":0.46153846153846156,"zigzagging":0.5,"honeypot":0,"survey":"bisbas","trial_type":"survey-template","trial_index":3,"time_elapsed":171924,"internal_node_id":"0.0-3.0","task_version":"prescreen-v0.3","browser_interactions":0,"infrequency":0},{"responses":{"Q01":"4","Q02":"4","Q03":"3"},"rt":11391,"radio_events":[4163,6963,10783],"key_events":[],"mouse_events":[4163,6963,10237,10783,11385],"survey":"map","page":1,"trial_type":"survey-map","trial_index":4,"time_elapsed":183320,"internal_node_id":"0.0-4.0","task_version":"prescreen-v0.3","browser_interactions":0},{"responses":{"Q04":"2","Q05":"3","Q06":"2"},"rt":14599,"radio_events":[3477.000000000029,5026,9924,11256,13351],"key_events":[],"mouse_events":[3477.000000000029,5026,9924,11256,12854,13351,14153,14594],"survey":"map","page":2,"trial_type":"survey-map","trial_index":5,"time_elapsed":197928,"internal_node_id":"0.0-5.0","task_version":"prescreen-v0.3","browser_interactions":0},{"responses":{"Q07":"2","Q08":"3","Q09":"4"},"rt":10628.00000000003,"radio_events":[3818,7236,9916],"key_events":[],"mouse_events":[3818,7236,9916,10623],"survey":"map","page":3,"trial_type":"survey-map","trial_index":6,"time_elapsed":208562,"internal_node_id":"0.0-6.0","task_version":"prescreen-v0.3","browser_interactions":0},{"responses":{"Q10":"3","Q11":"3","Q12":"4","Q13":"4","Q16":"0","Q14":"3","Q15":"4"},"rt":32628.99999999997,"radio_events":[4739.999999999971,7411.999999999971,10863,17965.99999999997,21905.99999999997,28447.99999999997,32107],"key_events":[],"mouse_events":[4739.999999999971,7411.999999999971,10863,17339.99999999997,17965.99999999997,20959.99999999997,21905.99999999997,27893.99999999997,28447.99999999997,32107,32620.99999999997],"survey":"map","page":4,"trial_type":"survey-map","trial_index":7,"time_elapsed":241197,"internal_node_id":"0.0-7.0","task_version":"prescreen-v0.3","browser_interactions":0,"infrequency":0},{"view_history":[{"page_index":0,"viewing_time":1746},{"page_index":1,"viewing_time":3026.000000000029}],"rt":4772.000000000029,"trial_type":"instructions","trial_index":8,"time_elapsed":245972,"internal_node_id":"0.0-8.0","task_version":"prescreen-v0.3"},{"responses":{"01":"Yes","01_ages_13":"13","01_ages_14":"14","01_ages_15":"15","01_ages_16":"16","01_ages_17":"17","01_ages_18":"18","02":"Yes","02_ages_10":"10","02_ages_11":"11","02_ages_12":"12","02_ages_13":"13","02_ages_14":"14","02_ages_15":"15","02_ages_16":"16","02_ages_17":"17","02_ages_18":"18","03":"No","04":"No","05":"No","06":"Yes","06_ages_16":"16","06_ages_17":"17"},"rt":43548.00000000006,"item_order":[0,1,2,3,4,5],"radio_events":[7014,22284,32814,37379,38021,40212],"checkbox_events":[11715.99999999997,12694,13263.99999999997,13881.99999999997,14661.00000000003,19332,24178,24861,25455,26073,26643,27790,28793,29347,29997,42218,42828],"key_events":[],"mouse_events":[0,7014,11715.99999999997,12694,13263.99999999997,13881.99999999997,14661.00000000003,19332,22284,24178,24861,25455,26073,26643,27148,27790,28793,29347,29997,32814,37379,38021,40212,42218,42828,43535],"honeypot":0,"survey":"mace","page":1,"trial_type":"survey-mace","trial_index":9,"time_elapsed":289532,"internal_node_id":"0.0-9.0","task_version":"prescreen-v0.3","browser_interactions":0},{"responses":{"01":"No","02":"No","03":"Yes","03_ages_5":"5","03_ages_6":"6","03_ages_7":"7","03_ages_8":"8","04":"No","05":"No","06":"No","07":"No","08":"No"},"rt":29554,"item_order":[0,1,2,3,4,5,6,7],"radio_events":[5828,6639,8621,18555,23700,26027,28242.00000000006,28907],"checkbox_events":[10667,11904,12561,13323,14287,15490],"key_events":[],"mouse_events":[2426,5242.000000000058,5828,6639,8621,10667,11189,11904,12561,13323,14287,15490,18555,23700,26027,28242.00000000006,28907,29541],"honeypot":0,"survey":"mace","page":2,"trial_type":"survey-mace","trial_index":10,"time_elapsed":319094,"internal_node_id":"0.0-10.0","task_version":"prescreen-v0.3","browser_interactions":0},{"responses":{"01":"No","02":"No","03":"No","04":"No"},"rt":15425,"item_order":[0,1,2,3],"radio_events":[10834.000000000058,12704.000000000058,14295,14879],"checkbox_events":[],"key_events":[],"mouse_events":[10834.000000000058,12704.000000000058,14295,14879,15417],"honeypot":0,"survey":"mace","page":3,"trial_type":"survey-mace","trial_index":11,"time_elapsed":334526,"internal_node_id":"0.0-11.0","task_version":"prescreen-v0.3","browser_interactions":0},{"responses":{"01":"No","02":"No"},"rt":9932,"item_order":[0,1],"radio_events":[7257,9110],"checkbox_events":[],"key_events":[],"mouse_events":[7257,8179,9110,9928],"honeypot":0,"survey":"mace","page":4,"trial_type":"survey-mace","trial_index":12,"time_elapsed":344466,"internal_node_id":"0.0-12.0","task_version":"prescreen-v0.3","browser_interactions":0},{"responses":{"01":"No","02":"No","03":"No","04":"No","05":"No"},"rt":21972,"item_order":[0,1,2,3,4],"radio_events":[10792,12742,15967,18543,21369],"checkbox_events":[],"key_events":[],"mouse_events":[10792,12742,15967,18543,21369,21963],"honeypot":0,"survey":"mace","page":5,"trial_type":"survey-mace","trial_index":13,"time_elapsed":366447,"internal_node_id":"0.0-13.0","task_version":"prescreen-v0.3","browser_interactions":0},{"responses":{"01":"Yes","01_ages_8":"8","01_ages_9":"9","01_ages_10":"10","01_ages_11":"11","01_ages_12":"12","02":"Yes","02_ages_8":"8","02_ages_9":"9","02_ages_10":"10","02_ages_11":"11","02_ages_12":"12","03":"Yes","03_ages_13":"13","03_ages_14":"14","03_ages_15":"15","03_ages_16":"16","03_ages_17":"17","04":"Yes","04_ages_15":"15","04_ages_16":"16","05":"No"},"rt":41502.99999999994,"item_order":[0,1,2,3,4],"radio_events":[5315,22118,27758.99999999994,32996.99999999994,39163.99999999994],"checkbox_events":[14308.999999999942,14950.999999999942,15544.999999999942,16146.999999999942,16731.99999999994,23352.99999999994,23922.99999999994,24436.99999999994,24942.99999999994,25551.99999999994,29059.99999999994,29578.99999999994,30103.99999999994,30728.99999999994,31217.99999999994,34387.99999999994,35045.99999999994],"key_events":[],"mouse_events":[5315,14308.999999999942,14950.999999999942,15544.999999999942,16146.999999999942,16731.99999999994,22118,23352.99999999994,23922.99999999994,24436.99999999994,24942.99999999994,25551.99999999994,27758.99999999994,29059.99999999994,29578.99999999994,30103.99999999994,30728.99999999994,31217.99999999994,32996.99999999994,34387.99999999994,35045.99999999994,39163.99999999994,39845.99999999994,41490.99999999994],"honeypot":0,"survey":"mace","page":6,"trial_type":"survey-mace","trial_index":14,"time_elapsed":407959,"internal_node_id":"0.0-14.0","task_version":"prescreen-v0.3","browser_interactions":0},{"responses":{"01":"No","02":"No","03":"Yes","03_ages_10":"10","04":"No","05":"No","06":"No","07":"No"},"rt":17395.99999999994,"item_order":[0,1,2,3,4,5,6],"radio_events":[4953.999999999942,6526.999999999942,9712.999999999942,12745.999999999942,14344,15184.999999999942,16164.999999999942],"checkbox_events":[10771.999999999942],"key_events":[],"mouse_events":[4953.999999999942,6526.999999999942,9712.999999999942,10771.999999999942,12745.999999999942,14344,15184.999999999942,16164.999999999942,17384.99999999994],"honeypot":0,"survey":"mace","page":7,"trial_type":"survey-mace","trial_index":15,"time_elapsed":425364,"internal_node_id":"0.0-15.0","task_version":"prescreen-v0.3","browser_interactions":0},{"responses":{"01":"Yes","01_ages_12":"12","01_ages_13":"13","01_ages_14":"14","01_ages_15":"15","01_ages_16":"16","01_ages_17":"17","01_ages_18":"18","02":"Yes","02_ages_5":"5","02_ages_6":"6","02_ages_7":"7","02_ages_8":"8","02_ages_9":"9","02_ages_10":"10","02_ages_11":"11","02_ages_12":"12","02_ages_13":"13","02_ages_14":"14","02_ages_15":"15","02_ages_16":"16","02_ages_17":"17","02_ages_18":"18","03":"Yes","03_ages_5":"5","03_ages_6":"6","03_ages_7":"7","03_ages_8":"8","03_ages_9":"9","03_ages_10":"10","03_ages_11":"11","03_ages_12":"12","03_ages_13":"13","03_ages_14":"14","03_ages_15":"15","03_ages_16":"16","03_ages_17":"17","03_ages_18":"18","04":"Yes","04_ages_5":"5","04_ages_6":"6","04_ages_7":"7","04_ages_8":"8","04_ages_9":"9","04_ages_10":"10","04_ages_11":"11","04_ages_12":"12","04_ages_13":"13","04_ages_14":"14","04_ages_15":"15","04_ages_16":"16","04_ages_17":"17","04_ages_18":"18"},"rt":68335.99999999994,"item_order":[0,1,2,3],"radio_events":[14904.999999999942,31175.99999999994,43135.99999999994,55683.99999999994],"checkbox_events":[23675.99999999994,24205.99999999994,24726.99999999994,25248.99999999994,25889.99999999994,26419.99999999994,28000.99999999994,32711.99999999994,33209.99999999994,33778.99999999994,34364.99999999994,34853.99999999994,35424.99999999994,35810,36459.99999999994,37085.99999999994,37638.99999999994,38168.99999999994,38762.99999999994,39300.99999999994,39781.99999999994,44740.99999999994,45471.99999999994,46145.99999999994,46698.99999999994,47204.99999999994,47693.99999999994,48255.99999999994,49162.99999999994,50445.99999999994,51096,51673.99999999994,52170.99999999994,52877.99999999994,53503.99999999994,58109.99999999994,59489.99999999994,60163.99999999994,60949.99999999994,61745,62387,63205.99999999994,63798.99999999994,64544.99999999994,65219.99999999994,65812.99999999994,66573.99999999994,67233.99999999994,67787.99999999994],"key_events":[],"mouse_events":[14904.999999999942,23675.99999999994,24205.99999999994,24726.99999999994,25248.99999999994,25889.99999999994,26419.99999999994,27045.99999999994,27548.99999999994,28000.99999999994,31175.99999999994,32711.99999999994,33209.99999999994,33778.99999999994,34364.99999999994,34853.99999999994,35424.99999999994,35810,36459.99999999994,37085.99999999994,37638.99999999994,38168.99999999994,38762.99999999994,39300.99999999994,39781.99999999994,43135.99999999994,44740.99999999994,45471.99999999994,46145.99999999994,46698.99999999994,47204.99999999994,47693.99999999994,48255.99999999994,48810,49162.99999999994,49747.99999999994,50445.99999999994,51096,51673.99999999994,52170.99999999994,52877.99999999994,53503.99999999994,55683.99999999994,58109.99999999994,59008.99999999994,59489.99999999994,60163.99999999994,60949.99999999994,61745,62387,63205.99999999994,63798.99999999994,64544.99999999994,65219.99999999994,65812.99999999994,66573.99999999994,67233.99999999994,67787.99999999994,68324.99999999994],"honeypot":0,"survey":"mace","page":8,"trial_type":"survey-mace","trial_index":16,"time_elapsed":493708,"internal_node_id":"0.0-16.0","task_version":"prescreen-v0.3","browser_interactions":0},{"responses":{"01":"Yes","01_ages_1":"1","01_ages_2":"2","01_ages_3":"3","01_ages_4":"4","01_ages_5":"5","01_ages_6":"6","01_ages_7":"7","01_ages_8":"8","01_ages_9":"9","01_ages_10":"10","01_ages_11":"11","01_ages_12":"12","01_ages_13":"13","01_ages_14":"14","01_ages_15":"15","01_ages_16":"16","01_ages_17":"17","01_ages_18":"18","02":"Yes","02_ages_1":"1","02_ages_2":"2","02_ages_3":"3","02_ages_4":"4","02_ages_5":"5","02_ages_6":"6","02_ages_7":"7","02_ages_8":"8","02_ages_9":"9","02_ages_10":"10","02_ages_11":"11","02_ages_12":"12","02_ages_13":"13","02_ages_14":"14","02_ages_15":"15","02_ages_16":"16","02_ages_17":"17","02_ages_18":"18","03":"Yes","03_ages_1":"1","03_ages_2":"2","03_ages_3":"3","03_ages_4":"4","03_ages_5":"5","03_ages_6":"6","03_ages_7":"7","03_ages_8":"8","03_ages_9":"9","03_ages_10":"10","03_ages_11":"11","03_ages_12":"12","03_ages_13":"13","03_ages_14":"14","03_ages_15":"15","03_ages_16":"16","03_ages_17":"17","03_ages_18":"18","04":"Yes","04_ages_1":"1","04_ages_2":"2","04_ages_3":"3","04_ages_4":"4","04_ages_5":"5","04_ages_6":"6","04_ages_7":"7","04_ages_8":"8","04_ages_9":"9","04_ages_10":"10","04_ages_11":"11","04_ages_12":"12","04_ages_13":"13","04_ages_14":"14","04_ages_15":"15","04_ages_16":"16","04_ages_17":"17","04_ages_18":"18"},"rt":63992,"item_order":[0,1,2,3],"radio_events":[3465,16810,33077,47610],"checkbox_events":[5808,6354,6931,7509,8111,8633,9146,9614,10069,10679,11698,12121,12982,13416,14258,14723,15197,15727,18310,18889.00000000006,19531,20751,21330.00000000006,21826.00000000006,22362.99999999994,22973,23526.99999999994,24385,24877,26045,26817.00000000006,27699.99999999994,28206.00000000006,29329,30204,30862,35565,36014,36616,37168,38093,38631,39417,40276,40845,41416,41921,42346,42964,43462,43903,44569,45163,45917,51134,51597,52168,52891,53678,54304,54793,55339,55853,56454,57209,58027,58916,59520,60900,61582,62248,62786],"key_events":[],"mouse_events":[3465,5808,6354,6931,7509,8111,8633,9146,9614,10069,10679,11305.000000000058,11698,12121,12533,12982,13416,14258,14723,15197,15727,16810,18310,18889.00000000006,19531,20251,20751,21330.00000000006,21826.00000000006,22362.99999999994,22973,23526.99999999994,24385,24877,25453,26045,26817.00000000006,27699.99999999994,28206.00000000006,28872,29329,30204,30862,33077,35565,36014,36616,37168,38093,38631,39417,40276,40845,41416,41921,42346,42964,43462,43903,44569,45163,45917,46856,47610,51134,51597,52168,52891,53678,54304,54793,55339,55853,56454,57209,58027,58916,59520,60098,60900,61582,62248,62786,63363,63982],"honeypot":0,"survey":"mace","page":9,"trial_type":"survey-mace","trial_index":17,"time_elapsed":557709,"internal_node_id":"0.0-17.0","task_version":"prescreen-v0.3","browser_interactions":0},{"responses":{"01":"No","02":"No","03":"Yes","03_ages_10":"10","03_ages_11":"11","03_ages_12":"12","03_ages_13":"13","03_ages_14":"14","03_ages_15":"15","03_ages_16":"16","03_ages_17":"17","03_ages_18":"18","04":"Yes","04_ages_7":"7","04_ages_8":"8","04_ages_9":"9","04_ages_10":"10","04_ages_11":"11","04_ages_12":"12","04_ages_13":"13","04_ages_14":"14","04_ages_15":"15","05":"Yes","05_ages_1":"1","05_ages_2":"2","05_ages_3":"3","05_ages_4":"4","05_ages_5":"5","05_ages_6":"6","05_ages_7":"7","05_ages_8":"8","05_ages_9":"9","05_ages_10":"10","05_ages_11":"11","05_ages_12":"12","05_ages_13":"13","05_ages_14":"14","05_ages_15":"15","05_ages_16":"16","05_ages_17":"17","05_ages_18":"18","06":"Yes","06_ages_17":"17","07":"Yes","07_ages_1":"1","07_ages_2":"2","07_ages_3":"3","07_ages_4":"4","07_ages_5":"5","07_ages_6":"6","07_ages_7":"7","07_ages_8":"8","07_ages_9":"9","07_ages_10":"10","07_ages_11":"11","07_ages_12":"12","07_ages_13":"13","07_ages_14":"14","07_ages_15":"15","07_ages_16":"16","07_ages_17":"17","07_ages_18":"18","08":"Yes","08_ages_1":"1","08_ages_2":"2","08_ages_3":"3","08_ages_4":"4","08_ages_5":"5","08_ages_6":"6","08_ages_7":"7","08_ages_8":"8","08_ages_9":"9","08_ages_10":"10","08_ages_11":"11","08_ages_12":"12","08_ages_13":"13","08_ages_14":"14","08_ages_15":"15","08_ages_16":"16","08_ages_17":"17","08_ages_18":"18"},"rt":75486,"item_order":[0,1,2,3,4,5,6,7],"radio_events":[4259,7412,10077,10823,12926,20324,29320,41913,47641,61413],"checkbox_events":[14483.000000000116,15020,15582,16047,16577,17018,17540,18125,18703,22002,22571,23446,24048,24586,25100,25517,26086,26800,30524,31287,31849,32659,33375,33847,34505,35050,35468,36358.00000000012,37057,37602,38148,38702,39317,39873,40363.00000000012,40982,43517,48877.00000000012,49407,50121,51052,51638,52304,53179,53750,54366,54872,55538,56164,56694,57223,57825,58387.00000000012,59021,59567,62969,63467,63996,64566,65232,66300,67279,68065,68587,69093,69558,70673,71171,71813,72415,73017,73699,74541],"key_events":[],"mouse_events":[4259,7412,8720,9668,10077,10823,12926,14483.000000000116,15020,15582,16047,16577,17018,17540,18125,18703,20324,22002,22571,23125,23446,24048,24586,25100,25517,26086,26800,29320,30524,30934,31287,31849,32659,33375,33847,34505,35050,35468,36358.00000000012,37057,37602,38148,38702,39317,39873,40363.00000000012,40982,41913,43517,47641,48877.00000000012,49407,50121,50594,51052,51638,52304,52697,53179,53750,54366,54872,55538,56164,56694,57223,57825,58387.00000000012,59021,59567,61413,62969,63467,63996,64566,65232,65890,66300,67279,68065,68587,69093,69558,70096,70673,71171,71813,72415,73017,73699,74174,74541,75071,75473],"honeypot":0,"survey":"mace","page":10,"trial_type":"survey-mace","trial_index":18,"time_elapsed":633206,"internal_node_id":"0.0-18.0","task_version":"prescreen-v0.3","browser_interactions":0,"instructed":0},{"rt":2100,"trial_type":"mental-health-alert","trial_index":19,"time_elapsed":635311,"internal_node_id":"0.0-19.0","task_version":"prescreen-v0.3","interactions":"[]"}]