[{"view_history":[{"page_index":0,"viewing_time":5017},{"page_index":1,"viewing_time":7728},{"page_index":2,"viewing_time":4712},{"page_index":3,"viewing_time":1816}],"rt":19273,"trial_type":"instructions","trial_index":0,"time_elapsed":19277,"internal_node_id":"0.0-0.0","task_version":"prescreen-v0.3"},{"rt":17854,"responses":{"age":"45","gender-categorical":"Male","gender-free-response":"","ethnicity":"Not Hispanic or Latino","race":["White"],"education":"Master degree or higher"},"trial_type":"survey-demo","trial_index":1,"time_elapsed":37148,"internal_node_id":"0.0-1.0","task_version":"prescreen-v0.3"},{"responses":{"Q10":"0","Q21":"3","Q02":"0","Q01":"1","Q17":"0","Q12":"1","Q14":"1","Q06":"1","Q09":"0","Q04":"1","Q20":"2","Q05":"1","Q08":"1","Q11":"0","Q16":"0","Q13":"1","Q18":"2","Q03":"1","Q07":"0","Q19":"0","Q15":"2"},"rt":129734,"item_order":[9,20,1,0,16,11,13,5,8,3,19,4,7,10,15,12,17,2,6,18,14],"radio_events":[4978,8400,13450,18257,22497,27122,29266,34242,42346,45585,51514,55714,61506,64250,72170,73546,76762,85642,89234,94658,97794,105217,110769,118082,127537,128961],"key_events":[4978,8400,13450,18257,21530,22497,27122,29266,34242,42346,45585,51514,54922,55714,61506,64250,72170,73546,76762,84674,85642,89234,94658,97794,105217,110769,118082,127537,128961,129733],"mouse_events":[],"straightlining":0.42857142857142855,"zigzagging":0.7,"honeypot":0,"survey":"sns","trial_type":"survey-template","trial_index":2,"time_elapsed":166894,"internal_node_id":"0.0-2.0","task_version":"prescreen-v0.3","browser_interactions":0,"infrequency":0},{"responses":{"Q10":"2","Q07":"3","Q03":"2","Q06":"3","Q04":"3","Q13":"0","Q01":"3","Q02":"3","Q05":"3","Q09":"2","Q12":"1","Q11":"1","Q08":"3"},"rt":70427,"item_order":[9,6,2,5,3,12,0,1,4,8,11,10,7],"radio_events":[12103,15272,21528,26288,33999,38439,41358,46872,50208,53095,59247,64152,69415],"key_events":[12103,15272,21528,26288,33999,37864,38439,41358,46872,50208,53095,59247,64152,69415,70427],"mouse_events":[],"straightlining":0.5384615384615384,"zigzagging":0.5833333333333334,"honeypot":0,"survey":"bisbas","trial_type":"survey-template","trial_index":3,"time_elapsed":237329,"internal_node_id":"0.0-3.0","task_version":"prescreen-v0.3","browser_interactions":0,"infrequency":0},{"responses":{"Q01":"3","Q02":"2","Q03":"3"},"rt":30119,"radio_events":[15541,20109,21245,28900],"key_events":[15541,20109,21245,28373,28900,30119],"mouse_events":[],"survey":"map","page":1,"trial_type":"survey-map","trial_index":4,"time_elapsed":267453,"internal_node_id":"0.0-4.0","task_version":"prescreen-v0.3","browser_interactions":0},{"responses":{"Q04":"2","Q05":"1","Q06":"2"},"rt":16302,"radio_events":[7684,11772,14883],"key_events":[7684,11772,14883,16302],"mouse_events":[],"survey":"map","page":2,"trial_type":"survey-map","trial_index":5,"time_elapsed":283759,"internal_node_id":"0.0-5.0","task_version":"prescreen-v0.3","browser_interactions":0},{"responses":{"Q07":"4","Q08":"0","Q09":"3"},"rt":22298,"radio_events":[6465,13880,15520,20976],"key_events":[6465,13880,15520,20976,22298],"mouse_events":[],"survey":"map","page":3,"trial_type":"survey-map","trial_index":6,"time_elapsed":306061,"internal_node_id":"0.0-6.0","task_version":"prescreen-v0.3","browser_interactions":0},{"responses":{"Q10":"3","Q11":"3","Q12":"3","Q13":"3","Q16":"0","Q14":"2","Q15":"2"},"rt":56253,"radio_events":[6442,10426,17803,29299,35274,41490,46786],"key_events":[6442,9945,10426,17803,28627,29299,34603,35274,41490,46786,56253],"mouse_events":[],"survey":"map","page":4,"trial_type":"survey-map","trial_index":7,"time_elapsed":362319,"internal_node_id":"0.0-7.0","task_version":"prescreen-v0.3","browser_interactions":0,"infrequency":0},{"view_history":[{"page_index":0,"viewing_time":4145},{"page_index":1,"viewing_time":9584}],"rt":13729,"trial_type":"instructions","trial_index":8,"time_elapsed":376051,"internal_node_id":"0.0-8.0","task_version":"prescreen-v0.3"},{"responses":{"01":"Yes","01_ages_11":"11","01_ages_12":"12","01_ages_13":"13","01_ages_14":"14","01_ages_15":"15","01_ages_16":"16","01_ages_17":"17","01_ages_18":"18","02":"Yes","02_ages_10":"10","02_ages_11":"11","02_ages_12":"12","02_ages_13":"13","02_ages_14":"14","02_ages_15":"15","02_ages_16":"16","02_ages_17":"17","02_ages_18":"18","03":"No","04":"No","05":"No","06":"No"},"rt":81122,"item_order":[0,1,2,3,4,5],"radio_events":[26484,51099,61226,63500,66219,78587],"checkbox_events":[35347,36236,36843,37371,38396,39259,40018,42284,46412,46955,52749,53460,53939,54444,55099,55740,56267,56811,57435],"key_events":[0,26484,35347,36236,36843,37371,37940,38396,39259,40018,42284,46412,46955,51099,52749,53460,53939,54444,55099,55740,56267,56811,57435,61226,63500,66219,78587,81120],"mouse_events":[],"honeypot":0,"survey":"mace","page":1,"trial_type":"survey-mace","trial_index":9,"time_elapsed":457189,"internal_node_id":"0.0-9.0","task_version":"prescreen-v0.3","browser_interactions":0},{"responses":{"01":"No","02":"No","03":"No","04":"No","05":"No","06":"No","07":"No","08":"No"},"rt":29908,"item_order":[0,1,2,3,4,5,6,7],"radio_events":[4767,8857,12207,14711,18735,21119,23128,24271],"checkbox_events":[],"key_events":[4767,8857,12207,14711,18735,21119,23128,24271,29908],"mouse_events":[],"honeypot":0,"survey":"mace","page":2,"trial_type":"survey-mace","trial_index":10,"time_elapsed":487105,"internal_node_id":"0.0-10.0","task_version":"prescreen-v0.3","browser_interactions":0},{"responses":{"01":"No","02":"No","03":"No","04":"No"},"rt":16740,"item_order":[0,1,2,3],"radio_events":[4259,9757,12916,15276],"checkbox_events":[],"key_events":[4259,9757,12916,15276,16740],"mouse_events":[],"honeypot":0,"survey":"mace","page":3,"trial_type":"survey-mace","trial_index":11,"time_elapsed":503852,"internal_node_id":"0.0-11.0","task_version":"prescreen-v0.3","browser_interactions":0},{"responses":{"01":"No","02":"No"},"rt":12015,"item_order":[0,1],"radio_events":[9101,10293],"checkbox_events":[],"key_events":[9101,10293,12015],"mouse_events":[],"honeypot":0,"survey":"mace","page":4,"trial_type":"survey-mace","trial_index":12,"time_elapsed":515869,"internal_node_id":"0.0-12.0","task_version":"prescreen-v0.3","browser_interactions":0},{"responses":{"01":"No","02":"No","03":"No","04":"No","05":"No"},"rt":23612,"item_order":[0,1,2,3,4],"radio_events":[8233,11466,15497,18993,22634],"checkbox_events":[],"key_events":[8233,11466,15497,18993,22634,23612],"mouse_events":[],"honeypot":0,"survey":"mace","page":5,"trial_type":"survey-mace","trial_index":13,"time_elapsed":539488,"internal_node_id":"0.0-13.0","task_version":"prescreen-v0.3","browser_interactions":0},{"responses":{"01":"No","02":"Yes","02_ages_10":"10","02_ages_11":"11","02_ages_12":"12","02_ages_13":"13","02_ages_14":"14","02_ages_15":"15","02_ages_16":"16","03":"No","04":"No","05":"No"},"rt":44489,"item_order":[0,1,2,3,4],"radio_events":[13670,21814,36470,38894,42534],"checkbox_events":[26670,27237,27870,28607,29198,29870,30942],"key_events":[13670,21814,26670,27237,27870,28607,29198,29870,30942,36470,38894,42534,44489],"mouse_events":[],"honeypot":0,"survey":"mace","page":6,"trial_type":"survey-mace","trial_index":14,"time_elapsed":583983,"internal_node_id":"0.0-14.0","task_version":"prescreen-v0.3","browser_interactions":0},{"responses":{"01":"No","02":"No","03":"No","04":"No","05":"No","06":"No","07":"No"},"rt":22023,"item_order":[0,1,2,3,4,5,6],"radio_events":[5011,7404,11979,13908,16356,19421,20676],"checkbox_events":[],"key_events":[5011,7404,11979,13908,16356,19421,20676,22023],"mouse_events":[],"honeypot":0,"survey":"mace","page":7,"trial_type":"survey-mace","trial_index":15,"time_elapsed":606016,"internal_node_id":"0.0-15.0","task_version":"prescreen-v0.3","browser_interactions":0},{"responses":{"01":"No","02":"No","03":"Yes","03_ages_13":"13","03_ages_14":"14","03_ages_15":"15","03_ages_16":"16","03_ages_17":"17","03_ages_18":"18","04":"No"},"rt":40801,"item_order":[0,1,2,3],"radio_events":[12775,22768,26422,37998],"checkbox_events":[30006,30494,31030,32278,32966,33718],"key_events":[12775,22768,26422,30006,30494,31030,31727,32278,32966,33718,37998,40801],"mouse_events":[],"honeypot":0,"survey":"mace","page":8,"trial_type":"survey-mace","trial_index":16,"time_elapsed":646823,"internal_node_id":"0.0-16.0","task_version":"prescreen-v0.3","browser_interactions":0},{"responses":{"01":"Yes","01_ages_4":"4","01_ages_5":"5","01_ages_6":"6","01_ages_7":"7","01_ages_8":"8","01_ages_9":"9","01_ages_10":"10","01_ages_11":"11","01_ages_12":"12","01_ages_13":"13","01_ages_14":"14","01_ages_15":"15","01_ages_16":"16","01_ages_17":"17","01_ages_18":"18","02":"Yes","02_ages_6":"6","02_ages_7":"7","02_ages_8":"8","02_ages_9":"9","02_ages_10":"10","02_ages_11":"11","02_ages_12":"12","02_ages_13":"13","02_ages_14":"14","02_ages_15":"15","02_ages_16":"16","02_ages_17":"17","02_ages_18":"18","03":"Yes","03_ages_4":"4","03_ages_5":"5","03_ages_6":"6","03_ages_7":"7","03_ages_8":"8","03_ages_9":"9","03_ages_10":"10","03_ages_11":"11","03_ages_12":"12","03_ages_13":"13","03_ages_14":"14","03_ages_15":"15","03_ages_16":"16","03_ages_17":"17","03_ages_18":"18","04":"Yes","04_ages_6":"6","04_ages_7":"7","04_ages_8":"8","04_ages_9":"9","04_ages_10":"10","04_ages_11":"11","04_ages_12":"12","04_ages_13":"13","04_ages_14":"14","04_ages_15":"15","04_ages_16":"16"},"rt":76968,"item_order":[0,1,2,3],"radio_events":[7581,29068,43845,60349],"checkbox_events":[12094,12869,13397,13933,14501,15149,15685,16141,16725,17669,18837,19437,20069,21261,22109,22589,23277,23789,24261,24813,25605,32101,32932,33468,34013,34702,35140,35612,36293,37069,37885,38333,39286,39829,46557,46980,47492,47981,48605,49285,49789,50221,50669,51189,51981,52501,53085,53749,54445,64085,64885,65317,66067,66541,66997,67508,67949,68477,68989,69813],"key_events":[7581,12094,12869,13397,13933,14501,15149,15685,16141,16725,17669,18837,19437,20069,21261,21718,22109,22589,23277,23789,24261,24813,25605,29068,32101,32932,33468,34013,34702,35140,35612,36293,37069,37885,38333,39286,39829,43845,46557,46980,47492,47981,48605,49285,49789,50221,50669,51189,51981,52501,53085,53749,54445,60349,64085,64510,64885,65317,66067,66541,66997,67508,67949,68477,68989,69813,76968],"mouse_events":[],"honeypot":0,"survey":"mace","page":9,"trial_type":"survey-mace","trial_index":17,"time_elapsed":723802,"internal_node_id":"0.0-17.0","task_version":"prescreen-v0.3","browser_interactions":0},{"responses":{"01":"No","02":"No","03":"No","04":"Yes","04_ages_8":"8","04_ages_9":"9","04_ages_10":"10","04_ages_11":"11","04_ages_12":"12","04_ages_13":"13","04_ages_14":"14","04_ages_15":"15","04_ages_16":"16","05":"No","06":"Yes","06_ages_17":"17","07":"Yes","07_ages_4":"4","07_ages_5":"5","07_ages_6":"6","07_ages_7":"7","07_ages_8":"8","07_ages_9":"9","07_ages_10":"10","07_ages_11":"11","07_ages_12":"12","07_ages_13":"13","07_ages_14":"14","07_ages_15":"15","07_ages_16":"16","07_ages_17":"17","07_ages_18":"18","08":"Yes","08_ages_4":"4","08_ages_5":"5","08_ages_6":"6","08_ages_7":"7","08_ages_8":"8","08_ages_9":"9","08_ages_10":"10","08_ages_11":"11","08_ages_12":"12","08_ages_13":"13","08_ages_14":"14","08_ages_15":"15","08_ages_16":"16","08_ages_17":"17","08_ages_18":"18"},"rt":79614,"item_order":[0,1,2,3,4,5,6,7],"radio_events":[7234,9059,17867,25155,42395,45346,51315,67723],"checkbox_events":[30827,31554,32019,32507,33075,33594,34331,34891,38299,46835,55011,55507,56251,56715,57307,57979,58435,59331,59955,60443,60970,61754,62667,63379,64298,70067,70546,71122,71682,72177,73107,73891,74562,75179,75683,76291,76769,77235,77787,78242],"key_events":[7234,9059,17867,25155,30827,31554,32019,32507,33075,33594,34331,34891,38299,42395,45346,46835,51315,53979,55011,55507,56251,56715,57307,57979,58435,58907,59331,59955,60443,60970,61754,62219,62667,63379,63875,64298,67107,67723,69171,70067,70546,71122,71682,72177,73107,73891,74562,75179,75683,76291,76769,77235,77787,78242,79614],"mouse_events":[],"honeypot":0,"survey":"mace","page":10,"trial_type":"survey-mace","trial_index":18,"time_elapsed":803426,"internal_node_id":"0.0-18.0","task_version":"prescreen-v0.3","browser_interactions":0,"instructed":0},{"rt":11454,"trial_type":"mental-health-alert","trial_index":19,"time_elapsed":814883,"internal_node_id":"0.0-19.0","task_version":"prescreen-v0.3","interactions":"[{\"event\":\"focus\",\"trial\":0,\"time\":1}]"}]