[{"view_history":[{"page_index":0,"viewing_time":7180},{"page_index":1,"viewing_time":6375.4000000059605},{"page_index":2,"viewing_time":6707.89999999851},{"page_index":3,"viewing_time":2776.10000000149}],"rt":23040.80000000447,"trial_type":"instructions","trial_index":0,"time_elapsed":23066,"internal_node_id":"0.0-0.0","task_version":"prescreen-v0.3"},{"rt":38842.40000000596,"responses":{"age":"80","gender-categorical":"Male","gender-free-response":"","ethnicity":"Not Hispanic or Latino","race":["White"],"education":"Master degree or higher","siblings":"1"},"trial_type":"survey-demo","trial_index":1,"time_elapsed":61929,"internal_node_id":"0.0-1.0","task_version":"prescreen-v0.3"},{"responses":{"Q05":"0","Q01":"0","Q10":"0","Q15":"2","Q13":"2","Q20":"3","Q12":"0","Q02":"1","Q18":"1","Q07":"3","Q11":"1","Q19":"1","Q06":"2","Q21":"3","Q17":"1","Q16":"0","Q14":"0","Q03":"2","Q04":"2","Q09":"2","Q08":"1"},"rt":216305.69999999553,"item_order":[4,0,9,14,12,19,11,1,17,6,10,18,5,20,16,15,13,2,3,8,7],"radio_events":[14463.29999999702,19575.09999999404,26271.29999999702,45911,52059,58223,70955.09999999404,83670.89999999851,89275,92219.09999999404,103547.89999999851,107697,120582.89999999851,134210.8999999985,140254.79999999702,147446.79999999702,155863,171619.09999999404,180170.8999999985,186215,194431.09999999404,198006.79999999702,209759],"key_events":[],"mouse_events":[14463.29999999702,19575.09999999404,26271.29999999702,45911,52059,58223,70955.09999999404,83670.89999999851,89275,92219.09999999404,103547.89999999851,107697,120582.89999999851,134210.8999999985,140254.79999999702,147446.79999999702,155863,165294.5,171619.09999999404,180170.8999999985,186215,194431.09999999404,198006.79999999702,200759.59999999404,209759,216299.3999999985],"straightlining":0.2857142857142857,"zigzagging":0.35,"honeypot":0,"survey":"sns","trial_type":"survey-template","trial_index":2,"time_elapsed":278255,"internal_node_id":"0.0-2.0","task_version":"prescreen-v0.3","browser_interactions":0,"infrequency":0},{"responses":{"Q04":"3","Q01":"3","Q07":"3","Q11":"2","Q03":"3","Q10":"2","Q13":"0","Q06":"2","Q09":"2","Q02":"3","Q08":"3","Q12":"2","Q05":"2"},"rt":79107.79999999702,"item_order":[3,0,6,10,2,9,12,5,8,1,7,11,4],"radio_events":[8943.70000000298,11983.89999999851,16408.39999999851,24240,30479.70000000298,35271.60000000149,38503.70000000298,47831.39999999851,52167.70000000298,55439.79999999702,64351.60000000149,65843.60000000149,73615.5,77871.60000000149],"key_events":[],"mouse_events":[8943.70000000298,11983.89999999851,16408.39999999851,24240,30479.70000000298,35271.60000000149,38503.70000000298,47831.39999999851,52167.70000000298,55439.79999999702,64351.60000000149,65843.60000000149,73615.5,77871.60000000149,79103.89999999851],"straightlining":0.46153846153846156,"zigzagging":0.4166666666666667,"honeypot":0,"survey":"bisbas","trial_type":"survey-template","trial_index":3,"time_elapsed":357373,"internal_node_id":"0.0-3.0","task_version":"prescreen-v0.3","browser_interactions":0,"infrequency":0},{"responses":{"Q01":"2","Q02":"1","Q03":"1"},"rt":40952.89999999851,"radio_events":[22743,29839.09999999404,39430.89999999851],"key_events":[],"mouse_events":[22743,29839.09999999404,39430.89999999851,40951],"survey":"map","page":1,"trial_type":"survey-map","trial_index":4,"time_elapsed":398335,"internal_node_id":"0.0-4.0","task_version":"prescreen-v0.3","browser_interactions":0},{"responses":{"Q04":"1","Q05":"2","Q06":"2"},"rt":31146.39999999851,"radio_events":[8832.80000000447,15052.60000000149,17152.70000000298,29664.70000000298],"key_events":[],"mouse_events":[8832.80000000447,15052.60000000149,17152.70000000298,29664.70000000298,31144.5],"survey":"map","page":2,"trial_type":"survey-map","trial_index":5,"time_elapsed":429492,"internal_node_id":"0.0-5.0","task_version":"prescreen-v0.3","browser_interactions":0},{"responses":{"Q07":"4","Q08":"4","Q09":"4"},"rt":21135.69999999553,"radio_events":[8662.10000000149,14182.10000000149,19966],"key_events":[],"mouse_events":[8662.10000000149,14182.10000000149,19966,21133.89999999851],"survey":"map","page":3,"trial_type":"survey-map","trial_index":6,"time_elapsed":450636,"internal_node_id":"0.0-6.0","task_version":"prescreen-v0.3","browser_interactions":0},{"responses":{"Q10":"1","Q11":"0","Q12":"0","Q13":"0","Q16":"0","Q14":"2","Q15":"2"},"rt":65989.29999999702,"radio_events":[8209.60000000149,17029.60000000149,24030.10000000149,36529.70000000298,44597.79999999702,52154.39999999851,54825.89999999851,65025.70000000298],"key_events":[],"mouse_events":[8209.60000000149,17029.60000000149,24030.10000000149,36529.70000000298,44597.79999999702,52154.39999999851,53489.79999999702,54825.89999999851,65025.70000000298,65985.79999999702],"survey":"map","page":4,"trial_type":"survey-map","trial_index":7,"time_elapsed":516637,"internal_node_id":"0.0-7.0","task_version":"prescreen-v0.3","browser_interactions":0,"infrequency":0},{"view_history":[{"page_index":0,"viewing_time":5014.39999999851},{"page_index":1,"viewing_time":8963.70000000298}],"rt":13979.70000000298,"trial_type":"instructions","trial_index":8,"time_elapsed":530626,"internal_node_id":"0.0-8.0","task_version":"prescreen-v0.3"},{"responses":{"01":"No","02":"No","03":"No","04":"No","05":"No","06":"No"},"rt":32930.60000000149,"item_order":[0,1,2,3,4,5],"radio_events":[13430,17196.69999999553,22144.89999999851,24984.79999999702,26768.5,30748.69999999553],"checkbox_events":[],"key_events":[],"mouse_events":[0.5,13430,17196.69999999553,22144.89999999851,24984.79999999702,26768.5,29448.69999999553,30748.69999999553,32920.89999999851],"honeypot":0,"survey":"mace","page":1,"trial_type":"survey-mace","trial_index":9,"time_elapsed":563569,"internal_node_id":"0.0-9.0","task_version":"prescreen-v0.3","browser_interactions":0},{"responses":{"01":"No","02":"No","03":"Yes","03_ages_2":"2","03_ages_3":"3","03_ages_4":"4","03_ages_5":"5","03_ages_6":"6","03_ages_7":"7","04":"No","05":"No","06":"No","07":"No","08":"No"},"rt":50399.30000000447,"item_order":[0,1,2,3,4,5,6,7],"radio_events":[3318.39999999851,5358.5,14342.5,35986.5,40118.39999999851,43442.30000000447,46022.5,49210.30000000447],"checkbox_events":[22415.10000000149,23022.60000000149,23710.30000000447,24146.20000000298,26302.30000000447,29638.39999999851],"key_events":[],"mouse_events":[3318.39999999851,5358.5,14342.5,22415.10000000149,23022.60000000149,23710.30000000447,24146.20000000298,26302.30000000447,29638.39999999851,35986.5,40118.39999999851,43442.30000000447,46022.5,49210.30000000447,50386.39999999851],"honeypot":0,"survey":"mace","page":2,"trial_type":"survey-mace","trial_index":10,"time_elapsed":613977,"internal_node_id":"0.0-10.0","task_version":"prescreen-v0.3","browser_interactions":0},{"responses":{"01":"No","02":"No","03":"No","04":"No"},"rt":21954.5,"item_order":[0,1,2,3],"radio_events":[11203.79999999702,14835.5,18107.70000000298,20743.60000000149],"checkbox_events":[],"key_events":[],"mouse_events":[11203.79999999702,14835.5,18107.70000000298,20743.60000000149,21947.70000000298],"honeypot":0,"survey":"mace","page":3,"trial_type":"survey-mace","trial_index":11,"time_elapsed":635940,"internal_node_id":"0.0-11.0","task_version":"prescreen-v0.3","browser_interactions":0},{"responses":{"01":"No","02":"No"},"rt":10030,"item_order":[0,1],"radio_events":[6582.30000000447,9041.30000000447],"checkbox_events":[],"key_events":[],"mouse_events":[6582.30000000447,9041.30000000447,10026.20000000298],"honeypot":0,"survey":"mace","page":4,"trial_type":"survey-mace","trial_index":12,"time_elapsed":645977,"internal_node_id":"0.0-12.0","task_version":"prescreen-v0.3","browser_interactions":0},{"responses":{"01":"No","02":"No","03":"No","04":"No","05":"No"},"rt":35235.89999999851,"item_order":[0,1,2,3,4],"radio_events":[20059.79999999702,24787.79999999702,27371.70000000298,30123.70000000298,33043.70000000298],"checkbox_events":[],"key_events":[],"mouse_events":[20059.79999999702,24787.79999999702,27371.70000000298,30123.70000000298,33043.70000000298,35227.5],"honeypot":0,"survey":"mace","page":5,"trial_type":"survey-mace","trial_index":13,"time_elapsed":681222,"internal_node_id":"0.0-13.0","task_version":"prescreen-v0.3","browser_interactions":0},{"responses":{"01":"No","02":"No","03":"No","04":"No","05":"No"},"rt":25150.70000000298,"item_order":[0,1,2,3,4],"radio_events":[9876.89999999851,13923.5,17972.89999999851,20668.60000000149,24256.60000000149],"checkbox_events":[],"key_events":[],"mouse_events":[9876.89999999851,13923.5,17972.89999999851,20668.60000000149,24256.60000000149,25140.5],"honeypot":0,"survey":"mace","page":6,"trial_type":"survey-mace","trial_index":14,"time_elapsed":706381,"internal_node_id":"0.0-14.0","task_version":"prescreen-v0.3","browser_interactions":0},{"responses":{"01":"No","02":"No","03":"No","04":"No","05":"No","06":"No","07":"No"},"rt":33791.89999999851,"item_order":[0,1,2,3,4,5,6],"radio_events":[9436.39999999851,15005.19999999553,23981.39999999851,26861.19999999553,28657.10000000149,30269.10000000149,32153.19999999553],"checkbox_events":[],"key_events":[],"mouse_events":[9436.39999999851,15005.19999999553,23981.39999999851,26861.19999999553,28657.10000000149,30269.10000000149,32153.19999999553,33781],"honeypot":0,"survey":"mace","page":7,"trial_type":"survey-mace","trial_index":15,"time_elapsed":740183,"internal_node_id":"0.0-15.0","task_version":"prescreen-v0.3","browser_interactions":0},{"responses":{"01":"No","02":"No","03":"No","04":"No"},"rt":32713.30000000447,"item_order":[0,1,2,3],"radio_events":[10022.30000000447,20506.60000000149,26518.60000000149,31826.40000000596],"checkbox_events":[],"key_events":[],"mouse_events":[10022.30000000447,20506.60000000149,26518.60000000149,31826.40000000596,32706.40000000596],"honeypot":0,"survey":"mace","page":8,"trial_type":"survey-mace","trial_index":16,"time_elapsed":772904,"internal_node_id":"0.0-16.0","task_version":"prescreen-v0.3","browser_interactions":0},{"responses":{"01":"Yes","01_ages_1":"1","01_ages_2":"2","01_ages_3":"3","01_ages_4":"4","01_ages_5":"5","01_ages_6":"6","01_ages_7":"7","01_ages_8":"8","01_ages_9":"9","01_ages_10":"10","01_ages_11":"11","01_ages_12":"12","01_ages_13":"13","01_ages_14":"14","01_ages_15":"15","01_ages_16":"16","01_ages_17":"17","01_ages_18":"18","02":"Yes","02_ages_1":"1","02_ages_2":"2","02_ages_3":"3","02_ages_4":"4","02_ages_5":"5","02_ages_6":"6","02_ages_7":"7","02_ages_8":"8","02_ages_9":"9","02_ages_10":"10","02_ages_11":"11","02_ages_12":"12","02_ages_13":"13","02_ages_14":"14","02_ages_15":"15","02_ages_16":"16","02_ages_17":"17","02_ages_18":"18","03":"Yes","03_ages_1":"1","03_ages_2":"2","03_ages_3":"3","03_ages_4":"4","03_ages_5":"5","03_ages_6":"6","03_ages_7":"7","03_ages_8":"8","03_ages_9":"9","03_ages_10":"10","03_ages_11":"11","03_ages_12":"12","03_ages_13":"13","03_ages_14":"14","03_ages_15":"15","03_ages_16":"16","03_ages_17":"17","03_ages_18":"18","04":"Yes","04_ages_1":"1","04_ages_2":"2","04_ages_3":"3","04_ages_4":"4","04_ages_5":"5","04_ages_6":"6","04_ages_7":"7","04_ages_8":"8","04_ages_9":"9","04_ages_10":"10","04_ages_11":"11","04_ages_12":"12","04_ages_13":"13","04_ages_14":"14","04_ages_15":"15","04_ages_16":"16","04_ages_17":"17","04_ages_18":"18"},"rt":88540.79999999702,"item_order":[0,1,2,3],"radio_events":[6361.60000000149,31697.39999999851,55045.60000000149,75005.39999999851],"checkbox_events":[12330.10000000149,13010.39999999851,13433.29999999702,13794.10000000149,14570.89999999851,14922.60000000149,16281.69999999553,16801.5,17241.79999999702,17674,18457.60000000149,18874,19981.39999999851,20673.89999999851,22705.69999999553,23593.60000000149,24369.60000000149,24977.5,34937.69999999553,35370.69999999553,36129.79999999702,36549.5,37009.79999999702,37473.5,37922.39999999851,38641.69999999553,41793.69999999553,42857.69999999553,43365.69999999553,43869.69999999553,44401.69999999553,44852.5,45300.19999999553,46164.39999999851,46653.60000000149,47201.5,56473.60000000149,56909.5,57429.39999999851,58462.10000000149,58933.60000000149,59509.79999999702,60221.39999999851,61381.60000000149,62573.5,63118.79999999702,63693.5,64173.79999999702,64662.29999999702,65245.60000000149,65693.69999999553,66157.5,66621.19999999553,67141.60000000149,76653.79999999702,77165.5,77989.79999999702,78425.79999999702,78869.5,79333.60000000149,79805.60000000149,80317.39999999851,80845.69999999553,81325.60000000149,83165.60000000149,84095.19999999553,84773.60000000149,85229.60000000149,85645.69999999553,86129.60000000149,86573.60000000149,87637.5],"key_events":[],"mouse_events":[6361.60000000149,12330.10000000149,13010.39999999851,13433.29999999702,13794.10000000149,14570.89999999851,14922.60000000149,16281.69999999553,16801.5,17241.79999999702,17674,18457.60000000149,18874,19337.5,19981.39999999851,20673.89999999851,22121.39999999851,22705.69999999553,23129.69999999553,23593.60000000149,24369.60000000149,24977.5,31697.39999999851,34937.69999999553,35370.69999999553,36129.79999999702,36549.5,37009.79999999702,37473.5,37922.39999999851,38641.69999999553,40882.10000000149,41793.69999999553,42857.69999999553,43365.69999999553,43869.69999999553,44401.69999999553,44852.5,45300.19999999553,46164.39999999851,46653.60000000149,47201.5,55045.60000000149,56473.60000000149,56909.5,57429.39999999851,57893.39999999851,58462.10000000149,58933.60000000149,59509.79999999702,60221.39999999851,60805.69999999553,61381.60000000149,62573.5,63118.79999999702,63693.5,64173.79999999702,64662.29999999702,65245.60000000149,65693.69999999553,66157.5,66621.19999999553,67141.60000000149,75005.39999999851,76653.79999999702,77165.5,77989.79999999702,78425.79999999702,78869.5,79333.60000000149,79805.60000000149,80317.39999999851,80845.69999999553,81325.60000000149,81917.60000000149,83165.60000000149,84095.19999999553,84773.60000000149,85229.60000000149,85645.69999999553,86129.60000000149,86573.60000000149,87637.5,88534.29999999702],"honeypot":0,"survey":"mace","page":9,"trial_type":"survey-mace","trial_index":17,"time_elapsed":861455,"internal_node_id":"0.0-17.0","task_version":"prescreen-v0.3","browser_interactions":0},{"responses":{"01":"No","02":"No","03":"No","04":"No","05":"Yes","05_ages_1":"1","05_ages_2":"2","05_ages_3":"3","05_ages_4":"4","05_ages_5":"5","05_ages_6":"6","05_ages_7":"7","05_ages_8":"8","05_ages_9":"9","05_ages_10":"10","05_ages_11":"11","05_ages_12":"12","05_ages_13":"13","05_ages_14":"14","05_ages_15":"15","05_ages_16":"16","05_ages_17":"17","06":"Yes","06_ages_17":"17","07":"Yes","07_ages_1":"1","07_ages_2":"2","07_ages_3":"3","07_ages_4":"4","07_ages_5":"5","07_ages_6":"6","07_ages_7":"7","07_ages_8":"8","07_ages_9":"9","07_ages_10":"10","07_ages_11":"11","07_ages_12":"12","07_ages_13":"13","07_ages_14":"14","07_ages_15":"15","07_ages_16":"16","07_ages_17":"17","07_ages_18":"18","08":"Yes","08_ages_1":"1","08_ages_2":"2","08_ages_3":"3","08_ages_4":"4","08_ages_5":"5","08_ages_6":"6","08_ages_7":"7","08_ages_8":"8","08_ages_9":"9","08_ages_10":"10","08_ages_11":"11","08_ages_12":"12","08_ages_13":"13","08_ages_14":"14","08_ages_15":"15","08_ages_16":"16","08_ages_17":"17","08_ages_18":"18"},"rt":87856.89999999851,"item_order":[0,1,2,3,4,5,6,7],"radio_events":[5633.5,8233.39999999851,11488.80000000447,18337,25088.80000000447,46868.89999999851,56420.80000000447,73804.80000000447],"checkbox_events":[27688.89999999851,28232.70000000298,29108.60000000149,29545.20000000298,29941.5,30632.80000000447,31256.80000000447,31716.80000000447,32093.60000000149,32660.70000000298,33192.89999999851,34069.20000000298,34805.20000000298,35428.80000000447,35848.89999999851,36350.10000000149,36812.70000000298,51644.70000000298,59404.89999999851,59844.89999999851,60565,60988.80000000447,61579.5,61989.39999999851,62892.80000000447,63316.80000000447,63756.80000000447,64300.70000000298,64741.30000000447,65180.60000000149,65589.10000000149,66300.80000000447,66716.89999999851,67716.80000000447,69205.39999999851,69672.89999999851,75652.80000000447,76273.80000000447,76932.89999999851,77352.70000000298,77860.80000000447,78356.80000000447,78812.80000000447,79444.80000000447,79884.60000000149,81276.60000000149,81732.70000000298,82356.89999999851,82980.89999999851,83436.70000000298,83997.39999999851,84812.80000000447,85724.80000000447,86284.89999999851],"key_events":[],"mouse_events":[5633.5,8233.39999999851,11488.80000000447,18337,25088.80000000447,27688.89999999851,28232.70000000298,28657.20000000298,29108.60000000149,29545.20000000298,29941.5,30632.80000000447,31256.80000000447,31716.80000000447,32093.60000000149,32660.70000000298,33192.89999999851,34069.20000000298,34805.20000000298,35428.80000000447,35848.89999999851,36350.10000000149,36812.70000000298,46868.89999999851,50656.60000000149,51644.70000000298,56420.80000000447,58612.70000000298,59404.89999999851,59844.89999999851,60565,60988.80000000447,61579.5,61989.39999999851,62396.60000000149,62892.80000000447,63316.80000000447,63756.80000000447,64300.70000000298,64741.30000000447,65180.60000000149,65589.10000000149,66300.80000000447,66716.89999999851,67716.80000000447,68236.70000000298,69205.39999999851,69672.89999999851,73804.80000000447,75652.80000000447,76273.80000000447,76932.89999999851,77352.70000000298,77860.80000000447,78356.80000000447,78812.80000000447,79444.80000000447,79884.60000000149,81276.60000000149,81732.70000000298,82356.89999999851,82980.89999999851,83436.70000000298,83997.39999999851,84434.80000000447,84812.80000000447,85724.80000000447,86284.89999999851,87845.5],"honeypot":0,"survey":"mace","page":10,"trial_type":"survey-mace","trial_index":18,"time_elapsed":949322,"internal_node_id":"0.0-18.0","task_version":"prescreen-v0.3","browser_interactions":0,"instructed":0},{"rt":115178,"trial_type":"mental-health-alert","trial_index":19,"time_elapsed":1064518,"internal_node_id":"0.0-19.0","task_version":"prescreen-v0.3","interactions":"[]"}]