[{"view_history":[{"page_index":0,"viewing_time":1948.7999999523163},{"page_index":1,"viewing_time":3904.9000000953674},{"page_index":2,"viewing_time":2575.0999999046326},{"page_index":3,"viewing_time":1024.5999999046326}],"rt":9454.399999856949,"trial_type":"instructions","trial_index":0,"time_elapsed":9480,"internal_node_id":"0.0-0.0","task_version":"prescreen-v0.3"},{"rt":16584.10000014305,"responses":{"age":"34","gender-categorical":"Female","gender-free-response":"","ethnicity":"Not Hispanic or Latino","race":["White"],"education":"Bachelor degree"},"trial_type":"survey-demo","trial_index":1,"time_elapsed":26074,"internal_node_id":"0.0-1.0","task_version":"prescreen-v0.3"},{"responses":{"Q16":"3","Q03":"2","Q21":"2","Q12":"1","Q10":"2","Q05":"2","Q07":"1","Q13":"2","Q04":"2","Q17":"2","Q11":"2","Q18":"1","Q06":"1","Q19":"1","Q20":"3","Q14":"2","Q08":"2","Q01":"1","Q09":"1","Q15":"3","Q02":"2"},"rt":111403.29999995232,"item_order":[15,2,20,11,9,4,6,12,3,16,10,17,5,18,19,13,7,0,8,14,1],"radio_events":[12903,16624.699999809265,23327.299999952316,28720,32841.39999985695,40488.09999990463,45576.09999990463,49328.09999990463,53544.199999809265,58791.299999952316,60383.89999985695,66007.59999990463,70879.79999995232,75857.09999990463,80575.79999995232,89791.89999985695,97824.59999990463,99143.89999985695,103040.79999995232,107040.79999995232,110679.79999995232],"key_events":[],"mouse_events":[12903,16624.699999809265,20631.89999985695,23327.299999952316,28296.5,28720,32225.299999952316,32841.39999985695,40488.09999990463,45576.09999990463,49328.09999990463,53544.199999809265,58791.299999952316,60383.89999985695,66007.59999990463,70168.29999995232,70879.79999995232,75857.09999990463,79424.59999990463,79936,80575.79999995232,89791.89999985695,97824.59999990463,99143.89999985695,103040.79999995232,107040.79999995232,110241.5,110679.79999995232,111400.19999980927],"straightlining":0.5238095238095238,"zigzagging":0.45,"honeypot":0,"survey":"sns","trial_type":"survey-template","trial_index":2,"time_elapsed":137481,"internal_node_id":"0.0-2.0","task_version":"prescreen-v0.3","browser_interactions":2,"infrequency":0.5},{"responses":{"Q07":"2","Q13":"1","Q09":"1","Q05":"2","Q04":"3","Q11":"2","Q03":"3","Q02":"3","Q01":"3","Q06":"2","Q12":"1","Q08":"1","Q10":"2"},"rt":51050.5,"item_order":[6,12,8,4,3,10,2,1,0,5,11,7,9],"radio_events":[5503.799999952316,10287.399999856949,12078.599999904633,13902.799999952316,20871.299999952316,25519.39999985695,28271.599999904633,31318.5,33016.09999990463,36166.39999985695,39759.59999990463,45271.699999809265,50439.299999952316],"key_events":[],"mouse_events":[5503.799999952316,10287.399999856949,12078.599999904633,13902.799999952316,20871.299999952316,25519.39999985695,28271.599999904633,31318.5,33016.09999990463,36166.39999985695,39759.59999990463,45271.699999809265,50439.299999952316,51049.09999990463],"straightlining":0.38461538461538464,"zigzagging":0.6666666666666666,"honeypot":0,"survey":"bisbas","trial_type":"survey-template","trial_index":3,"time_elapsed":188535,"internal_node_id":"0.0-3.0","task_version":"prescreen-v0.3","browser_interactions":0,"infrequency":0.5},{"responses":{"Q01":"2","Q02":"2","Q03":"2"},"rt":12825.300000190735,"radio_events":[7040.800000190735,9816.600000143051,12281],"key_events":[],"mouse_events":[7040.800000190735,9816.600000143051,12281,12824.400000095367],"survey":"map","page":1,"trial_type":"survey-map","trial_index":4,"time_elapsed":201364,"internal_node_id":"0.0-4.0","task_version":"prescreen-v0.3","browser_interactions":0},{"responses":{"Q04":"1","Q05":"1","Q06":"2"},"rt":13756.400000095367,"radio_events":[6836.099999904633,11036.700000047684,13131.900000095367],"key_events":[],"mouse_events":[5965.599999904633,6836.099999904633,11036.700000047684,13131.900000095367,13755.700000047684],"survey":"map","page":2,"trial_type":"survey-map","trial_index":5,"time_elapsed":215123,"internal_node_id":"0.0-5.0","task_version":"prescreen-v0.3","browser_interactions":0},{"responses":{"Q07":"3","Q08":"3","Q09":"2"},"rt":10437.800000190735,"radio_events":[3412.7000000476837,6093.100000143051,9820.5],"key_events":[],"mouse_events":[3412.7000000476837,6093.100000143051,9820.5,10436.700000047684],"survey":"map","page":3,"trial_type":"survey-map","trial_index":6,"time_elapsed":225563,"internal_node_id":"0.0-6.0","task_version":"prescreen-v0.3","browser_interactions":0},{"responses":{"Q10":"1","Q11":"2","Q12":"0","Q13":"2","Q16":"0","Q14":"2","Q15":"2"},"rt":28006.299999952316,"radio_events":[5172.600000143051,7236.5,14092.5,17308.5,22980.299999952316,25884.5,27349.5],"key_events":[],"mouse_events":[5172.600000143051,7236.5,14092.5,17308.5,22980.299999952316,25884.5,27349.5,28004.799999952316],"survey":"map","page":4,"trial_type":"survey-map","trial_index":7,"time_elapsed":253571,"internal_node_id":"0.0-7.0","task_version":"prescreen-v0.3","browser_interactions":0,"infrequency":0},{"view_history":[{"page_index":0,"viewing_time":2157.199999809265},{"page_index":1,"viewing_time":2477.800000190735}],"rt":4635.599999904633,"trial_type":"instructions","trial_index":8,"time_elapsed":258208,"internal_node_id":"0.0-8.0","task_version":"prescreen-v0.3"},{"responses":{"01":"Yes","01_ages_10":"10","01_ages_11":"11","01_ages_12":"12","01_ages_13":"13","02":"Yes","02_ages_10":"10","02_ages_11":"11","02_ages_12":"12","02_ages_13":"13","03":"No","04":"No","05":"No","06":"No"},"rt":35021.700000047684,"item_order":[0,1,2,3,4,5],"radio_events":[9202.5,21490.700000047684,28586.60000014305,31658.400000095367,32810.5,34169.90000009537],"checkbox_events":[14763.200000047684,15531.100000143051,16634.5,17291.200000047684,22794.700000047684,23290.5,23962.900000095367,25010.700000047684],"key_events":[],"mouse_events":[0.10000014305114746,9202.5,14763.200000047684,15531.100000143051,16634.5,17291.200000047684,21490.700000047684,22794.700000047684,23290.5,23962.900000095367,24435.10000014305,25010.700000047684,28586.60000014305,31658.400000095367,32810.5,34169.90000009537,35018],"honeypot":0,"survey":"mace","page":1,"trial_type":"survey-mace","trial_index":9,"time_elapsed":293237,"internal_node_id":"0.0-9.0","task_version":"prescreen-v0.3","browser_interactions":0},{"responses":{"01":"No","02":"No","03":"No","04":"No","05":"No","06":"No","07":"No","08":"No"},"rt":24236.799999952316,"item_order":[0,1,2,3,4,5,6,7],"radio_events":[2751.7000000476837,5542.700000047684,7782.700000047684,19751.700000047684,20927.60000014305,22327.299999952316,22991.799999952316,23775.400000095367],"checkbox_events":[],"key_events":[],"mouse_events":[2751.7000000476837,5542.700000047684,7782.700000047684,19751.700000047684,20927.60000014305,22327.299999952316,22991.799999952316,23775.400000095367,24231.900000095367],"honeypot":0,"survey":"mace","page":2,"trial_type":"survey-mace","trial_index":10,"time_elapsed":317479,"internal_node_id":"0.0-10.0","task_version":"prescreen-v0.3","browser_interactions":0},{"responses":{"01":"No","02":"No","03":"No","04":"No"},"rt":10992.699999809265,"item_order":[0,1,2,3],"radio_events":[4462,8501.899999856949,9598.599999904633,10438.099999904633],"checkbox_events":[],"key_events":[],"mouse_events":[4462,8501.899999856949,9598.599999904633,10438.099999904633,10989.899999856949],"honeypot":0,"survey":"mace","page":3,"trial_type":"survey-mace","trial_index":11,"time_elapsed":328475,"internal_node_id":"0.0-11.0","task_version":"prescreen-v0.3","browser_interactions":0},{"responses":{"01":"No","02":"No"},"rt":5786.400000095367,"item_order":[0,1],"radio_events":[3184.300000190735,4841.400000095367],"checkbox_events":[],"key_events":[],"mouse_events":[3184.300000190735,4841.400000095367,5785.200000047684],"honeypot":0,"survey":"mace","page":4,"trial_type":"survey-mace","trial_index":12,"time_elapsed":334264,"internal_node_id":"0.0-12.0","task_version":"prescreen-v0.3","browser_interactions":0},{"responses":{"01":"No","02":"No","03":"No","04":"No","05":"No"},"rt":15638.799999952316,"item_order":[0,1,2,3,4],"radio_events":[5251.5,8979.600000143051,11131.5,13067.600000143051,14628.600000143051],"checkbox_events":[],"key_events":[],"mouse_events":[5251.5,8979.600000143051,11131.5,13067.600000143051,14628.600000143051,15635.600000143051],"honeypot":0,"survey":"mace","page":5,"trial_type":"survey-mace","trial_index":13,"time_elapsed":349907,"internal_node_id":"0.0-13.0","task_version":"prescreen-v0.3","browser_interactions":0},{"responses":{"01":"No","02":"No","03":"No","04":"No","05":"No"},"rt":20931.299999952316,"item_order":[0,1,2,3,4],"radio_events":[13632.5,14944.399999856949,16848.599999904633,19096.5,19928.5],"checkbox_events":[],"key_events":[],"mouse_events":[13632.5,14944.399999856949,16848.599999904633,18552.799999952316,19096.5,19928.5,20928.39999985695],"honeypot":0,"survey":"mace","page":6,"trial_type":"survey-mace","trial_index":14,"time_elapsed":370843,"internal_node_id":"0.0-14.0","task_version":"prescreen-v0.3","browser_interactions":0},{"responses":{"01":"No","02":"No","03":"No","04":"No","05":"No","06":"No","07":"No"},"rt":11004.399999856949,"item_order":[0,1,2,3,4,5,6],"radio_events":[2704.399999856949,4248.599999904633,5535.799999952316,7111.799999952316,8576.199999809265,9784,10608],"checkbox_events":[],"key_events":[],"mouse_events":[2704.399999856949,4248.599999904633,5535.799999952316,7111.799999952316,8576.199999809265,9784,10608,11000.099999904633],"honeypot":0,"survey":"mace","page":7,"trial_type":"survey-mace","trial_index":15,"time_elapsed":381852,"internal_node_id":"0.0-15.0","task_version":"prescreen-v0.3","browser_interactions":0},{"responses":{"01":"No","02":"No","03":"Yes","03_ages_9":"9","03_ages_10":"10","03_ages_11":"11","03_ages_12":"12","03_ages_13":"13","04":"Yes","04_ages_9":"9","04_ages_10":"10","04_ages_11":"11","04_ages_12":"12","04_ages_13":"13"},"rt":33657.09999990463,"item_order":[0,1,2,3],"radio_events":[7056,9598,15447.199999809265,29655.89999985695],"checkbox_events":[22479.39999985695,22935,23342.89999985695,23727,24525.89999985695,30526.599999904633,31302.699999809265,31790.89999985695,32655.89999985695,33102.799999952316],"key_events":[],"mouse_events":[7056,9598,15447.199999809265,22479.39999985695,22935,23342.89999985695,23727,24127,24525.89999985695,29655.89999985695,30526.599999904633,31302.699999809265,31790.89999985695,32183,32655.89999985695,33102.799999952316,33655.09999990463],"honeypot":0,"survey":"mace","page":8,"trial_type":"survey-mace","trial_index":16,"time_elapsed":415512,"internal_node_id":"0.0-16.0","task_version":"prescreen-v0.3","browser_interactions":0},{"responses":{"01":"Yes","01_ages_1":"1","01_ages_2":"2","01_ages_3":"3","01_ages_4":"4","01_ages_5":"5","01_ages_6":"6","01_ages_7":"7","01_ages_8":"8","01_ages_9":"9","01_ages_10":"10","01_ages_11":"11","01_ages_12":"12","01_ages_13":"13","01_ages_14":"14","01_ages_15":"15","01_ages_16":"16","01_ages_17":"17","01_ages_18":"18","02":"Yes","02_ages_1":"1","02_ages_2":"2","02_ages_3":"3","02_ages_4":"4","02_ages_5":"5","02_ages_6":"6","02_ages_7":"7","02_ages_8":"8","02_ages_9":"9","02_ages_10":"10","02_ages_11":"11","02_ages_12":"12","02_ages_13":"13","02_ages_14":"14","02_ages_15":"15","02_ages_16":"16","02_ages_17":"17","02_ages_18":"18","03":"Yes","03_ages_1":"1","03_ages_2":"2","03_ages_3":"3","03_ages_4":"4","03_ages_5":"5","03_ages_6":"6","03_ages_7":"7","03_ages_8":"8","03_ages_9":"9","03_ages_10":"10","03_ages_11":"11","03_ages_12":"12","03_ages_13":"13","03_ages_14":"14","03_ages_15":"15","03_ages_16":"16","03_ages_17":"17","03_ages_18":"18","04":"Yes","04_ages_1":"1","04_ages_2":"2","04_ages_3":"3","04_ages_4":"4","04_ages_5":"5","04_ages_6":"6","04_ages_7":"7","04_ages_8":"8","04_ages_9":"9","04_ages_10":"10","04_ages_11":"11","04_ages_12":"12","04_ages_13":"13","04_ages_14":"14","04_ages_15":"15","04_ages_16":"16","04_ages_17":"17","04_ages_18":"18"},"rt":64014.10000014305,"item_order":[0,1,2,3],"radio_events":[4681.600000143051,22241.5,36281.799999952316,52306.5],"checkbox_events":[9089.5,9562.5,9970.900000095367,10746.100000143051,11170.299999952316,11994.900000095367,12595.600000143051,13042.5,13434.200000047684,14098.900000095367,15186.600000143051,15762.299999952316,16602.299999952316,17035.400000095367,17618.900000095367,18226.5,18738.60000014305,19570.900000095367,23811.60000014305,24130.299999952316,24466.400000095367,25018.60000014305,26258.60000014305,26714.60000014305,27066.5,27706.60000014305,28106.5,28458.60000014305,29090.5,29498.60000014305,30011.700000047684,30467,31066.700000047684,31938.5,32529.900000095367,33170.5,40171.299999952316,40666.60000014305,41050.60000014305,41770.5,42161.90000009537,42530.40000009537,42865.60000014305,43979.60000014305,44538.700000047684,45683,46338.5,46890.5,47402.5,48306.5,49106.40000009537,49970.90000009537,50530.60000014305,50994.60000014305,53969.60000014305,54289.700000047684,55058.299999952316,55434.299999952316,55786.5,56146.5,56538.5,56922.5,57498.60000014305,57898.5,58258.90000009537,58779.10000014305,59395.60000014305,61082.5,61834.700000047684,62289.700000047684,62961.60000014305,63411.700000047684],"key_events":[],"mouse_events":[4681.600000143051,9089.5,9562.5,9970.900000095367,10354.600000143051,10746.100000143051,11170.299999952316,11642.299999952316,11994.900000095367,12595.600000143051,13042.5,13434.200000047684,14098.900000095367,14498.900000095367,15186.600000143051,15762.299999952316,16265.600000143051,16602.299999952316,17035.400000095367,17618.900000095367,18226.5,18738.60000014305,19570.900000095367,22241.5,23811.60000014305,24130.299999952316,24466.400000095367,25018.60000014305,26258.60000014305,26714.60000014305,27066.5,27706.60000014305,28106.5,28458.60000014305,29090.5,29498.60000014305,30011.700000047684,30467,31066.700000047684,31586.299999952316,31938.5,32529.900000095367,33170.5,36281.799999952316,40171.299999952316,40666.60000014305,41050.60000014305,41770.5,42161.90000009537,42530.40000009537,42865.60000014305,43266.40000009537,43979.60000014305,44538.700000047684,45683,46338.5,46890.5,47402.5,48306.5,49106.40000009537,49970.90000009537,50530.60000014305,50994.60000014305,52306.5,53969.60000014305,54289.700000047684,54618.60000014305,55058.299999952316,55434.299999952316,55786.5,56146.5,56538.5,56922.5,57498.60000014305,57898.5,58258.90000009537,58779.10000014305,59395.60000014305,61082.5,61834.700000047684,62289.700000047684,62961.60000014305,63411.700000047684,64011.700000047684],"honeypot":0,"survey":"mace","page":9,"trial_type":"survey-mace","trial_index":17,"time_elapsed":479528,"internal_node_id":"0.0-17.0","task_version":"prescreen-v0.3","browser_interactions":0},{"responses":{"01":"No","02":"No","03":"No","04":"No","05":"No","06":"Yes","06_ages_17":"17","07":"Yes","07_ages_1":"1","07_ages_2":"2","07_ages_3":"3","07_ages_4":"4","07_ages_5":"5","07_ages_6":"6","07_ages_7":"7","07_ages_8":"8","07_ages_9":"9","07_ages_10":"10","07_ages_11":"11","07_ages_12":"12","07_ages_13":"13","07_ages_14":"14","07_ages_15":"15","07_ages_16":"16","07_ages_17":"17","07_ages_18":"18","08":"Yes","08_ages_1":"1","08_ages_2":"2","08_ages_3":"3","08_ages_4":"4","08_ages_5":"5","08_ages_6":"6","08_ages_7":"7","08_ages_8":"8","08_ages_9":"9","08_ages_10":"10","08_ages_11":"11","08_ages_12":"12","08_ages_13":"13","08_ages_14":"14","08_ages_15":"15","08_ages_16":"16","08_ages_17":"17","08_ages_18":"18"},"rt":49556.5,"item_order":[0,1,2,3,4,5,6,7],"radio_events":[5024.400000095367,8016.300000190735,10600.300000190735,12640.300000190735,14848.100000143051,17600.300000190735,25680.400000095367,26424.300000190735],"checkbox_events":[19048.200000047684,27704.200000047684,28096,28648.10000014305,29007.400000095367,29824.300000190735,30216.200000047684,30728.200000047684,31224.5,31794,32152.300000190735,32793.60000014305,33344.200000047684,33920.10000014305,34256.300000190735,34977.200000047684,35352.5,35728.5,36160.800000190735,37664.60000014305,38288.60000014305,39256.800000190735,39864,40152.40000009537,41344.10000014305,41752.200000047684,42400.300000190735,43194.10000014305,43896.200000047684,44504.300000190735,46120,46561.200000047684,47032.200000047684,47656,48024.40000009537,48368.200000047684,49088.40000009537],"key_events":[],"mouse_events":[5024.400000095367,8016.300000190735,10600.300000190735,12640.300000190735,14848.100000143051,17600.300000190735,19048.200000047684,25680.400000095367,26424.300000190735,27704.200000047684,28096,28648.10000014305,29007.400000095367,29344.700000047684,29824.300000190735,30216.200000047684,30728.200000047684,31224.5,31794,32152.300000190735,32793.60000014305,33344.200000047684,33920.10000014305,34256.300000190735,34600.5,34977.200000047684,35352.5,35728.5,36160.800000190735,37664.60000014305,37959.800000190735,38288.60000014305,39256.800000190735,39864,40152.40000009537,40711.90000009537,41344.10000014305,41752.200000047684,42400.300000190735,43194.10000014305,43896.200000047684,44504.300000190735,46120,46561.200000047684,47032.200000047684,47656,48024.40000009537,48368.200000047684,49088.40000009537,49552.200000047684],"honeypot":0,"survey":"mace","page":10,"trial_type":"survey-mace","trial_index":18,"time_elapsed":529089,"internal_node_id":"0.0-18.0","task_version":"prescreen-v0.3","browser_interactions":0,"instructed":0},{"rt":10806.899999856949,"trial_type":"mental-health-alert","trial_index":19,"time_elapsed":539898,"internal_node_id":"0.0-19.0","task_version":"prescreen-v0.3","interactions":"[{\"event\":\"blur\",\"trial\":2,\"time\":30191},{\"event\":\"focus\",\"trial\":2,\"time\":36399}]"}]