[{"view_history":[{"page_index":0,"viewing_time":5068.800000011921},{"page_index":1,"viewing_time":4603},{"page_index":2,"viewing_time":4537.799999952316},{"page_index":3,"viewing_time":1788.2000000476837}],"rt":16000.800000011921,"trial_type":"instructions","trial_index":0,"time_elapsed":16089,"internal_node_id":"0.0-0.0","task_version":"prescreen-v0.3"},{"rt":24919.399999976158,"responses":{"age":"30","gender-categorical":"Female","gender-free-response":"","ethnicity":"Not Hispanic or Latino","race":["White"],"education":"Some college"},"trial_type":"survey-demo","trial_index":1,"time_elapsed":41050,"internal_node_id":"0.0-1.0","task_version":"prescreen-v0.3"},{"responses":{"Q14":"2","Q18":"2","Q17":"3","Q09":"3","Q03":"1","Q21":"3","Q11":"3","Q08":"2","Q10":"3","Q04":"2","Q15":"3","Q02":"1","Q13":"2","Q06":"1","Q05":"2","Q07":"1","Q19":"1","Q20":"2","Q16":"2","Q12":"1","Q01":"2"},"rt":99040.30000001192,"item_order":[13,17,16,8,2,20,10,7,9,3,14,1,12,5,4,6,18,19,15,11,0],"radio_events":[11626.899999976158,16075.5,20074.399999976158,22836.69999998808,27097.30000001192,31333,34079,35833.39999997616,41557.5,45113.80000001192,48393.80000001192,53891.39999997616,57545.69999998808,60652.30000001192,64672.59999996424,75382.09999996424,80237.39999997616,86046.80000001192,87545.5,90798.69999998808,95316.09999996424,97989.30000001192],"key_events":[],"mouse_events":[11626.899999976158,16075.5,20074.399999976158,22836.69999998808,27097.30000001192,31333,34079,35833.39999997616,41557.5,45113.80000001192,48393.80000001192,53891.39999997616,57545.69999998808,60652.30000001192,64672.59999996424,73558.80000001192,75382.09999996424,80237.39999997616,86046.80000001192,87545.5,90798.69999998808,95316.09999996424,97989.30000001192,99032.69999998808],"straightlining":0.42857142857142855,"zigzagging":0.6,"honeypot":0,"survey":"sns","trial_type":"survey-template","trial_index":2,"time_elapsed":140107,"internal_node_id":"0.0-2.0","task_version":"prescreen-v0.3","browser_interactions":0,"infrequency":0},{"responses":{"Q01":"3","Q08":"2","Q05":"2","Q02":"2","Q03":"3","Q06":"3","Q04":"3","Q11":"1","Q13":"0","Q10":"1","Q09":"1","Q07":"3","Q12":"1"},"rt":55523.299999952316,"item_order":[0,7,4,1,2,5,3,10,12,9,8,6,11],"radio_events":[5872.699999988079,11829.299999952316,16042.199999988079,19179.799999952316,23379.5,27930.69999998808,31026.5,34840,38480,45965.39999997616,47473.19999998808,50970.19999998808,54495],"key_events":[],"mouse_events":[5872.699999988079,11829.299999952316,16042.199999988079,19179.799999952316,23379.5,27930.69999998808,31026.5,34840,38480,45965.39999997616,47473.19999998808,50970.19999998808,54495,55518.09999996424],"straightlining":0.38461538461538464,"zigzagging":0.3333333333333333,"honeypot":0,"survey":"bisbas","trial_type":"survey-template","trial_index":3,"time_elapsed":195645,"internal_node_id":"0.0-3.0","task_version":"prescreen-v0.3","browser_interactions":0,"infrequency":0},{"responses":{"Q01":"2","Q02":"1","Q03":"2"},"rt":21245.200000047684,"radio_events":[10408.200000047684,14809.200000047684,20136.600000023842],"key_events":[],"mouse_events":[10408.200000047684,14809.200000047684,20136.600000023842,21242.30000001192],"survey":"map","page":1,"trial_type":"survey-map","trial_index":4,"time_elapsed":216901,"internal_node_id":"0.0-4.0","task_version":"prescreen-v0.3","browser_interactions":0},{"responses":{"Q04":"1","Q05":"2","Q06":"2"},"rt":15503.5,"radio_events":[8115.399999976158,11721.599999964237,14423.399999976158],"key_events":[],"mouse_events":[8115.399999976158,11721.599999964237,14423.399999976158,15501.899999976158],"survey":"map","page":2,"trial_type":"survey-map","trial_index":5,"time_elapsed":232413,"internal_node_id":"0.0-5.0","task_version":"prescreen-v0.3","browser_interactions":0},{"responses":{"Q07":"3","Q08":"2","Q09":"2"},"rt":15968.400000035763,"radio_events":[7060.600000023842,10178.600000023842,14667.600000023842],"key_events":[],"mouse_events":[7060.600000023842,10178.600000023842,14667.600000023842,15966.700000047684],"survey":"map","page":3,"trial_type":"survey-map","trial_index":6,"time_elapsed":248390,"internal_node_id":"0.0-6.0","task_version":"prescreen-v0.3","browser_interactions":0},{"responses":{"Q10":"1","Q11":"1","Q12":"2","Q13":"2","Q16":"0","Q14":"2","Q15":"2"},"rt":62578.299999952316,"radio_events":[33246.5,36838.5,41551.69999998808,48543.59999996424,52190.89999997616,56639.89999997616,61593.69999998808],"key_events":[],"mouse_events":[33246.5,36838.5,41551.69999998808,48543.59999996424,52190.89999997616,56639.89999997616,61593.69999998808,62575.59999996424],"survey":"map","page":4,"trial_type":"survey-map","trial_index":7,"time_elapsed":310980,"internal_node_id":"0.0-7.0","task_version":"prescreen-v0.3","browser_interactions":0,"infrequency":0},{"view_history":[{"page_index":0,"viewing_time":3536.800000011921},{"page_index":1,"viewing_time":6736.300000011921}],"rt":10275.400000035763,"trial_type":"instructions","trial_index":8,"time_elapsed":321262,"internal_node_id":"0.0-8.0","task_version":"prescreen-v0.3"},{"responses":{"01":"No","02":"Yes","02_ages_10":"10","02_ages_11":"11","02_ages_12":"12","03":"No","04":"No","05":"No","06":"No"},"rt":35537.69999998808,"item_order":[0,1,2,3,4,5],"radio_events":[11414.5,15753.699999988079,28223.599999964237,30240.899999976158,31781.5,34186.09999996424],"checkbox_events":[23407.80000001192,24576.69999998808,25210.599999964237],"key_events":[],"mouse_events":[0.30000001192092896,11414.5,15753.699999988079,23407.80000001192,24576.69999998808,25210.599999964237,28223.599999964237,30240.899999976158,31781.5,34186.09999996424,35527.69999998808],"honeypot":0,"survey":"mace","page":1,"trial_type":"survey-mace","trial_index":9,"time_elapsed":356828,"internal_node_id":"0.0-9.0","task_version":"prescreen-v0.3","browser_interactions":0},{"responses":{"01":"No","02":"No","03":"Yes","03_ages_3":"3","03_ages_4":"4","03_ages_5":"5","04":"No","05":"No","06":"No","07":"No","08":"No"},"rt":27731.399999976158,"item_order":[0,1,2,3,4,5,6,7],"radio_events":[8157.800000011921,10134.599999964237,12421.399999976158,20183.899999976158,21341.80000001192,23953.30000001192,25345.5,26813.69999998808],"checkbox_events":[14272.800000011921,15136.800000011921,16173.300000011921],"key_events":[],"mouse_events":[8157.800000011921,10134.599999964237,12421.399999976158,14272.800000011921,15136.800000011921,15669.300000011921,16173.300000011921,20183.899999976158,21341.80000001192,23953.30000001192,25345.5,26813.69999998808,27719.30000001192],"honeypot":0,"survey":"mace","page":2,"trial_type":"survey-mace","trial_index":10,"time_elapsed":384580,"internal_node_id":"0.0-10.0","task_version":"prescreen-v0.3","browser_interactions":0},{"responses":{"01":"No","02":"No","03":"No","04":"No"},"rt":12814,"item_order":[0,1,2,3],"radio_events":[4992.600000023842,9081.699999988079,10623.199999988079,12063.399999976158],"checkbox_events":[],"key_events":[],"mouse_events":[4992.600000023842,9081.699999988079,10623.199999988079,12063.399999976158,12806],"honeypot":0,"survey":"mace","page":3,"trial_type":"survey-mace","trial_index":11,"time_elapsed":397407,"internal_node_id":"0.0-11.0","task_version":"prescreen-v0.3","browser_interactions":0},{"responses":{"01":"No","02":"No"},"rt":11005.200000047684,"item_order":[0,1],"radio_events":[8687.200000047684,10104],"checkbox_events":[],"key_events":[],"mouse_events":[8687.200000047684,10104,11002.400000035763],"honeypot":0,"survey":"mace","page":4,"trial_type":"survey-mace","trial_index":12,"time_elapsed":408421,"internal_node_id":"0.0-12.0","task_version":"prescreen-v0.3","browser_interactions":0},{"responses":{"01":"No","02":"No","03":"No","04":"Yes","04_ages_9":"9","04_ages_10":"10","04_ages_11":"11","04_ages_12":"12","05":"No"},"rt":33665.69999998808,"item_order":[0,1,2,3,4],"radio_events":[10244.5,13996.699999988079,17153.69999998808,20849.69999998808,32463.900000035763],"checkbox_events":[25935.30000001192,26688.19999998808,27365.400000035763,28263.900000035763],"key_events":[],"mouse_events":[10244.5,13996.699999988079,17153.69999998808,20849.69999998808,25147.5,25935.30000001192,26688.19999998808,27365.400000035763,28263.900000035763,32463.900000035763,33659.30000001192],"honeypot":0,"survey":"mace","page":5,"trial_type":"survey-mace","trial_index":13,"time_elapsed":442103,"internal_node_id":"0.0-13.0","task_version":"prescreen-v0.3","browser_interactions":0},{"responses":{"01":"Yes","01_ages_9":"9","01_ages_10":"10","01_ages_11":"11","01_ages_12":"12","01_ages_13":"13","02":"Yes","02_ages_9":"9","02_ages_10":"10","02_ages_11":"11","02_ages_12":"12","02_ages_13":"13","03":"Yes","03_ages_11":"11","03_ages_12":"12","03_ages_13":"13","03_ages_14":"14","03_ages_15":"15","04":"No","05":"No"},"rt":41871.30000001192,"item_order":[0,1,2,3,4],"radio_events":[8738.300000011921,20096.599999964237,28734.399999976158,39471.59999996424,40716.39999997616],"checkbox_events":[14003.099999964237,14811.699999988079,15703.199999988079,16284.099999964237,16994.69999998808,21147.599999964237,21701.69999998808,22805.899999976158,24739.30000001192,25618.099999964237,31704.899999976158,32824.39999997616,33909.59999996424,34690.19999998808,35271.09999996424],"key_events":[],"mouse_events":[8738.300000011921,14003.099999964237,14811.699999988079,15703.199999988079,16284.099999964237,16994.69999998808,20096.599999964237,21147.599999964237,21701.69999998808,22805.899999976158,23367,24028.19999998808,24739.30000001192,25618.099999964237,28734.399999976158,31001.399999976158,31704.899999976158,32824.39999997616,33485.19999998808,33909.59999996424,34690.19999998808,35271.09999996424,39471.59999996424,40716.39999997616,41863.30000001192],"honeypot":0,"survey":"mace","page":6,"trial_type":"survey-mace","trial_index":14,"time_elapsed":483990,"internal_node_id":"0.0-14.0","task_version":"prescreen-v0.3","browser_interactions":0},{"responses":{"01":"No","02":"No","03":"No","04":"No","05":"No","06":"No","07":"No"},"rt":26639.19999998808,"item_order":[0,1,2,3,4,5,6],"radio_events":[6906,8894.399999976158,10400.300000011921,12853.399999976158,14249.199999988079,20716.399999976158,24937.600000023842],"checkbox_events":[],"key_events":[],"mouse_events":[6906,8894.399999976158,10400.300000011921,12853.399999976158,14249.199999988079,20716.399999976158,24937.600000023842,26630.600000023842],"honeypot":0,"survey":"mace","page":7,"trial_type":"survey-mace","trial_index":15,"time_elapsed":510650,"internal_node_id":"0.0-15.0","task_version":"prescreen-v0.3","browser_interactions":0},{"responses":{"01":"Yes","01_ages_11":"11","01_ages_12":"12","01_ages_13":"13","02":"Yes","02_ages_9":"9","02_ages_10":"10","02_ages_11":"11","02_ages_12":"12","02_ages_13":"13","02_ages_14":"14","02_ages_15":"15","03":"No","04":"No"},"rt":37535.5,"item_order":[0,1,2,3],"radio_events":[10220,23934.5,34400.89999997616,36743.299999952316],"checkbox_events":[16404.299999952316,17151.19999998808,18235.5,26420.5,27354.599999964237,28452.399999976158,28909.5,29620,30118.69999998808,30656.599999964237],"key_events":[],"mouse_events":[10220,16404.299999952316,17151.19999998808,17772.19999998808,18235.5,23934.5,26420.5,27354.599999964237,28452.399999976158,28909.5,29620,30118.69999998808,30656.599999964237,34400.89999997616,36743.299999952316,37530.39999997616],"honeypot":0,"survey":"mace","page":8,"trial_type":"survey-mace","trial_index":16,"time_elapsed":548197,"internal_node_id":"0.0-16.0","task_version":"prescreen-v0.3","browser_interactions":0},{"responses":{"01":"Yes","01_ages_1":"1","01_ages_2":"2","01_ages_3":"3","01_ages_4":"4","01_ages_5":"5","01_ages_6":"6","01_ages_7":"7","01_ages_8":"8","01_ages_9":"9","01_ages_10":"10","01_ages_11":"11","01_ages_12":"12","01_ages_13":"13","01_ages_14":"14","01_ages_15":"15","01_ages_16":"16","01_ages_17":"17","01_ages_18":"18","02":"No","03":"Yes","03_ages_1":"1","03_ages_2":"2","03_ages_3":"3","03_ages_4":"4","03_ages_5":"5","03_ages_6":"6","03_ages_7":"7","03_ages_8":"8","03_ages_9":"9","03_ages_10":"10","03_ages_11":"11","03_ages_12":"12","03_ages_13":"13","03_ages_14":"14","03_ages_15":"15","03_ages_16":"16","03_ages_17":"17","03_ages_18":"18","04":"Yes","04_ages_1":"1","04_ages_2":"2","04_ages_3":"3","04_ages_4":"4","04_ages_5":"5","04_ages_6":"6","04_ages_7":"7","04_ages_8":"8","04_ages_9":"9","04_ages_10":"10","04_ages_11":"11","04_ages_12":"12","04_ages_13":"13","04_ages_14":"14","04_ages_15":"15","04_ages_16":"16","04_ages_17":"17","04_ages_18":"18"},"rt":75103.30000001192,"item_order":[0,1,2,3],"radio_events":[8593,37262,39950,59443.5],"checkbox_events":[14002.699999988079,15998.899999976158,16544.5,17933.399999976158,19156.30000001192,19861.30000001192,20788.5,21581.899999976158,22455.19999998808,23157.600000023842,24194.19999998808,27345.19999998808,28036.399999976158,29045.80000001192,29992.69999998808,30628.69999998808,31188,32135.69999998808,41753.39999997616,42590,43342.30000001192,44337.80000001192,45146.10000002384,45643.39999997616,47073.80000001192,47654.19999998808,48392.39999997616,49201.89999997616,49857.19999998808,50834.5,51562.89999997616,52380,53030.89999997616,53742.39999997616,54517.60000002384,55166.69999998808,62102.89999997616,62586.5,63098.39999997616,63609.19999998808,64397.69999998808,64873.69999998808,66091.39999997616,66610.89999997616,67175.19999998808,68348.5,68985,69579.10000002384,70677.19999998808,71272,71994.39999997616,72640.19999998808,73172.69999998808,74497.89999997616],"key_events":[],"mouse_events":[8593,14002.699999988079,14521.5,15405.100000023842,15998.899999976158,16544.5,17104.399999976158,17933.399999976158,19156.30000001192,19861.30000001192,20788.5,21581.899999976158,22455.19999998808,23157.600000023842,24194.19999998808,27345.19999998808,28036.399999976158,29045.80000001192,29992.69999998808,30628.69999998808,31188,32135.69999998808,37262,39950,41753.39999997616,42590,43342.30000001192,44337.80000001192,45146.10000002384,45643.39999997616,46141.19999998808,47073.80000001192,47654.19999998808,48392.39999997616,49201.89999997616,49857.19999998808,50834.5,51562.89999997616,52380,53030.89999997616,53742.39999997616,54517.60000002384,55166.69999998808,59443.5,62102.89999997616,62586.5,63098.39999997616,63609.19999998808,64397.69999998808,64873.69999998808,66091.39999997616,66610.89999997616,67175.19999998808,67900.60000002384,68348.5,68985,69579.10000002384,70096.89999997616,70677.19999998808,71272,71994.39999997616,72640.19999998808,73172.69999998808,73876.60000002384,74497.89999997616,75100.30000001192],"honeypot":0,"survey":"mace","page":9,"trial_type":"survey-mace","trial_index":17,"time_elapsed":623311,"internal_node_id":"0.0-17.0","task_version":"prescreen-v0.3","browser_interactions":0},{"responses":{"01":"No","02":"Yes","02_ages_3":"3","02_ages_4":"4","02_ages_5":"5","02_ages_6":"6","02_ages_7":"7","02_ages_8":"8","02_ages_9":"9","02_ages_10":"10","03":"Yes","03_ages_16":"16","03_ages_17":"17","03_ages_18":"18","04":"Yes","04_ages_1":"1","04_ages_2":"2","04_ages_3":"3","04_ages_4":"4","04_ages_5":"5","04_ages_6":"6","04_ages_7":"7","04_ages_8":"8","04_ages_9":"9","04_ages_10":"10","04_ages_11":"11","04_ages_12":"12","05":"No","06":"Yes","06_ages_17":"17","07":"Yes","07_ages_8":"8","07_ages_9":"9","07_ages_10":"10","07_ages_11":"11","07_ages_12":"12","07_ages_13":"13","07_ages_14":"14","07_ages_15":"15","07_ages_16":"16","07_ages_17":"17","07_ages_18":"18","08":"No"},"rt":71556.40000003576,"item_order":[0,1,2,3,4,5,6,7],"radio_events":[4686.100000023842,6092,16949.30000001192,23807.100000023842,39132,40643.10000002384,48784.80000001192,70749.40000003576],"checkbox_events":[9036.800000011921,9578.100000023842,10048.100000023842,10737.700000047684,11470.5,12679.800000011921,13177,14360.200000047684,19527.600000023842,20309.30000001192,20889.700000047684,25134.700000047684,26134.5,26577.100000023842,27005.400000035763,28160.600000023842,28643.700000047684,29072.200000047684,29872.700000047684,31076.5,31683,32188.100000023842,33480.60000002384,41971.200000047684,50585.30000001192,53584.700000047684,57771.700000047684,58442.60000002384,60155.60000002384,60833.30000001192,61571.700000047684,62056.30000001192,62754.30000001192,63701.5,64212.60000002384,65276.30000001192,65850.80000001192],"key_events":[],"mouse_events":[4686.100000023842,6092,9036.800000011921,9578.100000023842,10048.100000023842,10737.700000047684,11470.5,12037.300000011921,12679.800000011921,13177,14360.200000047684,16949.30000001192,19527.600000023842,20309.30000001192,20889.700000047684,23807.100000023842,25134.700000047684,26134.5,26577.100000023842,27005.400000035763,27427.200000047684,27838,28160.600000023842,28643.700000047684,29072.200000047684,29458,29872.700000047684,30590.700000047684,31076.5,31683,32188.100000023842,33480.60000002384,39132,40643.10000002384,41971.200000047684,48784.80000001192,50585.30000001192,51194,53584.700000047684,57358,57771.700000047684,58442.60000002384,58940.10000002384,60155.60000002384,60833.30000001192,61571.700000047684,62056.30000001192,62754.30000001192,63701.5,64212.60000002384,64655.200000047684,65276.30000001192,65850.80000001192,70749.40000003576,71551.40000003576],"honeypot":0,"survey":"mace","page":10,"trial_type":"survey-mace","trial_index":18,"time_elapsed":694879,"internal_node_id":"0.0-18.0","task_version":"prescreen-v0.3","browser_interactions":0,"instructed":0},{"rt":13042,"trial_type":"mental-health-alert","trial_index":19,"time_elapsed":707928,"internal_node_id":"0.0-19.0","task_version":"prescreen-v0.3","interactions":"[{\"event\":\"blur\",\"trial\":1,\"time\":37644},{\"event\":\"focus\",\"trial\":1,\"time\":37900}]"}]