[{"view_history":[{"page_index":0,"viewing_time":5734},{"page_index":1,"viewing_time":5973.5},{"page_index":2,"viewing_time":3921.300000011921},{"page_index":3,"viewing_time":1710.5}],"rt":17349.5,"trial_type":"instructions","trial_index":0,"time_elapsed":17384,"internal_node_id":"0.0-0.0","task_version":"prescreen-v0.3"},{"rt":35976.40000000596,"responses":{"age":"37","gender-categorical":"Male","gender-free-response":"","ethnicity":"Not Hispanic or Latino","race":["White"],"education":"Bachelor degree"},"trial_type":"survey-demo","trial_index":1,"time_elapsed":53392,"internal_node_id":"0.0-1.0","task_version":"prescreen-v0.3"},{"responses":{"Q10":"1","Q18":"1","Q08":"1","Q09":"2","Q04":"2","Q07":"1","Q16":"1","Q15":"1","Q17":"2","Q21":"3","Q12":"2","Q14":"2","Q19":"1","Q03":"1","Q02":"0","Q01":"1","Q20":"1","Q11":"2","Q13":"2","Q06":"1","Q05":"2"},"rt":103170.39999997616,"item_order":[9,17,7,8,3,6,15,14,16,20,11,13,18,2,1,0,19,10,12,5,4],"radio_events":[10181.799999982119,16617.5,19212.29999998212,22471.399999976158,26395,32981,38901.09999999404,45453.09999999404,48913.59999999404,52271.5,57192.09999999404,61730.69999998808,69747.19999998808,70595,76232.19999998808,78928.89999997616,81271.69999998808,85012.5,88371.09999999404,92744.29999998212,99397.09999999404],"key_events":[],"mouse_events":[10181.799999982119,16617.5,19212.29999998212,22471.399999976158,26395,32981,38901.09999999404,45453.09999999404,48913.59999999404,52271.5,57192.09999999404,61730.69999998808,67486.79999998212,69747.19999998808,70595,76232.19999998808,78928.89999997616,81271.69999998808,85012.5,88371.09999999404,92744.29999998212,99397.09999999404,103155.59999999404],"straightlining":0.5238095238095238,"zigzagging":0.55,"honeypot":0,"survey":"sns","trial_type":"survey-template","trial_index":2,"time_elapsed":156592,"internal_node_id":"0.0-2.0","task_version":"prescreen-v0.3","browser_interactions":0,"infrequency":0},{"responses":{"Q04":"3","Q01":"2","Q12":"2","Q03":"2","Q02":"3","Q10":"2","Q08":"2","Q11":"2","Q05":"2","Q07":"2","Q09":"2","Q06":"2","Q13":"0"},"rt":63176.09999999404,"item_order":[3,0,11,2,1,9,7,10,4,6,8,5,12],"radio_events":[10998.899999976158,12664.199999988079,17304.59999999404,24437.399999976158,25369.399999976158,27479.69999998808,30557.29999998212,33749.69999998808,36260,38289,41183,43711.09999999404,46454,52541.69999998808,61389.19999998808],"key_events":[],"mouse_events":[10998.899999976158,12664.199999988079,17304.59999999404,21611.79999998212,24437.399999976158,25369.399999976158,27479.69999998808,30557.29999998212,33749.69999998808,36260,38289,41183,43711.09999999404,46454,52541.69999998808,54387.29999998212,61389.19999998808,63167.5],"straightlining":0.7692307692307693,"zigzagging":0.25,"honeypot":0,"survey":"bisbas","trial_type":"survey-template","trial_index":3,"time_elapsed":219788,"internal_node_id":"0.0-3.0","task_version":"prescreen-v0.3","browser_interactions":0,"infrequency":0},{"responses":{"Q01":"2","Q02":"3","Q03":"3"},"rt":22259.30000001192,"radio_events":[9884,14340.40000000596,21406.80000001192],"key_events":[],"mouse_events":[9884,14340.40000000596,20677,21406.80000001192,22255.5],"survey":"map","page":1,"trial_type":"survey-map","trial_index":4,"time_elapsed":242062,"internal_node_id":"0.0-4.0","task_version":"prescreen-v0.3","browser_interactions":0},{"responses":{"Q04":"2","Q05":"2","Q06":"2"},"rt":21407.79999998212,"radio_events":[10311.5,13820.799999982119,16016.399999976158,17664.59999999404,20139.899999976158],"key_events":[],"mouse_events":[10311.5,13820.799999982119,16016.399999976158,17664.59999999404,20139.899999976158,21404.399999976158],"survey":"map","page":2,"trial_type":"survey-map","trial_index":5,"time_elapsed":263481,"internal_node_id":"0.0-5.0","task_version":"prescreen-v0.3","browser_interactions":0},{"responses":{"Q07":"3","Q08":"4","Q09":"4"},"rt":22072.40000000596,"radio_events":[11542.5,16348.09999999404,21238.30000001192],"key_events":[],"mouse_events":[11542.5,16348.09999999404,21238.30000001192,22069],"survey":"map","page":3,"trial_type":"survey-map","trial_index":6,"time_elapsed":285564,"internal_node_id":"0.0-6.0","task_version":"prescreen-v0.3","browser_interactions":0},{"responses":{"Q10":"3","Q11":"3","Q12":"3","Q13":"3","Q16":"0","Q14":"3","Q15":"2"},"rt":40205,"radio_events":[6638.9000000059605,10496.200000017881,13773.5,21105.70000001788,27143.600000023842,31782.20000001788,37153.90000000596],"key_events":[],"mouse_events":[6638.9000000059605,10496.200000017881,13773.5,21105.70000001788,27143.600000023842,31782.20000001788,37153.90000000596,40197.70000001788],"survey":"map","page":4,"trial_type":"survey-map","trial_index":7,"time_elapsed":325783,"internal_node_id":"0.0-7.0","task_version":"prescreen-v0.3","browser_interactions":0,"infrequency":0},{"view_history":[{"page_index":0,"viewing_time":5303.300000011921},{"page_index":1,"viewing_time":7463.4000000059605}],"rt":12767.5,"trial_type":"instructions","trial_index":8,"time_elapsed":338556,"internal_node_id":"0.0-8.0","task_version":"prescreen-v0.3"},{"responses":{"01":"Yes","01_ages_8":"8","01_ages_9":"9","01_ages_10":"10","01_ages_11":"11","01_ages_12":"12","01_ages_13":"13","01_ages_14":"14","01_ages_15":"15","02":"Yes","02_ages_15":"15","02_ages_16":"16","02_ages_17":"17","03":"Yes","03_ages_15":"15","03_ages_16":"16","04":"Yes","04_ages_14":"14","04_ages_15":"15","05":"No","06":"Yes","06_ages_11":"11","06_ages_12":"12","06_ages_14":"14"},"rt":72976.5,"item_order":[0,1,2,3,4,5],"radio_events":[12801.700000017881,29944.20000001788,39390.59999999404,46158,55653,61023.20000001788],"checkbox_events":[18737.70000001788,20250,20964.40000000596,21562.70000001788,22077.40000000596,22660.5,23308.90000000596,24023.59999999404,31708.30000001192,32422,33153.09999999404,41169.40000000596,41481.70000001788,42380.90000000596,43098.20000001788,49782.90000000596,50548,65863,66327.20000001788,66926.70000001788],"key_events":[],"mouse_events":[0.5,12801.700000017881,18737.70000001788,20250,20964.40000000596,21562.70000001788,22077.40000000596,22660.5,23308.90000000596,24023.59999999404,29944.20000001788,31708.30000001192,32422,33153.09999999404,39390.59999999404,41169.40000000596,41481.70000001788,42380.90000000596,43098.20000001788,46158,49782.90000000596,50548,54608.90000000596,55653,61023.20000001788,65863,66327.20000001788,66926.70000001788,72952.70000001788],"honeypot":0,"survey":"mace","page":1,"trial_type":"survey-mace","trial_index":9,"time_elapsed":411641,"internal_node_id":"0.0-9.0","task_version":"prescreen-v0.3","browser_interactions":0},{"responses":{"01":"Yes","01_ages_12":"12","01_ages_13":"13","01_ages_14":"14","01_ages_15":"15","02":"No","03":"Yes","03_ages_10":"10","03_ages_11":"11","03_ages_12":"12","03_ages_13":"13","03_ages_14":"14","03_ages_15":"15","03_ages_16":"16","04":"No","05":"Yes","05_ages_13":"13","05_ages_14":"14","05_ages_15":"15","05_ages_16":"16","06":"No","07":"No","08":"No"},"rt":55237.80000001192,"item_order":[0,1,2,3,4,5,6,7],"radio_events":[9494.800000011921,19157,21535.90000000596,37600.59999999404,40990.09999999404,48624.20000001788,50751.59999999404,52847],"checkbox_events":[11258,11872.59999999404,12404.700000017881,12887.59999999404,26523.09999999404,27337.59999999404,27953.90000000596,28468.5,29049.59999999404,29667.59999999404,30214.20000001788,31945.20000001788,33554.59999999404,42435.90000000596,43068.40000000596,43566.90000000596,44166.70000001788],"key_events":[],"mouse_events":[9494.800000011921,11258,11872.59999999404,12404.700000017881,12887.59999999404,19157,21535.90000000596,26523.09999999404,27337.59999999404,27953.90000000596,28468.5,29049.59999999404,29667.59999999404,30214.20000001788,31945.20000001788,33554.59999999404,37600.59999999404,40990.09999999404,42435.90000000596,43068.40000000596,43566.90000000596,44166.70000001788,48624.20000001788,50751.59999999404,52847,55210.70000001788],"honeypot":0,"survey":"mace","page":2,"trial_type":"survey-mace","trial_index":10,"time_elapsed":466916,"internal_node_id":"0.0-10.0","task_version":"prescreen-v0.3","browser_interactions":0},{"responses":{"01":"Yes","01_ages_13":"13","01_ages_14":"14","01_ages_15":"15","02":"No","03":"No","04":"No"},"rt":18001.80000001192,"item_order":[0,1,2,3],"radio_events":[4001.199999988079,13050.5,13545.199999988079,16922.59999999404],"checkbox_events":[7561.4000000059605,8409.300000011921,9007.09999999404],"key_events":[],"mouse_events":[4001.199999988079,7561.4000000059605,8409.300000011921,9007.09999999404,13050.5,13545.199999988079,16922.59999999404,17987.90000000596],"honeypot":0,"survey":"mace","page":3,"trial_type":"survey-mace","trial_index":11,"time_elapsed":484937,"internal_node_id":"0.0-11.0","task_version":"prescreen-v0.3","browser_interactions":0},{"responses":{"01":"No","02":"No"},"rt":10552.40000000596,"item_order":[0,1],"radio_events":[5740.4000000059605,8865.199999988079],"checkbox_events":[],"key_events":[],"mouse_events":[5740.4000000059605,8865.199999988079,10545],"honeypot":0,"survey":"mace","page":4,"trial_type":"survey-mace","trial_index":12,"time_elapsed":495502,"internal_node_id":"0.0-12.0","task_version":"prescreen-v0.3","browser_interactions":0},{"responses":{"01":"Yes","01_ages_12":"12","01_ages_13":"13","01_ages_14":"14","02":"Yes","02_ages_9":"9","02_ages_10":"10","02_ages_11":"11","02_ages_12":"12","03":"No","04":"No","05":"No"},"rt":32357.80000001192,"item_order":[0,1,2,3,4],"radio_events":[6761.9000000059605,17756.40000000596,24820.70000001788,28528.80000001192,31423.20000001788],"checkbox_events":[9909.5,10302.5,10867.90000000596,19416.5,19997.59999999404,20546.80000001192,21696.09999999404],"key_events":[],"mouse_events":[6761.9000000059605,9909.5,10302.5,10867.90000000596,17756.40000000596,19416.5,19997.59999999404,20546.80000001192,21696.09999999404,24820.70000001788,28528.80000001192,31423.20000001788,32339.59999999404],"honeypot":0,"survey":"mace","page":5,"trial_type":"survey-mace","trial_index":13,"time_elapsed":527882,"internal_node_id":"0.0-13.0","task_version":"prescreen-v0.3","browser_interactions":0},{"responses":{"01":"Yes","01_ages_10":"10","01_ages_11":"11","01_ages_13":"13","02":"No","03":"Yes","03_ages_12":"12","03_ages_13":"13","04":"No","05":"Yes","05_ages_14":"14","05_ages_15":"15","05_ages_16":"16"},"rt":37722.80000001192,"item_order":[0,1,2,3,4],"radio_events":[10834.199999988079,11646.90000000596,20127.90000000596,24152,29757.09999999404,33912.30000001192],"checkbox_events":[15090.59999999404,15821.699999988079,16435.90000000596,25433.5,25947.59999999404,35760,36190.80000001192,36890.09999999404],"key_events":[],"mouse_events":[10834.199999988079,11646.90000000596,15090.59999999404,15821.699999988079,16435.90000000596,20127.90000000596,24152,25433.5,25947.59999999404,29757.09999999404,33912.30000001192,35760,36190.80000001192,36890.09999999404,37705.19999998808],"honeypot":0,"survey":"mace","page":6,"trial_type":"survey-mace","trial_index":14,"time_elapsed":565628,"internal_node_id":"0.0-14.0","task_version":"prescreen-v0.3","browser_interactions":0},{"responses":{"01":"No","02":"No","03":"Yes","03_ages_13":"13","03_ages_14":"14","03_ages_15":"15","04":"Yes","04_ages_13":"13","04_ages_14":"14","05":"No","06":"No","07":"No"},"rt":28679.40000000596,"item_order":[0,1,2,3,4,5,6],"radio_events":[4027.199999988079,8349.40000000596,11392.59999999404,17063.19999998808,22000.69999998808,27289.5,27969.40000000596],"checkbox_events":[13105.40000000596,13769.59999999404,14401.5,18260.69999998808,18624.09999999404],"key_events":[],"mouse_events":[4027.199999988079,8349.40000000596,11392.59999999404,13105.40000000596,13769.59999999404,14401.5,17063.19999998808,18260.69999998808,18624.09999999404,22000.69999998808,27289.5,27969.40000000596,28654.09999999404],"honeypot":0,"survey":"mace","page":7,"trial_type":"survey-mace","trial_index":15,"time_elapsed":594344,"internal_node_id":"0.0-15.0","task_version":"prescreen-v0.3","browser_interactions":0},{"responses":{"01":"No","02":"Yes","02_ages_11":"11","02_ages_12":"12","02_ages_13":"13","02_ages_14":"14","03":"Yes","03_ages_13":"13","03_ages_14":"14","03_ages_15":"15","03_ages_16":"16","04":"No"},"rt":55611.80000001192,"item_order":[0,1,2,3],"radio_events":[21930.30000001192,28018.09999999404,45395.5,52927.40000000596],"checkbox_events":[30346,30875,31658.40000000596,32707.80000001192,33720.09999999404,34499.80000001192,35233.5,37030.30000001192,37678.5,38274.80000001192,38960.69999998808,39641.09999999404,40506.19999998808,41138.19999998808,47243.40000000596,47805.19999998808,48454.69999998808,49252],"key_events":[],"mouse_events":[20132.19999998808,21148.30000001192,21930.30000001192,28018.09999999404,30346,30875,31658.40000000596,32707.80000001192,33720.09999999404,34499.80000001192,35233.5,36238.59999999404,37030.30000001192,37678.5,38274.80000001192,38960.69999998808,39641.09999999404,40506.19999998808,41138.19999998808,45395.5,47243.40000000596,47805.19999998808,48454.69999998808,49252,52927.40000000596,55592.40000000596],"honeypot":0,"survey":"mace","page":8,"trial_type":"survey-mace","trial_index":16,"time_elapsed":649982,"internal_node_id":"0.0-16.0","task_version":"prescreen-v0.3","browser_interactions":0},{"responses":{"01":"Yes","01_ages_14":"14","01_ages_15":"15","01_ages_16":"16","01_ages_17":"17","02":"Yes","02_ages_15":"15","02_ages_16":"16","02_ages_17":"17","03":"Yes","03_ages_14":"14","03_ages_15":"15","03_ages_16":"16","03_ages_17":"17","04":"Yes","04_ages_8":"8","04_ages_9":"9","04_ages_10":"10","04_ages_11":"11","04_ages_12":"12","04_ages_13":"13","04_ages_14":"14","04_ages_15":"15","04_ages_16":"16"},"rt":48392.5,"item_order":[0,1,2,3],"radio_events":[6068.299999982119,15979.199999988079,22762.69999998808,37496.09999999404],"checkbox_events":[9393,10009.899999976158,10824.399999976158,11441.299999982119,17109.399999976158,17706.5,18305,23993.19999998808,26654.09999999404,27502.399999976158,28633.399999976158,42486.19999998808,43188.5,43738.69999998808,44313.89999997616,44778.69999998808,45428.09999999404,46027,46643.59999999404,47207],"key_events":[],"mouse_events":[6068.299999982119,8452,9393,10009.899999976158,10824.399999976158,11441.299999982119,15979.199999988079,17109.399999976158,17706.5,18305,22762.69999998808,23993.19999998808,26654.09999999404,27502.399999976158,28633.399999976158,37496.09999999404,42486.19999998808,43188.5,43738.69999998808,44313.89999997616,44778.69999998808,45428.09999999404,46027,46643.59999999404,47207,48372.29999998212],"honeypot":0,"survey":"mace","page":9,"trial_type":"survey-mace","trial_index":17,"time_elapsed":698401,"internal_node_id":"0.0-17.0","task_version":"prescreen-v0.3","browser_interactions":0},{"responses":{"01":"No","02":"Yes","02_ages_12":"12","02_ages_13":"13","02_ages_14":"14","03":"No","04":"Yes","04_ages_13":"13","04_ages_14":"14","04_ages_15":"15","04_ages_16":"16","05":"No","06":"Yes","06_ages_17":"17","07":"Yes","07_ages_15":"15","08":"Yes","08_ages_14":"14","08_ages_15":"15"},"rt":49024.40000000596,"item_order":[0,1,2,3,4,5,6,7],"radio_events":[5344.5,7305.0999999940395,14872.799999982119,18397.69999998808,26295.59999999404,31823.90000000596,40347.79999998212,46117.19999998808],"checkbox_events":[8852.90000000596,9566.59999999404,10467.90000000596,19410.29999998212,20093.5,20674.90000000596,21241.29999998212,27710.19999998808,43395.40000000596,47264.5,47797.19999998808],"key_events":[],"mouse_events":[5344.5,7305.0999999940395,8852.90000000596,9566.59999999404,10467.90000000596,14872.799999982119,18397.69999998808,19410.29999998212,20093.5,20674.90000000596,21241.29999998212,26295.59999999404,27710.19999998808,31823.90000000596,35548.69999998808,39217.90000000596,40347.79999998212,43395.40000000596,46117.19999998808,47264.5,47797.19999998808,48997],"honeypot":0,"survey":"mace","page":10,"trial_type":"survey-mace","trial_index":18,"time_elapsed":747464,"internal_node_id":"0.0-18.0","task_version":"prescreen-v0.3","browser_interactions":0,"instructed":0},{"rt":16175.800000011921,"trial_type":"mental-health-alert","trial_index":19,"time_elapsed":763664,"internal_node_id":"0.0-19.0","task_version":"prescreen-v0.3","interactions":"[]"}]