[{"view_history":[{"page_index":0,"viewing_time":3750.699999988079},{"page_index":1,"viewing_time":4708.399999976158},{"page_index":2,"viewing_time":4340.600000023842},{"page_index":3,"viewing_time":1356.3999999761581}],"rt":14156.699999988079,"trial_type":"instructions","trial_index":0,"time_elapsed":14159,"internal_node_id":"0.0-0.0","task_version":"prescreen-v0.3"},{"rt":25841.69999998808,"responses":{"age":"44","gender-categorical":"Male","gender-free-response":"","ethnicity":"Not Hispanic or Latino","race":["White"],"education":"Bachelor degree","siblings":"4"},"trial_type":"survey-demo","trial_index":1,"time_elapsed":40005,"internal_node_id":"0.0-1.0","task_version":"prescreen-v0.3"},{"responses":{"Q02":"2","Q01":"2","Q19":"1","Q20":"2","Q17":"1","Q08":"1","Q07":"2","Q14":"0","Q12":"1","Q21":"3","Q13":"1","Q18":"1","Q16":"0","Q11":"2","Q09":"2","Q10":"1","Q06":"0","Q04":"3","Q15":"2","Q03":"2","Q05":"3"},"rt":107715.69999998808,"item_order":[1,0,18,19,16,7,6,13,11,20,12,17,15,10,8,9,5,3,14,2,4],"radio_events":[8755.600000023842,11497.899999976158,20319,24463.5,31250.30000001192,33854.60000002384,40847.39999997616,45560,51584.69999998808,55237.10000002384,60149.69999998808,63536,67218.39999997616,70390.89999997616,73617.19999998808,77265.60000002384,80448,85662.69999998808,89717.10000002384,93895.60000002384,98204.19999998808,106995],"key_events":[],"mouse_events":[8253.699999988079,8755.600000023842,10705.899999976158,11497.899999976158,19303.100000023842,20319,23639.30000001192,24463.5,29134.100000023842,29759.899999976158,30308.100000023842,30780.30000001192,31250.30000001192,33854.60000002384,40847.39999997616,45560,51584.69999998808,54157,55237.10000002384,59451.60000002384,60149.69999998808,62962,63536,67218.39999997616,69766.80000001192,70390.89999997616,73617.19999998808,77265.60000002384,79939.80000001192,80448,84678.60000002384,85330.60000002384,85662.69999998808,89717.10000002384,93111.60000002384,93895.60000002384,97598.10000002384,98204.19999998808,105817.10000002384,106357.10000002384,106995,107713.30000001192],"straightlining":0.38095238095238093,"zigzagging":0.55,"honeypot":0,"survey":"sns","trial_type":"survey-template","trial_index":2,"time_elapsed":147725,"internal_node_id":"0.0-2.0","task_version":"prescreen-v0.3","browser_interactions":0,"infrequency":0},{"responses":{"Q05":"2","Q06":"2","Q07":"2","Q12":"1","Q03":"2","Q10":"1","Q08":"1","Q09":"1","Q13":"0","Q11":"1","Q01":"2","Q04":"2","Q02":"1"},"rt":56470,"item_order":[4,5,6,11,2,9,7,8,12,10,0,3,1],"radio_events":[6110.399999976158,9052.799999952316,11219,14501.5,18290,23156.399999976158,32769.5,35903.89999997616,39228.19999998808,47567.59999996424,49643.5,51983.69999998808,55394.299999952316],"key_events":[],"mouse_events":[6110.399999976158,9052.799999952316,11219,13925.299999952316,14501.5,17653.799999952316,18290,21144.19999998808,21830.299999952316,22534.299999952316,23156.399999976158,32251.599999964237,32769.5,35903.89999997616,38522.299999952316,39228.19999998808,46445.299999952316,47059.299999952316,47567.59999996424,49643.5,51983.69999998808,54256.09999996424,54970.39999997616,55394.299999952316,56468.39999997616],"straightlining":0.46153846153846156,"zigzagging":0.5833333333333334,"honeypot":0,"survey":"bisbas","trial_type":"survey-template","trial_index":3,"time_elapsed":204199,"internal_node_id":"0.0-3.0","task_version":"prescreen-v0.3","browser_interactions":0,"infrequency":0},{"responses":{"Q01":"2","Q02":"3","Q03":"2"},"rt":23881.400000035763,"radio_events":[4886.400000035763,18823.900000035763,22812.400000035763],"key_events":[],"mouse_events":[4886.400000035763,18823.900000035763,22812.400000035763,23880.5],"survey":"map","page":1,"trial_type":"survey-map","trial_index":4,"time_elapsed":228084,"internal_node_id":"0.0-4.0","task_version":"prescreen-v0.3","browser_interactions":0},{"responses":{"Q04":"3","Q05":"3","Q06":"3"},"rt":14212.800000011921,"radio_events":[7465.100000023842,12279.699999988079,13373.899999976158],"key_events":[],"mouse_events":[6885.199999988079,7465.100000023842,12279.699999988079,13373.899999976158,14212],"survey":"map","page":2,"trial_type":"survey-map","trial_index":5,"time_elapsed":242300,"internal_node_id":"0.0-5.0","task_version":"prescreen-v0.3","browser_interactions":0},{"responses":{"Q07":"3","Q08":"0","Q09":"0"},"rt":17003.400000035763,"radio_events":[4787.100000023842,10437.700000047684,15810.400000035763],"key_events":[],"mouse_events":[3935,4787.100000023842,10437.700000047684,15810.400000035763,17002.5],"survey":"map","page":3,"trial_type":"survey-map","trial_index":6,"time_elapsed":259306,"internal_node_id":"0.0-6.0","task_version":"prescreen-v0.3","browser_interactions":0},{"responses":{"Q10":"1","Q11":"2","Q12":"2","Q13":"1","Q16":"0","Q14":"2","Q15":"3"},"rt":33559.5,"radio_events":[5122.899999976158,8843.300000011921,13291.800000011921,19826.599999964237,24665.099999964237,29651.599999964237,32734],"key_events":[],"mouse_events":[4386.599999964237,5122.899999976158,8843.300000011921,13291.800000011921,19112.399999976158,19826.599999964237,24665.099999964237,29651.599999964237,32734,33558.19999998808],"survey":"map","page":4,"trial_type":"survey-map","trial_index":7,"time_elapsed":292868,"internal_node_id":"0.0-7.0","task_version":"prescreen-v0.3","browser_interactions":0,"infrequency":0},{"view_history":[{"page_index":0,"viewing_time":3504.2999999523163},{"page_index":1,"viewing_time":4284.400000035763}],"rt":7789.299999952316,"trial_type":"instructions","trial_index":8,"time_elapsed":300660,"internal_node_id":"0.0-8.0","task_version":"prescreen-v0.3"},{"responses":{"01":"No","02":"No","03":"Yes","03_ages_10":"10","03_ages_11":"11","03_ages_12":"12","03_ages_13":"13","03_ages_14":"14","03_ages_15":"15","04":"No","05":"No","06":"Yes","06_ages_12":"12","06_ages_13":"13"},"rt":57101.19999998808,"item_order":[0,1,2,3,4,5],"radio_events":[6430.399999976158,9962.600000023842,24130.30000001192,42426.5,45796.80000001192,50683.69999998808],"checkbox_events":[30141.19999998808,33189.39999997616,34369.39999997616,34969.60000002384,35419.60000002384,35919.69999998808,37045.80000001192,39024,53551.89999997616,54531.89999997616],"key_events":[],"mouse_events":[0.19999998807907104,6430.399999976158,9962.600000023842,24130.30000001192,30141.19999998808,33189.39999997616,34369.39999997616,34969.60000002384,35419.60000002384,35919.69999998808,36395.69999998808,37045.80000001192,38541.89999997616,39024,42426.5,45290.80000001192,45796.80000001192,50683.69999998808,53551.89999997616,54531.89999997616,57098.39999997616],"honeypot":0,"survey":"mace","page":1,"trial_type":"survey-mace","trial_index":9,"time_elapsed":357766,"internal_node_id":"0.0-9.0","task_version":"prescreen-v0.3","browser_interactions":0},{"responses":{"01":"No","02":"No","03":"Yes","03_ages_11":"11","03_ages_12":"12","03_ages_13":"13","04":"No","05":"No","06":"No","07":"No","08":"No"},"rt":53358.69999998808,"item_order":[0,1,2,3,4,5,6,7],"radio_events":[14904.399999976158,24409.600000023842,26893.80000001192,39243.30000001192,43401.80000001192,46616.19999998808,49644.60000002384,52492.89999997616],"checkbox_events":[29468.19999998808,29978.19999998808,30436.30000001192],"key_events":[],"mouse_events":[14182.5,14904.399999976158,24409.600000023842,26893.80000001192,29468.19999998808,29978.19999998808,30436.30000001192,39243.30000001192,43401.80000001192,46024.19999998808,46616.19999998808,48870.39999997616,49644.60000002384,52492.89999997616,53355],"honeypot":0,"survey":"mace","page":2,"trial_type":"survey-mace","trial_index":10,"time_elapsed":411129,"internal_node_id":"0.0-10.0","task_version":"prescreen-v0.3","browser_interactions":0},{"responses":{"01":"No","02":"No","03":"No","04":"No"},"rt":14886.300000011921,"item_order":[0,1,2,3],"radio_events":[3185,10301.900000035763,12610.100000023842,13652.200000047684],"checkbox_events":[],"key_events":[],"mouse_events":[3185,10301.900000035763,12610.100000023842,13652.200000047684,14884.300000011921],"honeypot":0,"survey":"mace","page":3,"trial_type":"survey-mace","trial_index":11,"time_elapsed":426019,"internal_node_id":"0.0-11.0","task_version":"prescreen-v0.3","browser_interactions":0},{"responses":{"01":"No","02":"No"},"rt":7559.199999988079,"item_order":[0,1],"radio_events":[3885.5,6433.699999988079],"checkbox_events":[],"key_events":[],"mouse_events":[3885.5,6433.699999988079,7558],"honeypot":0,"survey":"mace","page":4,"trial_type":"survey-mace","trial_index":12,"time_elapsed":433581,"internal_node_id":"0.0-12.0","task_version":"prescreen-v0.3","browser_interactions":0},{"responses":{"01":"No","02":"No","03":"No","04":"No","05":"No"},"rt":22872.599999964237,"item_order":[0,1,2,3,4],"radio_events":[7964.5,11480.799999952316,15445.399999976158,18929.69999998808,21954.099999964237],"checkbox_events":[],"key_events":[],"mouse_events":[7964.5,11480.799999952316,15445.399999976158,18929.69999998808,21954.099999964237,22870.299999952316],"honeypot":0,"survey":"mace","page":5,"trial_type":"survey-mace","trial_index":13,"time_elapsed":456457,"internal_node_id":"0.0-13.0","task_version":"prescreen-v0.3","browser_interactions":0},{"responses":{"01":"No","02":"No","03":"No","04":"No","05":"No"},"rt":52220.80000001192,"item_order":[0,1,2,3,4],"radio_events":[18510.400000035763,20504.5,32406,33350.10000002384,34288.19999998808,48758,51326.30000001192],"checkbox_events":[],"key_events":[],"mouse_events":[18510.400000035763,20504.5,32406,33350.10000002384,34288.19999998808,48758,51326.30000001192,52218.40000003576],"honeypot":0,"survey":"mace","page":6,"trial_type":"survey-mace","trial_index":14,"time_elapsed":508682,"internal_node_id":"0.0-14.0","task_version":"prescreen-v0.3","browser_interactions":0},{"responses":{"01":"No","02":"No","03":"No","04":"No","05":"No","06":"No","07":"No"},"rt":23438.399999976158,"item_order":[0,1,2,3,4,5,6],"radio_events":[3404.899999976158,11603.799999952316,13250,15262.299999952316,20104.69999998808,21276.899999976158,22531.19999998808],"checkbox_events":[],"key_events":[],"mouse_events":[3404.899999976158,11603.799999952316,13250,14460.099999964237,15262.299999952316,20104.69999998808,21276.899999976158,22531.19999998808,23435.399999976158],"honeypot":0,"survey":"mace","page":7,"trial_type":"survey-mace","trial_index":15,"time_elapsed":532125,"internal_node_id":"0.0-15.0","task_version":"prescreen-v0.3","browser_interactions":0},{"responses":{"01":"No","02":"Yes","02_ages_1":"1","02_ages_2":"2","02_ages_3":"3","02_ages_4":"4","02_ages_5":"5","02_ages_6":"6","02_ages_7":"7","02_ages_8":"8","02_ages_9":"9","02_ages_10":"10","02_ages_11":"11","02_ages_12":"12","02_ages_13":"13","02_ages_14":"14","02_ages_15":"15","02_ages_16":"16","02_ages_17":"17","02_ages_18":"18","03":"No","04":"Yes","04_ages_1":"1","04_ages_2":"2","04_ages_3":"3","04_ages_4":"4","04_ages_5":"5","04_ages_6":"6","04_ages_7":"7","04_ages_8":"8","04_ages_9":"9","04_ages_10":"10","04_ages_11":"11","04_ages_12":"12","04_ages_13":"13","04_ages_14":"14","04_ages_15":"15","04_ages_16":"16","04_ages_17":"17","04_ages_18":"18"},"rt":53317.59999996424,"item_order":[0,1,2,3],"radio_events":[6696,12732.699999988079,30202.69999998808,36129.299999952316],"checkbox_events":[14292.899999976158,15635,16223.199999988079,17397.19999998808,18083.299999952316,18981.299999952316,19913.599999964237,20673.599999964237,21437.69999998808,22165.799999952316,22673.799999952316,23255.899999976158,23718,24440,25004.19999998808,25520.099999964237,26078.5,26650.299999952316,37481.39999997616,38611.69999998808,39291.69999998808,40872,41764,42252.19999998808,43686.299999952316,44260.39999997616,45524.5,46220.69999998808,47050.5,47942.799999952316,48644.89999997616,49656.89999997616,50595.09999996424,51371.19999998808,51925.799999952316,52523.39999997616],"key_events":[],"mouse_events":[6696,12732.699999988079,14292.899999976158,14858.899999976158,15635,16223.199999988079,17029.19999998808,17397.19999998808,18083.299999952316,18981.299999952316,19495.5,19913.599999964237,20673.599999964237,21437.69999998808,22165.799999952316,22673.799999952316,23255.899999976158,23718,24440,25004.19999998808,25520.099999964237,26078.5,26650.299999952316,30202.69999998808,34851.39999997616,35665.5,36129.299999952316,37481.39999997616,37925.69999998808,38611.69999998808,39291.69999998808,40111.89999997616,40872,41764,42252.19999998808,42946.299999952316,43686.299999952316,44260.39999997616,45098.69999998808,45524.5,46220.69999998808,47050.5,47942.799999952316,48644.89999997616,49202.89999997616,49656.89999997616,50595.09999996424,51371.19999998808,51925.799999952316,52523.39999997616,53315.5],"honeypot":0,"survey":"mace","page":8,"trial_type":"survey-mace","trial_index":16,"time_elapsed":585446,"internal_node_id":"0.0-16.0","task_version":"prescreen-v0.3","browser_interactions":0},{"responses":{"01":"Yes","01_ages_1":"1","01_ages_2":"2","01_ages_3":"3","01_ages_4":"4","01_ages_5":"5","01_ages_6":"6","01_ages_7":"7","01_ages_8":"8","01_ages_9":"9","01_ages_10":"10","01_ages_11":"11","01_ages_12":"12","01_ages_13":"13","01_ages_14":"14","01_ages_15":"15","01_ages_16":"16","01_ages_17":"17","01_ages_18":"18","02":"No","03":"Yes","03_ages_1":"1","03_ages_2":"2","03_ages_3":"3","03_ages_4":"4","03_ages_5":"5","03_ages_6":"6","03_ages_7":"7","03_ages_8":"8","03_ages_9":"9","03_ages_10":"10","03_ages_11":"11","03_ages_12":"12","03_ages_13":"13","03_ages_14":"14","03_ages_15":"15","03_ages_16":"16","03_ages_17":"17","03_ages_18":"18","04":"Yes","04_ages_3":"3","04_ages_13":"13","04_ages_14":"14","04_ages_15":"15"},"rt":70310.5,"item_order":[0,1,2,3],"radio_events":[7271.100000023842,31132,34656.200000047684,55280.700000047684],"checkbox_events":[11305.5,11933.600000023842,12907.600000023842,13337.800000011921,13915.800000011921,14434.200000047684,16698.200000047684,17156.200000047684,17588.30000001192,18264.400000035763,19126.5,19698.5,20518.600000023842,21352.80000001192,22250.80000001192,23056.900000035763,23529,24699.200000047684,35842.5,36826.5,37318.5,37852.60000002384,41765.200000047684,42293.10000002384,43119.30000001192,43747.5,44925.5,45401.60000002384,45827.700000047684,46687.700000047684,47547.700000047684,47993.80000001192,48503.90000003576,48949.90000003576,50178.10000002384,51060.30000001192,58169,60465.30000001192,61153.40000003576,62971.80000001192],"key_events":[],"mouse_events":[5808.700000047684,6319,6819.200000047684,7271.100000023842,11305.5,11933.600000023842,12519.700000047684,12907.600000023842,13337.800000011921,13915.800000011921,14434.200000047684,14958.100000023842,15638,16258,16698.200000047684,17156.200000047684,17588.30000001192,18264.400000035763,19126.5,19698.5,20188.400000035763,20518.600000023842,21352.80000001192,21882.900000035763,22250.80000001192,22722.700000047684,23056.900000035763,23529,24251,24699.200000047684,31132,34126.200000047684,34656.200000047684,35842.5,36356.40000003576,36826.5,37318.5,37852.60000002384,41765.200000047684,42293.10000002384,42741.200000047684,43119.30000001192,43747.5,44559.200000047684,44925.5,45401.60000002384,45827.700000047684,46307.60000002384,46687.700000047684,47169.80000001192,47547.700000047684,47993.80000001192,48503.90000003576,48949.90000003576,49401.90000003576,49794,50178.10000002384,50614.30000001192,51060.30000001192,55280.700000047684,58169,60465.30000001192,61153.40000003576,62971.80000001192,70308.60000002384],"honeypot":0,"survey":"mace","page":9,"trial_type":"survey-mace","trial_index":17,"time_elapsed":655760,"internal_node_id":"0.0-17.0","task_version":"prescreen-v0.3","browser_interactions":5},{"responses":{"01":"No","02":"No","03":"No","04":"No","05":"No","06":"Yes","06_ages_17":"17","07":"Yes","07_ages_1":"1","07_ages_2":"2","07_ages_3":"3","07_ages_4":"4","07_ages_5":"5","07_ages_6":"6","07_ages_7":"7","07_ages_8":"8","07_ages_9":"9","07_ages_10":"10","07_ages_11":"11","07_ages_12":"12","07_ages_13":"13","07_ages_14":"14","07_ages_15":"15","07_ages_16":"16","07_ages_17":"17","07_ages_18":"18","08":"Yes","08_ages_16":"16","08_ages_17":"17","08_ages_18":"18"},"rt":49259.80000001192,"item_order":[0,1,2,3,4,5,6,7],"radio_events":[2438.300000011921,3824.399999976158,7016.800000011921,9325,11385.5,13915.600000023842,22304.5,40994.69999998808],"checkbox_events":[16095.800000011921,24094.80000001192,25326.899999976158,25827,26597,27113.100000023842,27619.100000023842,28167.30000001192,29053.30000001192,29473.5,30295.399999976158,30739.5,31675.600000023842,32447.69999998808,33159.80000001192,33782,34787.89999997616,35354.19999998808,35686.10000002384,36440.19999998808,37228.30000001192,44283.10000002384,44765.19999998808,45717.30000001192],"key_events":[],"mouse_events":[2438.300000011921,3824.399999976158,6330.600000023842,7016.800000011921,9325,11385.5,13915.600000023842,16095.800000011921,22304.5,23676.69999998808,24094.80000001192,24611,25326.899999976158,25827,26597,27113.100000023842,27619.100000023842,28167.30000001192,28644,29053.30000001192,29473.5,30295.399999976158,30739.5,31217.69999998808,31675.600000023842,32447.69999998808,33159.80000001192,33782,34253.80000001192,34787.89999997616,35354.19999998808,35686.10000002384,36440.19999998808,36832.39999997616,37228.30000001192,40416.69999998808,40994.69999998808,44283.10000002384,44765.19999998808,45211.30000001192,45717.30000001192,49256],"honeypot":0,"survey":"mace","page":10,"trial_type":"survey-mace","trial_index":18,"time_elapsed":705024,"internal_node_id":"0.0-18.0","task_version":"prescreen-v0.3","browser_interactions":0,"instructed":0},{"rt":5003.799999952316,"trial_type":"mental-health-alert","trial_index":19,"time_elapsed":710031,"internal_node_id":"0.0-19.0","task_version":"prescreen-v0.3","interactions":"[{\"event\":\"blur\",\"trial\":17,\"time\":625063},{\"event\":\"focus\",\"trial\":17,\"time\":625738},{\"event\":\"blur\",\"trial\":17,\"time\":626273},{\"event\":\"focus\",\"trial\":17,\"time\":627130},{\"event\":\"focus\",\"trial\":17,\"time\":627130}]"}]