[{"view_history":[{"page_index":0,"viewing_time":2671.399999976158},{"page_index":1,"viewing_time":19739.199999928474},{"page_index":2,"viewing_time":3959.3000000715256},{"page_index":3,"viewing_time":1236.1999999284744}],"rt":27607.599999904633,"trial_type":"instructions","trial_index":0,"time_elapsed":27624,"internal_node_id":"0.0-0.0","task_version":"prescreen-v0.3"},{"rt":13615.300000071526,"responses":{"age":"23","gender-categorical":"Female","gender-free-response":"","ethnicity":"Not Hispanic or Latino","race":["White"],"education":"Master degree or higher"},"trial_type":"survey-demo","trial_index":1,"time_elapsed":41247,"internal_node_id":"0.0-1.0","task_version":"prescreen-v0.3"},{"responses":{"Q05":"1","Q21":"3","Q15":"3","Q12":"2","Q20":"0","Q18":"2","Q16":"2","Q02":"2","Q08":"3","Q13":"3","Q17":"2","Q09":"2","Q01":"2","Q06":"0","Q14":"2","Q10":"3","Q03":"1","Q19":"1","Q07":"0","Q11":"3","Q04":"2"},"rt":92225.39999997616,"item_order":[4,20,14,11,19,17,15,1,7,12,16,8,0,5,13,9,2,18,6,10,3],"radio_events":[15277.100000023842,19450.5,30071.399999976158,34245.799999952316,37408.60000002384,41912,46103.10000002384,49072.39999997616,52292.89999997616,53866.299999952316,55905.89999997616,58723.700000047684,61477.39999997616,66343.10000002384,69057.10000002384,72220.39999997616,76114.10000002384,79470.39999997616,85075.20000004768,87419.29999995232,91400.79999995232],"key_events":[],"mouse_events":[15277.100000023842,19450.5,30071.399999976158,34245.799999952316,37408.60000002384,41912,46103.10000002384,49072.39999997616,52292.89999997616,53866.299999952316,55905.89999997616,58723.700000047684,61477.39999997616,66343.10000002384,69057.10000002384,72220.39999997616,76114.10000002384,79470.39999997616,85075.20000004768,87419.29999995232,91400.79999995232,92219.79999995232],"straightlining":0.42857142857142855,"zigzagging":0.35,"honeypot":0,"survey":"sns","trial_type":"survey-template","trial_index":2,"time_elapsed":133481,"internal_node_id":"0.0-2.0","task_version":"prescreen-v0.3","browser_interactions":0,"infrequency":0},{"responses":{"Q12":"2","Q07":"3","Q10":"2","Q04":"3","Q05":"3","Q01":"3","Q13":"0","Q02":"3","Q03":"3","Q09":"1","Q06":"3","Q08":"3","Q11":"2"},"rt":43675.60000002384,"item_order":[11,6,9,3,4,0,12,1,2,8,5,7,10],"radio_events":[5107.700000047684,7219.100000023842,9531.200000047684,12404.799999952316,16908.799999952316,18602.399999976158,20746.200000047684,25843.799999952316,28893.399999976158,31246.399999976158,34457.799999952316,38383.10000002384,42999],"key_events":[],"mouse_events":[5107.700000047684,7219.100000023842,9531.200000047684,12404.799999952316,16908.799999952316,18602.399999976158,20746.200000047684,25843.799999952316,28893.399999976158,31246.399999976158,34457.799999952316,38383.10000002384,42999,43672.799999952316],"straightlining":0.6153846153846154,"zigzagging":0.5,"honeypot":0,"survey":"bisbas","trial_type":"survey-template","trial_index":3,"time_elapsed":177162,"internal_node_id":"0.0-3.0","task_version":"prescreen-v0.3","browser_interactions":0,"infrequency":0},{"responses":{"Q01":"3","Q02":"2","Q03":"2"},"rt":15819.699999928474,"radio_events":[5499.5,9689.299999952316,14236.799999952316],"key_events":[],"mouse_events":[5499.5,9689.299999952316,14236.799999952316,15818.099999904633],"survey":"map","page":1,"trial_type":"survey-map","trial_index":4,"time_elapsed":192986,"internal_node_id":"0.0-4.0","task_version":"prescreen-v0.3","browser_interactions":0},{"responses":{"Q04":"3","Q05":"3","Q06":"3"},"rt":10694.399999976158,"radio_events":[3677.5,6565.300000071526,9769.5],"key_events":[],"mouse_events":[3677.5,6565.300000071526,9769.5,10693.100000023842],"survey":"map","page":2,"trial_type":"survey-map","trial_index":5,"time_elapsed":203685,"internal_node_id":"0.0-5.0","task_version":"prescreen-v0.3","browser_interactions":0},{"responses":{"Q07":"4","Q08":"3","Q09":"1"},"rt":13048.5,"radio_events":[3975.600000023842,4747,9009.199999928474,12292.5],"key_events":[],"mouse_events":[3975.600000023842,4747,9009.199999928474,12292.5,13047.100000023842],"survey":"map","page":3,"trial_type":"survey-map","trial_index":6,"time_elapsed":216738,"internal_node_id":"0.0-6.0","task_version":"prescreen-v0.3","browser_interactions":0},{"responses":{"Q10":"1","Q11":"2","Q12":"0","Q13":"2","Q16":"0","Q14":"1","Q15":"1"},"rt":35609.299999952316,"radio_events":[4135.899999976158,6849.899999976158,10318.299999952316,12711.399999976158,16444.700000047684,25904.5,32733.600000023842,34748.799999952316],"key_events":[],"mouse_events":[4135.899999976158,6849.899999976158,10318.299999952316,12711.399999976158,16444.700000047684,25904.5,32733.600000023842,34748.799999952316,35607.39999997616],"survey":"map","page":4,"trial_type":"survey-map","trial_index":7,"time_elapsed":252352,"internal_node_id":"0.0-7.0","task_version":"prescreen-v0.3","browser_interactions":0,"infrequency":0},{"view_history":[{"page_index":0,"viewing_time":2211.5},{"page_index":1,"viewing_time":3495.4000000953674}],"rt":5707.300000071526,"trial_type":"instructions","trial_index":8,"time_elapsed":258062,"internal_node_id":"0.0-8.0","task_version":"prescreen-v0.3"},{"responses":{"01":"Yes","01_ages_10":"10","01_ages_11":"11","01_ages_12":"12","01_ages_13":"13","02":"Yes","02_ages_10":"10","02_ages_11":"11","02_ages_12":"12","02_ages_13":"13","02_ages_14":"14","03":"No","04":"No","05":"No","06":"No"},"rt":47662.10000002384,"item_order":[0,1,2,3,4,5],"radio_events":[8985,20890.899999976158,30124.200000047684,35375.700000047684,37984.799999952316,40000.10000002384],"checkbox_events":[14331.799999952316,14845.600000023842,15375.700000047684,17992.899999976158,25251.100000023842,25756.600000023842,26447.200000047684,45074.5,46302.200000047684],"key_events":[],"mouse_events":[0.10000002384185791,8985,14331.799999952316,14845.600000023842,15375.700000047684,17992.899999976158,20890.899999976158,25251.100000023842,25756.600000023842,26447.200000047684,30124.200000047684,35375.700000047684,37984.799999952316,40000.10000002384,45074.5,46302.200000047684,47658.5],"honeypot":0,"survey":"mace","page":1,"trial_type":"survey-mace","trial_index":9,"time_elapsed":305734,"internal_node_id":"0.0-9.0","task_version":"prescreen-v0.3","browser_interactions":0},{"responses":{"01":"No","02":"No","03":"No","04":"No","05":"No","06":"No","07":"No","08":"No"},"rt":19073.199999928474,"item_order":[0,1,2,3,4,5,6,7],"radio_events":[6129.199999928474,9687.5,11268.600000023842,12794.5,14038.699999928474,15499.699999928474,17242.600000023842,18149.699999928474],"checkbox_events":[],"key_events":[],"mouse_events":[6129.199999928474,9687.5,11268.600000023842,12794.5,14038.699999928474,15499.699999928474,17242.600000023842,18149.699999928474,19065.100000023842],"honeypot":0,"survey":"mace","page":2,"trial_type":"survey-mace","trial_index":10,"time_elapsed":324812,"internal_node_id":"0.0-10.0","task_version":"prescreen-v0.3","browser_interactions":0},{"responses":{"01":"No","02":"No","03":"No","04":"No"},"rt":7779.900000095367,"item_order":[0,1,2,3],"radio_events":[3262.7000000476837,4354.400000095367,5702.900000095367,6891.100000023842],"checkbox_events":[],"key_events":[],"mouse_events":[3262.7000000476837,4354.400000095367,5702.900000095367,6891.100000023842,7774.5],"honeypot":0,"survey":"mace","page":3,"trial_type":"survey-mace","trial_index":11,"time_elapsed":332596,"internal_node_id":"0.0-11.0","task_version":"prescreen-v0.3","browser_interactions":0},{"responses":{"01":"Yes","01_ages_9":"9","01_ages_10":"10","01_ages_11":"11","02":"No"},"rt":13400.199999928474,"item_order":[0,1],"radio_events":[4897.299999952316,9914.799999952316],"checkbox_events":[6478.399999976158,6936.100000023842,7771],"key_events":[],"mouse_events":[4897.299999952316,6478.399999976158,6936.100000023842,7771,9914.799999952316,13397.699999928474],"honeypot":0,"survey":"mace","page":4,"trial_type":"survey-mace","trial_index":12,"time_elapsed":346001,"internal_node_id":"0.0-12.0","task_version":"prescreen-v0.3","browser_interactions":0},{"responses":{"01":"No","02":"No","03":"No","04":"No","05":"No"},"rt":19852.699999928474,"item_order":[0,1,2,3,4],"radio_events":[8430.5,11424.799999952316,14555.5,17172.799999952316,19053.099999904633],"checkbox_events":[],"key_events":[],"mouse_events":[8430.5,11424.799999952316,14555.5,17172.799999952316,19053.099999904633,19846.699999928474],"honeypot":0,"survey":"mace","page":5,"trial_type":"survey-mace","trial_index":13,"time_elapsed":365858,"internal_node_id":"0.0-13.0","task_version":"prescreen-v0.3","browser_interactions":0},{"responses":{"01":"Yes","01_ages_9":"9","01_ages_10":"10","01_ages_11":"11","01_ages_12":"12","01_ages_13":"13","01_ages_14":"14","01_ages_15":"15","01_ages_16":"16","01_ages_17":"17","01_ages_18":"18","02":"Yes","02_ages_9":"9","02_ages_10":"10","02_ages_11":"11","02_ages_12":"12","02_ages_13":"13","02_ages_14":"14","02_ages_15":"15","02_ages_16":"16","02_ages_17":"17","02_ages_18":"18","03":"Yes","03_ages_9":"9","03_ages_10":"10","03_ages_11":"11","03_ages_12":"12","03_ages_13":"13","03_ages_14":"14","03_ages_15":"15","03_ages_16":"16","03_ages_17":"17","03_ages_18":"18","04":"Yes","04_ages_8":"8","04_ages_9":"9","04_ages_10":"10","04_ages_11":"11","04_ages_12":"12","04_ages_13":"13","04_ages_14":"14","04_ages_15":"15","04_ages_16":"16","04_ages_17":"17","04_ages_18":"18","05":"No"},"rt":45576.5,"item_order":[0,1,2,3,4],"radio_events":[4967.899999976158,17260.199999928474,25096.399999976158,32322.199999928474,44743.09999990463],"checkbox_events":[8244,9408.099999904633,10122.5,10764.799999952316,11327.299999952316,12033.699999928474,12499.399999976158,13502.799999952316,13928.299999952316,14377.899999976158,18488.099999904633,18946.099999904633,19580.399999976158,19973.699999928474,20768.799999952316,21531.599999904633,21940.699999928474,22366.5,22944.199999928474,23410.599999904633,26212.599999904633,26637.5,27127.5,27721.299999952316,28195.799999952316,28613,29182.699999928474,29624.199999928474,30082.199999928474,30820.799999952316,33358.299999952316,33783.699999928474,34337.39999997616,34770.799999952316,35984.09999990463,36585.5,37010.39999997616,37597.299999952316,38022,38439.699999928474,39034.299999952316],"key_events":[],"mouse_events":[4967.899999976158,8244,9408.099999904633,10122.5,10764.799999952316,11327.299999952316,12033.699999928474,12499.399999976158,13045,13502.799999952316,13928.299999952316,14377.899999976158,16329.199999928474,17260.199999928474,18488.099999904633,18946.099999904633,19580.399999976158,19973.699999928474,20768.799999952316,21531.599999904633,21940.699999928474,22366.5,22944.199999928474,23410.599999904633,25096.399999976158,26212.599999904633,26637.5,27127.5,27721.299999952316,28195.799999952316,28613,29182.699999928474,29624.199999928474,30082.199999928474,30820.799999952316,32322.199999928474,33358.299999952316,33783.699999928474,34337.39999997616,34770.799999952316,35389.39999997616,35984.09999990463,36585.5,37010.39999997616,37597.299999952316,38022,38439.699999928474,39034.299999952316,44743.09999990463,45570.5],"honeypot":0,"survey":"mace","page":6,"trial_type":"survey-mace","trial_index":14,"time_elapsed":411439,"internal_node_id":"0.0-14.0","task_version":"prescreen-v0.3","browser_interactions":0},{"responses":{"01":"No","02":"No","03":"No","04":"No","05":"No","06":"No","07":"No"},"rt":18606,"item_order":[0,1,2,3,4,5,6],"radio_events":[4043.2000000476837,7695.700000047684,10529.799999952316,12087.600000023842,14287.600000023842,16278.399999976158,18028.299999952316],"checkbox_events":[],"key_events":[],"mouse_events":[4043.2000000476837,7695.700000047684,10529.799999952316,12087.600000023842,14287.600000023842,16278.399999976158,18028.299999952316,18598.899999976158],"honeypot":0,"survey":"mace","page":7,"trial_type":"survey-mace","trial_index":15,"time_elapsed":430050,"internal_node_id":"0.0-15.0","task_version":"prescreen-v0.3","browser_interactions":0},{"responses":{"01":"Yes","01_ages_10":"10","01_ages_11":"11","01_ages_12":"12","02":"Yes","02_ages_10":"10","02_ages_11":"11","02_ages_12":"12","03":"No","04":"No"},"rt":36607.5,"item_order":[0,1,2,3],"radio_events":[16547.200000047684,23972.600000023842,32756.400000095367,35590.800000071526],"checkbox_events":[17887.300000071526,19027.700000047684,19733.900000095367,20616.900000095367,25313.400000095367,25884.200000047684,27112.200000047684,27722.100000023842],"key_events":[],"mouse_events":[16547.200000047684,17887.300000071526,19027.700000047684,19733.900000095367,20616.900000095367,23972.600000023842,25313.400000095367,25884.200000047684,27112.200000047684,27722.100000023842,32756.400000095367,35590.800000071526,36602.300000071526],"honeypot":0,"survey":"mace","page":8,"trial_type":"survey-mace","trial_index":16,"time_elapsed":466661,"internal_node_id":"0.0-16.0","task_version":"prescreen-v0.3","browser_interactions":0},{"responses":{"01":"Yes","01_ages_1":"1","01_ages_2":"2","01_ages_3":"3","01_ages_4":"4","01_ages_5":"5","01_ages_6":"6","01_ages_7":"7","01_ages_8":"8","01_ages_9":"9","01_ages_10":"10","01_ages_11":"11","01_ages_12":"12","01_ages_13":"13","01_ages_14":"14","01_ages_15":"15","01_ages_16":"16","01_ages_17":"17","01_ages_18":"18","02":"Yes","02_ages_1":"1","02_ages_2":"2","02_ages_3":"3","02_ages_4":"4","02_ages_5":"5","02_ages_6":"6","02_ages_7":"7","02_ages_8":"8","02_ages_9":"9","02_ages_10":"10","02_ages_11":"11","02_ages_12":"12","02_ages_13":"13","02_ages_14":"14","02_ages_15":"15","02_ages_16":"16","02_ages_17":"17","02_ages_18":"18","03":"Yes","03_ages_1":"1","03_ages_2":"2","03_ages_3":"3","03_ages_4":"4","03_ages_5":"5","03_ages_6":"6","03_ages_7":"7","03_ages_8":"8","03_ages_9":"9","03_ages_10":"10","03_ages_11":"11","03_ages_12":"12","03_ages_13":"13","03_ages_14":"14","03_ages_15":"15","03_ages_16":"16","03_ages_17":"17","03_ages_18":"18","04":"Yes","04_ages_1":"1","04_ages_2":"2","04_ages_3":"3","04_ages_4":"4","04_ages_5":"5","04_ages_6":"6","04_ages_7":"7","04_ages_8":"8","04_ages_9":"9","04_ages_10":"10","04_ages_11":"11","04_ages_12":"12","04_ages_13":"13","04_ages_14":"14","04_ages_15":"15","04_ages_16":"16","04_ages_17":"17","04_ages_18":"18"},"rt":62961.5,"item_order":[0,1,2,3],"radio_events":[4679.799999952316,20785.299999952316,34306.39999997616,49747.5],"checkbox_events":[8244.5,8749.899999976158,9183.699999928474,9898.199999928474,10492.699999928474,10934.099999904633,11560.199999928474,11945.399999976158,12379.199999928474,12973.199999928474,13487,13945.199999928474,14410.299999952316,14884.199999928474,15871.699999928474,16449.899999976158,16931.599999904633,17565.699999928474,22013.899999976158,22479,22937.199999928474,23451,23981.099999904633,24792,25353.599999904633,25875.899999976158,26309.099999904633,26791.199999928474,27353.5,27795.099999904633,28364.899999976158,28806.5,29200,29617.599999904633,30259.399999976158,30894,35430.799999952316,35880.39999997616,36466.39999997616,36875.699999928474,37421.59999990463,38007.699999928474,38481.799999952316,39766.5,40641.799999952316,41412.799999952316,41814.199999928474,42376.09999990463,42850.09999990463,43645.09999990463,44263.39999997616,44905.699999928474,45563.89999997616,46021.699999928474,51442.09999990463,51947.89999997616,52670.299999952316,53184.39999997616,53625.699999928474,54211,54605.39999997616,55263.699999928474,55890.39999997616,56516.5,57351.799999952316,58058.5,58451.699999928474,59078.09999990463,59576.09999990463,60788.799999952316,61254.699999928474,61808.59999990463],"key_events":[],"mouse_events":[4679.799999952316,8244.5,8749.899999976158,9183.699999928474,9898.199999928474,10492.699999928474,10934.099999904633,11560.199999928474,11945.399999976158,12379.199999928474,12973.199999928474,13487,13945.199999928474,14410.299999952316,14884.199999928474,15486.599999904633,15871.699999928474,16449.899999976158,16931.599999904633,17565.699999928474,19861.899999976158,20785.299999952316,22013.899999976158,22479,22937.199999928474,23451,23981.099999904633,24792,25353.599999904633,25875.899999976158,26309.099999904633,26791.199999928474,27353.5,27795.099999904633,28364.899999976158,28806.5,29200,29617.599999904633,30259.399999976158,30894,33399.199999928474,34306.39999997616,35430.799999952316,35880.39999997616,36466.39999997616,36875.699999928474,37421.59999990463,38007.699999928474,38481.799999952316,38915.699999928474,39766.5,40200.299999952316,40641.799999952316,41412.799999952316,41814.199999928474,42376.09999990463,42850.09999990463,43645.09999990463,44263.39999997616,44905.699999928474,45563.89999997616,46021.699999928474,48567.39999997616,49747.5,51442.09999990463,51947.89999997616,52670.299999952316,53184.39999997616,53625.699999928474,54211,54605.39999997616,55263.699999928474,55890.39999997616,56516.5,56926.299999952316,57351.799999952316,58058.5,58451.699999928474,59078.09999990463,59576.09999990463,60194.39999997616,60788.799999952316,61254.699999928474,61808.59999990463,62956.89999997616],"honeypot":0,"survey":"mace","page":9,"trial_type":"survey-mace","trial_index":17,"time_elapsed":529626,"internal_node_id":"0.0-17.0","task_version":"prescreen-v0.3","browser_interactions":0},{"responses":{"01":"No","02":"No","03":"Yes","03_ages_10":"10","03_ages_11":"11","03_ages_12":"12","03_ages_13":"13","03_ages_14":"14","03_ages_17":"17","03_ages_18":"18","04":"No","05":"Yes","05_ages_9":"9","05_ages_10":"10","05_ages_11":"11","05_ages_12":"12","05_ages_13":"13","05_ages_14":"14","05_ages_15":"15","05_ages_16":"16","05_ages_17":"17","05_ages_18":"18","06":"Yes","06_ages_17":"17","07":"Yes","07_ages_1":"1","07_ages_2":"2","07_ages_3":"3","07_ages_4":"4","07_ages_5":"5","07_ages_6":"6","07_ages_7":"7","07_ages_8":"8","07_ages_13":"13","07_ages_14":"14","07_ages_15":"15","07_ages_16":"16","07_ages_17":"17","07_ages_18":"18","08":"Yes","08_ages_1":"1","08_ages_2":"2","08_ages_3":"3","08_ages_4":"4","08_ages_5":"5","08_ages_6":"6","08_ages_7":"7","08_ages_8":"8","08_ages_13":"13","08_ages_14":"14","08_ages_15":"15","08_ages_16":"16","08_ages_17":"17","08_ages_18":"18"},"rt":58291.90000009537,"item_order":[0,1,2,3,4,5,6,7],"radio_events":[3331.5,5097.900000095367,6800,16498.700000047684,18474.900000095367,28944.700000047684,33802.300000071526,47652.800000071526],"checkbox_events":[8156.700000047684,8718.5,9401.400000095367,11103.700000047684,11561.100000023842,12998.5,13392.600000023842,21060.5,21541.600000023842,22039.800000071526,22553.400000095367,23115.700000047684,23532.700000047684,23918.400000095367,25170.600000023842,25717,26375,30390.100000023842,36195.300000071526,36749.200000047684,37166.300000071526,37768.90000009537,38162.90000009537,38635.700000047684,39182,39960.60000002384,42208.60000002384,42626.700000047684,43156.40000009537,43742.10000002384,44304.90000009537,44850.800000071526,49355.40000009537,49941.60000002384,50463.300000071526,50824.700000047684,51250.200000047684,51859.90000009537,52494.90000009537,53129.300000071526,54405.800000071526,54943.90000009537,55562.10000002384,55955.40000009537,56365,57232.10000002384],"key_events":[],"mouse_events":[3331.5,5097.900000095367,6800,8156.700000047684,8718.5,9401.400000095367,11103.700000047684,11561.100000023842,12998.5,13392.600000023842,16498.700000047684,18474.900000095367,21060.5,21541.600000023842,22039.800000071526,22553.400000095367,23115.700000047684,23532.700000047684,23918.400000095367,24528.5,25170.600000023842,25717,26375,28944.700000047684,30390.100000023842,33802.300000071526,36195.300000071526,36749.200000047684,37166.300000071526,37768.90000009537,38162.90000009537,38635.700000047684,39182,39960.60000002384,42208.60000002384,42626.700000047684,43156.40000009537,43742.10000002384,44304.90000009537,44850.800000071526,47652.800000071526,49355.40000009537,49941.60000002384,50463.300000071526,50824.700000047684,51250.200000047684,51859.90000009537,52494.90000009537,53129.300000071526,54405.800000071526,54943.90000009537,55562.10000002384,55955.40000009537,56365,57232.10000002384,58284.90000009537],"honeypot":0,"survey":"mace","page":10,"trial_type":"survey-mace","trial_index":18,"time_elapsed":587924,"internal_node_id":"0.0-18.0","task_version":"prescreen-v0.3","browser_interactions":0,"instructed":0},{"rt":7656.600000023842,"trial_type":"mental-health-alert","trial_index":19,"time_elapsed":595583,"internal_node_id":"0.0-19.0","task_version":"prescreen-v0.3","interactions":"[]"}]