[{"view_history":[{"page_index":0,"viewing_time":2344.400000035763},{"page_index":1,"viewing_time":4348.099999964237},{"page_index":2,"viewing_time":4352.5},{"page_index":3,"viewing_time":897.5}],"rt":11944,"trial_type":"instructions","trial_index":0,"time_elapsed":11954,"internal_node_id":"0.0-0.0","task_version":"prescreen-v0.3"},{"rt":10739.099999964237,"responses":{"age":"22","gender-categorical":"Male","gender-free-response":"","ethnicity":"Not Hispanic or Latino","race":["White"],"education":"Some college"},"trial_type":"survey-demo","trial_index":1,"time_elapsed":22700,"internal_node_id":"0.0-1.0","task_version":"prescreen-v0.3"},{"responses":{"Q15":"1","Q20":"0","Q21":"3","Q08":"0","Q12":"0","Q13":"0","Q07":"2","Q03":"0","Q19":"1","Q06":"1","Q17":"1","Q18":"1","Q10":"0","Q16":"0","Q04":"0","Q11":"0","Q09":"0","Q02":"0","Q05":"0","Q14":"0","Q01":"0"},"rt":82035.39999997616,"item_order":[14,19,20,7,11,12,6,2,18,5,16,17,9,15,3,10,8,1,4,13,0],"radio_events":[11454.399999976158,16222.300000011921,21549.80000001192,25190.5,31695.100000023842,33374.69999998808,39541.39999997616,41480.60000002384,46585.10000002384,49320.39999997616,50045.5,52579.39999997616,56449.60000002384,62997.80000001192,63908.60000002384,72546.30000001192,73788.10000002384,74520.39999997616,76394.39999997616,77270.69999998808,78167.5,80616.10000002384],"key_events":[],"mouse_events":[10407.100000023842,11454.399999976158,16222.300000011921,20882.19999998808,21549.80000001192,25190.5,31695.100000023842,33374.69999998808,39541.39999997616,40784.19999998808,41480.60000002384,46585.10000002384,49320.39999997616,50045.5,50691.89999997616,52579.39999997616,55164.80000001192,56449.60000002384,61834.5,62997.80000001192,63908.60000002384,70026.5,70780.69999998808,71965.39999997616,72546.30000001192,73199.89999997616,73788.10000002384,74520.39999997616,75073.69999998808,76394.39999997616,77270.69999998808,78167.5,79022.60000002384,80616.10000002384,81629.5,82031],"straightlining":0.6666666666666666,"zigzagging":0.25,"honeypot":0,"survey":"sns","trial_type":"survey-template","trial_index":2,"time_elapsed":104753,"internal_node_id":"0.0-2.0","task_version":"prescreen-v0.3","browser_interactions":0,"infrequency":0},{"responses":{"Q01":"0","Q08":"2","Q07":"3","Q09":"1","Q05":"3","Q04":"2","Q06":"3","Q13":"0","Q12":"1","Q10":"2","Q02":"1","Q11":"3","Q03":"0"},"rt":97579.5,"item_order":[0,7,6,8,4,3,5,12,11,9,1,10,2],"radio_events":[3028.399999976158,7882.199999988079,12419.100000023842,16784,20797.399999976158,26304.30000001192,30044.30000001192,33218,39844.19999998808,43376.80000001192,46844.39999997616,50283.30000001192,77928.30000001192,93614.10000002384,96327.89999997616],"key_events":[],"mouse_events":[3028.399999976158,7278.800000011921,7882.199999988079,10925.699999988079,11522,12419.100000023842,16784,20797.399999976158,26304.30000001192,30044.30000001192,33218,39844.19999998808,43376.80000001192,46844.39999997616,50283.30000001192,77928.30000001192,93614.10000002384,96327.89999997616,97577],"straightlining":0.3076923076923077,"zigzagging":0.6666666666666666,"honeypot":0,"survey":"bisbas","trial_type":"survey-template","trial_index":3,"time_elapsed":202341,"internal_node_id":"0.0-3.0","task_version":"prescreen-v0.3","browser_interactions":0,"infrequency":0},{"responses":{"Q01":"4","Q02":"4","Q03":"4"},"rt":19920.5,"radio_events":[13040.599999964237,14189.799999952316,16652.099999964237],"key_events":[],"mouse_events":[10535.599999964237,13040.599999964237,14189.799999952316,16652.099999964237,19919],"survey":"map","page":1,"trial_type":"survey-map","trial_index":4,"time_elapsed":222269,"internal_node_id":"0.0-4.0","task_version":"prescreen-v0.3","browser_interactions":2},{"responses":{"Q04":"3","Q05":"3","Q06":"3"},"rt":15910.899999976158,"radio_events":[6317.800000011921,7610.199999988079,9548.600000023842,13059.600000023842,14215.300000011921,15112.300000011921],"key_events":[],"mouse_events":[6317.800000011921,7610.199999988079,8779.899999976158,9548.600000023842,11142.5,13059.600000023842,14215.300000011921,15112.300000011921,15909.800000011921],"survey":"map","page":2,"trial_type":"survey-map","trial_index":5,"time_elapsed":238186,"internal_node_id":"0.0-5.0","task_version":"prescreen-v0.3","browser_interactions":0},{"responses":{"Q07":"3","Q08":"2","Q09":"4"},"rt":13234,"radio_events":[9542.699999988079,10626.400000035763,12514.300000011921],"key_events":[],"mouse_events":[4681.800000011921,6254.600000023842,9542.699999988079,10626.400000035763,12514.300000011921,13232.900000035763],"survey":"map","page":3,"trial_type":"survey-map","trial_index":6,"time_elapsed":251425,"internal_node_id":"0.0-6.0","task_version":"prescreen-v0.3","browser_interactions":0},{"responses":{"Q10":"3","Q11":"4","Q12":"3","Q13":"4","Q16":"0","Q14":"3","Q15":"3"},"rt":60786.5,"radio_events":[5234.199999988079,8249.300000011921,35606,43079.69999998808,48198.69999998808,57833.69999998808,59850.60000002384],"key_events":[],"mouse_events":[5234.199999988079,8249.300000011921,35606,43079.69999998808,46971.69999998808,48198.69999998808,57833.69999998808,59850.60000002384,60784.30000001192],"survey":"map","page":4,"trial_type":"survey-map","trial_index":7,"time_elapsed":312218,"internal_node_id":"0.0-7.0","task_version":"prescreen-v0.3","browser_interactions":0,"infrequency":0},{"view_history":[{"page_index":0,"viewing_time":2404.400000035763},{"page_index":1,"viewing_time":3108.599999964237}],"rt":5514.400000035763,"trial_type":"instructions","trial_index":8,"time_elapsed":317736,"internal_node_id":"0.0-8.0","task_version":"prescreen-v0.3"},{"responses":{"01":"No","02":"No","03":"No","04":"No","05":"No","06":"No"},"rt":19850.299999952316,"item_order":[0,1,2,3,4,5],"radio_events":[7402.299999952316,11357.899999976158,15213.099999964237,16720.5,17732.899999976158,19132.799999952316],"checkbox_events":[],"key_events":[],"mouse_events":[0.19999998807907104,3942.699999988079,7402.299999952316,11357.899999976158,15213.099999964237,16720.5,17732.899999976158,18493.799999952316,19132.799999952316,19844.69999998808],"honeypot":0,"survey":"mace","page":1,"trial_type":"survey-mace","trial_index":9,"time_elapsed":337604,"internal_node_id":"0.0-9.0","task_version":"prescreen-v0.3","browser_interactions":0},{"responses":{"01":"No","02":"No","03":"No","04":"No","05":"No","06":"No","07":"No","08":"No"},"rt":12997.600000023842,"item_order":[0,1,2,3,4,5,6,7],"radio_events":[3363.300000011921,5237.300000011921,6758.699999988079,7757,8984.5,9566,10628.5,12344],"checkbox_events":[],"key_events":[],"mouse_events":[3363.300000011921,3994.5,5237.300000011921,6758.699999988079,7757,8984.5,9566,10628.5,12344,12990.699999988079],"honeypot":0,"survey":"mace","page":2,"trial_type":"survey-mace","trial_index":10,"time_elapsed":350614,"internal_node_id":"0.0-10.0","task_version":"prescreen-v0.3","browser_interactions":0},{"responses":{"01":"Yes","01_ages_6":"6","01_ages_7":"7","01_ages_8":"8","01_ages_9":"9","02":"No","03":"No","04":"No"},"rt":45362.39999997616,"item_order":[0,1,2,3],"radio_events":[24064.30000001192,40741.5,42859.80000001192,44769.19999998808],"checkbox_events":[25701.69999998808,26483.5,28164.099999964237,28766.19999998808,31265.5,33591.09999996424,34330.89999997616,34811.59999996424],"key_events":[],"mouse_events":[24064.30000001192,25701.69999998808,26483.5,28164.099999964237,28766.19999998808,31265.5,33591.09999996424,34330.89999997616,34811.59999996424,40066.30000001192,40741.5,42270.80000001192,42859.80000001192,44769.19999998808,45358.30000001192],"honeypot":0,"survey":"mace","page":3,"trial_type":"survey-mace","trial_index":11,"time_elapsed":395985,"internal_node_id":"0.0-11.0","task_version":"prescreen-v0.3","browser_interactions":0},{"responses":{"01":"No","02":"No"},"rt":10802,"item_order":[0,1],"radio_events":[5595.5,7138.599999964237],"checkbox_events":[],"key_events":[],"mouse_events":[5071.399999976158,5595.5,7138.599999964237,10800],"honeypot":0,"survey":"mace","page":4,"trial_type":"survey-mace","trial_index":12,"time_elapsed":406793,"internal_node_id":"0.0-12.0","task_version":"prescreen-v0.3","browser_interactions":0},{"responses":{"01":"No","02":"No","03":"No","04":"No","05":"No"},"rt":13787.400000035763,"item_order":[0,1,2,3,4],"radio_events":[4083.400000035763,6101,8082.300000011921,8929.5,9999.100000023842],"checkbox_events":[],"key_events":[],"mouse_events":[4083.400000035763,6101,8082.300000011921,8929.5,9999.100000023842,13782.700000047684],"honeypot":0,"survey":"mace","page":5,"trial_type":"survey-mace","trial_index":13,"time_elapsed":420589,"internal_node_id":"0.0-13.0","task_version":"prescreen-v0.3","browser_interactions":0},{"responses":{"01":"No","02":"No","03":"No","04":"Yes","04_ages_12":"12","05":"No"},"rt":22993.600000023842,"item_order":[0,1,2,3,4],"radio_events":[7445.5,8587.400000035763,11932.700000047684,12801.600000023842,14129.900000035763,15429],"checkbox_events":[19069],"key_events":[],"mouse_events":[7445.5,8587.400000035763,11932.700000047684,12801.600000023842,14129.900000035763,15429,19069,22989],"honeypot":0,"survey":"mace","page":6,"trial_type":"survey-mace","trial_index":14,"time_elapsed":443592,"internal_node_id":"0.0-14.0","task_version":"prescreen-v0.3","browser_interactions":0},{"responses":{"01":"No","02":"No","03":"No","04":"No","05":"No","06":"No","07":"No"},"rt":10659.099999964237,"item_order":[0,1,2,3,4,5,6],"radio_events":[2699.099999964237,4436,5347.699999988079,6633.199999988079,7408.099999964237,8090.099999964237,9547.799999952316],"checkbox_events":[],"key_events":[],"mouse_events":[2699.099999964237,4436,5347.699999988079,6633.199999988079,7408.099999964237,8090.099999964237,8757.899999976158,9547.799999952316,10652.899999976158],"honeypot":0,"survey":"mace","page":7,"trial_type":"survey-mace","trial_index":15,"time_elapsed":454264,"internal_node_id":"0.0-15.0","task_version":"prescreen-v0.3","browser_interactions":0},{"responses":{"01":"No","02":"No","03":"No","04":"No"},"rt":15401.800000011921,"item_order":[0,1,2,3],"radio_events":[5648.399999976158,8174.599999964237,9173.199999988079,14529.599999964237],"checkbox_events":[],"key_events":[],"mouse_events":[5648.399999976158,6832.399999976158,8174.599999964237,9173.199999988079,12848.800000011921,14529.599999964237,15398.199999988079],"honeypot":0,"survey":"mace","page":8,"trial_type":"survey-mace","trial_index":16,"time_elapsed":469674,"internal_node_id":"0.0-16.0","task_version":"prescreen-v0.3","browser_interactions":0},{"responses":{"01":"Yes","01_ages_1":"1","01_ages_2":"2","01_ages_3":"3","01_ages_4":"4","01_ages_5":"5","01_ages_6":"6","01_ages_7":"7","01_ages_8":"8","01_ages_9":"9","01_ages_10":"10","01_ages_11":"11","01_ages_12":"12","01_ages_13":"13","01_ages_14":"14","01_ages_15":"15","01_ages_16":"16","01_ages_17":"17","01_ages_18":"18","02":"Yes","02_ages_1":"1","02_ages_2":"2","02_ages_3":"3","02_ages_4":"4","02_ages_5":"5","02_ages_6":"6","02_ages_7":"7","02_ages_8":"8","02_ages_9":"9","02_ages_10":"10","02_ages_11":"11","02_ages_12":"12","02_ages_13":"13","02_ages_14":"14","02_ages_15":"15","02_ages_16":"16","02_ages_17":"17","02_ages_18":"18","03":"Yes","03_ages_1":"1","03_ages_2":"2","03_ages_3":"3","03_ages_4":"4","03_ages_5":"5","03_ages_6":"6","03_ages_7":"7","03_ages_8":"8","03_ages_9":"9","03_ages_10":"10","03_ages_11":"11","03_ages_12":"12","03_ages_13":"13","03_ages_14":"14","03_ages_15":"15","03_ages_16":"16","03_ages_17":"17","03_ages_18":"18","04":"Yes","04_ages_1":"1","04_ages_2":"2","04_ages_3":"3","04_ages_4":"4","04_ages_5":"5","04_ages_6":"6","04_ages_7":"7","04_ages_8":"8","04_ages_9":"9","04_ages_10":"10","04_ages_11":"11","04_ages_12":"12","04_ages_13":"13","04_ages_14":"14","04_ages_15":"15","04_ages_16":"16","04_ages_17":"17","04_ages_18":"18"},"rt":80020.30000001192,"item_order":[0,1,2,3],"radio_events":[3814.399999976158,5207.199999988079,11374,27197.600000023842,45993,62469.89999997616],"checkbox_events":[14110,15258.100000023842,15739.100000023842,16277.600000023842,16809.30000001192,17404.600000023842,17929.100000023842,18503.600000023842,19041.69999998808,19673.19999998808,20254.600000023842,22272.899999976158,22824.899999976158,23679.69999998808,24239.5,25316.600000023842,25790,26350.5,28008.399999976158,28468.30000001192,28978,31182,31677,32596.600000023842,33529.89999997616,34958.5,35633.5,36164.5,36738.80000001192,37909.19999998808,38419.10000002384,39187.10000002384,41412.5,42209.10000002384,42984.80000001192,43882,47392.89999997616,47988.5,49223.30000001192,50027.89999997616,51061.5,52045.19999998808,52633.69999998808,53344.69999998808,53933.39999997616,54737.39999997616,55577.80000001192,56992,57551.80000001192,58434.89999997616,59138.39999997616,59748.69999998808,60380.5,61155.89999997616,63510.30000001192,64070.60000002384,64637.30000001192,65226.60000002384,66964.60000002384,68292.10000002384,69964.89999997616,70582.30000001192,71724,72686.10000002384,73475.19999998808,74236.80000001192,74882.89999997616,76168.10000002384,76713.30000001192,77381.10000002384,78149,78981.80000001192],"key_events":[],"mouse_events":[3814.399999976158,5207.199999988079,6011.399999976158,10806.600000023842,11374,14110,14784.699999988079,15258.100000023842,15739.100000023842,16277.600000023842,16809.30000001192,17404.600000023842,17929.100000023842,18503.600000023842,19041.69999998808,19673.19999998808,20254.600000023842,20800.80000001192,21368.30000001192,22272.899999976158,22824.899999976158,23679.69999998808,24239.5,24814.100000023842,25316.600000023842,25790,26350.5,27197.600000023842,28008.399999976158,28468.30000001192,28978,29487.80000001192,30062.80000001192,30600.80000001192,31182,31677,32136.80000001192,32596.600000023842,33529.89999997616,34125.30000001192,34958.5,35633.5,36164.5,36738.80000001192,37456.5,37909.19999998808,38419.10000002384,39187.10000002384,39825.39999997616,40393.19999998808,40931.89999997616,41412.5,42209.10000002384,42984.80000001192,43882,45993,47392.89999997616,47988.5,49223.30000001192,50027.89999997616,50551.89999997616,51061.5,51643.10000002384,52045.19999998808,52633.69999998808,53344.69999998808,53933.39999997616,54737.39999997616,55577.80000001192,56151.89999997616,56992,57551.80000001192,58434.89999997616,59138.39999997616,59748.69999998808,60380.5,61155.89999997616,62469.89999997616,63510.30000001192,64070.60000002384,64637.30000001192,65226.60000002384,65750.89999997616,66964.60000002384,67417.69999998808,67675.80000001192,68292.10000002384,69074.39999997616,69541.69999998808,69964.89999997616,70582.30000001192,71235.60000002384,71724,72686.10000002384,73475.19999998808,74236.80000001192,74882.89999997616,75593.80000001192,76168.10000002384,76713.30000001192,77381.10000002384,78149,78981.80000001192,80016.30000001192],"honeypot":0,"survey":"mace","page":9,"trial_type":"survey-mace","trial_index":17,"time_elapsed":549703,"internal_node_id":"0.0-17.0","task_version":"prescreen-v0.3","browser_interactions":0},{"responses":{"01":"No","02":"No","03":"No","04":"No","05":"No","06":"Yes","06_ages_17":"17","07":"Yes","07_ages_1":"1","07_ages_2":"2","07_ages_3":"3","07_ages_4":"4","07_ages_5":"5","07_ages_6":"6","07_ages_7":"7","07_ages_8":"8","07_ages_9":"9","07_ages_10":"10","07_ages_11":"11","07_ages_12":"12","07_ages_13":"13","07_ages_14":"14","07_ages_15":"15","07_ages_16":"16","07_ages_17":"17","07_ages_18":"18","08":"Yes","08_ages_1":"1","08_ages_2":"2","08_ages_3":"3","08_ages_4":"4","08_ages_5":"5","08_ages_6":"6","08_ages_7":"7","08_ages_8":"8","08_ages_9":"9","08_ages_10":"10","08_ages_11":"11","08_ages_12":"12","08_ages_13":"13","08_ages_14":"14","08_ages_15":"15","08_ages_16":"16","08_ages_17":"17","08_ages_18":"18"},"rt":53190.10000002384,"item_order":[0,1,2,3,4,5,6,7],"radio_events":[3237.5,4300.200000047684,5707.100000023842,6267.200000047684,7071.300000011921,8779.300000011921,12031.300000011921,15083.100000023842,17574.5,35298.90000003576],"checkbox_events":[13661.600000023842,19914.600000023842,21156.200000047684,21939.100000023842,23072.80000001192,23597,24164.200000047684,25377.30000001192,25965.900000035763,26634,27316.100000023842,27955.100000023842,28680,30495.80000001192,31113.700000047684,31903.400000035763,32499.100000023842,33231.5,34129,36318.30000001192,36842,37467,37990.5,38557.700000047684,40029.60000002384,40818.90000003576,41566.200000047684,42391.5,44487.90000003576,45255.60000002384,45758.200000047684,46397.40000003576,47115.5,47704,48314.60000002384,48896,49692.5,49779.10000002384,51695.80000001192],"key_events":[],"mouse_events":[3237.5,4300.200000047684,5707.100000023842,6267.200000047684,7071.300000011921,8779.300000011921,12031.300000011921,13661.600000023842,15083.100000023842,17574.5,19914.600000023842,20374,21156.200000047684,21939.100000023842,22578.100000023842,23072.80000001192,23597,24164.200000047684,24724.200000047684,25377.30000001192,25965.900000035763,26634,27316.100000023842,27955.100000023842,28680,29383.5,30495.80000001192,31113.700000047684,31903.400000035763,32499.100000023842,33231.5,34129,35298.90000003576,36318.30000001192,36842,37467,37990.5,38557.700000047684,39283.40000003576,40029.60000002384,40818.90000003576,41566.200000047684,42391.5,43512,43978,44487.90000003576,45255.60000002384,45758.200000047684,46397.40000003576,47115.5,47704,48314.60000002384,48896,49692.5,49779.10000002384,51695.80000001192,53182.200000047684],"honeypot":0,"survey":"mace","page":10,"trial_type":"survey-mace","trial_index":18,"time_elapsed":602906,"internal_node_id":"0.0-18.0","task_version":"prescreen-v0.3","browser_interactions":0,"instructed":0},{"rt":4555.199999988079,"trial_type":"mental-health-alert","trial_index":19,"time_elapsed":607466,"internal_node_id":"0.0-19.0","task_version":"prescreen-v0.3","interactions":"[{\"event\":\"blur\",\"trial\":4,\"time\":203954},{\"event\":\"focus\",\"trial\":4,\"time\":207995}]"}]