[{"view_history":[{"page_index":0,"viewing_time":2467.899999999907},{"page_index":1,"viewing_time":3064},{"page_index":2,"viewing_time":2264},{"page_index":3,"viewing_time":1040.1000000000931}],"rt":8836.69999999972,"trial_type":"instructions","trial_index":0,"time_elapsed":8851,"internal_node_id":"0.0-0.0","task_version":"prescreen-v0.3"},{"rt":14156.30000000028,"responses":{"age":"28","gender-categorical":"Female","gender-free-response":"","ethnicity":"Not Hispanic or Latino","race":["White"],"education":"Some college"},"trial_type":"survey-demo","trial_index":1,"time_elapsed":23011,"internal_node_id":"0.0-1.0","task_version":"prescreen-v0.3"},{"responses":{"Q10":"3","Q14":"2","Q01":"2","Q07":"0","Q13":"3","Q15":"3","Q17":"2","Q19":"2","Q02":"3","Q09":"2","Q08":"1","Q06":"0","Q20":"2","Q05":"1","Q21":"3","Q03":"2","Q04":"3","Q16":"2","Q12":"2","Q18":"2","Q11":"3"},"rt":85317.19999999972,"item_order":[9,13,0,6,12,14,16,18,1,8,7,5,19,4,20,2,3,15,11,17,10],"radio_events":[16764.099999999627,17652,22908,27163.69999999972,30203.899999999907,34363.69999999972,36611.89999999991,42731.89999999991,43915.89999999991,46596,49483.59999999963,52299.59999999963,54179.5,62564,64643.5,69259.59999999963,70331.8999999999,76339.8999999999,81795.5,82451.79999999981,84235.69999999972],"key_events":[],"mouse_events":[14428.099999999627,16764.099999999627,17652,21491.69999999972,22908,27163.69999999972,30203.899999999907,34363.69999999972,35571.69999999972,36611.89999999991,40627.799999999814,42731.89999999991,43915.89999999991,46596,49483.59999999963,52299.59999999963,54179.5,60092,62564,64643.5,66971.8999999999,67699.5,69259.59999999963,70331.8999999999,76339.8999999999,79179.79999999981,81795.5,82451.79999999981,83532.09999999963,84235.69999999972,85315.69999999972],"straightlining":0.47619047619047616,"zigzagging":0.6,"honeypot":0,"survey":"sns","trial_type":"survey-template","trial_index":2,"time_elapsed":108333,"internal_node_id":"0.0-2.0","task_version":"prescreen-v0.3","browser_interactions":0,"infrequency":0},{"responses":{"Q07":"3","Q13":"0","Q11":"1","Q02":"3","Q06":"2","Q04":"3","Q08":"2","Q09":"1","Q01":"3","Q03":"3","Q05":"2","Q12":"1","Q10":"1"},"rt":39724,"item_order":[6,12,10,1,5,3,7,8,0,2,4,11,9],"radio_events":[6275.5999999996275,9211.099999999627,13139.099999999627,15131.19999999972,20099.299999999814,22467.399999999907,24659.19999999972,28299.599999999627,29283.299999999814,31099.299999999814,33627.5,37275.59999999963,38099],"key_events":[],"mouse_events":[6275.5999999996275,8131.0999999996275,9211.099999999627,13139.099999999627,15131.19999999972,19051.599999999627,20099.299999999814,20979.399999999907,22467.399999999907,24659.19999999972,27531.5,28299.599999999627,29283.299999999814,31099.299999999814,33627.5,35827.59999999963,37275.59999999963,38099,39723.299999999814],"straightlining":0.38461538461538464,"zigzagging":0.6666666666666666,"honeypot":0,"survey":"bisbas","trial_type":"survey-template","trial_index":3,"time_elapsed":148060,"internal_node_id":"0.0-3.0","task_version":"prescreen-v0.3","browser_interactions":0,"infrequency":0},{"responses":{"Q01":"2","Q02":"1","Q03":"1"},"rt":18725.30000000028,"radio_events":[6732.800000000279,11228.900000000373,16132.700000000186],"key_events":[],"mouse_events":[6140.800000000279,6732.800000000279,10629,11228.900000000373,16132.700000000186,18724.700000000186],"survey":"map","page":1,"trial_type":"survey-map","trial_index":4,"time_elapsed":166787,"internal_node_id":"0.0-4.0","task_version":"prescreen-v0.3","browser_interactions":0},{"responses":{"Q04":"2","Q05":"1","Q06":"2"},"rt":14350.299999999814,"radio_events":[2950,9493.799999999814,13302.100000000093],"key_events":[],"mouse_events":[2950,8382,9493.799999999814,12342,13302.100000000093,14349.799999999814],"survey":"map","page":2,"trial_type":"survey-map","trial_index":5,"time_elapsed":181139,"internal_node_id":"0.0-5.0","task_version":"prescreen-v0.3","browser_interactions":0},{"responses":{"Q07":"2","Q08":"3","Q09":"0"},"rt":121270.6000000001,"radio_events":[115822.30000000028,118518.20000000019,119989.8999999999],"key_events":[],"mouse_events":[115822.30000000028,118518.20000000019,119989.8999999999,121270.30000000028],"survey":"map","page":3,"trial_type":"survey-map","trial_index":6,"time_elapsed":302411,"internal_node_id":"0.0-6.0","task_version":"prescreen-v0.3","browser_interactions":0},{"responses":{"Q10":"2","Q11":"1","Q12":"0","Q13":"3","Q16":"0","Q14":"1","Q15":"1"},"rt":28870.799999999814,"radio_events":[4149.699999999721,6830.0999999996275,9429.69999999972,15054.099999999627,18406.099999999627,24957.799999999814,28061.899999999907],"key_events":[],"mouse_events":[4149.699999999721,6830.0999999996275,9429.69999999972,15054.099999999627,18406.099999999627,24957.799999999814,28061.899999999907,28870],"survey":"map","page":4,"trial_type":"survey-map","trial_index":7,"time_elapsed":331284,"internal_node_id":"0.0-7.0","task_version":"prescreen-v0.3","browser_interactions":0,"infrequency":0},{"view_history":[{"page_index":0,"viewing_time":2478.3000000002794},{"page_index":1,"viewing_time":3303.2999999998137}],"rt":5782.300000000279,"trial_type":"instructions","trial_index":8,"time_elapsed":337067,"internal_node_id":"0.0-8.0","task_version":"prescreen-v0.3"},{"responses":{"01":"No","02":"Yes","02_ages_15":"15","02_ages_16":"16","02_ages_17":"17","03":"Yes","03_ages_6":"6","03_ages_7":"7","03_ages_8":"8","03_ages_9":"9","03_ages_10":"10","03_ages_11":"11","03_ages_12":"12","03_ages_13":"13","03_ages_14":"14","03_ages_15":"15","03_ages_16":"16","03_ages_17":"17","03_ages_18":"18","04":"No","05":"No","06":"Yes","06_ages_6":"6","06_ages_7":"7","06_ages_8":"8","06_ages_9":"9","06_ages_10":"10","06_ages_11":"11"},"rt":51093.89999999991,"item_order":[0,1,2,3,4,5],"radio_events":[6059.200000000186,9787.5,22819.100000000093,36371.30000000028,38539.5,40219.5],"checkbox_events":[16811.5,17507.5,18299.200000000186,26387.600000000093,26867.5,27451.399999999907,28011.5,28691.399999999907,29435.5,30043.600000000093,30947.5,31459.100000000093,32019.399999999907,32587.5,33179.39999999991,33907.39999999991,43147.200000000186,44027.10000000009,44475.10000000009,44963.30000000028,46291.10000000009,47227.200000000186],"key_events":[],"mouse_events":[0.10000000009313226,6059.200000000186,8227.200000000186,9787.5,16811.5,17507.5,18299.200000000186,22819.100000000093,26387.600000000093,26867.5,27451.399999999907,28011.5,28691.399999999907,29435.5,30043.600000000093,30571.399999999907,30947.5,31459.100000000093,32019.399999999907,32587.5,33179.39999999991,33907.39999999991,36371.30000000028,38539.5,40219.5,43147.200000000186,44027.10000000009,44475.10000000009,44963.30000000028,46291.10000000009,47227.200000000186,51091.89999999991],"honeypot":0,"survey":"mace","page":1,"trial_type":"survey-mace","trial_index":9,"time_elapsed":388166,"internal_node_id":"0.0-9.0","task_version":"prescreen-v0.3","browser_interactions":0},{"responses":{"01":"No","02":"No","03":"No","04":"No","05":"No","06":"Yes","06_ages_12":"12","06_ages_13":"13","06_ages_14":"14","07":"No","08":"No"},"rt":36124.60000000009,"item_order":[0,1,2,3,4,5,6,7],"radio_events":[4865.799999999814,10049.5,18457.399999999907,19713.899999999907,21681.5,25353.899999999907,32033.600000000093,33698],"checkbox_events":[28113.799999999814,29233.69999999972,30681.5],"key_events":[],"mouse_events":[4865.799999999814,10049.5,18457.399999999907,19713.899999999907,21681.5,25353.899999999907,28113.799999999814,29233.69999999972,30681.5,32033.600000000093,33698,36122],"honeypot":0,"survey":"mace","page":2,"trial_type":"survey-mace","trial_index":10,"time_elapsed":424294,"internal_node_id":"0.0-10.0","task_version":"prescreen-v0.3","browser_interactions":0},{"responses":{"01":"No","02":"No","03":"No","04":"No"},"rt":20644,"item_order":[0,1,2,3],"radio_events":[11938.299999999814,13802.19999999972,15434.299999999814,16881.799999999814],"checkbox_events":[],"key_events":[],"mouse_events":[11938.299999999814,13802.19999999972,15434.299999999814,16881.799999999814,20642.399999999907],"honeypot":0,"survey":"mace","page":3,"trial_type":"survey-mace","trial_index":11,"time_elapsed":444941,"internal_node_id":"0.0-11.0","task_version":"prescreen-v0.3","browser_interactions":0},{"responses":{"01":"No","02":"No"},"rt":12893.19999999972,"item_order":[0,1],"radio_events":[10860.100000000093,11643.899999999907],"checkbox_events":[],"key_events":[],"mouse_events":[10860.100000000093,11643.899999999907,12892.19999999972],"honeypot":0,"survey":"mace","page":4,"trial_type":"survey-mace","trial_index":12,"time_elapsed":457835,"internal_node_id":"0.0-12.0","task_version":"prescreen-v0.3","browser_interactions":0},{"responses":{"01":"No","02":"No","03":"No","04":"Yes","04_ages_11":"11","05":"No"},"rt":28246.5,"item_order":[0,1,2,3,4],"radio_events":[8172.799999999814,10572.899999999907,14141,18613.100000000093,21204.700000000186],"checkbox_events":[27084.600000000093],"key_events":[],"mouse_events":[8172.799999999814,10572.899999999907,14141,18613.100000000093,20220.700000000186,21204.700000000186,26516.5,27084.600000000093,28245],"honeypot":0,"survey":"mace","page":5,"trial_type":"survey-mace","trial_index":13,"time_elapsed":486084,"internal_node_id":"0.0-13.0","task_version":"prescreen-v0.3","browser_interactions":0},{"responses":{"01":"Yes","01_ages_16":"16","01_ages_17":"17","01_ages_18":"18","02":"Yes","02_ages_11":"11","02_ages_12":"12","02_ages_13":"13","02_ages_14":"14","02_ages_15":"15","02_ages_16":"16","02_ages_17":"17","02_ages_18":"18","03":"No","04":"Yes","04_ages_11":"11","04_ages_12":"12","04_ages_13":"13","04_ages_16":"16","04_ages_17":"17","05":"Yes","05_ages_14":"14","05_ages_15":"15","05_ages_16":"16","05_ages_17":"17"},"rt":65142.299999999814,"item_order":[0,1,2,3,4],"radio_events":[11899.899999999907,21307.899999999907,33707.89999999991,37627.89999999991,45259.89999999991],"checkbox_events":[16931.899999999907,17811.799999999814,18284.399999999907,25459.899999999907,25915.799999999814,26419.799999999814,27036.19999999972,27531.899999999907,28228,28852,29675.899999999907,48659.89999999991,49220.299999999814,49883.89999999991,52819.89999999991,58444,59827.89999999991,60507.89999999991,63571.799999999814,64036.299999999814],"key_events":[],"mouse_events":[11899.899999999907,16931.899999999907,17435.899999999907,17811.799999999814,18284.399999999907,21307.899999999907,25459.899999999907,25915.799999999814,26419.799999999814,27036.19999999972,27531.899999999907,28228,28852,29675.899999999907,33707.89999999991,37627.89999999991,44548,45259.89999999991,48659.89999999991,49220.299999999814,49883.89999999991,52819.89999999991,58444,59827.89999999991,60507.89999999991,63571.799999999814,64036.299999999814,65140.5],"honeypot":0,"survey":"mace","page":6,"trial_type":"survey-mace","trial_index":14,"time_elapsed":551229,"internal_node_id":"0.0-14.0","task_version":"prescreen-v0.3","browser_interactions":0},{"responses":{"01":"No","02":"Yes","02_ages_15":"15","02_ages_16":"16","02_ages_17":"17","02_ages_18":"18","03":"Yes","03_ages_15":"15","03_ages_16":"16","03_ages_17":"17","04":"Yes","04_ages_15":"15","04_ages_16":"16","05":"No","06":"Yes","06_ages_18":"18","07":"No"},"rt":45068.59999999963,"item_order":[0,1,2,3,4,5,6],"radio_events":[5074.799999999814,9890.399999999907,16858.599999999627,25202.5,34234.799999999814,37090.59999999963,43954.59999999963],"checkbox_events":[11490.69999999972,11922.69999999972,13746.399999999907,14418.5,18746.5,19410.69999999972,19978.69999999972,29890.69999999972,30850.69999999972,40514.5],"key_events":[],"mouse_events":[5074.799999999814,9890.399999999907,11490.69999999972,11922.69999999972,13746.399999999907,14418.5,16858.599999999627,18746.5,19410.69999999972,19978.69999999972,25202.5,29890.69999999972,30338.399999999907,30850.69999999972,34234.799999999814,37090.59999999963,40514.5,43954.59999999963,45066.59999999963],"honeypot":0,"survey":"mace","page":7,"trial_type":"survey-mace","trial_index":15,"time_elapsed":596302,"internal_node_id":"0.0-15.0","task_version":"prescreen-v0.3","browser_interactions":0},{"responses":{"01":"Yes","01_ages_11":"11","01_ages_12":"12","01_ages_13":"13","01_ages_14":"14","01_ages_15":"15","01_ages_16":"16","01_ages_17":"17","01_ages_18":"18","02":"Yes","02_ages_1":"1","02_ages_2":"2","02_ages_3":"3","02_ages_4":"4","02_ages_5":"5","02_ages_6":"6","02_ages_7":"7","02_ages_8":"8","02_ages_9":"9","02_ages_10":"10","02_ages_11":"11","02_ages_12":"12","02_ages_13":"13","02_ages_14":"14","02_ages_15":"15","02_ages_16":"16","02_ages_17":"17","02_ages_18":"18","03":"No","04":"No"},"rt":53788.200000000186,"item_order":[0,1,2,3],"radio_events":[7274.700000000186,12290.700000000186,16346.600000000093,17546.200000000186],"checkbox_events":[27418.700000000186,27930.600000000093,28850.5,29354.400000000373,29802.5,30506.700000000186,31818.400000000373,32690.5,33490.40000000037,34210.40000000037,37506.60000000009,37978.5,38538.5,39034.40000000037,43338.60000000009,43722.40000000037,44226.40000000037,45418.60000000009,46210.700000000186,47010.80000000028,47442.5,47978.700000000186,49250.700000000186,50146.5,50546.60000000009,50938.40000000037,51378.30000000028,52002.40000000037],"key_events":[],"mouse_events":[7274.700000000186,11018.400000000373,12290.700000000186,16346.600000000093,17546.200000000186,27418.700000000186,27930.600000000093,28850.5,29354.400000000373,29802.5,30506.700000000186,31082.900000000373,31818.400000000373,32690.5,33490.40000000037,34210.40000000037,37506.60000000009,37978.5,38538.5,39034.40000000037,43338.60000000009,43722.40000000037,44226.40000000037,44682.30000000028,45418.60000000009,45810.30000000028,46210.700000000186,47010.80000000028,47442.5,47978.700000000186,49250.700000000186,50146.5,50546.60000000009,50938.40000000037,51378.30000000028,52002.40000000037,53786.5],"honeypot":0,"survey":"mace","page":8,"trial_type":"survey-mace","trial_index":16,"time_elapsed":650093,"internal_node_id":"0.0-16.0","task_version":"prescreen-v0.3","browser_interactions":0},{"responses":{"01":"Yes","01_ages_1":"1","01_ages_2":"2","01_ages_3":"3","01_ages_4":"4","01_ages_5":"5","01_ages_6":"6","01_ages_7":"7","01_ages_8":"8","01_ages_9":"9","01_ages_10":"10","01_ages_11":"11","01_ages_12":"12","01_ages_13":"13","01_ages_14":"14","01_ages_15":"15","01_ages_16":"16","01_ages_17":"17","01_ages_18":"18","02":"No","03":"No","04":"No"},"rt":38901.09999999963,"item_order":[0,1,2,3],"radio_events":[5035.5999999996275,6363.5,24051.599999999627,33971.5,34715.89999999991],"checkbox_events":[10083.899999999907,10531.69999999972,11107.399999999907,11603.599999999627,12307.899999999907,13147.69999999972,13811.399999999907,14203.799999999814,14939.399999999907,15699.899999999907,16356.099999999627,16755.799999999814,17339.799999999814,17931.5,18843.5,19299.899999999907,19995.5,20987.5],"key_events":[],"mouse_events":[5035.5999999996275,6363.5,10083.899999999907,10531.69999999972,11107.399999999907,11603.599999999627,12307.899999999907,13147.69999999972,13811.399999999907,14203.799999999814,14939.399999999907,15699.899999999907,16356.099999999627,16755.799999999814,17339.799999999814,17931.5,18843.5,19299.899999999907,19995.5,20987.5,24051.599999999627,33203.799999999814,33971.5,34715.89999999991,38899.5],"honeypot":0,"survey":"mace","page":9,"trial_type":"survey-mace","trial_index":17,"time_elapsed":688996,"internal_node_id":"0.0-17.0","task_version":"prescreen-v0.3","browser_interactions":0},{"responses":{"01":"No","02":"No","03":"Yes","03_ages_11":"11","03_ages_12":"12","03_ages_13":"13","03_ages_14":"14","03_ages_15":"15","03_ages_16":"16","03_ages_17":"17","03_ages_18":"18","04":"Yes","04_ages_11":"11","04_ages_12":"12","04_ages_13":"13","04_ages_14":"14","04_ages_15":"15","04_ages_16":"16","04_ages_17":"17","04_ages_18":"18","05":"Yes","05_ages_11":"11","06":"Yes","06_ages_17":"17","07":"No","08":"No"},"rt":49605.60000000009,"item_order":[0,1,2,3,4,5,6,7],"radio_events":[2579.600000000093,4355.5,5675.399999999907,7075.399999999907,12755.30000000028,14931.399999999907,21243.700000000186,22115.30000000028],"checkbox_events":[16787.600000000093,26491.30000000028,33459.200000000186,33891.39999999991,34579.30000000028,35139.80000000028,35587.200000000186,36427.200000000186,37427.30000000028,37955.30000000028,42547.80000000028,42963.30000000028,43403.700000000186,44299.700000000186,45499.60000000009,46203.700000000186,46947.39999999991,47691.5],"key_events":[],"mouse_events":[2579.600000000093,4355.5,5675.399999999907,7075.399999999907,12755.30000000028,14931.399999999907,16787.600000000093,21243.700000000186,22115.30000000028,26491.30000000028,33459.200000000186,33891.39999999991,34579.30000000028,35139.80000000028,35587.200000000186,36427.200000000186,37427.30000000028,37955.30000000028,42547.80000000028,42963.30000000028,43403.700000000186,44299.700000000186,45499.60000000009,46203.700000000186,46947.39999999991,47691.5,49603.30000000028],"honeypot":0,"survey":"mace","page":10,"trial_type":"survey-mace","trial_index":18,"time_elapsed":738606,"internal_node_id":"0.0-18.0","task_version":"prescreen-v0.3","browser_interactions":0,"instructed":0},{"rt":13675.399999999907,"trial_type":"mental-health-alert","trial_index":19,"time_elapsed":752283,"internal_node_id":"0.0-19.0","task_version":"prescreen-v0.3","interactions":"[]"}]