[{"view_history":[{"page_index":0,"viewing_time":3626.2999999970198},{"page_index":1,"viewing_time":3024.4000000059605},{"page_index":2,"viewing_time":2343.3999999910593},{"page_index":3,"viewing_time":1138.300000011921}],"rt":10133.5,"trial_type":"instructions","trial_index":0,"time_elapsed":10153,"internal_node_id":"0.0-0.0","task_version":"prescreen-v0.3"},{"rt":13152.29999999702,"responses":{"age":"30","gender-categorical":"Female","gender-free-response":"","ethnicity":"Not Hispanic or Latino","race":["White"],"education":"Bachelor degree"},"trial_type":"survey-demo","trial_index":1,"time_elapsed":23315,"internal_node_id":"0.0-1.0","task_version":"prescreen-v0.3"},{"responses":{"Q12":"2","Q16":"1","Q20":"1","Q13":"1","Q18":"2","Q11":"2","Q21":"2","Q01":"2","Q07":"1","Q17":"2","Q10":"0","Q19":"1","Q09":"1","Q03":"2","Q06":"2","Q02":"0","Q15":"2","Q05":"0","Q04":"2","Q14":"2","Q08":"2"},"rt":92244.79999999702,"item_order":[11,15,19,12,17,10,20,0,6,16,9,18,8,2,5,1,14,4,3,13,7],"radio_events":[4251.5,11222.09999999404,12231.70000000298,15143.5,18909.20000000298,22270.40000000596,25164.5,28774,33601.29999999702,37668.29999999702,40801.20000000298,45877,49014.20000000298,53762.79999999702,58285.90000000596,62727.79999999702,65840.5,70404.59999999404,73974.59999999404,80810.5,85421.59999999404,90333.29999999702,91387.09999999404],"key_events":[],"mouse_events":[4251.5,8974.59999999404,11222.09999999404,12231.70000000298,14339.09999999404,15143.5,18909.20000000298,22270.40000000596,25164.5,28774,33601.29999999702,37668.29999999702,40801.20000000298,45877,49014.20000000298,52584.59999999404,53762.79999999702,58285.90000000596,62727.79999999702,65840.5,70404.59999999404,73974.59999999404,79980.70000000298,80810.5,85421.59999999404,90333.29999999702,91387.09999999404,92237.29999999702],"straightlining":0.5714285714285714,"zigzagging":0.3,"honeypot":0,"survey":"sns","trial_type":"survey-template","trial_index":2,"time_elapsed":115572,"internal_node_id":"0.0-2.0","task_version":"prescreen-v0.3","browser_interactions":0,"infrequency":0.5},{"responses":{"Q11":"1","Q13":"0","Q05":"2","Q07":"2","Q12":"1","Q10":"1","Q03":"3","Q01":"1","Q06":"2","Q04":"2","Q08":"2","Q09":"1","Q02":"2"},"rt":53750.40000000596,"item_order":[10,12,4,6,11,9,2,0,5,3,7,8,1],"radio_events":[9218.800000011921,11594.5,17182.10000000894,20135.10000000894,23452.60000000894,25443.40000000596,28623,29744.90000000596,32880.90000000596,36045.90000000596,38717.60000000894,40920.40000000596,47003.70000000298,48085.5,51198.40000000596,52944.30000001192],"key_events":[],"mouse_events":[9218.800000011921,11594.5,17182.10000000894,20135.10000000894,23452.60000000894,25443.40000000596,28623,29744.90000000596,32252.20000000298,32880.90000000596,36045.90000000596,38717.60000000894,40920.40000000596,47003.70000000298,48085.5,51198.40000000596,52944.30000001192,53746.30000001192],"straightlining":0.46153846153846156,"zigzagging":0.4166666666666667,"honeypot":0,"survey":"bisbas","trial_type":"survey-template","trial_index":3,"time_elapsed":169332,"internal_node_id":"0.0-3.0","task_version":"prescreen-v0.3","browser_interactions":0,"infrequency":0},{"responses":{"Q01":"2","Q02":"2","Q03":"2"},"rt":15227.79999999702,"radio_events":[6565.0999999940395,10314.89999999106,14340.29999999702],"key_events":[],"mouse_events":[5599.5,6565.0999999940395,10314.89999999106,14340.29999999702,15225.89999999106],"survey":"map","page":1,"trial_type":"survey-map","trial_index":4,"time_elapsed":184567,"internal_node_id":"0.0-4.0","task_version":"prescreen-v0.3","browser_interactions":0},{"responses":{"Q04":"2","Q05":"2","Q06":"2"},"rt":10632.40000000596,"radio_events":[4252.29999999702,8383.20000000298,9444.29999999702],"key_events":[],"mouse_events":[4252.29999999702,6972.79999999702,8383.20000000298,9444.29999999702,10630.70000000298],"survey":"map","page":2,"trial_type":"survey-map","trial_index":5,"time_elapsed":195204,"internal_node_id":"0.0-5.0","task_version":"prescreen-v0.3","browser_interactions":0},{"responses":{"Q07":"3","Q08":"4","Q09":"2"},"rt":19076.09999999404,"radio_events":[4060.7999999970198,7644.4000000059605,10845.29999999702,12087.09999999404,17820.5],"key_events":[],"mouse_events":[4060.7999999970198,7644.4000000059605,9090.40000000596,10845.29999999702,12087.09999999404,17820.5,19074.29999999702],"survey":"map","page":3,"trial_type":"survey-map","trial_index":6,"time_elapsed":214285,"internal_node_id":"0.0-6.0","task_version":"prescreen-v0.3","browser_interactions":0},{"responses":{"Q10":"3","Q11":"3","Q12":"1","Q13":"1","Q16":"0","Q14":"2","Q15":"1"},"rt":26200.20000000298,"radio_events":[6030.70000000298,8998.90000000596,12376.79999999702,15317.60000000894,18215.70000000298,24485.40000000596,25338.5],"key_events":[],"mouse_events":[6030.70000000298,8998.90000000596,12376.79999999702,15317.60000000894,18215.70000000298,21424.10000000894,24485.40000000596,25338.5,26196.60000000894],"survey":"map","page":4,"trial_type":"survey-map","trial_index":7,"time_elapsed":240493,"internal_node_id":"0.0-7.0","task_version":"prescreen-v0.3","browser_interactions":0,"infrequency":0},{"view_history":[{"page_index":0,"viewing_time":2675.2000000029802},{"page_index":1,"viewing_time":3890.3999999910593}],"rt":6566.79999999702,"trial_type":"instructions","trial_index":8,"time_elapsed":247063,"internal_node_id":"0.0-8.0","task_version":"prescreen-v0.3"},{"responses":{"01":"Yes","01_ages_4":"4","01_ages_5":"5","01_ages_6":"6","01_ages_7":"7","01_ages_8":"8","01_ages_9":"9","01_ages_10":"10","01_ages_11":"11","01_ages_12":"12","01_ages_13":"13","01_ages_14":"14","01_ages_15":"15","01_ages_16":"16","01_ages_17":"17","02":"No","03":"No","04":"No","05":"Yes","05_ages_1":"1","05_ages_2":"2","05_ages_3":"3","06":"Yes","06_ages_1":"1","06_ages_2":"2","06_ages_3":"3","06_ages_4":"4"},"rt":56450.5,"item_order":[0,1,2,3,4,5],"radio_events":[5278.899999991059,29963.59999999404,31882.69999998808,33333.59999999404,36166.5,42862.29999999702],"checkbox_events":[11449.29999999702,13589.39999999106,16024.39999999106,17047,18128.29999999702,19322,20348,20889.69999998808,22114.39999999106,22836.19999998808,23373.29999999702,24118.29999999702,24703.39999999106,25684.79999999702,37240.39999999106,37921.69999998808,38683,45438.79999999702,46152,46785.09999999404,47462.59999999404],"key_events":[],"mouse_events":[0.19999998807907104,5278.899999991059,11449.29999999702,13589.39999999106,16024.39999999106,17047,18128.29999999702,18706.09999999404,19322,20348,20889.69999998808,21482.29999999702,22114.39999999106,22836.19999998808,23373.29999999702,24118.29999999702,24703.39999999106,25684.79999999702,29963.59999999404,31882.69999998808,33333.59999999404,36166.5,37240.39999999106,37921.69999998808,38683,42245.89999999106,42862.29999999702,45438.79999999702,46152,46785.09999999404,47462.59999999404,48128.09999999404,56439.29999999702],"honeypot":0,"survey":"mace","page":1,"trial_type":"survey-mace","trial_index":9,"time_elapsed":303531,"internal_node_id":"0.0-9.0","task_version":"prescreen-v0.3","browser_interactions":0},{"responses":{"01":"No","02":"No","03":"Yes","03_ages_1":"1","03_ages_2":"2","03_ages_4":"4","03_ages_5":"5","04":"No","05":"No","06":"No","07":"No","08":"No"},"rt":26077.59999999404,"item_order":[0,1,2,3,4,5,6,7],"radio_events":[2729.4000000059605,5956,8351.70000000298,17255,19141.79999999702,22067.20000000298,23289.29999999702,25252],"checkbox_events":[10094.90000000596,10784.29999999702,11914.40000000596,13305],"key_events":[],"mouse_events":[2729.4000000059605,5956,8351.70000000298,10094.90000000596,10784.29999999702,11914.40000000596,13305,17255,19141.79999999702,22067.20000000298,23289.29999999702,25252,26062],"honeypot":0,"survey":"mace","page":2,"trial_type":"survey-mace","trial_index":10,"time_elapsed":329617,"internal_node_id":"0.0-10.0","task_version":"prescreen-v0.3","browser_interactions":0},{"responses":{"01":"No","02":"No","03":"No","04":"No"},"rt":22901.20000000298,"item_order":[0,1,2,3],"radio_events":[9506.39999999106,12098.09999999404,13405,14531.09999999404,20124.59999999404,21022.59999999404,22007.89999999106],"checkbox_events":[],"key_events":[],"mouse_events":[9506.39999999106,12098.09999999404,13405,14531.09999999404,20124.59999999404,21022.59999999404,22007.89999999106,22893.59999999404],"honeypot":0,"survey":"mace","page":3,"trial_type":"survey-mace","trial_index":11,"time_elapsed":352525,"internal_node_id":"0.0-11.0","task_version":"prescreen-v0.3","browser_interactions":0},{"responses":{"01":"Yes","01_ages_13":"13","01_ages_14":"14","01_ages_15":"15","01_ages_16":"16","02":"Yes","02_ages_14":"14","02_ages_15":"15","02_ages_16":"16"},"rt":20643.60000000894,"item_order":[0,1],"radio_events":[1999,3809.6000000089407,8590.20000000298,16051.90000000596],"checkbox_events":[11070.5,11936.20000000298,13166.20000000298,13711.20000000298,17806.90000000596,18692,19910.40000000596],"key_events":[],"mouse_events":[1999,3809.6000000089407,8590.20000000298,11070.5,11936.20000000298,12641,13166.20000000298,13711.20000000298,16051.90000000596,17806.90000000596,18692,19373.40000000596,19910.40000000596,20640],"honeypot":0,"survey":"mace","page":4,"trial_type":"survey-mace","trial_index":12,"time_elapsed":373174,"internal_node_id":"0.0-12.0","task_version":"prescreen-v0.3","browser_interactions":0},{"responses":{"01":"No","02":"No","03":"No","04":"No","05":"No"},"rt":15398.59999999404,"item_order":[0,1,2,3,4],"radio_events":[8581,9991.09999999404,11561.89999999106,13128.79999999702,14667.29999999702],"checkbox_events":[],"key_events":[],"mouse_events":[8581,9991.09999999404,11561.89999999106,13128.79999999702,14667.29999999702,15388.59999999404],"honeypot":0,"survey":"mace","page":5,"trial_type":"survey-mace","trial_index":13,"time_elapsed":388581,"internal_node_id":"0.0-13.0","task_version":"prescreen-v0.3","browser_interactions":0},{"responses":{"01":"Yes","01_ages_5":"5","01_ages_6":"6","01_ages_7":"7","01_ages_8":"8","01_ages_9":"9","01_ages_10":"10","01_ages_11":"11","01_ages_12":"12","01_ages_13":"13","01_ages_14":"14","01_ages_15":"15","01_ages_16":"16","01_ages_17":"17","01_ages_18":"18","02":"Yes","02_ages_4":"4","02_ages_5":"5","02_ages_6":"6","02_ages_12":"12","02_ages_13":"13","02_ages_14":"14","02_ages_15":"15","02_ages_16":"16","02_ages_17":"17","02_ages_18":"18","03":"Yes","03_ages_5":"5","03_ages_6":"6","03_ages_7":"7","03_ages_8":"8","03_ages_9":"9","03_ages_10":"10","03_ages_11":"11","03_ages_12":"12","03_ages_13":"13","03_ages_14":"14","03_ages_15":"15","03_ages_16":"16","03_ages_17":"17","03_ages_18":"18","04":"No","05":"No"},"rt":49772.59999999404,"item_order":[0,1,2,3,4],"radio_events":[5361,19812.89999999106,33359.29999999702,47049.59999999404,49009],"checkbox_events":[6787.20000000298,7444.20000000298,7965.29999999702,8646.29999999702,9323.79999999702,10501.89999999106,11647.29999999702,12216.29999999702,12841.59999999404,14023,14616.39999999106,15842.39999999106,16507.29999999702,17252.70000000298,22585.29999999702,24872.5,25441.79999999702,26131.20000000298,26748.39999999106,27377.20000000298,28002.29999999702,29757.09999999404,30454.39999999106,31047.29999999702,35170,35726.89999999106,36279.29999999702,36848.39999999106,37441.39999999106,38066.20000000298,38707.09999999404,39275.89999999106,39832.79999999702,41650.59999999404,42324.79999999702,43670.79999999702,44291.89999999106,44997.5],"key_events":[],"mouse_events":[5361,6787.20000000298,7444.20000000298,7965.29999999702,8646.29999999702,9323.79999999702,9932.39999999106,10501.89999999106,11134.5,11647.29999999702,12216.29999999702,12841.59999999404,13462.5,14023,14616.39999999106,15329.5,15842.39999999106,16507.29999999702,17252.70000000298,19812.89999999106,22585.29999999702,24319.79999999702,24872.5,25441.79999999702,26131.20000000298,26748.39999999106,27377.20000000298,28002.29999999702,29156.29999999702,29757.09999999404,30454.39999999106,31047.29999999702,33359.29999999702,35170,35726.89999999106,36279.29999999702,36848.39999999106,37441.39999999106,38066.20000000298,38707.09999999404,39275.89999999106,39832.79999999702,40457.79999999702,41019,41650.59999999404,42324.79999999702,42998.09999999404,43670.79999999702,44291.89999999106,44997.5,47049.59999999404,49009,49763],"honeypot":0,"survey":"mace","page":6,"trial_type":"survey-mace","trial_index":14,"time_elapsed":438363,"internal_node_id":"0.0-14.0","task_version":"prescreen-v0.3","browser_interactions":0},{"responses":{"01":"No","02":"No","03":"No","04":"No","05":"No","06":"No","07":"Yes","07_ages_13":"13","07_ages_14":"14","07_ages_15":"15","07_ages_16":"16","07_ages_17":"17","07_ages_18":"18"},"rt":36826.79999999702,"item_order":[0,1,2,3,4,5,6],"radio_events":[2561.7000000029802,12073.60000000894,13592.70000000298,15315.20000000298,18195.79999999702,22161.5,23512.10000000894],"checkbox_events":[27845,28661.90000000596,29543.90000000596,33718.90000000596,35081.10000000894,36002.70000000298],"key_events":[],"mouse_events":[2561.7000000029802,12073.60000000894,13592.70000000298,15315.20000000298,18195.79999999702,22161.5,23512.10000000894,26879.29999999702,27845,28661.90000000596,29543.90000000596,33718.90000000596,35081.10000000894,36002.70000000298,36815.70000000298],"honeypot":0,"survey":"mace","page":7,"trial_type":"survey-mace","trial_index":15,"time_elapsed":475198,"internal_node_id":"0.0-15.0","task_version":"prescreen-v0.3","browser_interactions":0},{"responses":{"01":"Yes","01_ages_1":"1","01_ages_2":"2","01_ages_3":"3","01_ages_4":"4","01_ages_5":"5","02":"Yes","02_ages_1":"1","02_ages_2":"2","02_ages_3":"3","02_ages_4":"4","03":"Yes","03_ages_1":"1","03_ages_2":"2","03_ages_3":"3","03_ages_4":"4","03_ages_5":"5","03_ages_6":"6","03_ages_7":"7","03_ages_8":"8","03_ages_9":"9","03_ages_10":"10","03_ages_11":"11","03_ages_12":"12","03_ages_13":"13","03_ages_14":"14","03_ages_15":"15","03_ages_16":"16","03_ages_17":"17","03_ages_18":"18","04":"Yes","04_ages_3":"3","04_ages_4":"4","04_ages_5":"5","04_ages_6":"6","04_ages_7":"7","04_ages_8":"8","04_ages_9":"9","04_ages_10":"10"},"rt":68515.5,"item_order":[0,1,2,3],"radio_events":[8760,27455.79999999702,35036.79999999702,55905.79999999702],"checkbox_events":[10375,11136.40000000596,12214.40000000596,12871.5,14713.70000000298,28825.5,29483.90000000596,31771.40000000596,32356.40000000596,37432.79999999702,38123.40000000596,39440.20000000298,40065.70000000298,40875.70000000298,41860.70000000298,42462.40000000596,43183,43824.5,44481.5,45122.29999999702,46469.20000000298,47062.20000000298,47936.10000000894,48601.10000000894,49265.90000000596,49859.29999999702,50500,59932.29999999702,60518.20000000298,61207.20000000298,61968.60000000894,62753.20000000298,63599.29999999702,64088.40000000596,64962,65875.20000000298,66596.5],"key_events":[],"mouse_events":[8760,10375,11136.40000000596,11689.79999999702,12214.40000000596,12871.5,14713.70000000298,27455.79999999702,28825.5,29483.90000000596,31771.40000000596,32356.40000000596,35036.79999999702,37432.79999999702,38123.40000000596,38844.29999999702,39440.20000000298,40065.70000000298,40875.70000000298,41860.70000000298,42462.40000000596,43183,43824.5,44481.5,45122.29999999702,45804.70000000298,46469.20000000298,47062.20000000298,47936.10000000894,48601.10000000894,49265.90000000596,49859.29999999702,50500,55905.79999999702,59932.29999999702,60518.20000000298,61207.20000000298,61968.60000000894,62753.20000000298,63599.29999999702,64088.40000000596,64962,65875.20000000298,66596.5,68508.10000000894],"honeypot":0,"survey":"mace","page":8,"trial_type":"survey-mace","trial_index":16,"time_elapsed":543731,"internal_node_id":"0.0-16.0","task_version":"prescreen-v0.3","browser_interactions":0},{"responses":{"01":"Yes","01_ages_4":"4","01_ages_5":"5","01_ages_6":"6","01_ages_7":"7","01_ages_8":"8","01_ages_9":"9","01_ages_10":"10","01_ages_11":"11","01_ages_12":"12","01_ages_13":"13","01_ages_18":"18","02":"Yes","02_ages_4":"4","02_ages_5":"5","02_ages_6":"6","02_ages_7":"7","02_ages_8":"8","02_ages_9":"9","02_ages_10":"10","02_ages_11":"11","02_ages_12":"12","02_ages_13":"13","02_ages_14":"14","02_ages_15":"15","02_ages_16":"16","02_ages_17":"17","02_ages_18":"18","03":"Yes","03_ages_4":"4","03_ages_5":"5","03_ages_6":"6","03_ages_7":"7","03_ages_8":"8","03_ages_9":"9","03_ages_10":"10","03_ages_11":"11","03_ages_12":"12","03_ages_13":"13","03_ages_14":"14","03_ages_15":"15","03_ages_16":"16","03_ages_17":"17","03_ages_18":"18","04":"No"},"rt":50224.5,"item_order":[0,1,2,3],"radio_events":[4086.0999999940395,18046.20000000298,32001.09999999404,49178.59999999404],"checkbox_events":[6377.70000000298,7059.20000000298,7728,8369.20000000298,9042.09999999404,9771.29999999702,10677.79999999702,11326.89999999106,12008.39999999106,12681.5,13979.59999999404,19752.29999999702,20621.5,21191.79999999702,21801,22273.89999999106,22810.5,23314.70000000298,24316.09999999404,24733.70000000298,25126.29999999702,25535,27141.70000000298,27574.59999999404,28006.79999999702,29200.20000000298,32954.59999999404,33547.29999999702,34172.89999999106,35394.29999999702,36756.5,37366.79999999702,38079.89999999106,38829,40103.29999999702,40775.89999999106,41401.5,42026.09999999404,42643.79999999702,44449.59999999404,45348.20000000298],"key_events":[],"mouse_events":[4086.0999999940395,6377.70000000298,7059.20000000298,7728,8369.20000000298,9042.09999999404,9771.29999999702,10677.79999999702,11326.89999999106,12008.39999999106,12681.5,13979.59999999404,18046.20000000298,19752.29999999702,20621.5,21191.79999999702,21801,22273.89999999106,22810.5,23314.70000000298,24316.09999999404,24733.70000000298,25126.29999999702,25535,26023.89999999106,27141.70000000298,27574.59999999404,28006.79999999702,28439.29999999702,29200.20000000298,32001.09999999404,32954.59999999404,33547.29999999702,34172.89999999106,34834.09999999404,35394.29999999702,36052.09999999404,36756.5,37366.79999999702,38079.89999999106,38829,40103.29999999702,40775.89999999106,41401.5,42026.09999999404,42643.79999999702,44449.59999999404,45348.20000000298,49178.59999999404,50216.59999999404],"honeypot":0,"survey":"mace","page":9,"trial_type":"survey-mace","trial_index":17,"time_elapsed":593972,"internal_node_id":"0.0-17.0","task_version":"prescreen-v0.3","browser_interactions":0},{"responses":{"01":"Yes","01_ages_1":"1","01_ages_2":"2","01_ages_3":"3","01_ages_4":"4","02":"Yes","02_ages_1":"1","02_ages_2":"2","02_ages_3":"3","02_ages_4":"4","03":"Yes","03_ages_1":"1","03_ages_2":"2","03_ages_3":"3","03_ages_4":"4","04":"No","05":"Yes","05_ages_1":"1","05_ages_2":"2","05_ages_3":"3","05_ages_4":"4","06":"Yes","06_ages_17":"17","07":"Yes","07_ages_1":"1","07_ages_2":"2","07_ages_3":"3","07_ages_4":"4","07_ages_5":"5","07_ages_6":"6","08":"No"},"rt":47103.29999999702,"item_order":[0,1,2,3,4,5,6,7],"radio_events":[2027.5,8755.60000000894,15287,21582,28148.90000000596,33693.90000000596,37897.40000000596,46306.10000000894],"checkbox_events":[3557.7999999970198,5052.79999999702,5742.9000000059605,6567.5,9961.70000000298,10578.40000000596,11267.60000000894,11901.29999999702,16265.20000000298,17034.70000000298,17763.5,18572.10000000894,29282.79999999702,30099.90000000596,30869.20000000298,31598.29999999702,35801.90000000596,39795.60000000894,40469.29999999702,41126.70000000298,41951.29999999702,43093.20000000298,43710.20000000298],"key_events":[],"mouse_events":[2027.5,3557.7999999970198,4187.600000008941,5052.79999999702,5742.9000000059605,6567.5,8755.60000000894,9961.70000000298,10578.40000000596,11267.60000000894,11901.29999999702,15287,16265.20000000298,17034.70000000298,17763.5,18572.10000000894,21582,28148.90000000596,29282.79999999702,30099.90000000596,30869.20000000298,31598.29999999702,33693.90000000596,35801.90000000596,37897.40000000596,39795.60000000894,40469.29999999702,41126.70000000298,41951.29999999702,43093.20000000298,43710.20000000298,46306.10000000894,47087.79999999702],"honeypot":0,"survey":"mace","page":10,"trial_type":"survey-mace","trial_index":18,"time_elapsed":641086,"internal_node_id":"0.0-18.0","task_version":"prescreen-v0.3","browser_interactions":0,"instructed":0},{"rt":3789.7999999970198,"trial_type":"mental-health-alert","trial_index":19,"time_elapsed":644881,"internal_node_id":"0.0-19.0","task_version":"prescreen-v0.3","interactions":"[]"}]