[{"view_history":[{"page_index":0,"viewing_time":2377.600000000559},{"page_index":1,"viewing_time":1520.5999999996275},{"page_index":2,"viewing_time":1627.7000000001863},{"page_index":3,"viewing_time":1024.0999999996275}],"rt":6551.299999999814,"trial_type":"instructions","trial_index":0,"time_elapsed":6579,"internal_node_id":"0.0-0.0","task_version":"prescreen-v0.3"},{"rt":14355.900000000373,"responses":{"age":"20","gender-categorical":"Male","gender-free-response":"","ethnicity":"Not Hispanic or Latino","race":["White"],"education":"Some college","siblings":"1"},"trial_type":"survey-demo","trial_index":1,"time_elapsed":20944,"internal_node_id":"0.0-1.0","task_version":"prescreen-v0.3"},{"responses":{"Q06":"1","Q08":"1","Q21":"3","Q12":"0","Q10":"0","Q15":"1","Q18":"0","Q19":"0","Q17":"0","Q09":"0","Q02":"0","Q13":"0","Q01":"1","Q07":"0","Q03":"0","Q04":"1","Q05":"0","Q11":"1","Q14":"0","Q20":"0","Q16":"0"},"rt":62254.10000000056,"item_order":[5,7,20,11,9,14,17,18,16,8,1,12,0,6,2,3,4,10,13,19,15],"radio_events":[3587.7000000001863,9659.600000000559,12087.299999999814,18063.200000000186,19043.60000000056,21839.5,24667.400000000373,30931.799999999814,32675.200000000186,33511.60000000056,34791.799999999814,36787.200000000186,41167.5,42707.200000000186,46943.5,47907.40000000037,52919.40000000037,54619.200000000186,55931.10000000056,58679.40000000037,60019.10000000056,61211.5],"key_events":[],"mouse_events":[3587.7000000001863,8531,9027.600000000559,9659.600000000559,11591.5,12087.299999999814,15419.299999999814,16592.60000000056,17231.299999999814,18063.200000000186,19043.60000000056,21839.5,24667.400000000373,30931.799999999814,32675.200000000186,33511.60000000056,34791.799999999814,36787.200000000186,39415.90000000037,40543.299999999814,41167.5,42707.200000000186,44891.5,45767.200000000186,46943.5,47907.40000000037,51223.700000000186,51991.5,52519.40000000037,52919.40000000037,54619.200000000186,55595.799999999814,55931.10000000056,58679.40000000037,60019.10000000056,61211.5,62251.60000000056],"straightlining":0.6666666666666666,"zigzagging":0.45,"honeypot":0,"survey":"sns","trial_type":"survey-template","trial_index":2,"time_elapsed":83214,"internal_node_id":"0.0-2.0","task_version":"prescreen-v0.3","browser_interactions":0,"infrequency":0},{"responses":{"Q04":"2","Q09":"2","Q06":"3","Q11":"3","Q10":"3","Q05":"2","Q08":"3","Q13":"0","Q12":"2","Q03":"1","Q02":"1","Q01":"2","Q07":"3"},"rt":35356.60000000056,"item_order":[3,8,5,10,9,4,7,12,11,2,1,0,6],"radio_events":[3827.100000000559,6098.9000000003725,7638.9000000003725,10250.900000000373,15098.700000000186,16442.700000000186,18702.700000000186,21491,26663.299999999814,28827,31398.700000000186,33947,34970.90000000037],"key_events":[],"mouse_events":[3827.100000000559,6098.9000000003725,7638.9000000003725,9787,10250.900000000373,11675.100000000559,12366.5,13742.400000000373,14662.700000000186,15098.700000000186,16442.700000000186,17999.200000000186,18702.700000000186,21491,26663.299999999814,28827,31398.700000000186,32970.90000000037,33610.90000000037,33947,34970.90000000037,35354.90000000037],"straightlining":0.38461538461538464,"zigzagging":0.5833333333333334,"honeypot":0,"survey":"bisbas","trial_type":"survey-template","trial_index":3,"time_elapsed":118580,"internal_node_id":"0.0-3.0","task_version":"prescreen-v0.3","browser_interactions":0,"infrequency":0},{"responses":{"Q01":"4","Q02":"4","Q03":"3"},"rt":13549.899999999441,"radio_events":[3409.199999999255,10240.899999999441,12620.899999999441],"key_events":[],"mouse_events":[3409.199999999255,6276.699999999255,6756.5999999996275,7381,9320.799999999814,10240.899999999441,11104.799999999814,12252.899999999441,12620.899999999441,13548.899999999441],"survey":"map","page":1,"trial_type":"survey-map","trial_index":4,"time_elapsed":132143,"internal_node_id":"0.0-4.0","task_version":"prescreen-v0.3","browser_interactions":0},{"responses":{"Q04":"3","Q05":"4","Q06":"3"},"rt":10708.099999999627,"radio_events":[4203,7887.200000000186,10178.599999999627],"key_events":[],"mouse_events":[3079.4000000003725,3590.9000000003725,4203,6826.9000000003725,7359.299999999814,7887.200000000186,9907.400000000373,10178.599999999627,10707.299999999814],"survey":"map","page":2,"trial_type":"survey-map","trial_index":5,"time_elapsed":142862,"internal_node_id":"0.0-5.0","task_version":"prescreen-v0.3","browser_interactions":0},{"responses":{"Q07":"2","Q08":"4","Q09":"4"},"rt":13319.799999999814,"radio_events":[5615.5,8699.099999999627,12407.399999999441],"key_events":[],"mouse_events":[4059.199999999255,5615.5,8227.099999999627,8699.099999999627,11639.099999999627,11991.299999999814,12407.399999999441,12951.199999999255,13319],"survey":"map","page":3,"trial_type":"survey-map","trial_index":6,"time_elapsed":156189,"internal_node_id":"0.0-6.0","task_version":"prescreen-v0.3","browser_interactions":0},{"responses":{"Q10":"3","Q11":"2","Q12":"4","Q13":"4","Q16":"0","Q14":"2","Q15":"1"},"rt":27833.099999999627,"radio_events":[4311.5999999996275,6107.899999999441,9207.799999999814,12451.599999999627,16503.89999999944,19371.799999999814,21600.099999999627,26051.5],"key_events":[],"mouse_events":[3327.5999999996275,4311.5999999996275,6107.899999999441,8556,9207.799999999814,12451.599999999627,15831.799999999814,16503.89999999944,19371.799999999814,20524,21039.5,21600.099999999627,22831.5,24203.799999999814,24588.199999999255,26051.5,27831.89999999944],"survey":"map","page":4,"trial_type":"survey-map","trial_index":7,"time_elapsed":184030,"internal_node_id":"0.0-7.0","task_version":"prescreen-v0.3","browser_interactions":0,"infrequency":0},{"view_history":[{"page_index":0,"viewing_time":1350.2000000001863},{"page_index":1,"viewing_time":2035.7000000001863}],"rt":3386.600000000559,"trial_type":"instructions","trial_index":8,"time_elapsed":187424,"internal_node_id":"0.0-8.0","task_version":"prescreen-v0.3"},{"responses":{"01":"No","02":"No","03":"Yes","03_ages_11":"11","03_ages_12":"12","03_ages_13":"13","03_ages_14":"14","03_ages_15":"15","03_ages_16":"16","04":"No","05":"No","06":"Yes","06_ages_11":"11","06_ages_12":"12","06_ages_13":"13","06_ages_14":"14","06_ages_15":"15","06_ages_16":"16"},"rt":42029.59999999963,"item_order":[0,1,2,3,4,5],"radio_events":[4670.299999999814,8337.5,10173.599999999627,18005.699999999255,19393.299999999814,21317.599999999627],"checkbox_events":[27373.799999999814,28397.89999999944,28797.799999999814,29181.799999999814,29837.599999999627,30293.89999999944,33117.699999999255,35565.799999999814,36001.39999999944,37233.699999999255,38577.699999999255,39493.39999999944,40453.89999999944,41077.59999999963],"key_events":[],"mouse_events":[0.19999999925494194,4670.299999999814,7681.899999999441,8337.5,10173.599999999627,18005.699999999255,19393.299999999814,20833.199999999255,21317.599999999627,27373.799999999814,27966.599999999627,28397.89999999944,28797.799999999814,29181.799999999814,29837.599999999627,30293.89999999944,31857.39999999944,32537.299999999814,33117.699999999255,35565.799999999814,36001.39999999944,37233.699999999255,38577.699999999255,39493.39999999944,39845.5,40453.89999999944,41077.59999999963,42026.39999999944],"honeypot":0,"survey":"mace","page":1,"trial_type":"survey-mace","trial_index":9,"time_elapsed":229467,"internal_node_id":"0.0-9.0","task_version":"prescreen-v0.3","browser_interactions":0},{"responses":{"01":"No","02":"No","03":"Yes","03_ages_7":"7","04":"Yes","04_ages_7":"7","05":"No","06":"No","07":"No","08":"No"},"rt":22605.599999999627,"item_order":[0,1,2,3,4,5,6,7],"radio_events":[2279,3754.7000000001863,7342.5999999996275,12710.200000000186,17658.700000000186,19046.299999999814,19750.299999999814,20566.599999999627],"checkbox_events":[9410.400000000373,11074.599999999627,15274.599999999627,16474.700000000186],"key_events":[],"mouse_events":[1550.2000000001863,2279,3146.5999999996275,3754.7000000001863,6014.4000000003725,6749.9000000003725,7342.5999999996275,9410.400000000373,11074.599999999627,12278.599999999627,12710.200000000186,15274.599999999627,16474.700000000186,17658.700000000186,19046.299999999814,19750.299999999814,20566.599999999627,22601.900000000373],"honeypot":0,"survey":"mace","page":2,"trial_type":"survey-mace","trial_index":10,"time_elapsed":252086,"internal_node_id":"0.0-10.0","task_version":"prescreen-v0.3","browser_interactions":0},{"responses":{"01":"No","02":"No","03":"No","04":"No"},"rt":7248.799999999814,"item_order":[0,1,2,3],"radio_events":[2094.5999999996275,4402.5,5698.899999999441,6842.399999999441],"checkbox_events":[],"key_events":[],"mouse_events":[2094.5999999996275,2975.5,4402.5,5698.899999999441,6506.5999999996275,6842.399999999441,7246.5999999996275],"honeypot":0,"survey":"mace","page":3,"trial_type":"survey-mace","trial_index":11,"time_elapsed":259343,"internal_node_id":"0.0-11.0","task_version":"prescreen-v0.3","browser_interactions":0},{"responses":{"01":"Yes","01_ages_10":"10","02":"No"},"rt":35603.299999999814,"item_order":[0,1],"radio_events":[7850.299999999814,14082.5],"checkbox_events":[11406,22598.700000000186,23366],"key_events":[],"mouse_events":[2574.100000000559,7850.299999999814,11406,14082.5,22598.700000000186,23078.299999999814,23366,35602.200000000186],"honeypot":0,"survey":"mace","page":4,"trial_type":"survey-mace","trial_index":12,"time_elapsed":294954,"internal_node_id":"0.0-12.0","task_version":"prescreen-v0.3","browser_interactions":2},{"responses":{"01":"No","02":"No","03":"No","04":"No","05":"No"},"rt":13058.5,"item_order":[0,1,2,3,4],"radio_events":[4795.800000000745,6788,8311.800000000745,9407.700000000186,11035.900000000373],"checkbox_events":[],"key_events":[],"mouse_events":[4795.800000000745,6788,7927.700000000186,8311.800000000745,9407.700000000186,11035.900000000373,13056],"honeypot":0,"survey":"mace","page":5,"trial_type":"survey-mace","trial_index":13,"time_elapsed":308024,"internal_node_id":"0.0-13.0","task_version":"prescreen-v0.3","browser_interactions":0},{"responses":{"01":"Yes","01_ages_7":"7","01_ages_8":"8","01_ages_9":"9","01_ages_10":"10","01_ages_11":"11","01_ages_12":"12","01_ages_13":"13","02":"Yes","02_ages_7":"7","02_ages_8":"8","02_ages_9":"9","02_ages_10":"10","02_ages_11":"11","02_ages_12":"12","02_ages_13":"13","03":"Yes","03_ages_7":"7","03_ages_8":"8","03_ages_9":"9","03_ages_10":"10","03_ages_11":"11","03_ages_12":"12","03_ages_13":"13","04":"No","04_ages_7":"7","04_ages_8":"8","04_ages_9":"9","04_ages_10":"10","04_ages_11":"11","04_ages_12":"12","04_ages_13":"13","05":"No"},"rt":44995.59999999963,"item_order":[0,1,2,3,4],"radio_events":[4468.799999999814,17508.799999999814,26532.799999999814,33200.90000000037,40488.90000000037,42613.59999999963],"checkbox_events":[9820.799999999814,10141.599999999627,10477.200000000186,10813.900000000373,12369.099999999627,14000.700000000186,15244.799999999814,18872.799999999814,19320.700000000186,19705.799999999814,21484.900000000373,23076.599999999627,23992.799999999814,24592.700000000186,28101.099999999627,28949,29366.299999999814,29752.599999999627,30437,31189.400000000373,31684.799999999814,35057.09999999963,35462,36837.90000000037,37221.09999999963,37909.09999999963,38601,39160.799999999814],"key_events":[],"mouse_events":[4468.799999999814,8700.400000000373,9820.799999999814,10141.599999999627,10477.200000000186,10813.900000000373,11133.5,11793.299999999814,12369.099999999627,12801.5,14000.700000000186,14716.799999999814,15244.799999999814,17508.799999999814,18872.799999999814,19320.700000000186,19705.799999999814,21484.900000000373,22229.700000000186,23076.599999999627,23992.799999999814,24592.700000000186,25824.900000000373,26532.799999999814,28101.099999999627,28596.799999999814,28949,29366.299999999814,29752.599999999627,30149.200000000186,30437,31189.400000000373,31684.799999999814,32365,33200.90000000037,34720.90000000037,35057.09999999963,35462,35812.299999999814,36469,36837.90000000037,37221.09999999963,37909.09999999963,38601,39160.799999999814,40072.90000000037,40488.90000000037,42613.59999999963,44993],"honeypot":0,"survey":"mace","page":6,"trial_type":"survey-mace","trial_index":14,"time_elapsed":353032,"internal_node_id":"0.0-14.0","task_version":"prescreen-v0.3","browser_interactions":0},{"responses":{"01":"No","02":"No","03":"Yes","03_ages_10":"10","03_ages_11":"11","03_ages_12":"12","03_ages_13":"13","04":"Yes","04_ages_12":"12","05":"No","06":"No","07":"No"},"rt":28228.799999999814,"item_order":[0,1,2,3,4,5,6],"radio_events":[3973.5,6217.4000000003725,7082.100000000559,16273.200000000186,20929.299999999814,22305.200000000186,27273],"checkbox_events":[10561.200000000186,11173,11605.200000000186,12053.299999999814,17789.299999999814],"key_events":[],"mouse_events":[3973.5,5961.600000000559,6217.4000000003725,7082.100000000559,10561.200000000186,11173,11605.200000000186,12053.299999999814,16273.200000000186,17789.299999999814,20929.299999999814,22305.200000000186,27273,28225.299999999814],"honeypot":0,"survey":"mace","page":7,"trial_type":"survey-mace","trial_index":15,"time_elapsed":381273,"internal_node_id":"0.0-15.0","task_version":"prescreen-v0.3","browser_interactions":0},{"responses":{"01":"No","02":"No","03":"No","04":"No"},"rt":9065.5,"item_order":[0,1,2,3],"radio_events":[3687.300000000745,5083.600000000559,6587.600000000559,8327.600000000559],"checkbox_events":[],"key_events":[],"mouse_events":[3119.300000000745,3687.300000000745,5083.600000000559,6587.600000000559,8327.600000000559,9063.400000000373],"honeypot":0,"survey":"mace","page":8,"trial_type":"survey-mace","trial_index":16,"time_elapsed":390347,"internal_node_id":"0.0-16.0","task_version":"prescreen-v0.3","browser_interactions":0},{"responses":{"01":"Yes","01_ages_1":"1","01_ages_2":"2","01_ages_3":"3","01_ages_4":"4","01_ages_5":"5","01_ages_6":"6","01_ages_7":"7","01_ages_8":"8","01_ages_9":"9","01_ages_10":"10","01_ages_11":"11","01_ages_12":"12","01_ages_13":"13","01_ages_14":"14","01_ages_15":"15","01_ages_16":"16","01_ages_17":"17","01_ages_18":"18","02":"Yes","02_ages_1":"1","02_ages_2":"2","02_ages_3":"3","02_ages_4":"4","02_ages_5":"5","02_ages_6":"6","02_ages_7":"7","02_ages_8":"8","02_ages_9":"9","02_ages_10":"10","02_ages_11":"11","02_ages_12":"12","02_ages_13":"13","02_ages_14":"14","02_ages_15":"15","02_ages_16":"16","02_ages_17":"17","02_ages_18":"18","03":"Yes","03_ages_1":"1","03_ages_2":"2","03_ages_3":"3","03_ages_4":"4","03_ages_5":"5","03_ages_6":"6","03_ages_7":"7","03_ages_8":"8","03_ages_9":"9","03_ages_10":"10","03_ages_11":"11","03_ages_12":"12","03_ages_13":"13","03_ages_14":"14","03_ages_15":"15","03_ages_16":"16","03_ages_17":"17","03_ages_18":"18","04":"Yes","04_ages_1":"1","04_ages_2":"2","04_ages_3":"3","04_ages_4":"4","04_ages_5":"5","04_ages_6":"6","04_ages_7":"7","04_ages_8":"8","04_ages_9":"9","04_ages_10":"10","04_ages_11":"11","04_ages_12":"12","04_ages_13":"13","04_ages_14":"14","04_ages_15":"15","04_ages_16":"16","04_ages_17":"17","04_ages_18":"18"},"rt":76767.59999999963,"item_order":[0,1,2,3],"radio_events":[4149.0999999996275,25016.799999999814,26088.5,28293],"checkbox_events":[6180.799999999814,6981.299999999814,8933.099999999627,9640.799999999814,10025.299999999814,10585,11785.200000000186,12264.900000000373,13525.200000000186,14085,15125.400000000373,15817.299999999814,16584.799999999814,17721,20288.900000000373,20897.599999999627,22517.5,23685.400000000373,30905.400000000373,31352.700000000186,32949.200000000186,35685.200000000186,36137.700000000186,36633.299999999814,37245.700000000186,37832.799999999814,39085,40677.59999999963,41317.40000000037,42041,42800.90000000037,43297,44000.90000000037,45029.5,45605.09999999963,45893.200000000186,46420.90000000037,47573.59999999963,48520.700000000186,49368.90000000037,49929.299999999814,50732.5,51629.200000000186,53648.90000000037,54512.90000000037,55905.09999999963,56725.09999999963,57252.700000000186,57861.799999999814,58357.5,58837.200000000186,59289.59999999963,59849.299999999814,60633.200000000186,61976.59999999963,62733.299999999814,64189.5,64957.5,65648.79999999981,66209.09999999963,67089.09999999963,67680.79999999981,68449.20000000019,69365.29999999981,70196.90000000037,70852.79999999981,71785.40000000037,72305,72865.09999999963,73665.59999999963,74209.59999999963,74837.79999999981,75533.59999999963,76045.29999999981],"key_events":[],"mouse_events":[2144.9000000003725,3105.7000000001863,4149.0999999996275,6180.799999999814,6528.9000000003725,6981.299999999814,8437.799999999814,8933.099999999627,9640.799999999814,10025.299999999814,10585,11113.799999999814,11432.599999999627,11785.200000000186,12264.900000000373,13525.200000000186,14085,14693.5,15125.400000000373,15817.299999999814,16264.799999999814,16584.799999999814,17116.700000000186,17400.700000000186,17721,20288.900000000373,20897.599999999627,21249.099999999627,21605,22057.799999999814,22517.5,23172.700000000186,23685.400000000373,24652.599999999627,25016.799999999814,26088.5,28293,30905.400000000373,31352.700000000186,31874.099999999627,32949.200000000186,35685.200000000186,36137.700000000186,36633.299999999814,37245.700000000186,37832.799999999814,39085,40677.59999999963,41317.40000000037,42041,42800.90000000037,43297,44000.90000000037,44677.799999999814,45029.5,45605.09999999963,45893.200000000186,46420.90000000037,47156.700000000186,47573.59999999963,48520.700000000186,49368.90000000037,49929.299999999814,50732.5,51629.200000000186,52413.40000000037,53648.90000000037,54512.90000000037,55905.09999999963,56725.09999999963,57252.700000000186,57861.799999999814,58357.5,58837.200000000186,59289.59999999963,59849.299999999814,60633.200000000186,61065.799999999814,61976.59999999963,62733.299999999814,64189.5,64957.5,65648.79999999981,66209.09999999963,67089.09999999963,67680.79999999981,68449.20000000019,69365.29999999981,70196.90000000037,70852.79999999981,71785.40000000037,72305,72865.09999999963,73665.59999999963,74209.59999999963,74837.79999999981,75533.59999999963,76045.29999999981,76765.29999999981],"honeypot":0,"survey":"mace","page":9,"trial_type":"survey-mace","trial_index":17,"time_elapsed":467124,"internal_node_id":"0.0-17.0","task_version":"prescreen-v0.3","browser_interactions":0},{"responses":{"01":"No","02":"No","03":"No","04":"No","05":"No","06":"Yes","06_ages_17":"17","07":"Yes","07_ages_1":"1","07_ages_2":"2","07_ages_3":"3","07_ages_4":"4","07_ages_5":"5","07_ages_6":"6","07_ages_7":"7","07_ages_8":"8","07_ages_9":"9","07_ages_10":"10","07_ages_11":"11","07_ages_12":"12","07_ages_13":"13","07_ages_14":"14","07_ages_15":"15","07_ages_16":"16","07_ages_17":"17","07_ages_18":"18","08":"Yes","08_ages_1":"1","08_ages_2":"2","08_ages_3":"3","08_ages_4":"4","08_ages_5":"5","08_ages_6":"6","08_ages_7":"7","08_ages_8":"8","08_ages_9":"9","08_ages_10":"10","08_ages_11":"11","08_ages_12":"12","08_ages_13":"13","08_ages_14":"14","08_ages_15":"15","08_ages_16":"16","08_ages_17":"17","08_ages_18":"18"},"rt":45964.39999999944,"item_order":[0,1,2,3,4,5,6,7],"radio_events":[2004.5999999996275,3444.2999999998137,6748.399999999441,7580.399999999441,10016.099999999627,14220.199999999255,18224,20308,21364.299999999814],"checkbox_events":[15744.199999999255,23512.099999999627,23976.799999999814,24556.599999999627,24956.599999999627,25484.799999999814,26124.299999999814,26652.39999999944,27180.699999999255,27600.5,27984.199999999255,28928.5,29407.89999999944,29840.199999999255,30804.199999999255,31579.89999999944,32219.89999999944,32668,33228.59999999963,34848.199999999255,36208.199999999255,37475.39999999944,38067.89999999944,38948.199999999255,39452.299999999814,39884.39999999944,40991.89999999944,41440,41824.799999999814,42343.799999999814,42804.5,43284.199999999255,43716,44148.59999999963,44579.89999999944,45028.199999999255,45512.09999999963],"key_events":[],"mouse_events":[2004.5999999996275,2916.5,3444.2999999998137,4231.699999999255,4904,6087.899999999441,6748.399999999441,7580.399999999441,9228,9664.299999999814,10016.099999999627,13451.899999999441,14220.199999999255,15744.199999999255,18224,19828.199999999255,20308,21364.299999999814,23512.099999999627,23976.799999999814,24556.599999999627,24956.599999999627,25484.799999999814,26124.299999999814,26652.39999999944,27180.699999999255,27600.5,27984.199999999255,28448.099999999627,28928.5,29407.89999999944,29840.199999999255,30240.299999999814,30804.199999999255,31579.89999999944,32219.89999999944,32668,33228.59999999963,34565.09999999963,34848.199999999255,35460.59999999963,35792.299999999814,36208.199999999255,36772.5,37475.39999999944,38067.89999999944,38948.199999999255,39452.299999999814,39884.39999999944,40455.5,40991.89999999944,41440,41824.799999999814,42343.799999999814,42804.5,43284.199999999255,43716,44148.59999999963,44579.89999999944,45028.199999999255,45512.09999999963,45960.39999999944],"honeypot":0,"survey":"mace","page":10,"trial_type":"survey-mace","trial_index":18,"time_elapsed":513102,"internal_node_id":"0.0-18.0","task_version":"prescreen-v0.3","browser_interactions":0,"instructed":0},{"rt":8115.399999999441,"trial_type":"mental-health-alert","trial_index":19,"time_elapsed":521224,"internal_node_id":"0.0-19.0","task_version":"prescreen-v0.3","interactions":"[{\"event\":\"blur\",\"trial\":12,\"time\":283470},{\"event\":\"focus\",\"trial\":12,\"time\":293474}]"}]