[{"view_history":[{"page_index":0,"viewing_time":7739},{"page_index":1,"viewing_time":3845.6999999999534},{"page_index":2,"viewing_time":3229.9000000001397},{"page_index":3,"viewing_time":1287.0999999998603}],"rt":16102.199999999953,"trial_type":"instructions","trial_index":0,"time_elapsed":16106,"internal_node_id":"0.0-0.0","task_version":"prescreen-v0.3"},{"rt":18653.199999999953,"responses":{"age":"20","gender-categorical":"Male","gender-free-response":"","ethnicity":"Not Hispanic or Latino","race":["White"],"education":"High school","siblings":"3"},"trial_type":"survey-demo","trial_index":1,"time_elapsed":34762,"internal_node_id":"0.0-1.0","task_version":"prescreen-v0.3"},{"responses":{"Q15":"3","Q09":"1","Q06":"0","Q21":"3","Q05":"1","Q13":"2","Q08":"1","Q03":"2","Q12":"2","Q04":"2","Q14":"3","Q01":"2","Q19":"0","Q17":"1","Q07":"0","Q11":"2","Q02":"0","Q20":"0","Q18":"0","Q10":"3","Q16":"2"},"rt":193862.30000000005,"item_order":[14,8,5,20,4,12,7,2,11,3,13,0,18,16,6,10,1,19,17,9,15],"radio_events":[27204.699999999953,33294.80000000005,37986.80000000005,40711.59999999986,53998.59999999986,60734.89999999991,66703.5,117544.80000000005,118941.80000000005,126949.8999999999,132883.5,136534.59999999986,138918.59999999986,143550.69999999995,147632.69999999995,153696.59999999986,155710.5,161188.69999999995,162766.59999999986,183934.80000000005,188151.59999999986,192668.80000000005],"key_events":[],"mouse_events":[15561.699999999953,27204.699999999953,33294.80000000005,37986.80000000005,40711.59999999986,53998.59999999986,60734.89999999991,66703.5,72773.69999999995,117544.80000000005,118445.59999999986,118941.80000000005,126949.8999999999,131837.69999999995,132883.5,136534.59999999986,138918.59999999986,143550.69999999995,147632.69999999995,152800.69999999995,153696.59999999986,155710.5,161188.69999999995,162766.59999999986,183934.80000000005,188151.59999999986,192668.80000000005,193860.8999999999],"straightlining":0.3333333333333333,"zigzagging":0.55,"honeypot":0,"survey":"sns","trial_type":"survey-template","trial_index":2,"time_elapsed":228628,"internal_node_id":"0.0-2.0","task_version":"prescreen-v0.3","browser_interactions":4,"infrequency":0},{"responses":{"Q08":"3","Q13":"0","Q05":"3","Q02":"3","Q11":"0","Q06":"3","Q04":"3","Q07":"3","Q01":"3","Q12":"1","Q10":"1","Q09":"1","Q03":"3"},"rt":149274.40000000014,"item_order":[7,12,4,1,10,5,3,6,0,11,9,8,2],"radio_events":[49227.5,51320.700000000186,68802.70000000019,71812.6000000001,76159.6000000001,78718.6000000001,84056.30000000005,90425.40000000014,93735.5,95969.40000000014,101672.5,106705.40000000014,137331.40000000014,148151.40000000014],"key_events":[],"mouse_events":[49227.5,51320.700000000186,68802.70000000019,71812.6000000001,76159.6000000001,78718.6000000001,84056.30000000005,90425.40000000014,93735.5,95969.40000000014,101672.5,106705.40000000014,137331.40000000014,148151.40000000014,149273.6000000001],"straightlining":0.6153846153846154,"zigzagging":0.3333333333333333,"honeypot":0,"survey":"bisbas","trial_type":"survey-template","trial_index":3,"time_elapsed":377905,"internal_node_id":"0.0-3.0","task_version":"prescreen-v0.3","browser_interactions":0,"infrequency":0},{"responses":{"Q01":"2","Q02":"3","Q03":"2"},"rt":36470.19999999995,"radio_events":[17195.799999999814,22303.799999999814,25988.799999999814,33129.69999999995,34791.69999999995],"key_events":[],"mouse_events":[17195.799999999814,22303.799999999814,25988.799999999814,33129.69999999995,34791.69999999995,36469.799999999814],"survey":"map","page":1,"trial_type":"survey-map","trial_index":4,"time_elapsed":414377,"internal_node_id":"0.0-4.0","task_version":"prescreen-v0.3","browser_interactions":0},{"responses":{"Q04":"4","Q05":"3","Q06":"3"},"rt":33623.5,"radio_events":[11549.90000000014,18349.90000000014,32700.90000000014],"key_events":[],"mouse_events":[9021,9996.90000000014,11549.90000000014,18349.90000000014,32700.90000000014,33623.10000000009],"survey":"map","page":2,"trial_type":"survey-map","trial_index":5,"time_elapsed":448002,"internal_node_id":"0.0-5.0","task_version":"prescreen-v0.3","browser_interactions":0},{"responses":{"Q07":"3","Q08":"3","Q09":"1"},"rt":41345.59999999986,"radio_events":[20885,27755.09999999986,30434,35656.09999999986],"key_events":[],"mouse_events":[20885,21776.199999999953,27755.09999999986,30434,35656.09999999986,41345.09999999986],"survey":"map","page":3,"trial_type":"survey-map","trial_index":6,"time_elapsed":489348,"internal_node_id":"0.0-6.0","task_version":"prescreen-v0.3","browser_interactions":0},{"responses":{"Q10":"1","Q11":"1","Q12":"0","Q13":"2","Q16":"0","Q14":"4","Q15":"4"},"rt":60605.90000000014,"radio_events":[10488.800000000047,23474.100000000093,25992,27384.90000000014,32507.200000000186,43573.90000000014,48396.90000000014,53895.200000000186,58883],"key_events":[],"mouse_events":[10488.800000000047,23474.100000000093,25992,27384.90000000014,32507.200000000186,43573.90000000014,48396.90000000014,53895.200000000186,58883,60605.10000000009],"survey":"map","page":4,"trial_type":"survey-map","trial_index":7,"time_elapsed":549956,"internal_node_id":"0.0-7.0","task_version":"prescreen-v0.3","browser_interactions":0,"infrequency":0},{"view_history":[{"page_index":0,"viewing_time":4274.90000000014},{"page_index":1,"viewing_time":5958.799999999814}],"rt":10234.300000000047,"trial_type":"instructions","trial_index":8,"time_elapsed":560191,"internal_node_id":"0.0-8.0","task_version":"prescreen-v0.3"},{"responses":{"01":"No","02":"No","03":"Yes","03_ages_5":"5","03_ages_6":"6","03_ages_7":"7","03_ages_8":"8","03_ages_9":"9","04":"No","05":"No","06":"Yes","06_ages_5":"5","06_ages_6":"6","06_ages_7":"7","06_ages_8":"8","06_ages_9":"9"},"rt":97080.69999999995,"item_order":[0,1,2,3,4,5],"radio_events":[24630,34706,44912,65303.80000000005,66040.80000000005,68028.8999999999,71698.80000000005,77287.80000000005,95946.8999999999],"checkbox_events":[48278.10000000009,49655,49990,50355.89999999991,51116.80000000005,78494.8999999999,78980.8999999999,79456.8999999999,79951.69999999995,80472.80000000005],"key_events":[],"mouse_events":[0,24630,34706,44912,48278.10000000009,48693.69999999995,49383.60000000009,49655,49990,50355.89999999991,50670.80000000005,51116.80000000005,65303.80000000005,66040.80000000005,68028.8999999999,71698.80000000005,77287.80000000005,78494.8999999999,78980.8999999999,79456.8999999999,79951.69999999995,80472.80000000005,83764.19999999995,85607,87389.1000000001,88110.1000000001,88366,94585,95946.8999999999,97078.8999999999],"honeypot":0,"survey":"mace","page":1,"trial_type":"survey-mace","trial_index":9,"time_elapsed":657277,"internal_node_id":"0.0-9.0","task_version":"prescreen-v0.3","browser_interactions":0},{"responses":{"01":"Yes","01_ages_7":"7","01_ages_8":"8","02":"No","03":"Yes","03_ages_2":"2","03_ages_3":"3","03_ages_4":"4","03_ages_5":"5","04":"No","04_ages_2":"2","04_ages_3":"3","04_ages_4":"4","04_ages_5":"5","05":"No","06":"No","07":"No","08":"No"},"rt":53539.19999999995,"item_order":[0,1,2,3,4,5,6,7],"radio_events":[5498.800000000047,18623.800000000047,21463.40000000014,33817.69999999995,39460.59999999986,43146.69999999995,47873.59999999986,50552.69999999995,52640.69999999995],"checkbox_events":[10851.800000000047,13505.699999999953,28018.59999999986,28358.699999999953,28709.800000000047,30321.699999999953,34973.80000000005,35624.80000000005,36155.80000000005,37437.80000000005],"key_events":[],"mouse_events":[5498.800000000047,10851.800000000047,13505.699999999953,18623.800000000047,21463.40000000014,24913.699999999953,26330.500000000233,27602.59999999986,28018.59999999986,28358.699999999953,28709.800000000047,30321.699999999953,33817.69999999995,34973.80000000005,35624.80000000005,36155.80000000005,37437.80000000005,39460.59999999986,43146.69999999995,47873.59999999986,50552.69999999995,52284.40000000014,52640.69999999995,53536.69999999995],"honeypot":0,"survey":"mace","page":2,"trial_type":"survey-mace","trial_index":10,"time_elapsed":710820,"internal_node_id":"0.0-10.0","task_version":"prescreen-v0.3","browser_interactions":0},{"responses":{"01":"Yes","01_ages_3":"3","01_ages_4":"4","01_ages_5":"5","01_ages_6":"6","01_ages_7":"7","01_ages_8":"8","02":"No","03":"Yes","03_ages_6":"6","03_ages_7":"7","03_ages_8":"8","04":"Yes","04_ages_8":"8"},"rt":64769,"item_order":[0,1,2,3],"radio_events":[17442.100000000093,36486.10000000009,39901,51097.799999999814],"checkbox_events":[25975,26375,27336.700000000186,27676.899999999907,28042.799999999814,28518.899999999907,42039.10000000009,42389.799999999814,42884.799999999814,57045.799999999814],"key_events":[],"mouse_events":[17442.100000000093,22464.799999999814,25975,26375,26810.799999999814,27336.700000000186,27676.899999999907,28042.799999999814,28518.899999999907,36486.10000000009,39901,42039.10000000009,42389.799999999814,42884.799999999814,51097.799999999814,57045.799999999814,64767.89999999991],"honeypot":0,"survey":"mace","page":3,"trial_type":"survey-mace","trial_index":11,"time_elapsed":775591,"internal_node_id":"0.0-11.0","task_version":"prescreen-v0.3","browser_interactions":0},{"responses":{"01":"No","02":"No"},"rt":16287.700000000186,"item_order":[0,1],"radio_events":[13167,15305],"checkbox_events":[],"key_events":[],"mouse_events":[13167,15305,16287.100000000093],"honeypot":0,"survey":"mace","page":4,"trial_type":"survey-mace","trial_index":12,"time_elapsed":791880,"internal_node_id":"0.0-12.0","task_version":"prescreen-v0.3","browser_interactions":0},{"responses":{"01":"Yes","01_ages_7":"7","01_ages_8":"8","01_ages_11":"11","01_ages_12":"12","01_ages_13":"13","02":"No","03":"No","04":"Yes","04_ages_7":"7","04_ages_8":"8","05":"Yes","05_ages_7":"7","05_ages_8":"8"},"rt":147553.30000000028,"item_order":[0,1,2,3,4],"radio_events":[10763.30000000028,48056.5,107931.3999999999,126274.30000000028,143740.1000000001,144841.3999999999],"checkbox_events":[13728.5,15967.700000000186,16447.600000000093,17254.5,17674.5,18160.200000000186,19788.399999999907,20178.600000000093,23273.600000000093,24034.399999999907,24655.700000000186,128782.3999999999,129283.3999999999,145843.30000000028,146169.30000000028],"key_events":[],"mouse_events":[10763.30000000028,13728.5,15967.700000000186,16447.600000000093,17254.5,17674.5,18160.200000000186,18776.5,19788.399999999907,20178.600000000093,23273.600000000093,23659.399999999907,24034.399999999907,24655.700000000186,48056.5,107931.3999999999,126274.30000000028,128782.3999999999,129283.3999999999,143740.1000000001,144841.3999999999,145843.30000000028,146169.30000000028,147551.6000000001],"honeypot":0,"survey":"mace","page":5,"trial_type":"survey-mace","trial_index":13,"time_elapsed":939436,"internal_node_id":"0.0-13.0","task_version":"prescreen-v0.3","browser_interactions":0},{"responses":{"01":"No","02":"Yes","02_ages_11":"11","02_ages_12":"12","03":"No","04":"No","04_ages_13":"13","04_ages_14":"14","04_ages_15":"15","05":"No"},"rt":100821,"item_order":[0,1,2,3,4],"radio_events":[10050.100000000093,27476.200000000186,65157.39999999991,76123.20000000019,82257.29999999981,93228.3999999999],"checkbox_events":[33099.200000000186,33650.299999999814,34071.5,96047.29999999981,96472.6000000001],"key_events":[],"mouse_events":[10050.100000000093,27476.200000000186,29074.100000000093,33099.200000000186,33650.299999999814,34071.5,45087.39999999991,65157.39999999991,76123.20000000019,82257.29999999981,93228.3999999999,95216.1000000001,95716.20000000019,96047.29999999981,96472.6000000001,100819.5],"honeypot":0,"survey":"mace","page":6,"trial_type":"survey-mace","trial_index":14,"time_elapsed":1040260,"internal_node_id":"0.0-14.0","task_version":"prescreen-v0.3","browser_interactions":0},{"responses":{"01":"No","02":"No","03":"No","04":"No","05":"No","06":"No","07":"No"},"rt":23426.899999999907,"item_order":[0,1,2,3,4,5,6],"radio_events":[10500.899999999907,11382.100000000093,14206.899999999907,15848.80000000028,18326.899999999907,21376.899999999907,22342.700000000186],"checkbox_events":[],"key_events":[],"mouse_events":[9114,10500.899999999907,11382.100000000093,14206.899999999907,15848.80000000028,18326.899999999907,21376.899999999907,22342.700000000186,23425],"honeypot":0,"survey":"mace","page":7,"trial_type":"survey-mace","trial_index":15,"time_elapsed":1063689,"internal_node_id":"0.0-15.0","task_version":"prescreen-v0.3","browser_interactions":0},{"responses":{"01":"No","02":"No","03":"No","04":"No"},"rt":37685.799999999814,"item_order":[0,1,2,3],"radio_events":[16748.69999999972,26783.599999999627,30173.69999999972,36948.69999999972],"checkbox_events":[],"key_events":[],"mouse_events":[16748.69999999972,26783.599999999627,30173.69999999972,36948.69999999972,37684.59999999963],"honeypot":0,"survey":"mace","page":8,"trial_type":"survey-mace","trial_index":16,"time_elapsed":1101377,"internal_node_id":"0.0-16.0","task_version":"prescreen-v0.3","browser_interactions":0},{"responses":{"01":"Yes","01_ages_1":"1","01_ages_2":"2","01_ages_3":"3","01_ages_4":"4","01_ages_5":"5","01_ages_6":"6","01_ages_7":"7","01_ages_8":"8","01_ages_9":"9","01_ages_10":"10","01_ages_11":"11","01_ages_12":"12","01_ages_13":"13","01_ages_14":"14","01_ages_15":"15","01_ages_16":"16","01_ages_17":"17","01_ages_18":"18","02":"Yes","02_ages_1":"1","02_ages_2":"2","02_ages_3":"3","02_ages_4":"4","02_ages_5":"5","02_ages_6":"6","02_ages_7":"7","02_ages_8":"8","02_ages_9":"9","02_ages_10":"10","02_ages_11":"11","02_ages_12":"12","02_ages_13":"13","02_ages_14":"14","02_ages_15":"15","02_ages_16":"16","02_ages_17":"17","02_ages_18":"18","03":"Yes","03_ages_1":"1","03_ages_2":"2","03_ages_3":"3","03_ages_4":"4","03_ages_5":"5","03_ages_6":"6","03_ages_7":"7","03_ages_8":"8","03_ages_9":"9","03_ages_10":"10","03_ages_11":"11","03_ages_12":"12","03_ages_13":"13","03_ages_14":"14","03_ages_15":"15","03_ages_16":"16","03_ages_17":"17","03_ages_18":"18","04":"Yes","04_ages_1":"1","04_ages_2":"2","04_ages_3":"3","04_ages_4":"4","04_ages_5":"5","04_ages_6":"6","04_ages_7":"7","04_ages_8":"8","04_ages_9":"9","04_ages_10":"10","04_ages_11":"11","04_ages_12":"12","04_ages_13":"13","04_ages_14":"14","04_ages_15":"15","04_ages_16":"16","04_ages_17":"17","04_ages_18":"18"},"rt":74561.20000000019,"item_order":[0,1,2,3],"radio_events":[5253.600000000093,28166.5,43608.30000000028,46123.200000000186],"checkbox_events":[13189.5,13530.400000000373,13925.5,14937.5,15327.700000000186,18271.400000000373,18787.5,19363.5,19884.30000000028,20665.5,21035.5,21536.400000000373,22047.5,22477.5,22958.5,23355,24190.5,24706.5,29262.5,29753.600000000093,31491.400000000373,31836.30000000028,32207.400000000373,32602.30000000028,33033.60000000009,33444.40000000037,34635.5,35376.700000000186,36002.30000000028,36468.40000000037,36869.5,37269.30000000028,37690.40000000037,38316.200000000186,38992.5,39663.60000000009,47564.200000000186,47930.5,48666.40000000037,49082.5,49442.40000000037,49813.5,50223.30000000028,50674.40000000037,51670.60000000009,52136.40000000037,52982.40000000037,53383.5,53873.200000000186,54349.5,54840.40000000037,55210.80000000028,55601.700000000186,55951.30000000028,56848.40000000037,57418.40000000037,57824.40000000037,58240.40000000037,58640.40000000037,59046.40000000037,59466.40000000037,60208.40000000037,60753.40000000037,61224.5,61650.40000000037,62381.40000000037,62992.40000000037,63482.40000000037,64028.200000000186,64629.30000000028,66076.40000000037,66537.40000000037],"key_events":[],"mouse_events":[5253.600000000093,13189.5,13530.400000000373,13925.5,14291.200000000186,14581.400000000373,14937.5,15327.700000000186,18271.400000000373,18787.5,19363.5,19884.30000000028,20289.5,20665.5,21035.5,21536.400000000373,22047.5,22477.5,22958.5,23355,23859.30000000028,24190.5,24706.5,28166.5,29262.5,29753.600000000093,30544.5,31491.400000000373,31836.30000000028,32207.400000000373,32602.30000000028,33033.60000000009,33444.40000000037,33875.200000000186,34255.30000000028,34635.5,35071.60000000009,35376.700000000186,36002.30000000028,36468.40000000037,36869.5,37269.30000000028,37690.40000000037,38316.200000000186,38992.5,39663.60000000009,43608.30000000028,46123.200000000186,47564.200000000186,47930.5,48315.10000000009,48666.40000000037,49082.5,49442.40000000037,49813.5,50223.30000000028,50674.40000000037,51054.200000000186,51670.60000000009,52136.40000000037,52672.30000000028,52982.40000000037,53383.5,53873.200000000186,54349.5,54840.40000000037,55210.80000000028,55601.700000000186,55951.30000000028,56848.40000000037,57418.40000000037,57824.40000000037,58240.40000000037,58640.40000000037,59046.40000000037,59466.40000000037,60208.40000000037,60753.40000000037,61224.5,61650.40000000037,62095.40000000037,62381.40000000037,62992.40000000037,63482.40000000037,64028.200000000186,64629.30000000028,65340.700000000186,66076.40000000037,66537.40000000037,74559.80000000028],"honeypot":0,"survey":"mace","page":9,"trial_type":"survey-mace","trial_index":17,"time_elapsed":1175940,"internal_node_id":"0.0-17.0","task_version":"prescreen-v0.3","browser_interactions":0},{"responses":{"01":"No","02":"No","03":"No","04":"No","05":"Yes","05_ages_11":"11","05_ages_12":"12","06":"Yes","06_ages_17":"17","07":"Yes","07_ages_1":"1","07_ages_2":"2","07_ages_3":"3","07_ages_4":"4","07_ages_5":"5","07_ages_6":"6","07_ages_7":"7","07_ages_8":"8","07_ages_9":"9","07_ages_10":"10","07_ages_11":"11","07_ages_12":"12","07_ages_13":"13","07_ages_14":"14","07_ages_15":"15","07_ages_16":"16","07_ages_17":"17","07_ages_18":"18","08":"Yes","08_ages_1":"1","08_ages_2":"2","08_ages_3":"3","08_ages_4":"4","08_ages_5":"5","08_ages_6":"6","08_ages_7":"7","08_ages_8":"8","08_ages_9":"9","08_ages_10":"10","08_ages_11":"11","08_ages_12":"12","08_ages_13":"13","08_ages_14":"14","08_ages_15":"15","08_ages_16":"16","08_ages_17":"17","08_ages_18":"18"},"rt":142454.7999999998,"item_order":[0,1,2,3,4,5,6,7],"radio_events":[3895.2999999998137,5042.199999999721,7706.100000000093,13840.100000000093,25292.100000000093,46217.10000000009,116691.19999999972,130105.29999999981],"checkbox_events":[28031.299999999814,112174.1000000001,113211.19999999972,118854.1000000001,119404.8999999999,119765.19999999972,120531,120947,121357.79999999981,121687.8999999999,122444.1000000001,122808.8999999999,123220,123711,124226.29999999981,125248.19999999972,125819.1000000001,126319,127020.1000000001,127420.8999999999,127791,131271.19999999972,131627.1000000001,134306.1000000001,134665.8999999999,134982,135302.1000000001,135957.8999999999,136258.19999999972,137085.1000000001,137509.8999999999,138266.2999999998,138632,139022,139408.1000000001,139798,140204.19999999972,140865,141326.1000000001],"key_events":[],"mouse_events":[3895.2999999998137,5042.199999999721,7706.100000000093,13840.100000000093,25292.100000000093,28031.299999999814,46217.10000000009,112174.1000000001,113211.19999999972,116691.19999999972,118854.1000000001,119404.8999999999,119765.19999999972,120131.1000000001,120531,120947,121357.79999999981,121687.8999999999,122068.1000000001,122444.1000000001,122808.8999999999,123220,123711,124226.29999999981,125248.19999999972,125819.1000000001,126319,126714.8999999999,127020.1000000001,127420.8999999999,127791,130105.29999999981,131271.19999999972,131627.1000000001,131972.7999999998,132748.1000000001,133024.19999999972,133229,133433.7999999998,133600.1000000001,134306.1000000001,134665.8999999999,134982,135302.1000000001,135957.8999999999,136258.19999999972,136649,137085.1000000001,137509.8999999999,138266.2999999998,138632,139022,139408.1000000001,139798,140204.19999999972,140865,141326.1000000001,142452.3999999999],"honeypot":0,"survey":"mace","page":10,"trial_type":"survey-mace","trial_index":18,"time_elapsed":1318398,"internal_node_id":"0.0-18.0","task_version":"prescreen-v0.3","browser_interactions":0,"instructed":0},{"rt":8883,"trial_type":"mental-health-alert","trial_index":19,"time_elapsed":1327283,"internal_node_id":"0.0-19.0","task_version":"prescreen-v0.3","interactions":"[{\"event\":\"blur\",\"trial\":2,\"time\":41289},{\"event\":\"focus\",\"trial\":2,\"time\":42950},{\"event\":\"blur\",\"trial\":2,\"time\":43403},{\"event\":\"focus\",\"trial\":2,\"time\":49417}]"}]