[{"view_history":[{"page_index":0,"viewing_time":5079},{"page_index":1,"viewing_time":49388.700000047684},{"page_index":2,"viewing_time":4623.899999976158},{"page_index":3,"viewing_time":1152.2999999523163}],"rt":60244.89999997616,"trial_type":"instructions","trial_index":0,"time_elapsed":60265,"internal_node_id":"0.0-0.0","task_version":"prescreen-v0.3"},{"rt":13914.199999928474,"responses":{"age":"34","gender-categorical":"Male","gender-free-response":"","ethnicity":"Not Hispanic or Latino","race":["Asian"],"education":"Master degree or higher","siblings":"1"},"trial_type":"survey-demo","trial_index":1,"time_elapsed":74192,"internal_node_id":"0.0-1.0","task_version":"prescreen-v0.3"},{"responses":{"Q14":"1","Q18":"1","Q02":"0","Q08":"1","Q07":"1","Q11":"0","Q10":"0","Q01":"0","Q03":"0","Q12":"1","Q21":"3","Q04":"0","Q20":"0","Q16":"0","Q09":"0","Q06":"1","Q05":"2","Q15":"0","Q19":"1","Q13":"0","Q17":"1"},"rt":121832.60000002384,"item_order":[13,17,1,7,6,10,9,0,2,11,20,3,19,15,8,5,4,14,18,12,16],"radio_events":[11254.399999976158,15821.600000023842,21501.899999976158,27853.699999928474,35093.5,37373.699999928474,39877.799999952316,44669.699999928474,46989.799999952316,51573.699999928474,57781.60000002384,68029.60000002384,68613.69999992847,74389.5,80429.60000002384,86253.89999997616,95621.60000002384,102909.60000002384,111181.69999992847,117549.60000002384,120997.60000002384],"key_events":[],"mouse_events":[11254.399999976158,15821.600000023842,19718,20789.899999976158,21501.899999976158,27853.699999928474,35093.5,37373.699999928474,39877.799999952316,44669.699999928474,46989.799999952316,51573.699999928474,57781.60000002384,68029.60000002384,68613.69999992847,74389.5,80429.60000002384,86253.89999997616,95197.79999995232,95621.60000002384,102909.60000002384,111181.69999992847,117549.60000002384,119246,120997.60000002384,121830],"straightlining":0.5238095238095238,"zigzagging":0.5,"honeypot":0,"survey":"sns","trial_type":"survey-template","trial_index":2,"time_elapsed":196047,"internal_node_id":"0.0-2.0","task_version":"prescreen-v0.3","browser_interactions":0,"infrequency":0},{"responses":{"Q07":"3","Q10":"2","Q04":"2","Q06":"3","Q09":"3","Q05":"3","Q08":"3","Q03":"2","Q01":"2","Q12":"3","Q11":"3","Q02":"2","Q13":"0"},"rt":80318.10000002384,"item_order":[6,9,3,5,8,4,7,2,0,11,10,1,12],"radio_events":[3548.2000000476837,9739.900000095367,15412.100000023842,20116.100000023842,25188,27804.200000047684,34244,48212.10000002384,49316,54644.10000002384,60556,63388.10000002384,64140.10000002384,69788.10000002384,76044],"key_events":[],"mouse_events":[3548.2000000476837,9739.900000095367,15412.100000023842,20116.100000023842,25188,27348.100000023842,27804.200000047684,30956.200000047684,34244,48212.10000002384,49316,53932.200000047684,54356.200000047684,54644.10000002384,60556,62972.10000002384,63388.10000002384,64140.10000002384,69788.10000002384,76044,80316.30000007153],"straightlining":0.5384615384615384,"zigzagging":0.4166666666666667,"honeypot":0,"survey":"bisbas","trial_type":"survey-template","trial_index":3,"time_elapsed":276374,"internal_node_id":"0.0-3.0","task_version":"prescreen-v0.3","browser_interactions":0,"infrequency":0},{"responses":{"Q01":"3","Q02":"3","Q03":"3"},"rt":18158.600000023842,"radio_events":[6917.600000023842,10565.600000023842,17117.400000095367],"key_events":[],"mouse_events":[6917.600000023842,10565.600000023842,17117.400000095367,18157.600000023842],"survey":"map","page":1,"trial_type":"survey-map","trial_index":4,"time_elapsed":294540,"internal_node_id":"0.0-4.0","task_version":"prescreen-v0.3","browser_interactions":0},{"responses":{"Q04":"4","Q05":"4","Q06":"4"},"rt":11832.599999904633,"radio_events":[5103.699999928474,6823.699999928474,9247.599999904633,11023.799999952316],"key_events":[],"mouse_events":[5103.699999928474,6823.699999928474,9247.599999904633,11023.799999952316,11831.699999928474],"survey":"map","page":2,"trial_type":"survey-map","trial_index":5,"time_elapsed":306379,"internal_node_id":"0.0-5.0","task_version":"prescreen-v0.3","browser_interactions":0},{"responses":{"Q07":"4","Q08":"3","Q09":"4"},"rt":16025.299999952316,"radio_events":[4376.299999952316,5224.299999952316,6280.699999928474,15288.299999952316],"key_events":[],"mouse_events":[4376.299999952316,5224.299999952316,6280.699999928474,15288.299999952316,16024.299999952316],"survey":"map","page":3,"trial_type":"survey-map","trial_index":6,"time_elapsed":322411,"internal_node_id":"0.0-6.0","task_version":"prescreen-v0.3","browser_interactions":0},{"responses":{"Q10":"3","Q11":"3","Q12":"2","Q13":"2","Q16":"0","Q14":"4","Q15":"4"},"rt":44009.60000002384,"radio_events":[4959.899999976158,7856,12112,24743.799999952316,31735.899999976158,38767.89999997616,42239.89999997616],"key_events":[],"mouse_events":[4959.899999976158,7856,12112,24743.799999952316,31735.899999976158,38767.89999997616,42239.89999997616,44008],"survey":"map","page":4,"trial_type":"survey-map","trial_index":7,"time_elapsed":366427,"internal_node_id":"0.0-7.0","task_version":"prescreen-v0.3","browser_interactions":0,"infrequency":0},{"view_history":[{"page_index":0,"viewing_time":3895.399999976158},{"page_index":1,"viewing_time":5887.799999952316}],"rt":9784.299999952316,"trial_type":"instructions","trial_index":8,"time_elapsed":376218,"internal_node_id":"0.0-8.0","task_version":"prescreen-v0.3"},{"responses":{"01":"Yes","01_ages_7":"7","01_ages_8":"8","01_ages_9":"9","01_ages_10":"10","01_ages_11":"11","01_ages_12":"12","01_ages_13":"13","01_ages_14":"14","02":"Yes","02_ages_7":"7","02_ages_8":"8","02_ages_9":"9","02_ages_10":"10","02_ages_11":"11","02_ages_12":"12","02_ages_13":"13","02_ages_14":"14","03":"No","04":"No","05":"No","06":"Yes","06_ages_6":"6","06_ages_7":"7","06_ages_8":"8","06_ages_9":"9","06_ages_10":"10"},"rt":77299.5,"item_order":[0,1,2,3,4,5],"radio_events":[14904.100000023842,34640.199999928474,53672.10000002384,55720.39999997616,58672.10000002384,65960],"checkbox_events":[18760.899999976158,19240.100000023842,19744.100000023842,20696.100000023842,21240,25904.100000023842,27328,36488.10000002384,36913.5,37896.10000002384,38320.10000002384,38808,39520,40024.10000002384,42639.89999997616,43528.10000002384,45512.10000002384,46216,46864.10000002384,47496.10000002384,67856,68408,68776,69247.89999997616,70448],"key_events":[],"mouse_events":[0.10000002384185791,14472.399999976158,14904.100000023842,18760.899999976158,19240.100000023842,19744.100000023842,20176.100000023842,20696.100000023842,21240,25904.100000023842,26544.100000023842,27328,34640.199999928474,36488.10000002384,36913.5,37448.199999928474,37896.10000002384,38320.10000002384,38808,39168,39520,40024.10000002384,42639.89999997616,43528.10000002384,45512.10000002384,46216,46864.10000002384,47496.10000002384,53672.10000002384,55720.39999997616,58672.10000002384,65960,67856,68408,68776,69247.89999997616,70448,77296.79999995232],"honeypot":0,"survey":"mace","page":1,"trial_type":"survey-mace","trial_index":9,"time_elapsed":453526,"internal_node_id":"0.0-9.0","task_version":"prescreen-v0.3","browser_interactions":0},{"responses":{"01":"No","02":"No","03":"Yes","03_ages_8":"8","03_ages_9":"9","03_ages_10":"10","03_ages_11":"11","03_ages_12":"12","04":"No","05":"No","06":"No","07":"No","08":"No"},"rt":44200.200000047684,"item_order":[0,1,2,3,4,5,6,7],"radio_events":[3804.100000023842,11228.5,13380.100000023842,29739.800000071526,33547.90000009537,35372,37651.90000009537,38947.90000009537],"checkbox_events":[21476,22980,23404.200000047684,24396,24763.900000095367],"key_events":[],"mouse_events":[3804.100000023842,11228.5,13380.100000023842,21476,22980,23404.200000047684,23859.900000095367,24396,24763.900000095367,29739.800000071526,33547.90000009537,35372,37651.90000009537,38947.90000009537,44196.300000071526],"honeypot":0,"survey":"mace","page":2,"trial_type":"survey-mace","trial_index":10,"time_elapsed":497732,"internal_node_id":"0.0-10.0","task_version":"prescreen-v0.3","browser_interactions":0},{"responses":{"01":"No","02":"No","03":"No","04":"No"},"rt":15277.5,"item_order":[0,1,2,3],"radio_events":[6347.199999928474,11947.199999928474,13219.199999928474,14595.199999928474],"checkbox_events":[],"key_events":[],"mouse_events":[5955.100000023842,6347.199999928474,11947.199999928474,13219.199999928474,14595.199999928474,15275.299999952316],"honeypot":0,"survey":"mace","page":3,"trial_type":"survey-mace","trial_index":11,"time_elapsed":513017,"internal_node_id":"0.0-11.0","task_version":"prescreen-v0.3","browser_interactions":0},{"responses":{"01":"No","02":"No"},"rt":11608,"item_order":[0,1],"radio_events":[4246.400000095367,8382.5],"checkbox_events":[],"key_events":[],"mouse_events":[4246.400000095367,8382.5,11606.400000095367],"honeypot":0,"survey":"mace","page":4,"trial_type":"survey-mace","trial_index":12,"time_elapsed":524632,"internal_node_id":"0.0-12.0","task_version":"prescreen-v0.3","browser_interactions":0},{"responses":{"01":"No","02":"No","03":"No","04":"No","05":"No"},"rt":20496.700000047684,"item_order":[0,1,2,3,4],"radio_events":[6990,9549.899999976158,12661.899999976158,15461.899999976158,19357.800000071526],"checkbox_events":[],"key_events":[],"mouse_events":[6990,9549.899999976158,12661.899999976158,14670,15461.899999976158,19357.800000071526,20494],"honeypot":0,"survey":"mace","page":5,"trial_type":"survey-mace","trial_index":13,"time_elapsed":545142,"internal_node_id":"0.0-13.0","task_version":"prescreen-v0.3","browser_interactions":0},{"responses":{"01":"No","02":"No","03":"Yes","03_ages_15":"15","03_ages_16":"16","03_ages_17":"17","03_ages_18":"18","04":"No","05":"No"},"rt":38631.59999990463,"item_order":[0,1,2,3,4],"radio_events":[11005.099999904633,15325.199999928474,21501,29653,32101],"checkbox_events":[24085.099999904633,24637.099999904633,25197.099999904633,26453],"key_events":[],"mouse_events":[11005.099999904633,15325.199999928474,21501,24085.099999904633,24637.099999904633,25197.099999904633,26453,29653,32101,38629.09999990463],"honeypot":0,"survey":"mace","page":6,"trial_type":"survey-mace","trial_index":14,"time_elapsed":583782,"internal_node_id":"0.0-14.0","task_version":"prescreen-v0.3","browser_interactions":0},{"responses":{"01":"No","02":"No","03":"No","04":"No","05":"No","06":"No","07":"No"},"rt":22591.5,"item_order":[0,1,2,3,4,5,6],"radio_events":[3244.2000000476837,7716.200000047684,8436.200000047684,15596.200000047684,19020.100000023842,20251.900000095367,21948.100000023842],"checkbox_events":[],"key_events":[],"mouse_events":[3244.2000000476837,6068.100000023842,7716.200000047684,8436.200000047684,15596.200000047684,18004.100000023842,19020.100000023842,20251.900000095367,21948.100000023842,22588.200000047684],"honeypot":0,"survey":"mace","page":7,"trial_type":"survey-mace","trial_index":15,"time_elapsed":606382,"internal_node_id":"0.0-15.0","task_version":"prescreen-v0.3","browser_interactions":0},{"responses":{"01":"No","02":"No","03":"Yes","03_ages_10":"10","03_ages_11":"11","03_ages_12":"12","03_ages_13":"13","03_ages_14":"14","03_ages_15":"15","03_ages_16":"16","03_ages_17":"17","03_ages_18":"18","04":"No"},"rt":23717.900000095367,"item_order":[0,1,2,3],"radio_events":[5995.600000023842,8011.600000023842,10187.5,12091.5,22827.600000023842],"checkbox_events":[16035.600000023842,16539.600000023842,16979.5,17427.5,17987.400000095367,18363.600000023842,18763.5,19227.5,19835.5],"key_events":[],"mouse_events":[5995.600000023842,8011.600000023842,10187.5,12091.5,16035.600000023842,16539.600000023842,16979.5,17427.5,17987.400000095367,18363.600000023842,18763.5,19227.5,19835.5,22827.600000023842,23715.600000023842],"honeypot":0,"survey":"mace","page":8,"trial_type":"survey-mace","trial_index":16,"time_elapsed":630109,"internal_node_id":"0.0-16.0","task_version":"prescreen-v0.3","browser_interactions":0},{"responses":{"01":"Yes","01_ages_1":"1","01_ages_2":"2","01_ages_3":"3","01_ages_4":"4","01_ages_5":"5","01_ages_6":"6","01_ages_7":"7","01_ages_8":"8","01_ages_9":"9","01_ages_10":"10","01_ages_11":"11","01_ages_12":"12","01_ages_13":"13","01_ages_14":"14","01_ages_15":"15","01_ages_16":"16","01_ages_17":"17","01_ages_18":"18","02":"Yes","02_ages_1":"1","02_ages_2":"2","02_ages_3":"3","02_ages_4":"4","02_ages_5":"5","02_ages_6":"6","02_ages_7":"7","02_ages_8":"8","02_ages_9":"9","02_ages_10":"10","02_ages_11":"11","02_ages_12":"12","02_ages_13":"13","02_ages_14":"14","02_ages_15":"15","02_ages_16":"16","02_ages_17":"17","02_ages_18":"18","03":"Yes","03_ages_1":"1","03_ages_2":"2","03_ages_3":"3","03_ages_4":"4","03_ages_5":"5","03_ages_6":"6","03_ages_7":"7","03_ages_8":"8","03_ages_9":"9","03_ages_10":"10","03_ages_11":"11","03_ages_12":"12","03_ages_13":"13","03_ages_14":"14","03_ages_15":"15","03_ages_16":"16","03_ages_17":"17","03_ages_18":"18","04":"Yes","04_ages_1":"1","04_ages_2":"2","04_ages_3":"3","04_ages_4":"4","04_ages_5":"5","04_ages_6":"6","04_ages_7":"7","04_ages_8":"8","04_ages_9":"9","04_ages_10":"10","04_ages_11":"11","04_ages_12":"12","04_ages_13":"13","04_ages_14":"14","04_ages_15":"15","04_ages_16":"16","04_ages_17":"17","04_ages_18":"18"},"rt":61448.300000071526,"item_order":[0,1,2,3],"radio_events":[4005.9000000953674,21438.100000023842,22646.100000023842,24734],"checkbox_events":[7134.100000023842,7526.100000023842,8654.100000023842,9062.200000047684,9470.100000023842,9902.100000023842,11318.100000023842,11886.400000095367,12350.100000023842,12750.100000023842,13542.100000023842,14198.200000047684,14670.200000047684,15390.200000047684,15790.100000023842,16230.200000047684,16702,17326.100000023842,27598,28006.100000023842,28390,28806.100000023842,29214,29622.100000023842,29998,30702.100000023842,31078.200000047684,32254.100000023842,32702.100000023842,33086.10000002384,33734.10000002384,34198.10000002384,35278,35734,36205.90000009537,37030,38766.10000002384,39606,40246.10000002384,40870.10000002384,41598.10000002384,41982.200000047684,42398.10000002384,42782.200000047684,44078.10000002384,44470.200000047684,45229.90000009537,45654.200000047684,46246.10000002384,46622.10000002384,47462.200000047684,47886.300000071526,48630.200000047684,49254.10000002384,50430.300000071526,51118.10000002384,51958.200000047684,52534,53022.200000047684,53461.90000009537,54438.200000047684,54990.300000071526,55893.800000071526,56422.10000002384,56901.800000071526,57285.800000071526,57669.90000009537,58029.90000009537,58806,59549.90000009537,60141.90000009537,60613.800000071526],"key_events":[],"mouse_events":[4005.9000000953674,7134.100000023842,7526.100000023842,7974.400000095367,8654.100000023842,9062.200000047684,9470.100000023842,9902.100000023842,11318.100000023842,11886.400000095367,12350.100000023842,12750.100000023842,13173.900000095367,13542.100000023842,14198.200000047684,14670.200000047684,15390.200000047684,15790.100000023842,16230.200000047684,16702,17326.100000023842,19662.100000023842,20294.200000047684,20966.200000047684,21438.100000023842,22646.100000023842,24734,27598,28006.100000023842,28390,28806.100000023842,29214,29622.100000023842,29998,30702.100000023842,31078.200000047684,31806,32254.100000023842,32702.100000023842,33086.10000002384,33734.10000002384,34198.10000002384,34606.10000002384,35278,35734,36205.90000009537,36702.200000047684,37030,37893.90000009537,38766.10000002384,39606,40246.10000002384,40870.10000002384,41598.10000002384,41982.200000047684,42398.10000002384,42782.200000047684,43166.10000002384,43517.90000009537,44078.10000002384,44470.200000047684,45229.90000009537,45654.200000047684,46246.10000002384,46622.10000002384,47014.10000002384,47462.200000047684,47886.300000071526,48254,48630.200000047684,48958.5,49254.10000002384,50062.10000002384,50430.300000071526,51118.10000002384,51606.200000047684,51958.200000047684,52534,53022.200000047684,53461.90000009537,54005.90000009537,54438.200000047684,54990.300000071526,55349.90000009537,55893.800000071526,56422.10000002384,56901.800000071526,57285.800000071526,57669.90000009537,58029.90000009537,58446,58806,59213.800000071526,59549.90000009537,60141.90000009537,60613.800000071526,61446.10000002384],"honeypot":0,"survey":"mace","page":9,"trial_type":"survey-mace","trial_index":17,"time_elapsed":691561,"internal_node_id":"0.0-17.0","task_version":"prescreen-v0.3","browser_interactions":0},{"responses":{"01":"No","02":"No","03":"No","04":"No","05":"No","06":"Yes","06_ages_17":"17","07":"Yes","07_ages_1":"1","07_ages_2":"2","07_ages_3":"3","07_ages_4":"4","07_ages_5":"5","07_ages_6":"6","07_ages_7":"7","07_ages_8":"8","07_ages_9":"9","07_ages_10":"10","07_ages_11":"11","07_ages_12":"12","07_ages_13":"13","07_ages_14":"14","07_ages_15":"15","07_ages_16":"16","07_ages_17":"17","07_ages_18":"18","08":"Yes","08_ages_1":"1","08_ages_2":"2","08_ages_3":"3","08_ages_4":"4","08_ages_5":"5","08_ages_6":"6","08_ages_7":"7","08_ages_8":"8","08_ages_9":"9","08_ages_10":"10","08_ages_11":"11","08_ages_12":"12","08_ages_13":"13","08_ages_14":"14","08_ages_15":"15","08_ages_16":"16","08_ages_17":"17","08_ages_18":"18"},"rt":51511.10000002384,"item_order":[0,1,2,3,4,5,6,7],"radio_events":[4930.700000047684,5563.100000023842,8435.300000071526,11011.100000023842,16122.800000071526,17442.600000023842,23923.100000023842,26163],"checkbox_events":[19170.899999976158,28563.200000047684,29011.200000047684,29387,29795.100000023842,30323,31106.800000071526,32419,33242.89999997616,33699.10000002384,34483,34851,35283,36171,36595,36995,37635,37995,38443,39155,39587,39978.89999997616,40315,40650.89999997616,42123.200000047684,42531,42963,43715,45123,45755,46547,47299.300000071526,47651,48267,48731,49747,50154.89999997616],"key_events":[],"mouse_events":[3234.899999976158,4930.700000047684,5563.100000023842,8435.300000071526,11011.100000023842,16122.800000071526,17442.600000023842,19170.899999976158,23923.100000023842,26163,28563.200000047684,29011.200000047684,29387,29795.100000023842,30323,31106.800000071526,31483.200000047684,31875.200000047684,32419,32827.200000047684,33242.89999997616,33699.10000002384,34483,34851,35283,36171,36595,36995,37635,37995,38443,39155,39587,39978.89999997616,40315,40650.89999997616,41275.10000002384,42123.200000047684,42531,42963,43715,45123,45755,46243.5,46547,47299.300000071526,47651,48267,48731,49171.200000047684,49747,50154.89999997616,51507.39999997616],"honeypot":0,"survey":"mace","page":10,"trial_type":"survey-mace","trial_index":18,"time_elapsed":743081,"internal_node_id":"0.0-18.0","task_version":"prescreen-v0.3","browser_interactions":0,"instructed":0},{"rt":10016.5,"trial_type":"mental-health-alert","trial_index":19,"time_elapsed":753109,"internal_node_id":"0.0-19.0","task_version":"prescreen-v0.3","interactions":"[]"}]