[{"view_history":[{"page_index":0,"viewing_time":4659.199999988079},{"page_index":1,"viewing_time":5373.899999976158},{"page_index":2,"viewing_time":4806.200000047684},{"page_index":3,"viewing_time":1635.7999999523163}],"rt":16478.5,"trial_type":"instructions","trial_index":0,"time_elapsed":16485,"internal_node_id":"0.0-0.0","task_version":"prescreen-v0.3"},{"rt":18550.5,"responses":{"age":"32","gender-categorical":"Female","gender-free-response":"","ethnicity":"Not Hispanic or Latino","race":["White"],"education":"Bachelor degree"},"trial_type":"survey-demo","trial_index":1,"time_elapsed":35057,"internal_node_id":"0.0-1.0","task_version":"prescreen-v0.3"},{"responses":{"Q05":"0","Q21":"3","Q07":"2","Q16":"3","Q09":"2","Q12":"2","Q14":"3","Q11":"2","Q17":"1","Q06":"2","Q20":"3","Q03":"2","Q02":"1","Q15":"2","Q10":"2","Q13":"2","Q08":"2","Q04":"1","Q01":"1","Q18":"3","Q19":"3"},"rt":123213.40000003576,"item_order":[4,20,6,15,8,11,13,10,16,5,19,2,1,14,9,12,7,3,0,17,18],"radio_events":[8886.5,13434.699999988079,21714.5,28449.100000023842,33786.5,39729.40000003576,42766.5,47963.30000001192,53941.40000003576,57960.19999998808,65933.69999998808,69816.30000001192,75343.60000002384,80764.80000001192,86211.10000002384,92565.69999998808,97310.30000001192,101338.69999998808,106871.19999998808,110856.10000002384,116251.80000001192,122292.90000003576],"key_events":[],"mouse_events":[8886.5,12546.5,13434.699999988079,21714.5,28449.100000023842,33786.5,39729.40000003576,42766.5,47963.30000001192,53941.40000003576,57960.19999998808,64472.19999998808,65933.69999998808,69816.30000001192,75343.60000002384,80764.80000001192,86211.10000002384,92565.69999998808,97310.30000001192,101338.69999998808,106871.19999998808,110856.10000002384,116251.80000001192,122292.90000003576,123199.80000001192],"straightlining":0.47619047619047616,"zigzagging":0.65,"honeypot":0,"survey":"sns","trial_type":"survey-template","trial_index":2,"time_elapsed":158298,"internal_node_id":"0.0-2.0","task_version":"prescreen-v0.3","browser_interactions":0,"infrequency":0},{"responses":{"Q05":"2","Q09":"2","Q04":"3","Q13":"0","Q03":"3","Q08":"2","Q10":"2","Q06":"2","Q07":"2","Q01":"3","Q02":"3","Q11":"2","Q12":"1"},"rt":54842,"item_order":[4,8,3,12,2,7,9,5,6,0,1,10,11],"radio_events":[7315.799999952316,10411.099999964237,14051.899999976158,17242.799999952316,24926.5,30217.399999976158,33271.799999952316,37595.09999996424,40898.5,43242.09999996424,45686.39999997616,49781,53555.299999952316],"key_events":[],"mouse_events":[7315.799999952316,10411.099999964237,14051.899999976158,17242.799999952316,24926.5,30217.399999976158,33271.799999952316,37595.09999996424,40898.5,43242.09999996424,45686.39999997616,49781,53555.299999952316,54834.09999996424],"straightlining":0.5384615384615384,"zigzagging":0.5833333333333334,"honeypot":0,"survey":"bisbas","trial_type":"survey-template","trial_index":3,"time_elapsed":213154,"internal_node_id":"0.0-3.0","task_version":"prescreen-v0.3","browser_interactions":0,"infrequency":0},{"responses":{"Q01":"3","Q02":"2","Q03":"3"},"rt":20974.899999976158,"radio_events":[9474.599999964237,14423.899999976158,20034.80000001192],"key_events":[],"mouse_events":[9474.599999964237,14423.899999976158,20034.80000001192,20971.19999998808],"survey":"map","page":1,"trial_type":"survey-map","trial_index":4,"time_elapsed":234141,"internal_node_id":"0.0-4.0","task_version":"prescreen-v0.3","browser_interactions":0},{"responses":{"Q04":"3","Q05":"1","Q06":"2"},"rt":14244.100000023842,"radio_events":[6817.300000011921,10881.800000011921,13198.200000047684],"key_events":[],"mouse_events":[6817.300000011921,10881.800000011921,13198.200000047684,14240.600000023842],"survey":"map","page":2,"trial_type":"survey-map","trial_index":5,"time_elapsed":248395,"internal_node_id":"0.0-5.0","task_version":"prescreen-v0.3","browser_interactions":0},{"responses":{"Q07":"3","Q08":"4","Q09":"3"},"rt":20307.600000023842,"radio_events":[5571.399999976158,10986.300000011921,14987.199999988079,19011.899999976158],"key_events":[],"mouse_events":[5571.399999976158,10986.300000011921,14987.199999988079,19011.899999976158,20304.30000001192],"survey":"map","page":3,"trial_type":"survey-map","trial_index":6,"time_elapsed":268713,"internal_node_id":"0.0-6.0","task_version":"prescreen-v0.3","browser_interactions":0},{"responses":{"Q10":"3","Q11":"2","Q12":"1","Q13":"1","Q16":"0","Q14":"3","Q15":"1"},"rt":47069.5,"radio_events":[5496.399999976158,10367.5,17178.099999964237,17936.399999976158,19620.5,25170.5,30047.19999998808,39472.299999952316,40885.69999998808,44810.5,45890.69999998808],"key_events":[],"mouse_events":[5496.399999976158,10367.5,17178.099999964237,17936.399999976158,19620.5,25170.5,30047.19999998808,39472.299999952316,40885.69999998808,44810.5,45890.69999998808,47062.69999998808],"survey":"map","page":4,"trial_type":"survey-map","trial_index":7,"time_elapsed":315797,"internal_node_id":"0.0-7.0","task_version":"prescreen-v0.3","browser_interactions":0,"infrequency":0},{"view_history":[{"page_index":0,"viewing_time":4545.100000023842},{"page_index":1,"viewing_time":5861.5}],"rt":10407.900000035763,"trial_type":"instructions","trial_index":8,"time_elapsed":326213,"internal_node_id":"0.0-8.0","task_version":"prescreen-v0.3"},{"responses":{"01":"No","02":"Yes","02_ages_13":"13","02_ages_14":"14","02_ages_15":"15","02_ages_16":"16","02_ages_17":"17","02_ages_18":"18","03":"No","04":"No","05":"No","06":"No"},"rt":60121.80000001192,"item_order":[0,1,2,3,4,5],"radio_events":[10947,15877.899999976158,19738.69999998808,22096.80000001192,27408.399999976158,35406.69999998808,45031.89999997616],"checkbox_events":[52648.59999996424,53598.69999998808,54463.30000001192,55560.09999996424,56640.69999998808,57619.69999998808],"key_events":[],"mouse_events":[0.5,10947,15877.899999976158,19738.69999998808,22096.80000001192,27408.399999976158,35406.69999998808,45031.89999997616,46938.89999997616,52648.59999996424,53598.69999998808,54463.30000001192,55560.09999996424,56640.69999998808,57619.69999998808,60103.80000001192],"honeypot":0,"survey":"mace","page":1,"trial_type":"survey-mace","trial_index":9,"time_elapsed":386365,"internal_node_id":"0.0-9.0","task_version":"prescreen-v0.3","browser_interactions":0},{"responses":{"01":"No","02":"No","03":"No","04":"No","05":"No","06":"No","07":"No","08":"No"},"rt":23404.599999964237,"item_order":[0,1,2,3,4,5,6,7],"radio_events":[3066.5,7926.899999976158,10207.800000011921,14912.599999964237,17150.899999976158,19328.80000001192,20919.69999998808,22340.899999976158],"checkbox_events":[],"key_events":[],"mouse_events":[3066.5,7926.899999976158,10207.800000011921,14912.599999964237,17150.899999976158,19328.80000001192,20919.69999998808,22340.899999976158,23383.30000001192],"honeypot":0,"survey":"mace","page":2,"trial_type":"survey-mace","trial_index":10,"time_elapsed":409792,"internal_node_id":"0.0-10.0","task_version":"prescreen-v0.3","browser_interactions":0},{"responses":{"01":"No","02":"No","03":"No","04":"No"},"rt":17082.100000023842,"item_order":[0,1,2,3],"radio_events":[7087.800000011921,10818,14692.800000011921,16048.600000023842],"checkbox_events":[],"key_events":[],"mouse_events":[7087.800000011921,10818,14692.800000011921,16048.600000023842,17069.600000023842],"honeypot":0,"survey":"mace","page":3,"trial_type":"survey-mace","trial_index":11,"time_elapsed":426888,"internal_node_id":"0.0-11.0","task_version":"prescreen-v0.3","browser_interactions":0},{"responses":{"01":"No","02":"No"},"rt":8857.399999976158,"item_order":[0,1],"radio_events":[3856,7800.699999988079],"checkbox_events":[],"key_events":[],"mouse_events":[3856,7800.699999988079,8845],"honeypot":0,"survey":"mace","page":4,"trial_type":"survey-mace","trial_index":12,"time_elapsed":435759,"internal_node_id":"0.0-12.0","task_version":"prescreen-v0.3","browser_interactions":0},{"responses":{"01":"No","02":"No","03":"No","04":"Yes","04_ages_14":"14","04_ages_15":"15","04_ages_16":"16","04_ages_17":"17","04_ages_18":"18","05":"No"},"rt":45496.69999998808,"item_order":[0,1,2,3,4],"radio_events":[20944.100000023842,22050.19999998808,25891.69999998808,30655.399999976158,44425.30000001192],"checkbox_events":[35080.89999997616,36137.60000002384,36977.5,38821.19999998808,39992.39999997616],"key_events":[],"mouse_events":[20944.100000023842,22050.19999998808,25891.69999998808,30655.399999976158,35080.89999997616,36137.60000002384,36977.5,37874.10000002384,38821.19999998808,39992.39999997616,44425.30000001192,45480.89999997616],"honeypot":0,"survey":"mace","page":5,"trial_type":"survey-mace","trial_index":13,"time_elapsed":481280,"internal_node_id":"0.0-13.0","task_version":"prescreen-v0.3","browser_interactions":0},{"responses":{"01":"Yes","01_ages_7":"7","01_ages_8":"8","01_ages_9":"9","01_ages_10":"10","01_ages_11":"11","01_ages_12":"12","01_ages_13":"13","01_ages_14":"14","01_ages_15":"15","01_ages_16":"16","01_ages_17":"17","01_ages_18":"18","02":"Yes","02_ages_7":"7","02_ages_8":"8","02_ages_9":"9","02_ages_10":"10","02_ages_11":"11","02_ages_12":"12","02_ages_13":"13","02_ages_14":"14","02_ages_15":"15","02_ages_16":"16","02_ages_17":"17","02_ages_18":"18","03":"Yes","03_ages_12":"12","03_ages_13":"13","03_ages_14":"14","03_ages_15":"15","03_ages_16":"16","03_ages_17":"17","03_ages_18":"18","04":"Yes","04_ages_12":"12","04_ages_13":"13","04_ages_14":"14","04_ages_15":"15","04_ages_16":"16","04_ages_17":"17","04_ages_18":"18","05":"Yes","05_ages_12":"12","05_ages_13":"13","05_ages_14":"14","05_ages_15":"15","05_ages_16":"16","05_ages_17":"17","05_ages_18":"18"},"rt":59543.59999996424,"item_order":[0,1,2,3,4],"radio_events":[8324.899999976158,21229.30000001192,33390.5,43097.80000001192,52232.89999997616],"checkbox_events":[11525.800000011921,12602.899999976158,13270.699999988079,13851.399999976158,14517.800000011921,15142.300000011921,15828.099999964237,16436.19999998808,17100.80000001192,17666.69999998808,18396,19202.399999976158,22474.099999964237,22792,23229,24118,25009.69999998808,25383.30000001192,26332.69999998808,27292,27661.399999976158,28660.5,29501.19999998808,30370.80000001192,34746,35650.30000001192,37089.69999998808,37749.80000001192,38423.89999997616,39137.39999997616,40202.5,44307.39999997616,45060.39999997616,45699.39999997616,46337.80000001192,47012.39999997616,47742.39999997616,48849.39999997616,53451,54437.19999998808,55182.69999998808,55883.59999996424,56626,57417.80000001192,58360.09999996424],"key_events":[],"mouse_events":[8324.899999976158,11525.800000011921,12602.899999976158,13270.699999988079,13851.399999976158,14517.800000011921,15142.300000011921,15828.099999964237,16436.19999998808,17100.80000001192,17666.69999998808,18396,19202.399999976158,21229.30000001192,22474.099999964237,22792,23229,24118,25009.69999998808,25383.30000001192,26332.69999998808,27292,27661.399999976158,28660.5,29501.19999998808,30370.80000001192,33390.5,34746,35650.30000001192,36271.19999998808,37089.69999998808,37749.80000001192,38423.89999997616,39137.39999997616,40202.5,43097.80000001192,44307.39999997616,45060.39999997616,45699.39999997616,46337.80000001192,47012.39999997616,47742.39999997616,48849.39999997616,52232.89999997616,53451,54437.19999998808,55182.69999998808,55883.59999996424,56626,57417.80000001192,58360.09999996424,59530.09999996424],"honeypot":0,"survey":"mace","page":6,"trial_type":"survey-mace","trial_index":14,"time_elapsed":540843,"internal_node_id":"0.0-14.0","task_version":"prescreen-v0.3","browser_interactions":0},{"responses":{"01":"Yes","01_ages_14":"14","01_ages_15":"15","01_ages_16":"16","02":"Yes","02_ages_12":"12","02_ages_13":"13","02_ages_14":"14","02_ages_15":"15","02_ages_16":"16","03":"Yes","03_ages_14":"14","03_ages_16":"16","04":"Yes","04_ages_14":"14","04_ages_16":"16","05":"Yes","05_ages_16":"16","06":"No","07":"No"},"rt":43517.19999998808,"item_order":[0,1,2,3,4,5,6],"radio_events":[4710.399999976158,11503.599999964237,23232.80000001192,30296.30000001192,36290.09999996424,40342.30000001192,42338.5],"checkbox_events":[6082.599999964237,7098,8352.899999976158,13494,14279.699999988079,16033.899999976158,16771.30000001192,17570.80000001192,24664,25961.5,31520.30000001192,32710.30000001192,37671.59999996424],"key_events":[],"mouse_events":[4710.399999976158,6082.599999964237,7098,8352.899999976158,11503.599999964237,13494,14279.699999988079,14964.800000011921,16033.899999976158,16771.30000001192,17570.80000001192,22062.899999976158,23232.80000001192,24664,25961.5,29078.19999998808,30296.30000001192,31520.30000001192,32710.30000001192,36290.09999996424,37671.59999996424,40342.30000001192,42338.5,43496.80000001192],"honeypot":0,"survey":"mace","page":7,"trial_type":"survey-mace","trial_index":15,"time_elapsed":584383,"internal_node_id":"0.0-15.0","task_version":"prescreen-v0.3","browser_interactions":0},{"responses":{"01":"No","02":"Yes","02_ages_8":"8","02_ages_9":"9","02_ages_10":"10","02_ages_11":"11","02_ages_12":"12","02_ages_13":"13","02_ages_14":"14","02_ages_15":"15","02_ages_16":"16","02_ages_17":"17","02_ages_18":"18","03":"Yes","03_ages_8":"8","03_ages_9":"9","03_ages_10":"10","03_ages_11":"11","03_ages_12":"12","03_ages_13":"13","03_ages_14":"14","03_ages_15":"15","03_ages_16":"16","03_ages_17":"17","03_ages_18":"18","04":"Yes","04_ages_8":"8","04_ages_9":"9","04_ages_10":"10","04_ages_11":"11","04_ages_12":"12","04_ages_13":"13","04_ages_14":"14","04_ages_15":"15","04_ages_16":"16","04_ages_17":"17","04_ages_18":"18"},"rt":54283.10000002384,"item_order":[0,1,2,3],"radio_events":[7672.5,14354.699999988079,34486.10000002384,45188.19999998808],"checkbox_events":[17594.100000023842,18514.600000023842,19435.69999998808,20103,20708.30000001192,21535.600000023842,22197.19999998808,23263.69999998808,24237.600000023842,24965.399999976158,25846.80000001192,36710.89999997616,37554.69999998808,38238.39999997616,38888.69999998808,39612.69999998808,40183.89999997616,41010,41718.69999998808,42352,43037,43866,46302.5,47164.19999998808,47829.19999998808,48576.10000002384,49228.30000001192,49912.69999998808,50585.80000001192,51261.89999997616,51959.60000002384,52662.80000001192,53513.89999997616],"key_events":[],"mouse_events":[7672.5,14354.699999988079,17594.100000023842,18514.600000023842,19435.69999998808,20103,20708.30000001192,21535.600000023842,22197.19999998808,23263.69999998808,24237.600000023842,24965.399999976158,25846.80000001192,34486.10000002384,36710.89999997616,37554.69999998808,38238.39999997616,38888.69999998808,39612.69999998808,40183.89999997616,41010,41718.69999998808,42352,43037,43866,45188.19999998808,46302.5,47164.19999998808,47829.19999998808,48576.10000002384,49228.30000001192,49912.69999998808,50585.80000001192,51261.89999997616,51959.60000002384,52662.80000001192,53513.89999997616,54271.19999998808],"honeypot":0,"survey":"mace","page":8,"trial_type":"survey-mace","trial_index":16,"time_elapsed":638682,"internal_node_id":"0.0-16.0","task_version":"prescreen-v0.3","browser_interactions":0},{"responses":{"01":"Yes","01_ages_1":"1","01_ages_2":"2","01_ages_3":"3","01_ages_4":"4","01_ages_5":"5","01_ages_6":"6","01_ages_7":"7","01_ages_8":"8","02":"Yes","02_ages_1":"1","02_ages_2":"2","02_ages_3":"3","02_ages_4":"4","02_ages_5":"5","02_ages_6":"6","02_ages_7":"7","02_ages_8":"8","03":"Yes","03_ages_1":"1","03_ages_2":"2","03_ages_3":"3","03_ages_4":"4","03_ages_5":"5","03_ages_6":"6","03_ages_7":"7","03_ages_8":"8","04":"Yes","04_ages_1":"1","04_ages_2":"2","04_ages_3":"3","04_ages_4":"4","04_ages_5":"5","04_ages_6":"6","04_ages_7":"7","04_ages_8":"8"},"rt":46503.80000001192,"item_order":[0,1,2,3],"radio_events":[7684.5,17118,27134.30000001192,38352.59999996424],"checkbox_events":[9706.699999988079,10450.800000011921,11128,11810.800000011921,12592.199999988079,13284,13953.699999988079,14638.899999976158,18292,18908.80000001192,20314.599999964237,20982.69999998808,21850,22598.899999976158,23270.399999976158,24011,28407.5,29097.5,29722.399999976158,30376.5,31925.19999998808,32699.5,33426,34185.59999996424,39690.19999998808,40450.09999996424,41140.89999997616,41805.59999996424,42737.69999998808,43768.19999998808,44524.30000001192,45263.5],"key_events":[],"mouse_events":[7684.5,9706.699999988079,10450.800000011921,11128,11810.800000011921,12592.199999988079,13284,13953.699999988079,14638.899999976158,17118,18292,18908.80000001192,19525.69999998808,20314.599999964237,20982.69999998808,21850,22598.899999976158,23270.399999976158,24011,27134.30000001192,28407.5,29097.5,29722.399999976158,30376.5,31059.69999998808,31925.19999998808,32699.5,33426,34185.59999996424,38352.59999996424,39690.19999998808,40450.09999996424,41140.89999997616,41805.59999996424,42737.69999998808,43768.19999998808,44524.30000001192,45263.5,46492.30000001192],"honeypot":0,"survey":"mace","page":9,"trial_type":"survey-mace","trial_index":17,"time_elapsed":685205,"internal_node_id":"0.0-17.0","task_version":"prescreen-v0.3","browser_interactions":0},{"responses":{"01":"Yes","01_ages_16":"16","01_ages_17":"17","01_ages_18":"18","02":"No","03":"Yes","03_ages_8":"8","03_ages_9":"9","03_ages_10":"10","03_ages_11":"11","03_ages_12":"12","03_ages_13":"13","03_ages_14":"14","03_ages_15":"15","03_ages_16":"16","03_ages_17":"17","03_ages_18":"18","04":"Yes","04_ages_8":"8","04_ages_9":"9","04_ages_10":"10","04_ages_11":"11","04_ages_12":"12","04_ages_13":"13","04_ages_14":"14","04_ages_15":"15","04_ages_16":"16","04_ages_17":"17","04_ages_18":"18","05":"No","06":"Yes","06_ages_17":"17","07":"No","08":"No"},"rt":52424.19999998808,"item_order":[0,1,2,3,4,5,6,7],"radio_events":[7821.699999988079,9324.599999964237,12275.699999988079,18572,30101.19999998808,42659.799999952316,44129.299999952316,49062.09999996424,51421.5],"checkbox_events":[14436.399999976158,15251,16078.399999976158,20535,21204.799999952316,21796.099999964237,22466.299999952316,23211.599999964237,23841.399999976158,24419.599999964237,25078.399999976158,25703.399999976158,26391.899999976158,27136.19999998808,31285.69999998808,31865.899999976158,32452.69999998808,33085,33909.5,34627,35246.799999952316,35842.69999998808,36522.59999996424,37195.59999996424,37909,45627.09999996424],"key_events":[],"mouse_events":[7821.699999988079,9324.599999964237,12275.699999988079,14436.399999976158,15251,16078.399999976158,18572,20535,21204.799999952316,21796.099999964237,22466.299999952316,23211.599999964237,23841.399999976158,24419.599999964237,25078.399999976158,25703.399999976158,26391.899999976158,27136.19999998808,30101.19999998808,31285.69999998808,31865.899999976158,32452.69999998808,33085,33909.5,34627,35246.799999952316,35842.69999998808,36522.59999996424,37195.59999996424,37909,41497,42659.799999952316,44129.299999952316,45627.09999996424,49062.09999996424,51421.5,52404],"honeypot":0,"survey":"mace","page":10,"trial_type":"survey-mace","trial_index":18,"time_elapsed":737657,"internal_node_id":"0.0-18.0","task_version":"prescreen-v0.3","browser_interactions":0,"instructed":0},{"rt":11070,"trial_type":"mental-health-alert","trial_index":19,"time_elapsed":748733,"internal_node_id":"0.0-19.0","task_version":"prescreen-v0.3","interactions":"[]"}]