[{"view_history":[{"page_index":0,"viewing_time":2016.800000011921},{"page_index":1,"viewing_time":1215.9000000059605},{"page_index":2,"viewing_time":1168},{"page_index":3,"viewing_time":936.0999999940395}],"rt":5337.300000011921,"trial_type":"instructions","trial_index":0,"time_elapsed":5353,"internal_node_id":"0.0-0.0","task_version":"prescreen-v0.3"},{"rt":18067.20000001788,"responses":{"age":"24","gender-categorical":"Male","gender-free-response":"","ethnicity":"Not Hispanic or Latino","race":["Asian"],"education":"Master degree or higher","siblings":"3"},"trial_type":"survey-demo","trial_index":1,"time_elapsed":23425,"internal_node_id":"0.0-1.0","task_version":"prescreen-v0.3"},{"responses":{"Q06":"2","Q14":"2","Q12":"2","Q03":"0","Q18":"1","Q16":"1","Q02":"1","Q07":"2","Q19":"1","Q05":"0","Q09":"1","Q10":"1","Q04":"1","Q17":"1","Q11":"1","Q13":"2","Q01":"1","Q15":"1","Q21":"0","Q20":"0","Q08":"2"},"rt":1651888.5,"item_order":[5,13,11,2,17,15,1,6,18,4,8,9,3,16,10,12,0,14,20,19,7],"radio_events":[6452.9000000059605,14316.59999999404,18044.79999998212,21236.69999998808,25748.59999999404,27044.59999999404,33908.5,37956.79999998212,1175238,1193485.900000006,1198022,1260558.199999988,1265333.7999999821,1269670.2999999821,1621710.400000006,1624926.400000006,1626278.599999994,1630455.199999988,1640990.699999988,1641990.7999999821,1646078.699999988,1651142.7999999821],"key_events":[],"mouse_events":[6452.9000000059605,14316.59999999404,18044.79999998212,21236.69999998808,25748.59999999404,27044.59999999404,33908.5,37956.79999998212,1175238,1193485.900000006,1198022,1203462.099999994,1260558.199999988,1265333.7999999821,1269670.2999999821,1618510.900000006,1621710.400000006,1624926.400000006,1626278.599999994,1630455.199999988,1634854.7999999821,1638518.2999999821,1640990.699999988,1641990.7999999821,1644934.699999988,1646078.699999988,1646454.599999994,1651142.7999999821,1651886.7999999821],"straightlining":0.5238095238095238,"zigzagging":0.4,"honeypot":0,"survey":"sns","trial_type":"survey-template","trial_index":2,"time_elapsed":1675318,"internal_node_id":"0.0-2.0","task_version":"prescreen-v0.3","browser_interactions":12,"infrequency":1},{"responses":{"Q08":"1","Q01":"2","Q02":"2","Q05":"2","Q03":"3","Q13":"0","Q11":"2","Q06":"1","Q04":"2","Q10":"2","Q12":"1","Q07":"2","Q09":"2"},"rt":68043,"item_order":[7,0,1,4,2,12,10,5,3,9,11,6,8],"radio_events":[8482,11586.09999999404,13482.300000011921,18386.09999999404,28018.09999999404,30786,38458.09999999404,44314.09999999404,53290.09999999404,56946.30000001192,63114.09999999404,65322.09999999404,67482],"key_events":[],"mouse_events":[8482,11586.09999999404,13482.300000011921,18386.09999999404,27434.09999999404,28018.09999999404,30786,38458.09999999404,43810.09999999404,44314.09999999404,53290.09999999404,56946.30000001192,63114.09999999404,65322.09999999404,67482,68042],"straightlining":0.6153846153846154,"zigzagging":0.5833333333333334,"honeypot":0,"survey":"bisbas","trial_type":"survey-template","trial_index":3,"time_elapsed":1743365,"internal_node_id":"0.0-3.0","task_version":"prescreen-v0.3","browser_interactions":0,"infrequency":0},{"responses":{"Q01":"2","Q02":"2","Q03":"3"},"rt":20733,"radio_events":[7181.600000023842,12124.5,19380.5],"key_events":[],"mouse_events":[7181.600000023842,12124.5,19380.5,20260.30000001192,20732.5],"survey":"map","page":1,"trial_type":"survey-map","trial_index":4,"time_elapsed":1764099,"internal_node_id":"0.0-4.0","task_version":"prescreen-v0.3","browser_interactions":0},{"responses":{"Q04":"3","Q05":"3","Q06":"3"},"rt":13734.09999999404,"radio_events":[4261.5,10309.5,13213.59999999404],"key_events":[],"mouse_events":[4261.5,9525.59999999404,10309.5,13213.59999999404,13733.699999988079],"survey":"map","page":2,"trial_type":"survey-map","trial_index":5,"time_elapsed":1777835,"internal_node_id":"0.0-5.0","task_version":"prescreen-v0.3","browser_interactions":0},{"responses":{"Q07":"1","Q08":"3","Q09":"2"},"rt":199662.70000001788,"radio_events":[192158.30000001192,194886.10000002384,198190.30000001192],"key_events":[],"mouse_events":[191574.20000001788,192158.30000001192,194886.10000002384,198190.30000001192,199662.30000001192],"survey":"map","page":3,"trial_type":"survey-map","trial_index":6,"time_elapsed":1977500,"internal_node_id":"0.0-6.0","task_version":"prescreen-v0.3","browser_interactions":2},{"responses":{"Q10":"2","Q11":"3","Q12":"1","Q13":"2","Q16":"2","Q14":"2","Q15":"3"},"rt":128198.40000000596,"radio_events":[5533.5999999940395,9421.5,19557.59999999404,21445.69999998808,26549.5,123077.59999999404,127301.59999999404],"key_events":[],"mouse_events":[5125.4000000059605,5533.5999999940395,9421.5,17381.40000000596,19557.59999999404,21445.69999998808,26549.5,123077.59999999404,127301.59999999404,128197.5],"survey":"map","page":4,"trial_type":"survey-map","trial_index":7,"time_elapsed":2105700,"internal_node_id":"0.0-7.0","task_version":"prescreen-v0.3","browser_interactions":0,"infrequency":1},{"view_history":[{"page_index":0,"viewing_time":2461.600000023842},{"page_index":1,"viewing_time":42464.19999998808}],"rt":44926.40000000596,"trial_type":"instructions","trial_index":8,"time_elapsed":2150628,"internal_node_id":"0.0-8.0","task_version":"prescreen-v0.3"},{"responses":{"01":"Yes","01_ages_9":"9","01_ages_10":"10","01_ages_11":"11","01_ages_12":"12","01_ages_13":"13","01_ages_14":"14","01_ages_15":"15","01_ages_16":"16","01_ages_17":"17","01_ages_18":"18","02":"Yes","02_ages_9":"9","02_ages_10":"10","02_ages_11":"11","02_ages_12":"12","02_ages_13":"13","02_ages_14":"14","02_ages_15":"15","02_ages_16":"16","02_ages_17":"17","02_ages_18":"18","03":"Yes","03_ages_14":"14","03_ages_15":"15","03_ages_16":"16","03_ages_17":"17","04":"No","05":"No","06":"No"},"rt":63846.09999999404,"item_order":[0,1,2,3,4,5],"radio_events":[8083.299999982119,30883.09999999404,41107.5,48619.5,50243.29999998212,52899.5,57596.09999999404],"checkbox_events":[17883.5,18331.19999998808,18700,19667.40000000596,20859.59999999404,21211.19999998808,22891.29999998212,23195.5,23507.29999998212,24363.40000000596,33027.5,33491.40000000596,34027.19999998808,35155.29999998212,35859.29999998212,36315.29999998212,37299.09999999404,37779.29999998212,38260,39363.40000000596,44171.29999998212,45187.40000000596,45627.40000000596,46011.19999998808],"key_events":[],"mouse_events":[0.09999999403953552,4347.0999999940395,8083.299999982119,17883.5,18331.19999998808,18700,19116.19999998808,19667.40000000596,20155.5,20859.59999999404,21211.19999998808,21979.29999998212,22891.29999998212,23195.5,23507.29999998212,23803.29999998212,24363.40000000596,30883.09999999404,33027.5,33491.40000000596,34027.19999998808,35155.29999998212,35859.29999998212,36315.29999998212,36883.79999998212,37299.09999999404,37779.29999998212,38260,39363.40000000596,41107.5,44171.29999998212,45187.40000000596,45627.40000000596,46011.19999998808,48619.5,50243.29999998212,52899.5,57596.09999999404,63843.69999998808],"honeypot":0,"survey":"mace","page":1,"trial_type":"survey-mace","trial_index":9,"time_elapsed":2214479,"internal_node_id":"0.0-9.0","task_version":"prescreen-v0.3","browser_interactions":0},{"responses":{"01":"No","02":"No","03":"Yes","03_ages_7":"7","03_ages_8":"8","03_ages_9":"9","03_ages_10":"10","03_ages_11":"11","03_ages_12":"12","03_ages_13":"13","04":"No","05":"Yes","05_ages_7":"7","05_ages_8":"8","05_ages_9":"9","05_ages_10":"10","05_ages_11":"11","05_ages_12":"12","05_ages_13":"13","06":"No","07":"No","08":"No"},"rt":35493.5,"item_order":[0,1,2,3,4,5,6,7],"radio_events":[3106.300000011921,6498.300000011921,8570,18986.30000001192,21922,31938.40000000596,34545.70000001788,34986.10000002384],"checkbox_events":[13385.800000011921,13970.300000011921,14682,14994.200000017881,15578.100000023842,16034,16794.20000001788,26306.100000023842,26946.100000023842,27362.100000023842,27850.100000023842,28258.100000023842,28658.100000023842,29314.100000023842],"key_events":[],"mouse_events":[3106.300000011921,6498.300000011921,8570,13385.800000011921,13970.300000011921,14250,14682,14994.200000017881,15578.100000023842,16034,16794.20000001788,18986.30000001192,20970.100000023842,21922,26306.100000023842,26946.100000023842,27362.100000023842,27850.100000023842,28258.100000023842,28658.100000023842,29314.100000023842,31938.40000000596,33298.20000001788,34545.70000001788,34986.10000002384,35490.40000000596],"honeypot":0,"survey":"mace","page":2,"trial_type":"survey-mace","trial_index":10,"time_elapsed":2249976,"internal_node_id":"0.0-10.0","task_version":"prescreen-v0.3","browser_interactions":0},{"responses":{"01":"No","02":"No","03":"No","04":"No"},"rt":18539.69999998808,"item_order":[0,1,2,3],"radio_events":[6394,13505.899999976158,16242.199999988079,17274,18250.19999998808],"checkbox_events":[8625.899999976158,9338.199999988079,10290,10625.899999976158],"key_events":[],"mouse_events":[6394,8625.899999976158,9338.199999988079,10290,10625.899999976158,13505.899999976158,16242.199999988079,17274,18250.19999998808,18538],"honeypot":0,"survey":"mace","page":3,"trial_type":"survey-mace","trial_index":11,"time_elapsed":2268518,"internal_node_id":"0.0-11.0","task_version":"prescreen-v0.3","browser_interactions":0},{"responses":{"01":"No","02":"No"},"rt":3733.300000011921,"item_order":[0,1],"radio_events":[2004.199999988079,3124.0999999940395],"checkbox_events":[],"key_events":[],"mouse_events":[2004.199999988079,3124.0999999940395,3732.4000000059605],"honeypot":0,"survey":"mace","page":4,"trial_type":"survey-mace","trial_index":12,"time_elapsed":2272253,"internal_node_id":"0.0-12.0","task_version":"prescreen-v0.3","browser_interactions":0},{"responses":{"01":"No","02":"No","03":"No","04":"No","05":"No"},"rt":17503.09999999404,"item_order":[0,1,2,3,4],"radio_events":[7909,11061.90000000596,12612.59999999404,15588.699999988079,16076.5],"checkbox_events":[],"key_events":[],"mouse_events":[7909,11061.90000000596,12612.59999999404,14844.90000000596,15588.699999988079,16076.5,17501],"honeypot":0,"survey":"mace","page":5,"trial_type":"survey-mace","trial_index":13,"time_elapsed":2289759,"internal_node_id":"0.0-13.0","task_version":"prescreen-v0.3","browser_interactions":0},{"responses":{"01":"Yes","01_ages_8":"8","01_ages_9":"9","01_ages_10":"10","01_ages_11":"11","01_ages_12":"12","01_ages_13":"13","01_ages_14":"14","01_ages_15":"15","01_ages_16":"16","01_ages_17":"17","01_ages_18":"18","02":"Yes","02_ages_8":"8","02_ages_9":"9","02_ages_10":"10","02_ages_11":"11","02_ages_12":"12","02_ages_13":"13","02_ages_14":"14","02_ages_15":"15","02_ages_16":"16","02_ages_17":"17","02_ages_18":"18","03":"Yes","03_ages_9":"9","03_ages_10":"10","03_ages_11":"11","03_ages_12":"12","03_ages_13":"13","03_ages_14":"14","03_ages_15":"15","03_ages_16":"16","04":"Yes","04_ages_15":"15","04_ages_16":"16","04_ages_17":"17","04_ages_18":"18","05":"Yes","05_ages_11":"11","05_ages_12":"12","05_ages_13":"13","05_ages_14":"14"},"rt":41589.40000000596,"item_order":[0,1,2,3,4],"radio_events":[5731.5,14516.199999988079,22283.19999998808,31275.09999999404,37331.69999998808],"checkbox_events":[7339.5,7651.4000000059605,8035.4000000059605,8435.40000000596,8803.5,9187.199999988079,9563.40000000596,10507.199999988079,10835.40000000596,11251.40000000596,11683.199999988079,15579.699999988079,16380.09999999404,16683.09999999404,17139.5,17611.40000000596,18059.40000000596,18579.40000000596,19091.59999999404,19523.40000000596,19963.09999999404,20427.40000000596,25155.40000000596,25675.19999998808,26147.40000000596,26515.30000001192,26891.40000000596,27299.40000000596,27987.30000001192,28715.40000000596,32979.40000000596,33331.19999998808,34132.19999998808,34723.30000001192,38051.90000000596,38467.40000000596,39259,39651.90000000596],"key_events":[],"mouse_events":[5731.5,7339.5,7651.4000000059605,8035.4000000059605,8435.40000000596,8803.5,9187.199999988079,9563.40000000596,9956.5,10507.199999988079,10835.40000000596,11251.40000000596,11683.199999988079,13971.5,14516.199999988079,15579.699999988079,16380.09999999404,16683.09999999404,17139.5,17611.40000000596,18059.40000000596,18579.40000000596,19091.59999999404,19523.40000000596,19963.09999999404,20427.40000000596,22283.19999998808,24364.19999998808,25155.40000000596,25675.19999998808,26147.40000000596,26515.30000001192,26891.40000000596,27299.40000000596,27987.30000001192,28715.40000000596,31275.09999999404,32979.40000000596,33331.19999998808,33683.30000001192,34132.19999998808,34460.09999999404,34723.30000001192,37331.69999998808,38051.90000000596,38467.40000000596,38955.30000001192,39259,39651.90000000596,40451.80000001192,41587.5],"honeypot":0,"survey":"mace","page":6,"trial_type":"survey-mace","trial_index":14,"time_elapsed":2331351,"internal_node_id":"0.0-14.0","task_version":"prescreen-v0.3","browser_interactions":0},{"responses":{"01":"No","02":"Yes","02_ages_11":"11","02_ages_12":"12","02_ages_13":"13","02_ages_14":"14","02_ages_15":"15","02_ages_16":"16","03":"Yes","03_ages_10":"10","03_ages_11":"11","03_ages_12":"12","03_ages_13":"13","03_ages_14":"14","03_ages_15":"15","03_ages_16":"16","03_ages_17":"17","04":"Yes","04_ages_11":"11","04_ages_12":"12","04_ages_13":"13","04_ages_14":"14","04_ages_15":"15","04_ages_16":"16","05":"No","06":"No","07":"No"},"rt":81725.90000000596,"item_order":[0,1,2,3,4,5,6],"radio_events":[4283,8219.09999999404,15219.199999988079,21907.09999999404,77155.19999998808,79219.90000000596,80851.09999999404,81427.09999999404],"checkbox_events":[9012,9363.299999982119,10051.09999999404,11155.40000000596,11786.799999982119,12131,15947.699999988079,16291,16650.69999998808,17051,18228,18514.69999998808,19067.5,19515.09999999404,23139,23530.90000000596,24242.79999998212,24499.09999999404,25867.19999998808,26395.90000000596],"key_events":[],"mouse_events":[4283,8219.09999999404,9012,9363.299999982119,10051.09999999404,11155.40000000596,11498.59999999404,11786.799999982119,12131,15219.199999988079,15947.699999988079,16291,16650.69999998808,17051,17523.69999998808,17771.5,18228,18514.69999998808,19067.5,19515.09999999404,21475,21907.09999999404,22859.19999998808,23139,23530.90000000596,23964,24242.79999998212,24499.09999999404,24955,25619.59999999404,25867.19999998808,26395.90000000596,77155.19999998808,78794.79999998212,79219.90000000596,80443.09999999404,80851.09999999404,81427.09999999404,81723.19999998808],"honeypot":0,"survey":"mace","page":7,"trial_type":"survey-mace","trial_index":15,"time_elapsed":2413079,"internal_node_id":"0.0-15.0","task_version":"prescreen-v0.3","browser_interactions":0},{"responses":{"01":"No","02":"No","03":"No","04":"No"},"rt":12587.59999999404,"item_order":[0,1,2,3],"radio_events":[6210.899999976158,8682.699999988079,10850.199999988079,11922.59999999404],"checkbox_events":[],"key_events":[],"mouse_events":[6210.899999976158,8202.699999988079,8682.699999988079,10850.199999988079,11922.59999999404,12586.299999982119],"honeypot":0,"survey":"mace","page":8,"trial_type":"survey-mace","trial_index":16,"time_elapsed":2425669,"internal_node_id":"0.0-16.0","task_version":"prescreen-v0.3","browser_interactions":0},{"responses":{"01":"Yes","01_ages_1":"1","01_ages_2":"2","01_ages_3":"3","01_ages_4":"4","01_ages_5":"5","01_ages_6":"6","01_ages_7":"7","01_ages_8":"8","01_ages_9":"9","01_ages_10":"10","01_ages_11":"11","01_ages_12":"12","01_ages_13":"13","01_ages_14":"14","01_ages_15":"15","01_ages_16":"16","01_ages_17":"17","01_ages_18":"18","02":"Yes","02_ages_1":"1","02_ages_2":"2","02_ages_3":"3","02_ages_4":"4","02_ages_5":"5","02_ages_6":"6","02_ages_7":"7","02_ages_8":"8","02_ages_9":"9","02_ages_10":"10","02_ages_11":"11","02_ages_12":"12","02_ages_13":"13","02_ages_14":"14","02_ages_15":"15","02_ages_16":"16","02_ages_17":"17","02_ages_18":"18","03":"Yes","03_ages_1":"1","03_ages_2":"2","03_ages_3":"3","03_ages_4":"4","03_ages_5":"5","03_ages_6":"6","03_ages_7":"7","03_ages_8":"8","03_ages_9":"9","03_ages_10":"10","03_ages_11":"11","03_ages_12":"12","03_ages_13":"13","03_ages_14":"14","03_ages_15":"15","03_ages_16":"16","03_ages_17":"17","03_ages_18":"18","04":"Yes","04_ages_1":"1","04_ages_2":"2","04_ages_3":"3","04_ages_4":"4","04_ages_5":"5","04_ages_6":"6","04_ages_7":"7","04_ages_8":"8","04_ages_9":"9","04_ages_10":"10","04_ages_11":"11","04_ages_12":"12","04_ages_13":"13","04_ages_14":"14","04_ages_15":"15","04_ages_16":"16","04_ages_17":"17","04_ages_18":"18"},"rt":54862.89999997616,"item_order":[0,1,2,3],"radio_events":[5941.199999988079,19157.399999976158,32997.19999998808,43749.29999998212],"checkbox_events":[7269,7597.0999999940395,8301.299999982119,9277.09999999404,9549.09999999404,9869.299999982119,10189.699999988079,10869.299999982119,11181,11653.199999988079,11949.199999988079,13309.199999988079,13589.899999976158,13998.299999982119,14389.299999982119,15141.399999976158,15445.199999988079,15725.199999988079,20869.19999998808,21325.09999999404,21701,22029.19999998808,22365.29999998212,22725.29999998212,23589.899999976158,23909.19999998808,24629.19999998808,25245.19999998808,25565.19999998808,25981,27261,27645,27901.399999976158,28157.29999998212,29021.29999998212,29453.09999999404,29877.29999998212,30437.29999998212,34133.89999997616,34686.19999998808,35285.79999998212,35541.89999997616,35893.09999999404,36245.29999998212,36669.19999998808,37069.29999998212,37861.19999998808,39085.19999998808,39621,40086.19999998808,40469.29999998212,40813,41693.29999998212,42061.5,42437.39999997616,42893.09999999404,44861.39999997616,45141.19999998808,45589.39999997616,46126.29999998212,47765.29999998212,48157.39999997616,48629.29999998212,49117.79999998212,49694.59999999404,50510.09999999404,50829.29999998212,51437.19999998808,51862,52461.39999997616,52965.29999998212,53429.89999997616,53893.69999998808,54493.09999999404],"key_events":[],"mouse_events":[2701,4118,5941.199999988079,7269,7597.0999999940395,7981.399999976158,8301.299999982119,8549.199999988079,8965.09999999404,9277.09999999404,9549.09999999404,9869.299999982119,10189.699999988079,10565.799999982119,10869.299999982119,11181,11653.199999988079,11949.199999988079,13309.199999988079,13589.899999976158,13998.299999982119,14389.299999982119,15141.399999976158,15445.199999988079,15725.199999988079,18710,19157.399999976158,20869.19999998808,21325.09999999404,21701,22029.19999998808,22365.29999998212,22725.29999998212,23589.899999976158,23909.19999998808,24629.19999998808,25245.19999998808,25565.19999998808,25981,27261,27645,27901.399999976158,28157.29999998212,28669.5,29021.29999998212,29453.09999999404,29877.29999998212,30437.29999998212,32997.19999998808,34133.89999997616,34421.69999998808,34686.19999998808,34989.29999998212,35285.79999998212,35541.89999997616,35893.09999999404,36245.29999998212,36669.19999998808,37069.29999998212,37477.09999999404,37861.19999998808,39085.19999998808,39621,40086.19999998808,40469.29999998212,40813,41133.19999998808,41693.29999998212,42061.5,42437.39999997616,42893.09999999404,43749.29999998212,44861.39999997616,45141.19999998808,45589.39999997616,46126.29999998212,46541.19999998808,47238,47765.29999998212,48157.39999997616,48629.29999998212,49117.79999998212,49694.59999999404,50237.39999997616,50510.09999999404,50829.29999998212,51165.39999997616,51437.19999998808,51862,52461.39999997616,52965.29999998212,53429.89999997616,53893.69999998808,54493.09999999404,54861.29999998212],"honeypot":0,"survey":"mace","page":9,"trial_type":"survey-mace","trial_index":17,"time_elapsed":2480533,"internal_node_id":"0.0-17.0","task_version":"prescreen-v0.3","browser_interactions":0},{"responses":{"01":"No","02":"No","03":"No","04":"No","05":"No","06":"Yes","06_ages_17":"17","07":"Yes","07_ages_1":"1","07_ages_2":"2","07_ages_3":"3","07_ages_4":"4","07_ages_5":"5","07_ages_6":"6","07_ages_7":"7","07_ages_8":"8","07_ages_9":"9","07_ages_10":"10","07_ages_11":"11","07_ages_12":"12","07_ages_13":"13","07_ages_14":"14","07_ages_15":"15","07_ages_16":"16","07_ages_17":"17","07_ages_18":"18","08":"Yes","08_ages_1":"1","08_ages_2":"2","08_ages_3":"3","08_ages_4":"4","08_ages_5":"5","08_ages_6":"6","08_ages_7":"7","08_ages_8":"8","08_ages_9":"9","08_ages_10":"10","08_ages_11":"11","08_ages_12":"12","08_ages_13":"13","08_ages_14":"14","08_ages_15":"15","08_ages_16":"16","08_ages_17":"17","08_ages_18":"18"},"rt":50238.40000000596,"item_order":[0,1,2,3,4,5,6,7],"radio_events":[2387.300000011921,3275.5,7627.300000011921,8123.5,9875.40000000596,11955.5,20771.40000000596,34867.30000001192],"checkbox_events":[13179.200000017881,23147.40000000596,23740.30000001192,24099.5,24427.30000001192,24859.40000000596,25932,26251.90000000596,26851.20000001788,27259.5,27756,29867.5,30307.30000001192,30779.40000000596,31379.5,32252.20000001788,32891.5,33251.60000002384,33875.5,36299.40000000596,36835.30000001192,37499.5,38139.5,39003.40000000596,39523.40000000596,40275.40000000596,41780.10000002384,42315.30000001192,43163.60000002384,44299,46483.90000000596,46947.5,47563.20000001788,48075.5,48739.5,49292.30000001192,49739.5],"key_events":[],"mouse_events":[2387.300000011921,3275.5,6019.5,7627.300000011921,8123.5,9875.40000000596,11955.5,13179.200000017881,20771.40000000596,23147.40000000596,23740.30000001192,24099.5,24427.30000001192,24859.40000000596,25507.5,25932,26251.90000000596,26851.20000001788,27259.5,27756,28243.30000001192,29395.30000001192,29867.5,30307.30000001192,30779.40000000596,31379.5,31907.5,32252.20000001788,32891.5,33251.60000002384,33875.5,34459.20000001788,34867.30000001192,36299.40000000596,36835.30000001192,37499.5,38139.5,39003.40000000596,39523.40000000596,40275.40000000596,41780.10000002384,42315.30000001192,43163.60000002384,43811.30000001192,44299,44771.70000001788,46483.90000000596,46947.5,47563.20000001788,48075.5,48739.5,49292.30000001192,49739.5,50235.30000001192],"honeypot":0,"survey":"mace","page":10,"trial_type":"survey-mace","trial_index":18,"time_elapsed":2530776,"internal_node_id":"0.0-18.0","task_version":"prescreen-v0.3","browser_interactions":0,"instructed":0},{"rt":3450.5,"trial_type":"mental-health-alert","trial_index":19,"time_elapsed":2534228,"internal_node_id":"0.0-19.0","task_version":"prescreen-v0.3","interactions":"[{\"event\":\"blur\",\"trial\":2,\"time\":66082},{\"event\":\"focus\",\"trial\":2,\"time\":66995},{\"event\":\"blur\",\"trial\":2,\"time\":67444},{\"event\":\"focus\",\"trial\":2,\"time\":68313},{\"event\":\"blur\",\"trial\":2,\"time\":69130},{\"event\":\"focus\",\"trial\":2,\"time\":70773},{\"event\":\"blur\",\"trial\":2,\"time\":73867},{\"event\":\"focus\",\"trial\":2,\"time\":1191711},{\"event\":\"blur\",\"trial\":2,\"time\":1267734},{\"event\":\"focus\",\"trial\":2,\"time\":1272403},{\"event\":\"blur\",\"trial\":2,\"time\":1446207},{\"event\":\"focus\",\"trial\":2,\"time\":1638295},{\"event\":\"blur\",\"trial\":6,\"time\":1784103},{\"event\":\"focus\",\"trial\":6,\"time\":1962384},{\"event\":\"blur\",\"trial\":8,\"time\":2109344},{\"event\":\"focus\",\"trial\":8,\"time\":2149573}]"}]