[{"view_history":[{"page_index":0,"viewing_time":4393},{"page_index":1,"viewing_time":3653},{"page_index":2,"viewing_time":2364},{"page_index":3,"viewing_time":1117.0000000000018}],"rt":11528,"trial_type":"instructions","trial_index":0,"time_elapsed":11532,"internal_node_id":"0.0-0.0","task_version":"prescreen-v0.3"},{"rt":18646.000000000004,"responses":{"age":"20","gender-categorical":"Male","gender-free-response":"","ethnicity":"Not Hispanic or Latino","race":["Black or African American"],"education":"Some college"},"trial_type":"survey-demo","trial_index":1,"time_elapsed":30184,"internal_node_id":"0.0-1.0","task_version":"prescreen-v0.3"},{"responses":{"Q18":"1","Q12":"2","Q10":"2","Q08":"3","Q04":"2","Q14":"2","Q06":"2","Q09":"2","Q19":"1","Q02":"1","Q05":"3","Q11":"3","Q07":"3","Q20":"0","Q01":"2","Q16":"1","Q03":"1","Q17":"1","Q15":"3","Q13":"2","Q21":"3"},"rt":159118,"item_order":[17,11,9,7,3,13,5,8,18,1,4,10,6,19,0,15,2,16,14,12,20],"radio_events":[8226,16346,22600,28031,33241.00000000001,40702,48606,57420,65228,72452,90069,93681,104678,108405,115091.00000000003,125307,133616,138647,147709,151216.00000000003,157265],"key_events":[],"mouse_events":[8226,16346,22600,28031,33241.00000000001,40702,48606,57420,65228,72452,89531,90069,93681,104678,108405,115091.00000000003,125307,133616,138647,147188,147709,151216.00000000003,157265,159108],"straightlining":0.38095238095238093,"zigzagging":0.4,"honeypot":0,"survey":"sns","trial_type":"survey-template","trial_index":2,"time_elapsed":189310,"internal_node_id":"0.0-2.0","task_version":"prescreen-v0.3","browser_interactions":0,"infrequency":0},{"responses":{"Q06":"2","Q05":"3","Q10":"3","Q01":"3","Q12":"2","Q07":"2","Q08":"3","Q11":"3","Q03":"3","Q02":"3","Q04":"3","Q13":"0","Q09":"2"},"rt":95941,"item_order":[5,4,9,0,11,6,7,10,2,1,3,12,8],"radio_events":[10626,17564.00000000003,24136.00000000003,30348,40972,45554,53405,61975.00000000003,71914,73716.00000000006,77205,83165,87022,94075],"key_events":[],"mouse_events":[10626,17564.00000000003,24136.00000000003,29541,30348,40972,45554,53405,61975.00000000003,71914,73716.00000000006,77205,83165,87022,94075,95934],"straightlining":0.6153846153846154,"zigzagging":0.3333333333333333,"honeypot":0,"survey":"bisbas","trial_type":"survey-template","trial_index":3,"time_elapsed":285256,"internal_node_id":"0.0-3.0","task_version":"prescreen-v0.3","browser_interactions":0,"infrequency":0},{"responses":{"Q01":"3","Q02":"2","Q03":"3"},"rt":32970,"radio_events":[8611,21445,32070],"key_events":[],"mouse_events":[8611,21445,32070,32967],"survey":"map","page":1,"trial_type":"survey-map","trial_index":4,"time_elapsed":318229,"internal_node_id":"0.0-4.0","task_version":"prescreen-v0.3","browser_interactions":0},{"responses":{"Q04":"3","Q05":"2","Q06":"2"},"rt":30242,"radio_events":[16965,22469,29229],"key_events":[],"mouse_events":[16150.000000000058,16965,22469,29229,30240],"survey":"map","page":2,"trial_type":"survey-map","trial_index":5,"time_elapsed":348474,"internal_node_id":"0.0-5.0","task_version":"prescreen-v0.3","browser_interactions":0},{"responses":{"Q07":"0","Q08":"2","Q09":"1"},"rt":38243,"radio_events":[7869,11012,15770,25856,29403,36137],"key_events":[],"mouse_events":[7869,11012,14596,15770,25856,29403,36137,38241],"survey":"map","page":3,"trial_type":"survey-map","trial_index":6,"time_elapsed":386721,"internal_node_id":"0.0-6.0","task_version":"prescreen-v0.3","browser_interactions":0},{"responses":{"Q10":"2","Q11":"2","Q12":"2","Q13":"2","Q16":"0","Q14":"3","Q15":"3"},"rt":73496,"radio_events":[9205,15891.000000000058,28026,29428,40894,58064.00000000006,61986,71722],"key_events":[],"mouse_events":[9205,15891.000000000058,28026,29428,40894,58064.00000000006,61598,61986,71722,73492.00000000006],"survey":"map","page":4,"trial_type":"survey-map","trial_index":7,"time_elapsed":460222,"internal_node_id":"0.0-7.0","task_version":"prescreen-v0.3","browser_interactions":0,"infrequency":0},{"view_history":[{"page_index":0,"viewing_time":2454.999999999942},{"page_index":1,"viewing_time":3424}],"rt":5880,"trial_type":"instructions","trial_index":8,"time_elapsed":466104,"internal_node_id":"0.0-8.0","task_version":"prescreen-v0.3"},{"responses":{"01":"Yes","01_ages_5":"5","01_ages_6":"6","01_ages_7":"7","01_ages_8":"8","01_ages_9":"9","01_ages_10":"10","01_ages_11":"11","01_ages_12":"12","01_ages_13":"13","01_ages_14":"14","01_ages_15":"15","01_ages_16":"16","01_ages_17":"17","01_ages_18":"18","02":"Yes","02_ages_5":"5","02_ages_6":"6","02_ages_7":"7","02_ages_8":"8","02_ages_9":"9","02_ages_10":"10","02_ages_11":"11","02_ages_12":"12","02_ages_13":"13","02_ages_14":"14","02_ages_15":"15","02_ages_16":"16","02_ages_17":"17","02_ages_18":"18","03":"Yes","03_ages_5":"5","03_ages_6":"6","03_ages_7":"7","03_ages_8":"8","03_ages_9":"9","03_ages_10":"10","03_ages_11":"11","03_ages_12":"12","03_ages_13":"13","03_ages_14":"14","03_ages_15":"15","03_ages_16":"16","03_ages_17":"17","03_ages_18":"18","04":"Yes","04_ages_10":"10","04_ages_14":"14","04_ages_15":"15","05":"No","06":"Yes","06_ages_5":"5","06_ages_6":"6","06_ages_7":"7","06_ages_8":"8","06_ages_9":"9","06_ages_10":"10","06_ages_11":"11","06_ages_12":"12","06_ages_13":"13","06_ages_14":"14","06_ages_15":"15","06_ages_16":"16"},"rt":104121.00000000012,"item_order":[0,1,2,3,4,5],"radio_events":[7084.000000000058,32323,47121.00000000006,63248,80867,87984],"checkbox_events":[16253,16823,17410,19017,20493,21088,21585,22792,23811,24798.00000000006,25401,25980,26543.00000000006,27154,34915,35714,36424,37060.00000000006,37590,38356,38943,39547,40068,40615.00000000006,41136,42001,42751,43387,50945,51499,52021.00000000006,52543,53040.00000000006,53578.00000000006,54214,54752.00000000006,55307,56228.00000000006,56783,57360.99999999994,57899,58552,68581,72078.00000000012,73708,89826,90430,91034,91750,92289,92770.00000000012,93218,94343,95615,96055,96546,97009,97808,98362],"key_events":[],"mouse_events":[0,7084.000000000058,16253,16823,17410,19017,20493,21088,21585,22131,22792,23811,24798.00000000006,25401,25980,26543.00000000006,27154,32323,34915,35714,36424,37060.00000000006,37590,38356,38943,39547,40068,40615.00000000006,41136,42001,42751,43387,47121.00000000006,50309.00000000006,50945,51499,52021.00000000006,52543,53040.00000000006,53578.00000000006,54214,54752.00000000006,55307,55796,56228.00000000006,56783,57360.99999999994,57899,58552,63248,68581,72078.00000000012,73708,80867,87984,89826,90430,91034,91750,92289,92770.00000000012,93218,94343,95615,96055,96546,97009,97808,98362,104111],"honeypot":0,"survey":"mace","page":1,"trial_type":"survey-mace","trial_index":9,"time_elapsed":570233,"internal_node_id":"0.0-9.0","task_version":"prescreen-v0.3","browser_interactions":0},{"responses":{"01":"Yes","01_ages_5":"5","01_ages_6":"6","01_ages_7":"7","01_ages_8":"8","01_ages_9":"9","01_ages_10":"10","01_ages_11":"11","01_ages_12":"12","02":"No","03":"Yes","03_ages_5":"5","03_ages_6":"6","03_ages_7":"7","03_ages_8":"8","03_ages_9":"9","03_ages_10":"10","03_ages_11":"11","03_ages_12":"12","04":"No","05":"Yes","05_ages_5":"5","05_ages_6":"6","05_ages_7":"7","05_ages_8":"8","05_ages_9":"9","05_ages_10":"10","05_ages_11":"11","05_ages_12":"12","06":"No","07":"No","08":"No"},"rt":90355,"item_order":[0,1,2,3,4,5,6,7],"radio_events":[7251.000000000116,28147,30708,61047,68760,84342.00000000012,86805,89496.00000000012],"checkbox_events":[11358,12744,13160,14742,15264,15859,17147,20213,32184,34042,34727.00000000012,35502,36456,37027,37663,38519,39008,39758,70790,71230,71739,72405,72872,73506,73962,74695],"key_events":[],"mouse_events":[7251.000000000116,11358,12744,13160,14742,15264,15859,16397,17147,20213,28147,30708,32184,33431,34042,34727.00000000012,35200,35502,36456,37027,37663,38519,39008,39758,60558,61047,68760,70790,71230,71739,72405,72872,73506,73962,74695,84342.00000000012,86805,89496.00000000012,90345],"honeypot":0,"survey":"mace","page":2,"trial_type":"survey-mace","trial_index":10,"time_elapsed":660594,"internal_node_id":"0.0-10.0","task_version":"prescreen-v0.3","browser_interactions":0},{"responses":{"01":"No","02":"No","03":"No","04":"No"},"rt":14030,"item_order":[0,1,2,3],"radio_events":[6510,9387.000000000116,12053,13105],"checkbox_events":[],"key_events":[],"mouse_events":[6510,9387.000000000116,12053,13105,14026],"honeypot":0,"survey":"mace","page":3,"trial_type":"survey-mace","trial_index":11,"time_elapsed":674628,"internal_node_id":"0.0-11.0","task_version":"prescreen-v0.3","browser_interactions":0},{"responses":{"01":"No","02":"No"},"rt":10238,"item_order":[0,1],"radio_events":[5970,8711],"checkbox_events":[],"key_events":[],"mouse_events":[5970,8711,10234.000000000116],"honeypot":0,"survey":"mace","page":4,"trial_type":"survey-mace","trial_index":12,"time_elapsed":684868,"internal_node_id":"0.0-12.0","task_version":"prescreen-v0.3","browser_interactions":0},{"responses":{"01":"Yes","01_ages_7":"7","01_ages_8":"8","01_ages_9":"9","01_ages_10":"10","01_ages_11":"11","01_ages_12":"12","02":"No","03":"No","04":"Yes","04_ages_7":"7","04_ages_8":"8","04_ages_9":"9","04_ages_10":"10","04_ages_11":"11","04_ages_12":"12","05":"No"},"rt":67169,"item_order":[0,1,2,3,4],"radio_events":[11084,38418,43401,49459,66493],"checkbox_events":[16261.000000000116,21162,23836,24688,26739,28981,51489,52337,52843.00000000012,53675,54547,55623],"key_events":[],"mouse_events":[11084,16261.000000000116,21162,23836,24688,26739,28981,38418,43401,49459,51489,52337,52843.00000000012,53675,54547,55118,55623,60198,65987.00000000012,66493,67161],"honeypot":0,"survey":"mace","page":5,"trial_type":"survey-mace","trial_index":13,"time_elapsed":752043,"internal_node_id":"0.0-13.0","task_version":"prescreen-v0.3","browser_interactions":0},{"responses":{"01":"Yes","01_ages_13":"13","01_ages_14":"14","01_ages_15":"15","01_ages_16":"16","01_ages_17":"17","01_ages_18":"18","02":"Yes","02_ages_7":"7","02_ages_8":"8","02_ages_9":"9","02_ages_10":"10","02_ages_11":"11","02_ages_12":"12","02_ages_13":"13","02_ages_14":"14","02_ages_15":"15","02_ages_16":"16","02_ages_17":"17","03":"No","04":"Yes","04_ages_6":"6","04_ages_7":"7","04_ages_8":"8","04_ages_9":"9","04_ages_14":"14","04_ages_15":"15","04_ages_16":"16","05":"No"},"rt":89287,"item_order":[0,1,2,3,4],"radio_events":[5508,31634,55591,64202,88455],"checkbox_events":[13443,14706,16818,20251,21197,23798,25413,26057,36918,37383,37823,38459,39038,40473,41753,42610,43288,44550,45480,68287,68980,69836,71573,72005,73424,75854],"key_events":[],"mouse_events":[5508,13443,14706,16818,20251,21197,23798,25413,26057,31634,36918,37383,37823,38459,39038,40473,41753,42251,42610,43288,43882,44550,45048,45480,55591,64202,67732.00000000012,68287,68980,69836,71573,72005,73424,75854,88455,89279],"honeypot":0,"survey":"mace","page":6,"trial_type":"survey-mace","trial_index":14,"time_elapsed":841335,"internal_node_id":"0.0-14.0","task_version":"prescreen-v0.3","browser_interactions":0},{"responses":{"01":"No","02":"No","03":"Yes","03_ages_15":"15","04":"No","05":"No","06":"No","07":"No"},"rt":34526,"item_order":[0,1,2,3,4,5,6],"radio_events":[6363,10783,14599,26145,29594,31730.000000000116,33483],"checkbox_events":[19051],"key_events":[],"mouse_events":[6363,10783,14599,19051,26145,29594,31730.000000000116,33483,34518.00000000012],"honeypot":0,"survey":"mace","page":7,"trial_type":"survey-mace","trial_index":15,"time_elapsed":875866,"internal_node_id":"0.0-15.0","task_version":"prescreen-v0.3","browser_interactions":0},{"responses":{"01":"No","02":"No","03":"No","04":"No"},"rt":30993.000000000116,"item_order":[0,1,2,3],"radio_events":[18016,25109,29531,30328],"checkbox_events":[],"key_events":[],"mouse_events":[18016,25109,29531,30328,30988.000000000116],"honeypot":0,"survey":"mace","page":8,"trial_type":"survey-mace","trial_index":16,"time_elapsed":906862,"internal_node_id":"0.0-16.0","task_version":"prescreen-v0.3","browser_interactions":0},{"responses":{"01":"Yes","01_ages_5":"5","01_ages_6":"6","01_ages_7":"7","01_ages_8":"8","01_ages_9":"9","01_ages_10":"10","01_ages_11":"11","01_ages_12":"12","01_ages_13":"13","01_ages_14":"14","01_ages_15":"15","01_ages_16":"16","01_ages_17":"17","01_ages_18":"18","02":"Yes","02_ages_5":"5","02_ages_6":"6","02_ages_7":"7","02_ages_8":"8","02_ages_9":"9","02_ages_10":"10","02_ages_11":"11","02_ages_12":"12","02_ages_13":"13","02_ages_14":"14","02_ages_15":"15","02_ages_16":"16","02_ages_17":"17","02_ages_18":"18","03":"Yes","03_ages_1":"1","03_ages_2":"2","03_ages_3":"3","03_ages_4":"4","03_ages_5":"5","03_ages_6":"6","03_ages_7":"7","03_ages_8":"8","03_ages_9":"9","03_ages_10":"10","03_ages_11":"11","03_ages_12":"12","03_ages_13":"13","03_ages_14":"14","03_ages_15":"15","03_ages_16":"16","03_ages_17":"17","03_ages_18":"18","04":"Yes","04_ages_1":"1","04_ages_2":"2","04_ages_3":"3","04_ages_4":"4","04_ages_5":"5","04_ages_6":"6","04_ages_7":"7","04_ages_8":"8","04_ages_9":"9","04_ages_10":"10","04_ages_11":"11","04_ages_12":"12","04_ages_13":"13","04_ages_14":"14","04_ages_15":"15","04_ages_16":"16","04_ages_17":"17","04_ages_18":"18"},"rt":80618,"item_order":[0,1,2,3],"radio_events":[5985,31367,45979,67685],"checkbox_events":[14645.000000000116,15345,15981,16650.000000000116,17286,17865,18346,19488,20082,20914.000000000116,21534,22055,22667,23727.000000000116,33830,34286,34914.00000000012,35402,35868,36553,37809,38167,38697,39236.00000000012,39872,40434,41014,41714,48833,49640.00000000012,50222.00000000012,50797,51442,52282,53864,54255,54948.00000000012,55527,56073.00000000012,56676,57199,57834,58462.00000000012,59041,59987,60623,69080,69528,70107,70605,71110,71583,72080,72553,73205,73735,74477.00000000012,74844,75465,76622,77470,78081,78709,79728],"key_events":[],"mouse_events":[5985,14645.000000000116,15345,15981,16650.000000000116,17286,17865,18346,18851,19488,20082,20914.000000000116,21534,22055,22667,23409,23727.000000000116,31367,33830,34286,34914.00000000012,35402,35868,36553,37100,37809,38167,38697,39236.00000000012,39872,40434,41014,41714,45979,48833,49640.00000000012,50222.00000000012,50797,51442,52282,53864,54255,54948.00000000012,55527,56073.00000000012,56676,57199,57834,58462.00000000012,59041,59661,59987,60623,67685,69080,69528,70107,70605,71110,71583,72080,72553,73205,73735,74477.00000000012,74844,75465,75928,76622,77062,77470,78081,78709,79215,79728,80609],"honeypot":0,"survey":"mace","page":9,"trial_type":"survey-mace","trial_index":17,"time_elapsed":987486,"internal_node_id":"0.0-17.0","task_version":"prescreen-v0.3","browser_interactions":0},{"responses":{"01":"No","02":"No","03":"Yes","03_ages_6":"6","03_ages_7":"7","03_ages_8":"8","03_ages_9":"9","03_ages_10":"10","03_ages_11":"11","03_ages_12":"12","03_ages_13":"13","03_ages_14":"14","03_ages_15":"15","03_ages_16":"16","03_ages_17":"17","03_ages_18":"18","04":"No","05":"Yes","05_ages_5":"5","05_ages_6":"6","05_ages_7":"7","05_ages_8":"8","05_ages_9":"9","05_ages_10":"10","05_ages_11":"11","05_ages_12":"12","05_ages_13":"13","05_ages_14":"14","05_ages_15":"15","05_ages_16":"16","05_ages_17":"17","05_ages_18":"18","06":"Yes","06_ages_17":"17","07":"Yes","07_ages_1":"1","07_ages_2":"2","07_ages_3":"3","07_ages_4":"4","07_ages_5":"5","07_ages_6":"6","07_ages_7":"7","07_ages_8":"8","07_ages_9":"9","07_ages_10":"10","07_ages_11":"11","07_ages_12":"12","07_ages_13":"13","07_ages_14":"14","07_ages_15":"15","07_ages_16":"16","07_ages_17":"17","07_ages_18":"18","08":"Yes","08_ages_1":"1","08_ages_2":"2","08_ages_3":"3","08_ages_4":"4","08_ages_5":"5","08_ages_6":"6","08_ages_7":"7","08_ages_8":"8","08_ages_9":"9","08_ages_10":"10","08_ages_11":"11","08_ages_12":"12","08_ages_13":"13","08_ages_14":"14","08_ages_15":"15","08_ages_16":"16","08_ages_17":"17","08_ages_18":"18"},"rt":96333,"item_order":[0,1,2,3,4,5,6,7],"radio_events":[14429,17030,19623.000000000116,33152.00000000012,38020.00000000012,51818.00000000012,59638,76241.00000000023],"checkbox_events":[21679,23114,23734,24206,25243.000000000116,25707,26229.000000000116,26767.000000000116,27452,28064,28594.000000000116,29092,29564,39979,41120,41584,42090,42661,43133.99999999988,43599.00000000012,44145.00000000012,44594,46054,46550.00000000012,47210.99999999988,47790.00000000012,48362,53261.00000000012,62265,64222,64832,65403,66031,66602,67279.00000000023,67760.00000000023,68266,68756,69294,70289.00000000023,70868,71618,72237,72857,73428,74325,77358,77904.00000000023,78475,78989,79490,80229,86518,86899,87535,89378,90123,90665,91204,92045,92582,93096,93782,94711],"key_events":[],"mouse_events":[14429,17030,19623.000000000116,21679,23114,23734,24206,24655,25243.000000000116,25707,26229.000000000116,26767.000000000116,27452,28064,28594.000000000116,29092,29564,33152.00000000012,38020.00000000012,39979,40337.00000000012,40794,41120,41584,42090,42661,43133.99999999988,43599.00000000012,44145.00000000012,44594,45148,45710.99999999988,46054,46550.00000000012,47210.99999999988,47790.00000000012,48362,51818.00000000012,53261.00000000012,59638,62265,62615,64222,64832,65403,66031,66602,67279.00000000023,67760.00000000023,68266,68756,69294,69848,70289.00000000023,70868,71618,72237,72857,73428,74325,75898,76241.00000000023,77358,77904.00000000023,78475,78989,79490,80229,86518,86899,87535,88661,89378,90123,90665,91204,91718,92045,92582,93096,93782,94711,96325],"honeypot":0,"survey":"mace","page":10,"trial_type":"survey-mace","trial_index":18,"time_elapsed":1083826,"internal_node_id":"0.0-18.0","task_version":"prescreen-v0.3","browser_interactions":0,"instructed":0},{"rt":3196.999999999767,"trial_type":"mental-health-alert","trial_index":19,"time_elapsed":1087026,"internal_node_id":"0.0-19.0","task_version":"prescreen-v0.3","interactions":"[]"}]