[{"view_history":[{"page_index":0,"viewing_time":2449.5},{"page_index":1,"viewing_time":3859.699999988079},{"page_index":2,"viewing_time":6627.5999999940395},{"page_index":3,"viewing_time":1738.800000011921}],"rt":14676.399999976158,"trial_type":"instructions","trial_index":0,"time_elapsed":14704,"internal_node_id":"0.0-0.0","task_version":"prescreen-v0.3"},{"rt":23144.399999976158,"responses":{"age":"20","gender-categorical":"Male","gender-free-response":"","ethnicity":"Not Hispanic or Latino","race":["Asian"],"education":"High school","siblings":"2"},"trial_type":"survey-demo","trial_index":1,"time_elapsed":37855,"internal_node_id":"0.0-1.0","task_version":"prescreen-v0.3"},{"responses":{"Q19":"2","Q06":"1","Q03":"2","Q05":"1","Q15":"2","Q01":"3","Q10":"3","Q20":"0","Q21":"3","Q07":"1","Q09":"3","Q13":"2","Q12":"2","Q18":"1","Q02":"2","Q08":"2","Q11":"3","Q04":"3","Q14":"2","Q17":"3","Q16":"3"},"rt":148783.5,"item_order":[18,5,2,4,14,0,9,19,20,6,8,12,11,17,1,7,10,3,13,16,15],"radio_events":[10717.5,17090.59999999404,22361.19999998808,34570.69999998808,55519.5,55746.39999997616,59716.69999998808,63806.59999999404,74290.5,76936.09999999404,82861,87371.39999997616,95456.09999999404,100505.89999997616,112946.19999998808,121346.79999998212,126256.19999998808,129050.79999998212,134096.29999998212,138549.39999997616,141825.79999998212,147236],"key_events":[],"mouse_events":[9751.09999999404,10717.5,16216.299999982119,17090.59999999404,20291.19999998808,21195.69999998808,22361.19999998808,30687.19999998808,32814.5,34570.69999998808,55519.5,55746.39999997616,58096.5,59716.69999998808,62661.29999998212,63806.59999999404,70830.29999998212,71786.5,72959.5,74290.5,76146.09999999404,76936.09999999404,82861,87371.39999997616,93036.5,94285.5,95456.09999999404,100505.89999997616,111066.59999999404,112946.19999998808,121346.79999998212,126256.19999998808,129050.79999998212,132471.39999997616,134096.29999998212,138549.39999997616,141825.79999998212,147236,148780.39999997616],"straightlining":0.38095238095238093,"zigzagging":0.65,"honeypot":0,"survey":"sns","trial_type":"survey-template","trial_index":2,"time_elapsed":186646,"internal_node_id":"0.0-2.0","task_version":"prescreen-v0.3","browser_interactions":0,"infrequency":0},{"responses":{"Q11":"1","Q06":"2","Q10":"2","Q07":"1","Q02":"2","Q03":"1","Q04":"3","Q13":"0","Q12":"0","Q05":"2","Q08":"2","Q09":"1","Q01":"3"},"rt":95225.40000000596,"item_order":[10,5,9,6,1,2,3,12,11,4,7,8,0],"radio_events":[15219.09999999404,24045.79999998212,31399.59999999404,38830.19999998808,47125.5,54904.29999998212,59064.69999998808,65734.29999998212,71665.5,78794.19999998808,83644.79999998212,86517.90000000596,90939.40000000596,93944.40000000596],"key_events":[],"mouse_events":[15219.09999999404,21909.79999998212,22986,23208.79999998212,24045.79999998212,30424.59999999404,31399.59999999404,38830.19999998808,44691.59999999404,45099.69999998808,46642.09999999404,47125.5,54904.29999998212,59064.69999998808,63749,65734.29999998212,71665.5,78794.19999998808,83644.79999998212,86517.90000000596,90939.40000000596,93944.40000000596,95224.19999998808],"straightlining":0.38461538461538464,"zigzagging":0.5,"honeypot":0,"survey":"bisbas","trial_type":"survey-template","trial_index":3,"time_elapsed":281877,"internal_node_id":"0.0-3.0","task_version":"prescreen-v0.3","browser_interactions":0,"infrequency":0},{"responses":{"Q01":"2","Q02":"2","Q03":"1"},"rt":28012.5,"radio_events":[8541.5,17841.5,18226.09999999404,20046,25525.69999998808],"key_events":[],"mouse_events":[8541.5,13641.09999999404,17841.5,18226.09999999404,20046,25525.69999998808,28011.79999998212],"survey":"map","page":1,"trial_type":"survey-map","trial_index":4,"time_elapsed":309898,"internal_node_id":"0.0-4.0","task_version":"prescreen-v0.3","browser_interactions":0},{"responses":{"Q04":"2","Q05":"1","Q06":"1"},"rt":26431.20000001788,"radio_events":[6941.5,10110.800000011921,16291,17811.70000001788,23123.40000000596],"key_events":[],"mouse_events":[6941.5,10110.800000011921,16291,17811.70000001788,23123.40000000596,26430.80000001192],"survey":"map","page":2,"trial_type":"survey-map","trial_index":5,"time_elapsed":336336,"internal_node_id":"0.0-5.0","task_version":"prescreen-v0.3","browser_interactions":0},{"responses":{"Q07":"2","Q08":"0","Q09":"0"},"rt":21604.09999999404,"radio_events":[10598.299999982119,15963.699999988079,19632.899999976158],"key_events":[],"mouse_events":[10598.299999982119,15963.699999988079,19632.899999976158,21603.09999999404],"survey":"map","page":3,"trial_type":"survey-map","trial_index":6,"time_elapsed":357947,"internal_node_id":"0.0-6.0","task_version":"prescreen-v0.3","browser_interactions":0},{"responses":{"Q10":"1","Q11":"2","Q12":"0","Q13":"0","Q16":"0","Q14":"1","Q15":"1"},"rt":59028.20000001788,"radio_events":[10023,22422.09999999404,28592.40000000596,36307.80000001192,43302.59999999404,49192.20000001788,51092.90000000596,52592.09999999404,57617.30000001192],"key_events":[],"mouse_events":[7922.4000000059605,10023,21092.09999999404,22422.09999999404,28592.40000000596,36307.80000001192,43302.59999999404,49192.20000001788,51092.90000000596,52592.09999999404,57617.30000001192,59027.09999999404],"survey":"map","page":4,"trial_type":"survey-map","trial_index":7,"time_elapsed":416984,"internal_node_id":"0.0-7.0","task_version":"prescreen-v0.3","browser_interactions":0,"infrequency":0},{"view_history":[{"page_index":0,"viewing_time":3468.699999988079},{"page_index":1,"viewing_time":4739.5}],"rt":8208.899999976158,"trial_type":"instructions","trial_index":8,"time_elapsed":425198,"internal_node_id":"0.0-8.0","task_version":"prescreen-v0.3"},{"responses":{"01":"No","02":"Yes","02_ages_14":"14","03":"No","04":"No","05":"Yes","05_ages_6":"6","05_ages_7":"7","06":"No"},"rt":85666.09999999404,"item_order":[0,1,2,3,4,5],"radio_events":[15162.09999999404,28073,55202.69999998808,57241.09999999404,60297,81478],"checkbox_events":[38733.19999998808,67645.30000001192,76736.80000001192],"key_events":[],"mouse_events":[0,13006.5,15162.09999999404,28073,38733.19999998808,55202.69999998808,57241.09999999404,60297,67645.30000001192,76736.80000001192,81478,85663.5],"honeypot":0,"survey":"mace","page":1,"trial_type":"survey-mace","trial_index":9,"time_elapsed":510873,"internal_node_id":"0.0-9.0","task_version":"prescreen-v0.3","browser_interactions":0},{"responses":{"01":"No","02":"No","03":"No","04":"No","05":"No","06":"No","07":"No","08":"No"},"rt":24292.29999998212,"item_order":[0,1,2,3,4,5,6,7],"radio_events":[4558.5,7048.5,8868.799999982119,12418.5,15499.199999988079,17773.5,21599.09999999404,22788],"checkbox_events":[],"key_events":[],"mouse_events":[4558.5,7048.5,8868.799999982119,12418.5,15499.199999988079,17773.5,19829.399999976158,21599.09999999404,22788,24289],"honeypot":0,"survey":"mace","page":2,"trial_type":"survey-mace","trial_index":10,"time_elapsed":535173,"internal_node_id":"0.0-10.0","task_version":"prescreen-v0.3","browser_interactions":0},{"responses":{"01":"No","02":"No","03":"No","04":"No"},"rt":24491,"item_order":[0,1,2,3],"radio_events":[9580.399999976158,15829.399999976158,21868.899999976158,23229.5],"checkbox_events":[],"key_events":[],"mouse_events":[9580.399999976158,15829.399999976158,18444,20713.79999998212,21868.899999976158,23229.5,24489.19999998808],"honeypot":0,"survey":"mace","page":3,"trial_type":"survey-mace","trial_index":11,"time_elapsed":559668,"internal_node_id":"0.0-11.0","task_version":"prescreen-v0.3","browser_interactions":0},{"responses":{"01":"No","02":"No"},"rt":18492.59999999404,"item_order":[0,1],"radio_events":[12122.199999988079,16231.799999982119],"checkbox_events":[],"key_events":[],"mouse_events":[12122.199999988079,15285.699999988079,16231.799999982119,18491.5],"honeypot":0,"survey":"mace","page":4,"trial_type":"survey-mace","trial_index":12,"time_elapsed":578167,"internal_node_id":"0.0-12.0","task_version":"prescreen-v0.3","browser_interactions":0},{"responses":{"01":"No","02":"No","03":"No","04":"No","05":"No"},"rt":34335.90000000596,"item_order":[0,1,2,3,4],"radio_events":[15902.5,22261.90000000596,27222.20000001788,30922,33256.30000001192],"checkbox_events":[],"key_events":[],"mouse_events":[15902.5,22261.90000000596,27222.20000001788,30922,33256.30000001192,34332.40000000596],"honeypot":0,"survey":"mace","page":5,"trial_type":"survey-mace","trial_index":13,"time_elapsed":612510,"internal_node_id":"0.0-13.0","task_version":"prescreen-v0.3","browser_interactions":0},{"responses":{"01":"No","02":"No","03":"No","04":"No","05":"No"},"rt":36343.09999999404,"item_order":[0,1,2,3,4],"radio_events":[9648.59999999404,14598.59999999404,17443.69999998808,28254.79999998212,34933.5],"checkbox_events":[],"key_events":[],"mouse_events":[9648.59999999404,14598.59999999404,17443.69999998808,28254.79999998212,34933.5,36339.59999999404],"honeypot":0,"survey":"mace","page":6,"trial_type":"survey-mace","trial_index":14,"time_elapsed":648863,"internal_node_id":"0.0-14.0","task_version":"prescreen-v0.3","browser_interactions":0},{"responses":{"01":"No","02":"No","03":"No","04":"No","05":"No","06":"No","07":"Yes","07_ages_13":"13"},"rt":70152.89999997616,"item_order":[0,1,2,3,4,5,6],"radio_events":[3577.899999976158,6298.5,8892.799999982119,13778.59999999404,17913,21302.69999998808,23653.19999998808,34873.69999998808,60489.09999999404,64353.5],"checkbox_events":[51469.19999998808,59059.59999999404,68372.79999998212],"key_events":[],"mouse_events":[3577.899999976158,6298.5,8892.799999982119,13778.59999999404,16283.399999976158,17913,21302.69999998808,23653.19999998808,34072.5,34873.69999998808,51469.19999998808,59059.59999999404,60489.09999999404,62028.59999999404,63123.39999997616,64353.5,68372.79999998212,70149.89999997616],"honeypot":0,"survey":"mace","page":7,"trial_type":"survey-mace","trial_index":15,"time_elapsed":719024,"internal_node_id":"0.0-15.0","task_version":"prescreen-v0.3","browser_interactions":0},{"responses":{"01":"No","02":"No","03":"No","04":"No"},"rt":51410.09999999404,"item_order":[0,1,2,3],"radio_events":[16168.699999988079,19333.399999976158,24232.899999976158,31528.5,48829.19999998808],"checkbox_events":[35742.69999998808,37963.09999999404,43931.69999998808,46789.09999999404],"key_events":[],"mouse_events":[16168.699999988079,19333.399999976158,24232.899999976158,31528.5,35742.69999998808,36867.79999998212,37963.09999999404,43931.69999998808,46789.09999999404,48829.19999998808,51408.19999998808],"honeypot":0,"survey":"mace","page":8,"trial_type":"survey-mace","trial_index":16,"time_elapsed":770441,"internal_node_id":"0.0-16.0","task_version":"prescreen-v0.3","browser_interactions":0},{"responses":{"01":"Yes","01_ages_1":"1","01_ages_2":"2","01_ages_3":"3","01_ages_4":"4","01_ages_5":"5","01_ages_6":"6","01_ages_7":"7","01_ages_8":"8","01_ages_9":"9","01_ages_10":"10","01_ages_11":"11","01_ages_12":"12","01_ages_13":"13","01_ages_14":"14","01_ages_15":"15","01_ages_16":"16","01_ages_17":"17","01_ages_18":"18","02":"No","03":"Yes","03_ages_1":"1","03_ages_2":"2","03_ages_3":"3","03_ages_4":"4","03_ages_5":"5","03_ages_6":"6","03_ages_7":"7","03_ages_8":"8","03_ages_9":"9","03_ages_10":"10","03_ages_11":"11","03_ages_12":"12","03_ages_13":"13","03_ages_14":"14","03_ages_15":"15","03_ages_16":"16","03_ages_17":"17","03_ages_18":"18","04":"Yes","04_ages_1":"1","04_ages_2":"2","04_ages_3":"3","04_ages_4":"4","04_ages_5":"5","04_ages_6":"6","04_ages_7":"7","04_ages_8":"8","04_ages_9":"9","04_ages_10":"10","04_ages_11":"11","04_ages_12":"12","04_ages_13":"13","04_ages_14":"14","04_ages_15":"15","04_ages_16":"16","04_ages_17":"17","04_ages_18":"18"},"rt":116869.90000000596,"item_order":[0,1,2,3],"radio_events":[6470.199999988079,46836.19999998808,64115.80000001192,67871.19999998808],"checkbox_events":[14986.09999999404,16251.199999988079,19126,20341.90000000596,21722.19999998808,22791.5,24401.69999998808,26025.59999999404,27462.5,28691.40000000596,32082.09999999404,33176.69999998808,35701.69999998808,36775.19999998808,38044.30000001192,40086.5,41440.90000000596,42651.5,69915.90000000596,71171.69999998808,73822.59999999404,74231,74871.69999998808,76045.5,77182.19999998808,78386.69999998808,79532,80623.30000001192,81781.19999998808,82776,83685.90000000596,84721.90000000596,85926.19999998808,87846.5,88991.19999998808,90031.19999998808,91295.80000001192,92431.59999999404,94582.09999999404,95591.30000001192,96761.30000001192,97911.5,98892.40000000596,100412.09999999404,101485.69999998808,102572.5,103606.40000000596,104780.5,105886,108086.09999999404,109351.19999998808,110616.69999998808,111583.69999998808,112711.30000001192,113671.59999999404,115162.09999999404],"key_events":[],"mouse_events":[6470.199999988079,14986.09999999404,16251.199999988079,17394.59999999404,19126,20341.90000000596,21722.19999998808,22791.5,23562.40000000596,24401.69999998808,26025.59999999404,27462.5,28691.40000000596,29741.5,30561.59999999404,32082.09999999404,33176.69999998808,35325.59999999404,35701.69999998808,36775.19999998808,38044.30000001192,39692.30000001192,40086.5,41440.90000000596,42651.5,46836.19999998808,62145.90000000596,63331.80000001192,64115.80000001192,66881.80000001192,67871.19999998808,69915.90000000596,71171.69999998808,73822.59999999404,74231,74871.69999998808,76045.5,77182.19999998808,78386.69999998808,79532,80623.30000001192,81781.19999998808,82776,83685.90000000596,84721.90000000596,85926.19999998808,86920.69999998808,87846.5,88991.19999998808,90031.19999998808,91295.80000001192,92431.59999999404,94582.09999999404,95591.30000001192,96761.30000001192,97911.5,98892.40000000596,100412.09999999404,101485.69999998808,102572.5,103606.40000000596,104780.5,105886,107684.19999998808,108086.09999999404,109351.19999998808,110616.69999998808,111583.69999998808,112711.30000001192,113671.59999999404,115162.09999999404,116866.90000000596],"honeypot":0,"survey":"mace","page":9,"trial_type":"survey-mace","trial_index":17,"time_elapsed":887318,"internal_node_id":"0.0-17.0","task_version":"prescreen-v0.3","browser_interactions":0},{"responses":{"01":"No","02":"No","03":"No","04":"No","05":"No","06":"Yes","06_ages_17":"17","07":"Yes","07_ages_15":"15","07_ages_16":"16","07_ages_17":"17","07_ages_18":"18","08":"Yes","08_ages_16":"16","08_ages_17":"17","08_ages_18":"18"},"rt":87082,"item_order":[0,1,2,3,4,5,6,7],"radio_events":[4529.200000017881,6445,10419.09999999404,15574.800000011921,21084.80000001192,26458.70000001788,28905.09999999404,39018.80000001192,45284.30000001192],"checkbox_events":[31098.90000000596,52608.80000001192,53624.59999999404,54826.30000001192,63544.59999999404,67346.59999999404,68484.5,70434,75139.5,76305.09999999404],"key_events":[],"mouse_events":[4529.200000017881,6445,9480,10419.09999999404,15574.800000011921,21084.80000001192,26458.70000001788,28905.09999999404,31098.90000000596,36443.80000001192,37508.40000000596,39018.80000001192,45284.30000001192,52608.80000001192,53624.59999999404,54826.30000001192,63544.59999999404,67346.59999999404,68484.5,70102.09999999404,70434,75139.5,76305.09999999404,87075],"honeypot":0,"survey":"mace","page":10,"trial_type":"survey-mace","trial_index":18,"time_elapsed":974405,"internal_node_id":"0.0-18.0","task_version":"prescreen-v0.3","browser_interactions":0,"instructed":0},{"rt":7295.800000011921,"trial_type":"mental-health-alert","trial_index":19,"time_elapsed":981707,"internal_node_id":"0.0-19.0","task_version":"prescreen-v0.3","interactions":"[]"}]