[{"view_history":[{"page_index":0,"viewing_time":3099.199999988079},{"page_index":1,"viewing_time":3750},{"page_index":2,"viewing_time":2591.699999988079},{"page_index":3,"viewing_time":1544.7000000476837}],"rt":10986,"trial_type":"instructions","trial_index":0,"time_elapsed":11000,"internal_node_id":"0.0-0.0","task_version":"prescreen-v0.3"},{"rt":20485.5,"responses":{"age":"54","gender-categorical":"Male","gender-free-response":"","ethnicity":"Not Hispanic or Latino","race":["White"],"education":"Bachelor degree"},"trial_type":"survey-demo","trial_index":1,"time_elapsed":31488,"internal_node_id":"0.0-1.0","task_version":"prescreen-v0.3"},{"responses":{"Q14":"3","Q18":"3","Q04":"3","Q12":"2","Q20":"3","Q11":"1","Q16":"3","Q01":"2","Q09":"2","Q03":"2","Q05":"1","Q02":"2","Q10":"2","Q06":"2","Q19":"2","Q21":"3","Q07":"0","Q15":"3","Q17":"2","Q08":"1","Q13":"3"},"rt":158280.40000003576,"item_order":[13,17,3,11,19,10,15,0,8,2,4,1,9,5,18,20,6,14,16,7,12],"radio_events":[7236.900000035763,12227.600000023842,17588,24094.80000001192,25972,30363.30000001192,33511.200000047684,38923.700000047684,63701.90000003576,64956.40000003576,76622.20000004768,95804.60000002384,108926.30000001192,121742.40000003576,122847.80000001192,126546.90000003576,133557.80000001192,136654.70000004768,139815,144129.30000001192,146695.90000003576,157192.90000003576],"key_events":[],"mouse_events":[7236.900000035763,12227.600000023842,17588,24094.80000001192,25972,30363.30000001192,33511.200000047684,38923.700000047684,63701.90000003576,64956.40000003576,76622.20000004768,95804.60000002384,97759.90000003576,108926.30000001192,121742.40000003576,122847.80000001192,126546.90000003576,133557.80000001192,136654.70000004768,139815,144129.30000001192,146695.90000003576,147935.10000002384,157192.90000003576,158279.30000001192],"straightlining":0.42857142857142855,"zigzagging":0.5,"honeypot":0,"survey":"sns","trial_type":"survey-template","trial_index":2,"time_elapsed":189770,"internal_node_id":"0.0-2.0","task_version":"prescreen-v0.3","browser_interactions":0,"infrequency":0},{"responses":{"Q04":"2","Q12":"0","Q01":"2","Q11":"0","Q07":"3","Q02":"3","Q13":"0","Q09":"0","Q10":"1","Q06":"2","Q05":"3","Q08":"2","Q03":"3"},"rt":59524.69999998808,"item_order":[3,11,0,10,6,1,12,8,9,5,4,7,2],"radio_events":[14207.199999988079,16985.299999952316,24869.299999952316,28705.799999952316,31862.799999952316,34596.39999997616,36372.59999996424,40715.59999996424,45363.5,49571.69999998808,51332.69999998808,54965.39999997616,58483.69999998808],"key_events":[],"mouse_events":[14207.199999988079,16985.299999952316,24869.299999952316,28705.799999952316,31862.799999952316,34596.39999997616,36372.59999996424,40715.59999996424,45363.5,49571.69999998808,51332.69999998808,54965.39999997616,58483.69999998808,59524.09999996424],"straightlining":0.3076923076923077,"zigzagging":0.5833333333333334,"honeypot":0,"survey":"bisbas","trial_type":"survey-template","trial_index":3,"time_elapsed":249296,"internal_node_id":"0.0-3.0","task_version":"prescreen-v0.3","browser_interactions":0,"infrequency":0},{"responses":{"Q01":"1","Q02":"1","Q03":"2"},"rt":41408.19999998808,"radio_events":[15247.399999976158,27680.19999998808,30079.30000001192,39656.39999997616],"key_events":[],"mouse_events":[15247.399999976158,27680.19999998808,30079.30000001192,39656.39999997616,41407.69999998808],"survey":"map","page":1,"trial_type":"survey-map","trial_index":4,"time_elapsed":290706,"internal_node_id":"0.0-4.0","task_version":"prescreen-v0.3","browser_interactions":0},{"responses":{"Q04":"1","Q05":"2","Q06":"1"},"rt":18051.900000035763,"radio_events":[7220.5,11588.400000035763,16269.5],"key_events":[],"mouse_events":[7220.5,11588.400000035763,16269.5,18051.5],"survey":"map","page":2,"trial_type":"survey-map","trial_index":5,"time_elapsed":308759,"internal_node_id":"0.0-5.0","task_version":"prescreen-v0.3","browser_interactions":0},{"responses":{"Q07":"1","Q08":"0","Q09":"1"},"rt":24056.19999998808,"radio_events":[9568.199999988079,12265.099999964237,13071.899999976158,22591.299999952316],"key_events":[],"mouse_events":[9568.199999988079,12265.099999964237,13071.899999976158,22591.299999952316,24055.799999952316],"survey":"map","page":3,"trial_type":"survey-map","trial_index":6,"time_elapsed":332817,"internal_node_id":"0.0-6.0","task_version":"prescreen-v0.3","browser_interactions":0},{"responses":{"Q10":"1","Q11":"1","Q12":"0","Q13":"1","Q16":"0","Q14":"0","Q15":"0"},"rt":55367.89999997616,"radio_events":[5457,13367.199999988079,15816.5,23166.899999976158,36670.39999997616,39894.799999952316,47119.39999997616,50219.39999997616,52526.59999996424],"key_events":[],"mouse_events":[5457,13367.199999988079,15816.5,23166.899999976158,36670.39999997616,39894.799999952316,47119.39999997616,50219.39999997616,52526.59999996424,55367.39999997616],"survey":"map","page":4,"trial_type":"survey-map","trial_index":7,"time_elapsed":388186,"internal_node_id":"0.0-7.0","task_version":"prescreen-v0.3","browser_interactions":0,"infrequency":0},{"view_history":[{"page_index":0,"viewing_time":2164.400000035763},{"page_index":1,"viewing_time":5769.899999976158}],"rt":7934.600000023842,"trial_type":"instructions","trial_index":8,"time_elapsed":396121,"internal_node_id":"0.0-8.0","task_version":"prescreen-v0.3"},{"responses":{"01":"No","02":"Yes","02_ages_1":"1","02_ages_2":"2","02_ages_3":"3","02_ages_4":"4","02_ages_5":"5","02_ages_6":"6","02_ages_7":"7","02_ages_8":"8","02_ages_9":"9","02_ages_10":"10","02_ages_11":"11","02_ages_12":"12","02_ages_13":"13","02_ages_14":"14","02_ages_15":"15","02_ages_16":"16","02_ages_17":"17","02_ages_18":"18","03":"No","04":"Yes","04_ages_18":"18","05":"No","06":"Yes","06_ages_15":"15"},"rt":109841.59999996424,"item_order":[0,1,2,3,4,5],"radio_events":[22420,25322.80000001192,50629.59999996424,60093.39999997616,63850.5,68443],"checkbox_events":[33687.69999998808,34477.80000001192,35037.19999998808,36315.80000001192,37852.39999997616,38860.89999997616,39449.39999997616,40028,40964.30000001192,41805.69999998808,42940.39999997616,43603.09999996424,44243.59999996424,45694.19999998808,46167.5,46663,47181.30000001192,47701.39999997616,61351.59999996424,77294.59999996424,77821,78423.30000001192,79168.30000001192,82461.80000001192,82955.89999997616,83549,84092.89999997616,96627,105215.39999997616,106134.39999997616],"key_events":[],"mouse_events":[0.19999998807907104,22420,25322.80000001192,33687.69999998808,34477.80000001192,35037.19999998808,35677.30000001192,36315.80000001192,37852.39999997616,38860.89999997616,39449.39999997616,40028,40964.30000001192,41805.69999998808,42940.39999997616,43603.09999996424,44243.59999996424,45694.19999998808,46167.5,46663,47181.30000001192,47701.39999997616,50629.59999996424,60093.39999997616,61351.59999996424,63850.5,68443,77294.59999996424,77821,78423.30000001192,79168.30000001192,82461.80000001192,82955.89999997616,83549,84092.89999997616,96627,105215.39999997616,106134.39999997616,109839.39999997616],"honeypot":0,"survey":"mace","page":1,"trial_type":"survey-mace","trial_index":9,"time_elapsed":505965,"internal_node_id":"0.0-9.0","task_version":"prescreen-v0.3","browser_interactions":0},{"responses":{"01":"No","02":"No","03":"Yes","03_ages_4":"4","03_ages_5":"5","03_ages_6":"6","03_ages_7":"7","03_ages_8":"8","03_ages_9":"9","03_ages_10":"10","03_ages_11":"11","03_ages_12":"12","04":"No","05":"No","06":"Yes","06_ages_10":"10","07":"No","08":"No"},"rt":67394.89999997616,"item_order":[0,1,2,3,4,5,6,7],"radio_events":[3058.5,5729.100000023842,7857.600000023842,27018.5,28272.100000023842,58265.80000001192,64897.89999997616,65689.30000001192],"checkbox_events":[11807.600000023842,12275.899999976158,12744.100000023842,13467.699999988079,13964.100000023842,14502.300000011921,14985.600000023842,16944.80000001192,17737.19999998808,60378],"key_events":[],"mouse_events":[3058.5,5729.100000023842,7857.600000023842,11807.600000023842,12275.899999976158,12744.100000023842,13467.699999988079,13964.100000023842,14502.300000011921,14985.600000023842,16944.80000001192,17737.19999998808,27018.5,28272.100000023842,58265.80000001192,60378,64897.89999997616,65689.30000001192,67392.80000001192],"honeypot":0,"survey":"mace","page":2,"trial_type":"survey-mace","trial_index":10,"time_elapsed":573362,"internal_node_id":"0.0-10.0","task_version":"prescreen-v0.3","browser_interactions":0},{"responses":{"01":"No","02":"No","03":"Yes","03_ages_10":"10","04":"No"},"rt":16462.100000023842,"item_order":[0,1,2,3],"radio_events":[2908.400000035763,5980.800000011921,10765.600000023842,15504.600000023842],"checkbox_events":[12142.5],"key_events":[],"mouse_events":[2908.400000035763,5980.800000011921,10765.600000023842,12142.5,15504.600000023842,16460.900000035763],"honeypot":0,"survey":"mace","page":3,"trial_type":"survey-mace","trial_index":11,"time_elapsed":589826,"internal_node_id":"0.0-11.0","task_version":"prescreen-v0.3","browser_interactions":0},{"responses":{"01":"No","02":"No"},"rt":5595.5,"item_order":[0,1],"radio_events":[3707.5,4605.699999988079],"checkbox_events":[],"key_events":[],"mouse_events":[3707.5,4605.699999988079,5594.899999976158],"honeypot":0,"survey":"mace","page":4,"trial_type":"survey-mace","trial_index":12,"time_elapsed":595423,"internal_node_id":"0.0-12.0","task_version":"prescreen-v0.3","browser_interactions":0},{"responses":{"01":"No","02":"No","03":"No","04":"No","05":"No"},"rt":21936.80000001192,"item_order":[0,1,2,3,4],"radio_events":[6991.200000047684,10783.600000023842,13143.400000035763,19849,20582.200000047684],"checkbox_events":[],"key_events":[],"mouse_events":[6991.200000047684,10783.600000023842,13143.400000035763,19849,20582.200000047684,21935.30000001192],"honeypot":0,"survey":"mace","page":5,"trial_type":"survey-mace","trial_index":13,"time_elapsed":617362,"internal_node_id":"0.0-13.0","task_version":"prescreen-v0.3","browser_interactions":0},{"responses":{"01":"Yes","01_ages_5":"5","01_ages_6":"6","01_ages_7":"7","01_ages_8":"8","01_ages_9":"9","01_ages_10":"10","01_ages_11":"11","01_ages_12":"12","01_ages_13":"13","01_ages_14":"14","01_ages_15":"15","01_ages_16":"16","02":"Yes","02_ages_5":"5","02_ages_6":"6","02_ages_7":"7","02_ages_8":"8","02_ages_9":"9","02_ages_10":"10","02_ages_11":"11","02_ages_12":"12","02_ages_13":"13","02_ages_14":"14","02_ages_15":"15","02_ages_16":"16","03":"Yes","03_ages_5":"5","03_ages_6":"6","03_ages_7":"7","03_ages_8":"8","03_ages_9":"9","03_ages_10":"10","03_ages_11":"11","03_ages_12":"12","03_ages_13":"13","03_ages_14":"14","03_ages_15":"15","03_ages_16":"16","04":"Yes","04_ages_5":"5","04_ages_6":"6","04_ages_7":"7","04_ages_8":"8","04_ages_9":"9","04_ages_10":"10","04_ages_11":"11","04_ages_12":"12","04_ages_13":"13","04_ages_14":"14","04_ages_15":"15","04_ages_16":"16","05":"Yes","05_ages_5":"5","05_ages_6":"6","05_ages_7":"7","05_ages_8":"8","05_ages_9":"9","05_ages_10":"10","05_ages_11":"11","05_ages_12":"12","05_ages_13":"13","05_ages_14":"14","05_ages_15":"15","05_ages_16":"16"},"rt":90099.39999997616,"item_order":[0,1,2,3,4],"radio_events":[8924.099999964237,34085.69999998808,47882.59999996424,61454.59999996424,73539.79999995232],"checkbox_events":[12308.599999964237,12795.599999964237,13675.099999964237,14578,15222.199999988079,15987.5,17260.69999998808,18363.69999998808,19780.299999952316,23627.299999952316,25253.599999964237,31236.299999952316,36809,37300.5,38176.19999998808,38815.5,39423.299999952316,39949.39999997616,40892.59999996424,41547.89999997616,42385.89999997616,42894.69999998808,43845.5,44652,50899.89999997616,52100.19999998808,52892.19999998808,53412,53997,54506.89999997616,55376.09999996424,56167.299999952316,56878.69999998808,57549,58287.39999997616,59490.59999996424,63210.89999997616,63724.299999952316,64268.39999997616,64788.89999997616,65318.299999952316,66149.19999998808,66904,67908.69999998808,68518.5,69290.29999995232,69816.59999996424,70532.39999997616,80478.09999996424,80988.19999998808,81622.09999996424,82079.29999995232,82765.39999997616,83243.89999997616,83849.39999997616,84549.09999996424,85285.09999996424,86174.5,87309.89999997616,89378.5],"key_events":[],"mouse_events":[8924.099999964237,12308.599999964237,12795.599999964237,13675.099999964237,14578,15222.199999988079,15987.5,17260.69999998808,18363.69999998808,19780.299999952316,23627.299999952316,25253.599999964237,31236.299999952316,34085.69999998808,36809,37300.5,38176.19999998808,38815.5,39423.299999952316,39949.39999997616,40892.59999996424,41547.89999997616,42385.89999997616,42894.69999998808,43845.5,44652,47882.59999996424,50058.19999998808,50899.89999997616,52100.19999998808,52892.19999998808,53412,53997,54506.89999997616,55376.09999996424,56167.299999952316,56878.69999998808,57549,58287.39999997616,59490.59999996424,61454.59999996424,63210.89999997616,63724.299999952316,64268.39999997616,64788.89999997616,65318.299999952316,66149.19999998808,66904,67908.69999998808,68518.5,69290.29999995232,69816.59999996424,70532.39999997616,73539.79999995232,80478.09999996424,80988.19999998808,81622.09999996424,82079.29999995232,82765.39999997616,83243.89999997616,83849.39999997616,84549.09999996424,85285.09999996424,86174.5,87309.89999997616,89378.5,90098],"honeypot":0,"survey":"mace","page":6,"trial_type":"survey-mace","trial_index":14,"time_elapsed":707463,"internal_node_id":"0.0-14.0","task_version":"prescreen-v0.3","browser_interactions":2},{"responses":{"01":"No","02":"No","03":"Yes","03_ages_7":"7","03_ages_8":"8","04":"No","05":"No","06":"No","07":"No"},"rt":33364.89999997616,"item_order":[0,1,2,3,4,5,6],"radio_events":[4319.5,6590.599999964237,12832.199999988079,27815.69999998808,29408.19999998808,30582.799999952316,31536.899999976158],"checkbox_events":[16279.5,18049.099999964237],"key_events":[],"mouse_events":[4319.5,6590.599999964237,12832.199999988079,16279.5,18049.099999964237,27815.69999998808,29408.19999998808,30582.799999952316,31536.899999976158,33362.39999997616],"honeypot":0,"survey":"mace","page":7,"trial_type":"survey-mace","trial_index":15,"time_elapsed":740830,"internal_node_id":"0.0-15.0","task_version":"prescreen-v0.3","browser_interactions":0},{"responses":{"01":"Yes","01_ages_5":"5","01_ages_6":"6","01_ages_7":"7","01_ages_8":"8","01_ages_9":"9","01_ages_10":"10","01_ages_11":"11","01_ages_12":"12","01_ages_13":"13","01_ages_14":"14","01_ages_15":"15","01_ages_16":"16","01_ages_17":"17","01_ages_18":"18","02":"Yes","02_ages_16":"16","02_ages_17":"17","02_ages_18":"18","03":"Yes","03_ages_5":"5","03_ages_6":"6","03_ages_7":"7","03_ages_8":"8","03_ages_9":"9","03_ages_10":"10","03_ages_11":"11","03_ages_12":"12","03_ages_13":"13","03_ages_14":"14","03_ages_15":"15","03_ages_16":"16","03_ages_17":"17","03_ages_18":"18","04":"No"},"rt":80729.5,"item_order":[0,1,2,3],"radio_events":[8536.699999988079,24528.100000023842,63233.10000002384,79752],"checkbox_events":[11064.199999988079,11576.800000011921,12214.900000035763,12675.800000011921,13386.300000011921,13879.900000035763,14728.900000035763,15583.400000035763,16314.900000035763,17073.600000023842,17632.19999998808,18215.19999998808,18761.600000023842,19513,57063.10000002384,57760.40000003576,59329.30000001192,67271.40000003576,67711.10000002384,68413.90000003576,68872.60000002384,69480.80000001192,70547.69999998808,71211.69999998808,71801,72554.60000002384,73306.19999998808,74051.19999998808,74632.10000002384,75651.90000003576,76536.5],"key_events":[],"mouse_events":[8536.699999988079,11064.199999988079,11576.800000011921,12214.900000035763,12675.800000011921,13386.300000011921,13879.900000035763,14728.900000035763,15583.400000035763,16314.900000035763,17073.600000023842,17632.19999998808,18215.19999998808,18761.600000023842,19513,24528.100000023842,57063.10000002384,57760.40000003576,59329.30000001192,63233.10000002384,67271.40000003576,67711.10000002384,68413.90000003576,68872.60000002384,69480.80000001192,70547.69999998808,71211.69999998808,71801,72554.60000002384,73306.19999998808,74051.19999998808,74632.10000002384,75651.90000003576,76536.5,79752,80728],"honeypot":0,"survey":"mace","page":8,"trial_type":"survey-mace","trial_index":16,"time_elapsed":821561,"internal_node_id":"0.0-16.0","task_version":"prescreen-v0.3","browser_interactions":0},{"responses":{"01":"No","02":"No","03":"No","04":"Yes","04_ages_1":"1","04_ages_2":"2","04_ages_3":"3","04_ages_4":"4","04_ages_5":"5","04_ages_6":"6","04_ages_7":"7","04_ages_8":"8","04_ages_9":"9","04_ages_10":"10","04_ages_11":"11","04_ages_12":"12","04_ages_13":"13","04_ages_14":"14","04_ages_15":"15","04_ages_16":"16","04_ages_17":"17","04_ages_18":"18"},"rt":33927.19999998808,"item_order":[0,1,2,3],"radio_events":[10285.799999952316,13980.099999964237,19044.299999952316,21524.099999964237],"checkbox_events":[22941,23445.799999952316,23908.299999952316,24279.19999998808,24893,25646.599999964237,26188.5,26725.299999952316,27287.69999998808,28183,28764.69999998808,29484.5,30014.19999998808,30636.099999964237,31140.5,31854.099999964237,32390.799999952316,32923.799999952316],"key_events":[],"mouse_events":[10285.799999952316,13980.099999964237,19044.299999952316,21524.099999964237,22941,23445.799999952316,23908.299999952316,24279.19999998808,24893,25646.599999964237,26188.5,26725.299999952316,27287.69999998808,28183,28764.69999998808,29484.5,30014.19999998808,30636.099999964237,31140.5,31854.099999964237,32390.799999952316,32923.799999952316,33926.09999996424],"honeypot":0,"survey":"mace","page":9,"trial_type":"survey-mace","trial_index":17,"time_elapsed":855490,"internal_node_id":"0.0-17.0","task_version":"prescreen-v0.3","browser_interactions":0},{"responses":{"01":"No","02":"No","03":"Yes","03_ages_16":"16","03_ages_17":"17","03_ages_18":"18","04":"No","05":"Yes","05_ages_17":"17","05_ages_18":"18","06":"Yes","06_ages_17":"17","07":"Yes","07_ages_17":"17","07_ages_18":"18","08":"No"},"rt":33343.10000002384,"item_order":[0,1,2,3,4,5,6,7],"radio_events":[1956.699999988079,2956,5674.800000011921,11203.699999988079,13140.900000035763,18901.5,28547.30000001192,32655],"checkbox_events":[8132.199999988079,8827.400000035763,9786.600000023842,16060.5,16563,19992.400000035763,29941.100000023842,30404.600000023842],"key_events":[],"mouse_events":[1956.699999988079,2956,5674.800000011921,8132.199999988079,8827.400000035763,9786.600000023842,11203.699999988079,13140.900000035763,16060.5,16563,18901.5,19992.400000035763,28547.30000001192,29941.100000023842,30404.600000023842,32655,33341.10000002384],"honeypot":0,"survey":"mace","page":10,"trial_type":"survey-mace","trial_index":18,"time_elapsed":888836,"internal_node_id":"0.0-18.0","task_version":"prescreen-v0.3","browser_interactions":0,"instructed":0},{"rt":7061.399999976158,"trial_type":"mental-health-alert","trial_index":19,"time_elapsed":895898,"internal_node_id":"0.0-19.0","task_version":"prescreen-v0.3","interactions":"[{\"event\":\"blur\",\"trial\":14,\"time\":694006},{\"event\":\"focus\",\"trial\":14,\"time\":694121}]"}]