[{"view_history":[{"page_index":0,"viewing_time":2602},{"page_index":1,"viewing_time":2891},{"page_index":2,"viewing_time":2200},{"page_index":3,"viewing_time":1456}],"rt":9150,"trial_type":"instructions","trial_index":0,"time_elapsed":9165,"internal_node_id":"0.0-0.0","task_version":"prescreen-v0.3"},{"rt":12559,"responses":{"age":"21","gender-categorical":"Female","gender-free-response":"","ethnicity":"Not Hispanic or Latino","race":["White"],"education":"Bachelor degree"},"trial_type":"survey-demo","trial_index":1,"time_elapsed":21733,"internal_node_id":"0.0-1.0","task_version":"prescreen-v0.3"},{"responses":{"Q20":"3","Q17":"1","Q05":"1","Q21":"3","Q19":"1","Q09":"0","Q04":"2","Q15":"2","Q11":"1","Q18":"2","Q03":"1","Q01":"3","Q16":"3","Q10":"2","Q14":"3","Q13":"2","Q07":"0","Q08":"0","Q12":"0","Q06":"1","Q02":"1"},"rt":71906,"item_order":[19,16,4,20,18,8,3,14,10,17,2,0,15,9,13,12,6,7,11,5,1],"radio_events":[3238,8820,13600,16168,20782,23282,30081,34475,37273,40856,42161,45762,47979,50657,53550,56435,60531,62487,65295,67885,71243],"key_events":[],"mouse_events":[2805,3238,8230,8820,13600,16168,20782,23282,29671,30081,34475,37273,39566,40390,40856,42161,45762,47979,50263,50657,53550,56083,56435,60531,62487,65295,67885,71243,71906],"straightlining":0.3333333333333333,"zigzagging":0.4,"honeypot":0,"survey":"sns","trial_type":"survey-template","trial_index":2,"time_elapsed":93645,"internal_node_id":"0.0-2.0","task_version":"prescreen-v0.3","browser_interactions":0,"infrequency":0},{"responses":{"Q01":"3","Q13":"0","Q09":"3","Q03":"3","Q06":"3","Q07":"2","Q11":"2","Q08":"3","Q12":"2","Q02":"3","Q10":"2","Q04":"3","Q05":"3"},"rt":38942,"item_order":[0,12,8,2,5,6,10,7,11,1,9,3,4],"radio_events":[2682,4796,7743,10313,14967,19070,24469,26687,30499,32298,34081,36739,38217],"key_events":[],"mouse_events":[2682,4796,7743,10313,12191,14967,17545,19070,24469,26687,30189,30499,32298,34081,36739,38217,38942],"straightlining":0.6153846153846154,"zigzagging":0.6666666666666666,"honeypot":0,"survey":"bisbas","trial_type":"survey-template","trial_index":3,"time_elapsed":132593,"internal_node_id":"0.0-3.0","task_version":"prescreen-v0.3","browser_interactions":0,"infrequency":0},{"responses":{"Q01":"3","Q02":"2","Q03":"3"},"rt":12105,"radio_events":[5937,7269,10097],"key_events":[],"mouse_events":[5937,7269,10097,12105],"survey":"map","page":1,"trial_type":"survey-map","trial_index":4,"time_elapsed":144704,"internal_node_id":"0.0-4.0","task_version":"prescreen-v0.3","browser_interactions":0},{"responses":{"Q04":"3","Q05":"3","Q06":"3"},"rt":10226,"radio_events":[4425,6367,9737],"key_events":[],"mouse_events":[4425,6367,9737,10225],"survey":"map","page":2,"trial_type":"survey-map","trial_index":5,"time_elapsed":154934,"internal_node_id":"0.0-5.0","task_version":"prescreen-v0.3","browser_interactions":0},{"responses":{"Q07":"4","Q08":"0","Q09":"4"},"rt":12506,"radio_events":[4070,7599,10437],"key_events":[],"mouse_events":[4070,7599,9879,10437,11603,12506],"survey":"map","page":3,"trial_type":"survey-map","trial_index":6,"time_elapsed":167442,"internal_node_id":"0.0-6.0","task_version":"prescreen-v0.3","browser_interactions":0},{"responses":{"Q10":"2","Q11":"2","Q12":"2","Q13":"3","Q16":"0","Q14":"3","Q15":"3"},"rt":22270,"radio_events":[3249,5135,8696,12436,16264,19737,21741],"key_events":[],"mouse_events":[3249,5135,8402,8696,12436,16264,19737,21741,22269],"survey":"map","page":4,"trial_type":"survey-map","trial_index":7,"time_elapsed":189715,"internal_node_id":"0.0-7.0","task_version":"prescreen-v0.3","browser_interactions":0,"infrequency":0},{"view_history":[{"page_index":0,"viewing_time":1538},{"page_index":1,"viewing_time":2971}],"rt":4509,"trial_type":"instructions","trial_index":8,"time_elapsed":194226,"internal_node_id":"0.0-8.0","task_version":"prescreen-v0.3"},{"responses":{"01":"Yes","01_ages_11":"11","01_ages_12":"12","01_ages_13":"13","01_ages_14":"14","01_ages_15":"15","01_ages_16":"16","01_ages_17":"17","01_ages_18":"18","02":"Yes","02_ages_7":"7","02_ages_8":"8","02_ages_9":"9","02_ages_10":"10","02_ages_11":"11","02_ages_12":"12","02_ages_13":"13","02_ages_14":"14","02_ages_15":"15","02_ages_16":"16","02_ages_17":"17","02_ages_18":"18","03":"Yes","03_ages_11":"11","03_ages_12":"12","03_ages_17":"17","03_ages_18":"18","04":"No","05":"No","06":"No"},"rt":45353,"item_order":[0,1,2,3,4,5],"radio_events":[6562,19224,31393,38176,39157,44164],"checkbox_events":[12575,12991,13601,14029,14515,15410,15788,16126,21843,22236,22603,23021,23389,23738,24089,24498,25125,25999,26346,26771,32265,32633,34193,34685],"key_events":[],"mouse_events":[1,6562,12575,12991,13601,14029,14515,14894,15410,15788,16126,19224,21843,22236,22603,23021,23389,23738,24089,24498,25125,25999,26346,26771,31393,32265,32633,34193,34685,38176,39157,44164,45352],"honeypot":0,"survey":"mace","page":1,"trial_type":"survey-mace","trial_index":9,"time_elapsed":239600,"internal_node_id":"0.0-9.0","task_version":"prescreen-v0.3","browser_interactions":0},{"responses":{"01":"No","02":"No","03":"No","04":"No","05":"No","06":"No","07":"No","08":"No"},"rt":15774,"item_order":[0,1,2,3,4,5,6,7],"radio_events":[3319,5893,7583,9177,12086,12942,14334,15214],"checkbox_events":[],"key_events":[],"mouse_events":[3319,5893,7583,9177,11496,12086,12942,14334,15214,15774],"honeypot":0,"survey":"mace","page":2,"trial_type":"survey-mace","trial_index":10,"time_elapsed":255397,"internal_node_id":"0.0-10.0","task_version":"prescreen-v0.3","browser_interactions":0},{"responses":{"01":"No","02":"No","03":"No","04":"No"},"rt":6115,"item_order":[0,1,2,3],"radio_events":[2498,3778,4549,5546],"checkbox_events":[],"key_events":[],"mouse_events":[2498,3778,4549,5546,6115],"honeypot":0,"survey":"mace","page":3,"trial_type":"survey-mace","trial_index":11,"time_elapsed":261519,"internal_node_id":"0.0-11.0","task_version":"prescreen-v0.3","browser_interactions":0},{"responses":{"01":"No","02":"No"},"rt":7986,"item_order":[0,1],"radio_events":[5774,7269],"checkbox_events":[],"key_events":[],"mouse_events":[5774,6780,7269,7985],"honeypot":0,"survey":"mace","page":4,"trial_type":"survey-mace","trial_index":12,"time_elapsed":269513,"internal_node_id":"0.0-12.0","task_version":"prescreen-v0.3","browser_interactions":0},{"responses":{"01":"Yes","01_ages_11":"11","01_ages_12":"12","02":"No","03":"No","04":"No","05":"No"},"rt":30946,"item_order":[0,1,2,3,4],"radio_events":[8942,16158,18602,22042,23554],"checkbox_events":[10585,12313],"key_events":[],"mouse_events":[8942,10585,12313,16158,18602,22042,23554,30946],"honeypot":0,"survey":"mace","page":5,"trial_type":"survey-mace","trial_index":13,"time_elapsed":300470,"internal_node_id":"0.0-13.0","task_version":"prescreen-v0.3","browser_interactions":0},{"responses":{"01":"No","02":"Yes","02_ages_12":"12","02_ages_13":"13","02_ages_14":"14","03":"Yes","03_ages_12":"12","03_ages_13":"13","03_ages_14":"14","03_ages_15":"15","04":"No","05":"Yes","05_ages_15":"15","05_ages_16":"16","05_ages_17":"17"},"rt":38124,"item_order":[0,1,2,3,4],"radio_events":[5801,11035,25743,31717,32430],"checkbox_events":[22403,22944,23471,26490,26803,27149,27599,34735,35353,35732],"key_events":[],"mouse_events":[5801,11035,22403,22944,23471,25743,26490,26803,27149,27599,30561,31717,32430,34735,35353,35732,38124],"honeypot":0,"survey":"mace","page":6,"trial_type":"survey-mace","trial_index":14,"time_elapsed":338607,"internal_node_id":"0.0-14.0","task_version":"prescreen-v0.3","browser_interactions":0},{"responses":{"01":"No","02":"Yes","02_ages_15":"15","02_ages_16":"16","02_ages_17":"17","02_ages_18":"18","03":"No","04":"No","05":"No","06":"Yes","06_ages_15":"15","06_ages_16":"16","06_ages_17":"17","07":"Yes","07_ages_15":"15","07_ages_16":"16","07_ages_17":"17"},"rt":29886,"item_order":[0,1,2,3,4,5,6],"radio_events":[3676,5092,10875,12040,14202,17155,23428],"checkbox_events":[7104,8958,9609,10253,18123,18594,19026,24432,24880,25715,26037,29150],"key_events":[],"mouse_events":[3676,5092,7104,7448,7857,8628,8958,9609,9980,10253,10875,12040,13462,14202,17155,18123,18594,19026,19426,23428,24432,24880,25715,26037,26375,29150,29886],"honeypot":0,"survey":"mace","page":7,"trial_type":"survey-mace","trial_index":15,"time_elapsed":368503,"internal_node_id":"0.0-15.0","task_version":"prescreen-v0.3","browser_interactions":0},{"responses":{"01":"No","02":"Yes","02_ages_9":"9","02_ages_10":"10","02_ages_11":"11","02_ages_12":"12","02_ages_13":"13","02_ages_14":"14","02_ages_15":"15","02_ages_16":"16","02_ages_17":"17","02_ages_18":"18","03":"Yes","03_ages_6":"6","03_ages_7":"7","03_ages_8":"8","03_ages_9":"9","03_ages_10":"10","03_ages_11":"11","03_ages_12":"12","03_ages_13":"13","03_ages_14":"14","03_ages_15":"15","03_ages_16":"16","03_ages_17":"17","03_ages_18":"18","04":"Yes","04_ages_12":"12","04_ages_13":"13","04_ages_14":"14","04_ages_15":"15","04_ages_16":"16","04_ages_17":"17","04_ages_18":"18"},"rt":42256,"item_order":[0,1,2,3],"radio_events":[6860,11101,27657,36646],"checkbox_events":[21325,22025,22676,23249,23635,24316,24672,25057,25409,25771,29481,29841,30211,30573,30919,31767,32188,32579,32964,33404,33790,34143,34581,38865,39194,39545,40162,40726,41120,41732],"key_events":[],"mouse_events":[5313,6860,11101,21325,21676,22025,22392,22676,23249,23635,23995,24316,24672,25057,25409,25771,27657,29481,29841,30211,30573,30919,31274,31767,32188,32579,32964,33404,33790,34143,34581,36646,38865,39194,39545,40162,40726,41120,41465,41732,42255],"honeypot":0,"survey":"mace","page":8,"trial_type":"survey-mace","trial_index":16,"time_elapsed":410767,"internal_node_id":"0.0-16.0","task_version":"prescreen-v0.3","browser_interactions":0},{"responses":{"01":"Yes","01_ages_1":"1","01_ages_2":"2","01_ages_3":"3","01_ages_4":"4","01_ages_5":"5","01_ages_6":"6","01_ages_7":"7","01_ages_8":"8","01_ages_9":"9","01_ages_10":"10","01_ages_11":"11","01_ages_12":"12","01_ages_13":"13","01_ages_14":"14","01_ages_15":"15","01_ages_16":"16","01_ages_17":"17","01_ages_18":"18","02":"Yes","02_ages_1":"1","02_ages_2":"2","02_ages_3":"3","02_ages_4":"4","02_ages_5":"5","02_ages_6":"6","02_ages_7":"7","02_ages_8":"8","02_ages_9":"9","02_ages_10":"10","02_ages_11":"11","02_ages_12":"12","02_ages_13":"13","02_ages_14":"14","02_ages_15":"15","02_ages_16":"16","02_ages_17":"17","02_ages_18":"18","03":"Yes","03_ages_1":"1","03_ages_2":"2","03_ages_3":"3","03_ages_4":"4","03_ages_5":"5","03_ages_6":"6","03_ages_7":"7","03_ages_8":"8","03_ages_9":"9","03_ages_10":"10","03_ages_11":"11","03_ages_12":"12","03_ages_13":"13","03_ages_14":"14","03_ages_15":"15","03_ages_16":"16","03_ages_17":"17","03_ages_18":"18","04":"Yes","04_ages_1":"1","04_ages_2":"2","04_ages_3":"3","04_ages_4":"4","04_ages_5":"5","04_ages_6":"6","04_ages_7":"7","04_ages_8":"8","04_ages_9":"9","04_ages_10":"10","04_ages_11":"11","04_ages_12":"12","04_ages_13":"13","04_ages_14":"14","04_ages_15":"15","04_ages_16":"16","04_ages_17":"17","04_ages_18":"18"},"rt":56379,"item_order":[0,1,2,3],"radio_events":[3476,16906,31744,45740],"checkbox_events":[5418,6430,7682,7995,8632,8994,9582,9962,10331,10806,11162,11540,11901,12252,13409,13764,14202,14648,18046,18511,18997,20082,20522,21023,21385,21725,22477,22886,23236,23593,24279,24884,25221,25652,26044,26408,32821,33444,34048,34715,35124,35982,36389,36907,37434,38172,38597,38998,39611,40492,40846,41223,41600,42274,46591,47802,48170,49325,49674,50639,50992,51652,52030,52405,52885,53295,53663,54261,54718,55195,55558,55912],"key_events":[],"mouse_events":[3476,5418,6430,6816,7682,7995,8371,8632,8994,9582,9962,10331,10806,11162,11540,11901,12252,12993,13409,13764,14202,14648,16537,16906,18046,18511,18997,19446,20082,20522,21023,21385,21725,22117,22477,22886,23236,23593,24019,24279,24884,25221,25652,26044,26408,31744,32821,33175,33444,33788,34048,34401,34715,35124,35982,36389,36907,37434,37852,38172,38597,38998,39611,40036,40492,40846,41223,41600,42274,45334,45740,46591,47802,48170,49325,49674,49994,50639,50992,51652,52030,52405,52885,53295,53663,54261,54718,55195,55558,55912,56379],"honeypot":0,"survey":"mace","page":9,"trial_type":"survey-mace","trial_index":17,"time_elapsed":467155,"internal_node_id":"0.0-17.0","task_version":"prescreen-v0.3","browser_interactions":0},{"responses":{"01":"No","02":"No","03":"No","04":"No","05":"Yes","05_ages_11":"11","05_ages_12":"12","05_ages_13":"13","05_ages_14":"14","05_ages_15":"15","05_ages_16":"16","05_ages_17":"17","05_ages_18":"18","06":"Yes","06_ages_17":"17","07":"No","08":"No"},"rt":27895,"item_order":[0,1,2,3,4,5,6,7],"radio_events":[2587,3712,5227,8895,10768,13361,21915,26218,27207],"checkbox_events":[15586,15971,16622,16936,18195,18524,19522,19900,23404],"key_events":[],"mouse_events":[2587,3712,5227,8895,10768,13361,15586,15971,16331,16622,16936,17306,18195,18524,19522,19900,21915,23404,26218,27207,27895],"honeypot":0,"survey":"mace","page":10,"trial_type":"survey-mace","trial_index":18,"time_elapsed":495063,"internal_node_id":"0.0-18.0","task_version":"prescreen-v0.3","browser_interactions":0,"instructed":0},{"rt":3911,"trial_type":"mental-health-alert","trial_index":19,"time_elapsed":498978,"internal_node_id":"0.0-19.0","task_version":"prescreen-v0.3","interactions":"[{\"event\":\"focus\",\"trial\":0,\"time\":2}]"}]