[{"view_history":[{"page_index":0,"viewing_time":1905.7999999523163},{"page_index":1,"viewing_time":2726.2000000476837},{"page_index":2,"viewing_time":3884.699999809265},{"page_index":3,"viewing_time":1042.5}],"rt":9560.699999809265,"trial_type":"instructions","trial_index":0,"time_elapsed":9576,"internal_node_id":"0.0-0.0","task_version":"prescreen-v0.3"},{"rt":17268.799999952316,"responses":{"age":"21","gender-categorical":"Female","gender-free-response":"","ethnicity":"Not Hispanic or Latino","race":["Asian"],"education":"Some college"},"trial_type":"survey-demo","trial_index":1,"time_elapsed":26856,"internal_node_id":"0.0-1.0","task_version":"prescreen-v0.3"},{"responses":{"Q16":"2","Q20":"1","Q15":"2","Q01":"1","Q13":"1","Q02":"0","Q17":"0","Q06":"1","Q05":"1","Q04":"1","Q07":"0","Q10":"0","Q21":"3","Q08":"1","Q09":"1","Q19":"0","Q11":"0","Q14":"1","Q03":"0","Q12":"0","Q18":"0"},"rt":112149.40000009537,"item_order":[15,19,14,0,12,1,16,5,4,3,6,9,20,7,8,18,10,13,2,11,17],"radio_events":[38957.10000014305,41439.300000190735,47580.60000014305,49470,51593.10000014305,55525.90000009537,57030.700000047684,61679.40000009537,67231.10000014305,70152.30000019073,73883.30000019073,76284,80135.5,85438.20000004768,89329.70000004768,94336.10000014305,97533.40000009537,99099.70000004768,100976.30000019073,104202.40000009537,105220.20000004768,109063.20000004768,110972.10000014305],"key_events":[],"mouse_events":[38957.10000014305,41439.300000190735,47580.60000014305,49470,51593.10000014305,55525.90000009537,57030.700000047684,61679.40000009537,67231.10000014305,70152.30000019073,73883.30000019073,76284,80135.5,85438.20000004768,89329.70000004768,94336.10000014305,97533.40000009537,99099.70000004768,100976.30000019073,104202.40000009537,105220.20000004768,109063.20000004768,110972.10000014305,112144],"straightlining":0.42857142857142855,"zigzagging":0.5,"honeypot":0,"survey":"sns","trial_type":"survey-template","trial_index":2,"time_elapsed":139019,"internal_node_id":"0.0-2.0","task_version":"prescreen-v0.3","browser_interactions":2,"infrequency":0},{"responses":{"Q05":"3","Q01":"3","Q11":"2","Q04":"3","Q10":"2","Q08":"2","Q06":"2","Q02":"2","Q07":"2","Q03":"3","Q09":"2","Q12":"1","Q13":"0"},"rt":64701.39999985695,"item_order":[4,0,10,3,9,7,5,1,6,2,8,11,12],"radio_events":[19177.39999985695,21005,24712.599999904633,30741,31646.39999985695,33626,36211.699999809265,42139.699999809265,48976.799999952316,51525.199999809265,55088.5,59093.39999985695,61880.59999990463],"key_events":[],"mouse_events":[19177.39999985695,21005,24712.599999904633,27811.199999809265,30741,31646.39999985695,33626,36211.699999809265,42139.699999809265,48976.799999952316,51525.199999809265,55088.5,59093.39999985695,61880.59999990463,64698.799999952316],"straightlining":0.5384615384615384,"zigzagging":0.5833333333333334,"honeypot":0,"survey":"bisbas","trial_type":"survey-template","trial_index":3,"time_elapsed":203727,"internal_node_id":"0.0-3.0","task_version":"prescreen-v0.3","browser_interactions":0,"infrequency":0},{"responses":{"Q01":"2","Q02":"3","Q03":"2"},"rt":13212.300000190735,"radio_events":[3644.300000190735,8887.600000143051,11998.800000190735],"key_events":[],"mouse_events":[3644.300000190735,8887.600000143051,11998.800000190735,13211.100000143051],"survey":"map","page":1,"trial_type":"survey-map","trial_index":4,"time_elapsed":216946,"internal_node_id":"0.0-4.0","task_version":"prescreen-v0.3","browser_interactions":0},{"responses":{"Q04":"1","Q05":"1","Q06":"1"},"rt":14019.900000095367,"radio_events":[5747,7236.400000095367,10294.299999952316,11793.299999952316],"key_events":[],"mouse_events":[5747,7236.400000095367,10294.299999952316,11793.299999952316,14018.200000047684],"survey":"map","page":2,"trial_type":"survey-map","trial_index":5,"time_elapsed":230971,"internal_node_id":"0.0-5.0","task_version":"prescreen-v0.3","browser_interactions":0},{"responses":{"Q07":"3","Q08":"0","Q09":"3"},"rt":15322.700000047684,"radio_events":[4672.300000190735,10039.5,14479.200000047684],"key_events":[],"mouse_events":[4672.300000190735,10039.5,14479.200000047684,15321.100000143051],"survey":"map","page":3,"trial_type":"survey-map","trial_index":6,"time_elapsed":246297,"internal_node_id":"0.0-6.0","task_version":"prescreen-v0.3","browser_interactions":0},{"responses":{"Q10":"2","Q11":"2","Q12":"2","Q13":"2","Q16":"0","Q14":"1","Q15":"2"},"rt":29584.800000190735,"radio_events":[5797.300000190735,7259.900000095367,11059.100000143051,12826.700000047684,16437.300000190735,22675.300000190735,28604.5],"key_events":[],"mouse_events":[5797.300000190735,7259.900000095367,11059.100000143051,12826.700000047684,16437.300000190735,22675.300000190735,28604.5,29582.200000047684],"survey":"map","page":4,"trial_type":"survey-map","trial_index":7,"time_elapsed":275889,"internal_node_id":"0.0-7.0","task_version":"prescreen-v0.3","browser_interactions":0,"infrequency":0},{"view_history":[{"page_index":0,"viewing_time":2565.7999999523163},{"page_index":1,"viewing_time":2704.2999999523163}],"rt":5271.599999904633,"trial_type":"instructions","trial_index":8,"time_elapsed":281167,"internal_node_id":"0.0-8.0","task_version":"prescreen-v0.3"},{"responses":{"01":"No","02":"No","03":"No","04":"No","05":"No","06":"No"},"rt":14976.700000047684,"item_order":[0,1,2,3,4,5],"radio_events":[8245.900000095367,9400.5,10775.5,11784.900000095367,12657.799999952316,14016.600000143051],"checkbox_events":[],"key_events":[],"mouse_events":[0.2999999523162842,8245.900000095367,9400.5,10775.5,11784.900000095367,12657.799999952316,14016.600000143051,14971.200000047684],"honeypot":0,"survey":"mace","page":1,"trial_type":"survey-mace","trial_index":9,"time_elapsed":296164,"internal_node_id":"0.0-9.0","task_version":"prescreen-v0.3","browser_interactions":0},{"responses":{"01":"No","02":"No","03":"No","04":"No","05":"No","06":"No","07":"No","08":"No"},"rt":10657.100000143051,"item_order":[0,1,2,3,4,5,6,7],"radio_events":[1767.7000000476837,2607.800000190735,3478.9000000953674,5723.100000143051,7208.200000047684,8163.5,8981,9871.700000047684],"checkbox_events":[],"key_events":[],"mouse_events":[1767.7000000476837,2607.800000190735,3478.9000000953674,5723.100000143051,7208.200000047684,8163.5,8981,9871.700000047684,10649.200000047684],"honeypot":0,"survey":"mace","page":2,"trial_type":"survey-mace","trial_index":10,"time_elapsed":306831,"internal_node_id":"0.0-10.0","task_version":"prescreen-v0.3","browser_interactions":0},{"responses":{"01":"No","02":"No","03":"No","04":"No"},"rt":5041.900000095367,"item_order":[0,1,2,3],"radio_events":[1681.1000001430511,2465.4000000953674,3339.4000000953674,4261.900000095367],"checkbox_events":[],"key_events":[],"mouse_events":[1681.1000001430511,2465.4000000953674,3339.4000000953674,4261.900000095367,5036.100000143051],"honeypot":0,"survey":"mace","page":3,"trial_type":"survey-mace","trial_index":11,"time_elapsed":311879,"internal_node_id":"0.0-11.0","task_version":"prescreen-v0.3","browser_interactions":0},{"responses":{"01":"No","02":"No"},"rt":4956.700000047684,"item_order":[0,1],"radio_events":[2818,4169],"checkbox_events":[],"key_events":[],"mouse_events":[2818,4169,4954.299999952316],"honeypot":0,"survey":"mace","page":4,"trial_type":"survey-mace","trial_index":12,"time_elapsed":316840,"internal_node_id":"0.0-12.0","task_version":"prescreen-v0.3","browser_interactions":0},{"responses":{"01":"No","02":"No","03":"No","04":"No","05":"No"},"rt":10930.300000190735,"item_order":[0,1,2,3,4],"radio_events":[5167.200000047684,6185.5,7290.800000190735,8381.200000047684,9522.400000095367],"checkbox_events":[],"key_events":[],"mouse_events":[5167.200000047684,6185.5,7290.800000190735,8381.200000047684,9522.400000095367,10925],"honeypot":0,"survey":"mace","page":5,"trial_type":"survey-mace","trial_index":13,"time_elapsed":327777,"internal_node_id":"0.0-13.0","task_version":"prescreen-v0.3","browser_interactions":0},{"responses":{"01":"No","02":"No","03":"No","04":"No","05":"No"},"rt":5713.800000190735,"item_order":[0,1,2,3,4],"radio_events":[1672.4000000953674,2433.7000000476837,3056,3633.100000143051,4346.200000047684],"checkbox_events":[],"key_events":[],"mouse_events":[1672.4000000953674,2433.7000000476837,3056,3633.100000143051,4346.200000047684,5708.600000143051],"honeypot":0,"survey":"mace","page":6,"trial_type":"survey-mace","trial_index":14,"time_elapsed":333496,"internal_node_id":"0.0-14.0","task_version":"prescreen-v0.3","browser_interactions":0},{"responses":{"01":"No","02":"No","03":"No","04":"No","05":"No","06":"No","07":"No"},"rt":11020.400000095367,"item_order":[0,1,2,3,4,5,6],"radio_events":[1460,2709.5,5445.200000047684,7370,8091,8860.900000095367,9962.5],"checkbox_events":[],"key_events":[],"mouse_events":[1460,2709.5,3447.2999999523163,4296.099999904633,5445.200000047684,6342.700000047684,7370,8091,8860.900000095367,9962.5,11012.599999904633],"honeypot":0,"survey":"mace","page":7,"trial_type":"survey-mace","trial_index":15,"time_elapsed":344523,"internal_node_id":"0.0-15.0","task_version":"prescreen-v0.3","browser_interactions":0},{"responses":{"01":"No","02":"No","03":"No","04":"No"},"rt":14945.600000143051,"item_order":[0,1,2,3],"radio_events":[4127.299999952316,6588,11400.200000047684,12734.5],"checkbox_events":[],"key_events":[],"mouse_events":[4127.299999952316,5176.200000047684,6588,10599.100000143051,11400.200000047684,12734.5,14940],"honeypot":0,"survey":"mace","page":8,"trial_type":"survey-mace","trial_index":16,"time_elapsed":359473,"internal_node_id":"0.0-16.0","task_version":"prescreen-v0.3","browser_interactions":0},{"responses":{"01":"Yes","01_ages_1":"1","01_ages_2":"2","01_ages_3":"3","01_ages_4":"4","01_ages_5":"5","01_ages_6":"6","01_ages_7":"7","01_ages_8":"8","01_ages_9":"9","01_ages_10":"10","01_ages_11":"11","01_ages_12":"12","01_ages_13":"13","01_ages_14":"14","01_ages_15":"15","01_ages_16":"16","01_ages_17":"17","01_ages_18":"18","02":"Yes","02_ages_1":"1","02_ages_2":"2","02_ages_3":"3","02_ages_4":"4","02_ages_5":"5","02_ages_6":"6","02_ages_7":"7","02_ages_8":"8","02_ages_9":"9","02_ages_10":"10","02_ages_11":"11","02_ages_12":"12","02_ages_13":"13","02_ages_14":"14","02_ages_15":"15","02_ages_16":"16","02_ages_17":"17","02_ages_18":"18","03":"Yes","03_ages_1":"1","03_ages_2":"2","03_ages_3":"3","03_ages_4":"4","03_ages_5":"5","03_ages_6":"6","03_ages_7":"7","03_ages_8":"8","03_ages_9":"9","03_ages_10":"10","03_ages_11":"11","03_ages_12":"12","03_ages_13":"13","03_ages_14":"14","03_ages_15":"15","03_ages_16":"16","03_ages_17":"17","03_ages_18":"18","04":"Yes","04_ages_1":"1","04_ages_2":"2","04_ages_3":"3","04_ages_4":"4","04_ages_5":"5","04_ages_6":"6","04_ages_7":"7","04_ages_8":"8","04_ages_9":"9","04_ages_10":"10","04_ages_11":"11","04_ages_12":"12","04_ages_13":"13","04_ages_14":"14","04_ages_15":"15","04_ages_16":"16","04_ages_17":"17","04_ages_18":"18"},"rt":81982.70000004768,"item_order":[0,1,2,3],"radio_events":[4909.299999952316,31732.799999952316,33829.700000047684,34919.799999952316],"checkbox_events":[14951.600000143051,15688.299999952316,16337.900000095367,16962.900000095367,17563.60000014305,18214.299999952316,19051.700000047684,20063.700000047684,22361.700000047684,23808.60000014305,24714.799999952316,25444.5,26029.299999952316,26758.60000014305,27528.400000095367,28286.10000014305,29007,29680.10000014305,38258.5,40230.299999952316,41224.299999952316,41694.10000014305,42143.200000047684,42912.60000014305,43592.40000009537,44169.700000047684,44714.60000014305,45488.299999952316,46131.10000014305,46772.60000014305,47344.700000047684,47870.90000009537,48420.10000014305,48997.200000047684,49558.40000009537,50070.799999952316,50656.700000047684,51369.40000009537,52423.700000047684,53378.5,53851.60000014305,54299.799999952316,56323.299999952316,57382.700000047684,58164.40000009537,59166,59879.60000014305,60504.60000014305,61012.90000009537,61881.10000014305,62889.5,63402.299999952316,63944.299999952316,64504.700000047684,65178.10000014305,65699,67578.79999995232,69110.29999995232,69915.79999995232,70765.60000014305,71566.60000014305,72408,73166.70000004768,73944.29999995232,74657.79999995232,75291.10000014305,75904.70000004768,76578,77347.40000009537,78052.90000009537,78778.29999995232,79604.10000014305,80413.70000004768,81270.79999995232],"key_events":[],"mouse_events":[4909.299999952316,14951.600000143051,15688.299999952316,16337.900000095367,16962.900000095367,17563.60000014305,18214.299999952316,19051.700000047684,20063.700000047684,22361.700000047684,23808.60000014305,24714.799999952316,25444.5,26029.299999952316,26758.60000014305,27528.400000095367,28286.10000014305,29007,29680.10000014305,31732.799999952316,33829.700000047684,34919.799999952316,38258.5,39989.60000014305,40230.299999952316,41224.299999952316,41694.10000014305,42143.200000047684,42512.60000014305,42912.60000014305,43592.40000009537,44169.700000047684,44714.60000014305,45488.299999952316,46131.10000014305,46772.60000014305,47344.700000047684,47870.90000009537,48420.10000014305,48997.200000047684,49558.40000009537,50070.799999952316,50656.700000047684,51369.40000009537,52423.700000047684,52841.799999952316,53378.5,53851.60000014305,54299.799999952316,55138.200000047684,56323.299999952316,57382.700000047684,58164.40000009537,58621.200000047684,59166,59879.60000014305,60504.60000014305,61012.90000009537,61423,61881.10000014305,62889.5,63402.299999952316,63944.299999952316,64504.700000047684,65178.10000014305,65699,67578.79999995232,68324.29999995232,69110.29999995232,69915.79999995232,70765.60000014305,71566.60000014305,72408,73166.70000004768,73944.29999995232,74657.79999995232,75291.10000014305,75904.70000004768,76578,77347.40000009537,78052.90000009537,78778.29999995232,79604.10000014305,80413.70000004768,81270.79999995232,81980.40000009537],"honeypot":0,"survey":"mace","page":9,"trial_type":"survey-mace","trial_index":17,"time_elapsed":441463,"internal_node_id":"0.0-17.0","task_version":"prescreen-v0.3","browser_interactions":0},{"responses":{"01":"No","02":"No","03":"No","04":"No","05":"No","06":"Yes","06_ages_17":"17","07":"Yes","07_ages_1":"1","07_ages_2":"2","07_ages_3":"3","07_ages_4":"4","07_ages_5":"5","07_ages_6":"6","07_ages_7":"7","07_ages_8":"8","07_ages_9":"9","07_ages_10":"10","07_ages_11":"11","07_ages_12":"12","07_ages_13":"13","07_ages_14":"14","07_ages_15":"15","07_ages_16":"16","07_ages_17":"17","07_ages_18":"18","08":"Yes","08_ages_1":"1","08_ages_2":"2","08_ages_3":"3","08_ages_4":"4","08_ages_5":"5","08_ages_6":"6","08_ages_7":"7","08_ages_8":"8","08_ages_9":"9","08_ages_10":"10","08_ages_11":"11","08_ages_12":"12","08_ages_13":"13","08_ages_14":"14","08_ages_15":"15","08_ages_16":"16","08_ages_17":"17","08_ages_18":"18"},"rt":48069.89999985695,"item_order":[0,1,2,3,4,5,6,7],"radio_events":[1868.7999999523163,2824.2999999523163,4028.5,5535.199999809265,6677.5,9655.199999809265,14845,16773.299999952316],"checkbox_events":[11523,18653.099999904633,19181.199999809265,19791.599999904633,20912.299999952316,22014.699999809265,22608.89999985695,23106,23643.099999904633,24095.89999985695,24673.099999904633,25210.299999952316,25771.299999952316,26220.799999952316,26710.099999904633,27202.699999809265,27715.89999985695,28164.599999904633,28837.5,31241.89999985695,31750.299999952316,33001.799999952316,33466.89999985695,33932.59999990463,34036,34548.89999985695,35430.299999952316,36042.39999985695,36676.199999809265,38848.699999809265,39910.199999809265,40149.89999985695,40661.799999952316,41383.799999952316,42058.39999985695,42676.09999990463,43882.199999809265,44666.59999990463,45461.89999985695,46663.799999952316,47305.299999952316],"key_events":[],"mouse_events":[1868.7999999523163,2824.2999999523163,4028.5,5535.199999809265,6677.5,9655.199999809265,10624.5,11523,14845,16773.299999952316,18653.099999904633,19181.199999809265,19791.599999904633,20335.39999985695,20912.299999952316,21494.699999809265,22014.699999809265,22608.89999985695,23106,23643.099999904633,24095.89999985695,24673.099999904633,25210.299999952316,25771.299999952316,26220.799999952316,26710.099999904633,27202.699999809265,27715.89999985695,28164.599999904633,28837.5,30255.39999985695,31241.89999985695,31750.299999952316,32345,33001.799999952316,33466.89999985695,33932.59999990463,34036,34548.89999985695,35430.299999952316,36042.39999985695,36676.199999809265,38848.699999809265,39910.199999809265,40149.89999985695,40661.799999952316,41383.799999952316,42058.39999985695,42676.09999990463,43882.199999809265,44666.59999990463,45461.89999985695,46663.799999952316,47305.299999952316,48063.09999990463],"honeypot":0,"survey":"mace","page":10,"trial_type":"survey-mace","trial_index":18,"time_elapsed":489541,"internal_node_id":"0.0-18.0","task_version":"prescreen-v0.3","browser_interactions":0,"instructed":0},{"rt":3321.899999856949,"trial_type":"mental-health-alert","trial_index":19,"time_elapsed":492866,"internal_node_id":"0.0-19.0","task_version":"prescreen-v0.3","interactions":"[{\"event\":\"blur\",\"trial\":2,\"time\":31811},{\"event\":\"focus\",\"trial\":2,\"time\":65816}]"}]