[{"view_history":[{"page_index":0,"viewing_time":2341.2000000476837},{"page_index":1,"viewing_time":3341.899999976158},{"page_index":2,"viewing_time":4131.300000071526},{"page_index":3,"viewing_time":768}],"rt":10584.900000095367,"trial_type":"instructions","trial_index":0,"time_elapsed":10591,"internal_node_id":"0.0-0.0","task_version":"prescreen-v0.3"},{"rt":11504.599999904633,"responses":{"age":"21","gender-categorical":"Female","gender-free-response":"","ethnicity":"Not Hispanic or Latino","race":["Asian"],"education":"Some college"},"trial_type":"survey-demo","trial_index":1,"time_elapsed":22110,"internal_node_id":"0.0-1.0","task_version":"prescreen-v0.3"},{"responses":{"Q07":"1","Q11":"2","Q02":"1","Q09":"1","Q16":"2","Q08":"2","Q20":"2","Q14":"1","Q04":"0","Q15":"2","Q01":"1","Q05":"1","Q03":"1","Q19":"0","Q06":"1","Q17":"1","Q12":"1","Q18":"1","Q10":"1","Q21":"3","Q13":"1"},"rt":71091,"item_order":[6,10,1,8,15,7,19,13,3,14,0,4,2,18,5,16,11,17,9,20,12],"radio_events":[5438.799999952316,8980.599999904633,11247.799999952316,13430,25229.799999952316,26280.599999904633,29275.5,36537.799999952316,38901.89999997616,41885.699999928474,44441.299999952316,49132.799999952316,50699.799999952316,54539.799999952316,57031.59999990463,58757.39999997616,61030.799999952316,62787.799999952316,64398.5,66260.39999997616,68586.09999990463,69915.39999997616],"key_events":[],"mouse_events":[5438.799999952316,8980.599999904633,11247.799999952316,13430,22130.699999928474,23990.899999976158,25229.799999952316,26280.599999904633,27310.899999976158,29275.5,36537.799999952316,38901.89999997616,41885.699999928474,44441.299999952316,49132.799999952316,50699.799999952316,53042.5,54539.799999952316,57031.59999990463,58757.39999997616,61030.799999952316,62787.799999952316,64398.5,66260.39999997616,68586.09999990463,69915.39999997616,71086.89999997616],"straightlining":0.6190476190476191,"zigzagging":0.4,"honeypot":0,"survey":"sns","trial_type":"survey-template","trial_index":2,"time_elapsed":93209,"internal_node_id":"0.0-2.0","task_version":"prescreen-v0.3","browser_interactions":0,"infrequency":0},{"responses":{"Q06":"2","Q10":"2","Q08":"3","Q07":"3","Q02":"3","Q09":"2","Q12":"1","Q11":"2","Q05":"2","Q04":"2","Q13":"0","Q01":"2","Q03":"3"},"rt":35359,"item_order":[5,9,7,6,1,8,11,10,4,3,12,0,2],"radio_events":[4401.899999976158,6043.899999976158,8718.799999952316,10430.600000023842,12002.899999976158,14455.299999952316,17250.799999952316,20076.299999952316,23871.100000023842,25276.899999976158,26386.600000023842,28055.399999976158,31344.100000023842,34358.200000047684],"key_events":[],"mouse_events":[3522.5,4401.899999976158,6043.899999976158,8718.799999952316,10430.600000023842,12002.899999976158,13648.100000023842,14455.299999952316,17250.799999952316,18873.600000023842,20076.299999952316,22597.600000023842,23871.100000023842,25276.899999976158,26386.600000023842,28055.399999976158,31344.100000023842,34358.200000047684,35358],"straightlining":0.5384615384615384,"zigzagging":0.4166666666666667,"honeypot":0,"survey":"bisbas","trial_type":"survey-template","trial_index":3,"time_elapsed":128575,"internal_node_id":"0.0-3.0","task_version":"prescreen-v0.3","browser_interactions":0,"infrequency":0},{"responses":{"Q01":"3","Q02":"3","Q03":"3"},"rt":11393.5,"radio_events":[4458,7336,10119.300000071526],"key_events":[],"mouse_events":[4458,7336,10119.300000071526,11391.800000071526],"survey":"map","page":1,"trial_type":"survey-map","trial_index":4,"time_elapsed":139976,"internal_node_id":"0.0-4.0","task_version":"prescreen-v0.3","browser_interactions":0},{"responses":{"Q04":"1","Q05":"2","Q06":"2"},"rt":15156.799999952316,"radio_events":[8633.200000047684,11020.600000023842,14233.200000047684],"key_events":[],"mouse_events":[5799.200000047684,8633.200000047684,11020.600000023842,13494.600000023842,14233.200000047684,15155.100000023842],"survey":"map","page":2,"trial_type":"survey-map","trial_index":5,"time_elapsed":155149,"internal_node_id":"0.0-5.0","task_version":"prescreen-v0.3","browser_interactions":0},{"responses":{"Q07":"3","Q08":"2","Q09":"3"},"rt":13847.5,"radio_events":[3693.5,9197.600000023842,12849.300000071526],"key_events":[],"mouse_events":[3693.5,9197.600000023842,12849.300000071526,13847],"survey":"map","page":3,"trial_type":"survey-map","trial_index":6,"time_elapsed":169002,"internal_node_id":"0.0-6.0","task_version":"prescreen-v0.3","browser_interactions":0},{"responses":{"Q10":"4","Q11":"4","Q12":"3","Q13":"3","Q16":"0","Q14":"2","Q15":"2"},"rt":25978.399999976158,"radio_events":[5652.699999928474,7274.5,9495.5,13741.299999952316,17909.599999904633,22773,24710.199999928474],"key_events":[],"mouse_events":[3418.6999999284744,5652.699999928474,7274.5,9495.5,13741.299999952316,16955.799999952316,17909.599999904633,22773,24710.199999928474,25975.5],"survey":"map","page":4,"trial_type":"survey-map","trial_index":7,"time_elapsed":194987,"internal_node_id":"0.0-7.0","task_version":"prescreen-v0.3","browser_interactions":0,"infrequency":0},{"view_history":[{"page_index":0,"viewing_time":2209},{"page_index":1,"viewing_time":2765.2999999523163}],"rt":4975.699999928474,"trial_type":"instructions","trial_index":8,"time_elapsed":199974,"internal_node_id":"0.0-8.0","task_version":"prescreen-v0.3"},{"responses":{"01":"No","02":"No","03":"No","04":"No","05":"No","06":"No"},"rt":21455.700000047684,"item_order":[0,1,2,3,4,5],"radio_events":[7335.899999976158,11903.799999952316,13217.200000047684,14461.700000047684,15597.899999976158,19846.799999952316],"checkbox_events":[],"key_events":[],"mouse_events":[0.3999999761581421,7335.899999976158,11903.799999952316,13217.200000047684,14461.700000047684,15597.899999976158,19846.799999952316,21451.299999952316],"honeypot":0,"survey":"mace","page":1,"trial_type":"survey-mace","trial_index":9,"time_elapsed":221438,"internal_node_id":"0.0-9.0","task_version":"prescreen-v0.3","browser_interactions":0},{"responses":{"01":"No","02":"No","03":"Yes","03_ages_5":"5","03_ages_6":"6","03_ages_7":"7","04":"No","05":"No","06":"No","07":"No","08":"No"},"rt":49159.5,"item_order":[0,1,2,3,4,5,6,7],"radio_events":[2362.1999999284744,4982.199999928474,10031.799999952316,32710.699999928474,34306.89999997616,36261.699999928474,37733,42659.59999990463],"checkbox_events":[26723.399999976158,30905.399999976158,39383.09999990463],"key_events":[],"mouse_events":[2362.1999999284744,4982.199999928474,10031.799999952316,26723.399999976158,29953.899999976158,30905.399999976158,32710.699999928474,34306.89999997616,36261.699999928474,37733,39383.09999990463,42659.59999990463,49149.699999928474],"honeypot":0,"survey":"mace","page":2,"trial_type":"survey-mace","trial_index":10,"time_elapsed":270606,"internal_node_id":"0.0-10.0","task_version":"prescreen-v0.3","browser_interactions":0},{"responses":{"01":"No","02":"No","03":"No","04":"No"},"rt":13270.199999928474,"item_order":[0,1,2,3],"radio_events":[5975.5,7407.599999904633,8918.899999976158,10002.099999904633],"checkbox_events":[],"key_events":[],"mouse_events":[4503.799999952316,5975.5,7407.599999904633,8918.899999976158,10002.099999904633,13268.5],"honeypot":0,"survey":"mace","page":3,"trial_type":"survey-mace","trial_index":11,"time_elapsed":283885,"internal_node_id":"0.0-11.0","task_version":"prescreen-v0.3","browser_interactions":0},{"responses":{"01":"No","02":"No"},"rt":5634.799999952316,"item_order":[0,1],"radio_events":[3839.7000000476837,4984.299999952316],"checkbox_events":[],"key_events":[],"mouse_events":[3024.600000023842,3839.7000000476837,4984.299999952316,5633.700000047684],"honeypot":0,"survey":"mace","page":4,"trial_type":"survey-mace","trial_index":12,"time_elapsed":289524,"internal_node_id":"0.0-12.0","task_version":"prescreen-v0.3","browser_interactions":0},{"responses":{"01":"No","02":"No","03":"No","04":"No","05":"No"},"rt":16677.300000071526,"item_order":[0,1,2,3,4],"radio_events":[8716.700000047684,10183,12114.200000047684,14031.100000023842,15843],"checkbox_events":[],"key_events":[],"mouse_events":[5759.900000095367,8716.700000047684,10183,12114.200000047684,14031.100000023842,15843,16670.100000023842],"honeypot":0,"survey":"mace","page":5,"trial_type":"survey-mace","trial_index":13,"time_elapsed":306210,"internal_node_id":"0.0-13.0","task_version":"prescreen-v0.3","browser_interactions":0},{"responses":{"01":"No","02":"No","03":"No","04":"Yes","04_ages_8":"8","04_ages_9":"9","04_ages_10":"10","05":"No"},"rt":38592.200000047684,"item_order":[0,1,2,3,4],"radio_events":[5933.300000071526,7166.5,11327.399999976158,13187.100000023842,16151.100000023842,18697.300000071526,27950.600000023842],"checkbox_events":[33232.60000002384,35000.39999997616,36346.800000071526],"key_events":[],"mouse_events":[5933.300000071526,7166.5,11327.399999976158,13187.100000023842,14960.700000047684,16151.100000023842,18697.300000071526,27236,27950.600000023842,32475.600000023842,33232.60000002384,34154.700000047684,35000.39999997616,36346.800000071526,38587.5],"honeypot":0,"survey":"mace","page":6,"trial_type":"survey-mace","trial_index":14,"time_elapsed":344812,"internal_node_id":"0.0-14.0","task_version":"prescreen-v0.3","browser_interactions":0},{"responses":{"01":"No","02":"No","03":"Yes","03_ages_8":"8","03_ages_10":"10","04":"No","05":"No","06":"No","07":"No"},"rt":21339.100000023842,"item_order":[0,1,2,3,4,5,6],"radio_events":[4735.100000023842,6189,9607.900000095367,16591.900000095367,18203.200000047684,19518.900000095367,20626.600000023842],"checkbox_events":[12343.700000047684,14556.100000023842],"key_events":[],"mouse_events":[3560.600000023842,4735.100000023842,6189,9607.900000095367,12343.700000047684,14556.100000023842,16591.900000095367,18203.200000047684,19518.900000095367,20626.600000023842,21333.300000071526],"honeypot":0,"survey":"mace","page":7,"trial_type":"survey-mace","trial_index":15,"time_elapsed":366157,"internal_node_id":"0.0-15.0","task_version":"prescreen-v0.3","browser_interactions":0},{"responses":{"01":"No","02":"No","03":"No","04":"No"},"rt":22744.700000047684,"item_order":[0,1,2,3],"radio_events":[10603,11807.399999976158,15626.899999976158,17345.200000047684,18477.300000071526],"checkbox_events":[],"key_events":[],"mouse_events":[4036.2000000476837,10603,11807.399999976158,15626.899999976158,17345.200000047684,18477.300000071526,22740.600000023842],"honeypot":0,"survey":"mace","page":8,"trial_type":"survey-mace","trial_index":16,"time_elapsed":388908,"internal_node_id":"0.0-16.0","task_version":"prescreen-v0.3","browser_interactions":0},{"responses":{"01":"Yes","01_ages_1":"1","01_ages_2":"2","01_ages_3":"3","01_ages_4":"4","01_ages_5":"5","01_ages_6":"6","01_ages_7":"7","01_ages_8":"8","01_ages_9":"9","01_ages_10":"10","01_ages_11":"11","01_ages_12":"12","01_ages_13":"13","01_ages_14":"14","01_ages_15":"15","01_ages_16":"16","01_ages_17":"17","01_ages_18":"18","02":"Yes","02_ages_1":"1","02_ages_2":"2","02_ages_3":"3","02_ages_4":"4","02_ages_5":"5","02_ages_6":"6","02_ages_7":"7","02_ages_8":"8","02_ages_9":"9","02_ages_10":"10","02_ages_11":"11","02_ages_12":"12","02_ages_13":"13","02_ages_14":"14","02_ages_15":"15","02_ages_16":"16","02_ages_17":"17","02_ages_18":"18","03":"Yes","03_ages_1":"1","03_ages_2":"2","03_ages_3":"3","03_ages_4":"4","03_ages_5":"5","03_ages_6":"6","03_ages_7":"7","03_ages_8":"8","03_ages_9":"9","03_ages_10":"10","03_ages_11":"11","03_ages_12":"12","03_ages_13":"13","03_ages_14":"14","03_ages_15":"15","03_ages_16":"16","03_ages_17":"17","03_ages_18":"18","04":"Yes","04_ages_1":"1","04_ages_2":"2","04_ages_3":"3","04_ages_4":"4","04_ages_5":"5","04_ages_6":"6","04_ages_7":"7","04_ages_8":"8","04_ages_9":"9","04_ages_10":"10","04_ages_11":"11","04_ages_12":"12","04_ages_13":"13","04_ages_14":"14","04_ages_15":"15","04_ages_16":"16","04_ages_17":"17","04_ages_18":"18"},"rt":88242.60000002384,"item_order":[0,1,2,3],"radio_events":[2917.8000000715256,27699.399999976158,50961.800000071526,71891],"checkbox_events":[9835.200000047684,10835.899999976158,11542.200000047684,12322.800000071526,13153.200000047684,13898.100000023842,14512.300000071526,15669.5,18070.100000023842,19632,20941.800000071526,21574.300000071526,22066.200000047684,22761.300000071526,23334.700000047684,24532.200000047684,25190.899999976158,25706.899999976158,29527.899999976158,30619.100000023842,33936.700000047684,36320.89999997616,36893.200000047684,37754.700000047684,39075.700000047684,40702.39999997616,41549.60000002384,42191.800000071526,42895.200000047684,43491.10000002384,44646.800000071526,45380.200000047684,46182.60000002384,47503.39999997616,48099.700000047684,48937.39999997616,53076.300000071526,54675.800000071526,56075.800000071526,56830.60000002384,57626.200000047684,58937.60000002384,59481.39999997616,60318.800000071526,60841.800000071526,61357,62436.700000047684,63011.5,64892.89999997616,65474.5,66412.89999997616,67018.70000004768,67973.39999997616,68705.89999997616,73028.70000004768,74071.30000007153,75673.70000004768,76242.80000007153,76974.10000002384,77610.5,78245,78985.20000004768,79588.10000002384,80953,81642.5,82620.80000007153,83401.20000004768,84157,84912.20000004768,86016.89999997616,86821.60000002384,87375.30000007153],"key_events":[],"mouse_events":[2917.8000000715256,9835.200000047684,10835.899999976158,11542.200000047684,12322.800000071526,13153.200000047684,13898.100000023842,14512.300000071526,15669.5,18070.100000023842,19632,20941.800000071526,21574.300000071526,22066.200000047684,22761.300000071526,23334.700000047684,24022.700000047684,24532.200000047684,25190.899999976158,25706.899999976158,27052.700000047684,27699.399999976158,29527.899999976158,30066.100000023842,30619.100000023842,31085.600000023842,31997.5,32518.5,33095.5,33936.700000047684,36320.89999997616,36893.200000047684,37754.700000047684,38559.5,39075.700000047684,40299,40702.39999997616,41549.60000002384,42191.800000071526,42895.200000047684,43491.10000002384,44180,44646.800000071526,45380.200000047684,46182.60000002384,47503.39999997616,48099.700000047684,48937.39999997616,50961.800000071526,53076.300000071526,53660.10000002384,54675.800000071526,55414.300000071526,56075.800000071526,56830.60000002384,57626.200000047684,58537.89999997616,58937.60000002384,59481.39999997616,60318.800000071526,60841.800000071526,61357,61967.800000071526,62436.700000047684,63011.5,63557.200000047684,64440.700000047684,64892.89999997616,65474.5,66412.89999997616,67018.70000004768,67973.39999997616,68705.89999997616,69490.10000002384,70178.70000004768,71155.80000007153,71891,73028.70000004768,73538.30000007153,74071.30000007153,74872.20000004768,75673.70000004768,76242.80000007153,76974.10000002384,77610.5,78245,78985.20000004768,79588.10000002384,80435.89999997616,80953,81642.5,82620.80000007153,83401.20000004768,84157,84912.20000004768,85384.80000007153,86016.89999997616,86821.60000002384,87375.30000007153,88240.39999997616],"honeypot":0,"survey":"mace","page":9,"trial_type":"survey-mace","trial_index":17,"time_elapsed":477157,"internal_node_id":"0.0-17.0","task_version":"prescreen-v0.3","browser_interactions":0},{"responses":{"01":"No","02":"No","03":"No","04":"No","05":"No","06":"Yes","06_ages_17":"17","07":"Yes","07_ages_1":"1","07_ages_2":"2","07_ages_3":"3","07_ages_4":"4","07_ages_5":"5","07_ages_6":"6","07_ages_7":"7","07_ages_8":"8","07_ages_9":"9","07_ages_10":"10","07_ages_11":"11","07_ages_12":"12","07_ages_13":"13","07_ages_14":"14","07_ages_15":"15","07_ages_16":"16","07_ages_17":"17","07_ages_18":"18","08":"Yes","08_ages_1":"1","08_ages_2":"2","08_ages_3":"3","08_ages_4":"4","08_ages_5":"5","08_ages_6":"6","08_ages_7":"7","08_ages_8":"8","08_ages_9":"9","08_ages_10":"10","08_ages_11":"11","08_ages_12":"12","08_ages_13":"13","08_ages_14":"14","08_ages_15":"15","08_ages_16":"16","08_ages_17":"17","08_ages_18":"18"},"rt":65669.39999997616,"item_order":[0,1,2,3,4,5,6,7],"radio_events":[2877.100000023842,3949.2000000476837,6137.100000023842,7256.200000047684,10689.100000023842,12783.600000023842,16409.200000047684,19202,22488],"checkbox_events":[14870.100000023842,24871.100000023842,25640.300000071526,26751.600000023842,28153.600000023842,29159.200000047684,29946.100000023842,31657.300000071526,32553.100000023842,34249,35141.60000002384,36017.39999997616,37771,38880.10000002384,39819.800000071526,41278,42029.700000047684,42907.60000002384,43891.800000071526,45278.700000047684,45940.800000071526,48659,49403.5,50310.10000002384,51066.10000002384,51767.5,52421.5,53592,55130.39999997616,56332.60000002384,58558.300000071526,59357.200000047684,60097.300000071526,60775.60000002384,61466.700000047684,62491.10000002384,63857.200000047684],"key_events":[],"mouse_events":[2877.100000023842,3949.2000000476837,6137.100000023842,7256.200000047684,8893,10689.100000023842,12783.600000023842,14870.100000023842,16409.200000047684,19202,22488,24040.5,24871.100000023842,25640.300000071526,26751.600000023842,28153.600000023842,29159.200000047684,29946.100000023842,30998.5,31657.300000071526,32553.100000023842,33667.89999997616,34249,35141.60000002384,36017.39999997616,37158.5,37771,38880.10000002384,39819.800000071526,40621.60000002384,41278,42029.700000047684,42907.60000002384,43891.800000071526,45278.700000047684,45940.800000071526,47211.60000002384,47604,48659,49403.5,50310.10000002384,51066.10000002384,51767.5,52421.5,53592,55130.39999997616,55951.39999997616,56332.60000002384,57300.700000047684,57888.800000071526,58558.300000071526,59357.200000047684,60097.300000071526,60775.60000002384,61466.700000047684,62491.10000002384,63166.300000071526,63857.200000047684,65666.39999997616],"honeypot":0,"survey":"mace","page":10,"trial_type":"survey-mace","trial_index":18,"time_elapsed":542836,"internal_node_id":"0.0-18.0","task_version":"prescreen-v0.3","browser_interactions":0,"instructed":0},{"rt":4915,"trial_type":"mental-health-alert","trial_index":19,"time_elapsed":547756,"internal_node_id":"0.0-19.0","task_version":"prescreen-v0.3","interactions":"[]"}]