[{"view_history":[{"page_index":0,"viewing_time":2699.300000190735},{"page_index":1,"viewing_time":5186.199999809265},{"page_index":2,"viewing_time":3354.199999809265},{"page_index":3,"viewing_time":1454.4000000953674}],"rt":12695.300000190735,"trial_type":"instructions","trial_index":0,"time_elapsed":12732,"internal_node_id":"0.0-0.0","task_version":"prescreen-v0.3"},{"rt":17124.400000095367,"responses":{"age":"25","gender-categorical":"Male","gender-free-response":"","ethnicity":"Not Hispanic or Latino","race":["White"],"education":"Bachelor degree"},"trial_type":"survey-demo","trial_index":1,"time_elapsed":29869,"internal_node_id":"0.0-1.0","task_version":"prescreen-v0.3"},{"responses":{"Q04":"2","Q17":"1","Q20":"2","Q12":"2","Q01":"2","Q03":"1","Q14":"2","Q18":"2","Q06":"0","Q11":"2","Q13":"2","Q05":"2","Q08":"2","Q02":"1","Q19":"1","Q16":"2","Q10":"2","Q21":"3","Q15":"2","Q09":"2","Q07":"1"},"rt":160008.2999997139,"item_order":[3,16,19,11,0,2,13,17,5,10,12,4,7,1,18,15,9,20,14,8,6],"radio_events":[16012.099999904633,28558.299999713898,31727.400000095367,38909.7999997139,41573.699999809265,44465.09999990463,69753.09999990463,73836.09999990463,83615.59999990463,87911.2999997139,92426.59999990463,101487.90000009537,105259.5,109816.5,118288.90000009537,124199.90000009537,133340,141191.19999980927,147315.40000009537,150902.69999980927,158548.5],"key_events":[],"mouse_events":[16012.099999904633,28558.299999713898,31727.400000095367,38909.7999997139,41573.699999809265,44465.09999990463,69753.09999990463,73836.09999990463,83615.59999990463,87911.2999997139,92426.59999990463,101487.90000009537,105259.5,109816.5,118288.90000009537,124199.90000009537,133340,141191.19999980927,147315.40000009537,150902.69999980927,158548.5,159973.09999990463],"straightlining":0.6666666666666666,"zigzagging":0.45,"honeypot":0,"survey":"sns","trial_type":"survey-template","trial_index":2,"time_elapsed":189916,"internal_node_id":"0.0-2.0","task_version":"prescreen-v0.3","browser_interactions":0,"infrequency":0},{"responses":{"Q04":"3","Q03":"3","Q10":"1","Q02":"3","Q12":"1","Q01":"3","Q11":"1","Q05":"2","Q06":"2","Q13":"0","Q07":"2","Q09":"1","Q08":"2"},"rt":79717.39999961853,"item_order":[3,2,9,1,11,0,10,4,5,12,6,8,7],"radio_events":[8907.099999904633,14005.39999961853,18209.599999904633,24909.199999809265,29517,33539.2999997139,40551.89999961853,46289.699999809265,50456.7999997139,56653.09999990463,61840.5,69687.5,72692.59999990463,76764.7999997139],"key_events":[],"mouse_events":[8907.099999904633,14005.39999961853,18209.599999904633,24909.199999809265,29517,33539.2999997139,40551.89999961853,46289.699999809265,50456.7999997139,56653.09999990463,61840.5,69687.5,72692.59999990463,76764.7999997139,79715.2999997139],"straightlining":0.3076923076923077,"zigzagging":0.25,"honeypot":0,"survey":"bisbas","trial_type":"survey-template","trial_index":3,"time_elapsed":269705,"internal_node_id":"0.0-3.0","task_version":"prescreen-v0.3","browser_interactions":0,"infrequency":0},{"responses":{"Q01":"2","Q02":"2","Q03":"3"},"rt":20977.39999961853,"radio_events":[7551.099999904633,13030.599999904633,19689.89999961853],"key_events":[],"mouse_events":[7551.099999904633,13030.599999904633,19689.89999961853,20953.299999713898],"survey":"map","page":1,"trial_type":"survey-map","trial_index":4,"time_elapsed":290744,"internal_node_id":"0.0-4.0","task_version":"prescreen-v0.3","browser_interactions":0},{"responses":{"Q04":"2","Q05":"2","Q06":"3"},"rt":25060.800000190735,"radio_events":[8682.099999904633,18551.300000190735,24009],"key_events":[],"mouse_events":[8682.099999904633,18551.300000190735,24009,25059.599999904633],"survey":"map","page":2,"trial_type":"survey-map","trial_index":5,"time_elapsed":315875,"internal_node_id":"0.0-5.0","task_version":"prescreen-v0.3","browser_interactions":0},{"responses":{"Q07":"1","Q08":"3","Q09":"2"},"rt":22853.400000095367,"radio_events":[7154.5,11117.199999809265,17923.799999713898,21720],"key_events":[],"mouse_events":[7154.5,11117.199999809265,17923.799999713898,21720,22852.5],"survey":"map","page":3,"trial_type":"survey-map","trial_index":6,"time_elapsed":338753,"internal_node_id":"0.0-6.0","task_version":"prescreen-v0.3","browser_interactions":0},{"responses":{"Q10":"2","Q11":"2","Q12":"2","Q13":"2","Q16":"0","Q14":"1","Q15":"1"},"rt":54960.7999997139,"radio_events":[7331.199999809265,10821.099999904633,17691.599999904633,24752,30825.39999961853,48106.199999809265,50707,53718.39999961853],"key_events":[],"mouse_events":[7331.199999809265,10821.099999904633,17691.599999904633,24752,30825.39999961853,48106.199999809265,50707,53718.39999961853,54959.5],"survey":"map","page":4,"trial_type":"survey-map","trial_index":7,"time_elapsed":393724,"internal_node_id":"0.0-7.0","task_version":"prescreen-v0.3","browser_interactions":0,"infrequency":0},{"view_history":[{"page_index":0,"viewing_time":3233.2000002861023},{"page_index":1,"viewing_time":3485.5}],"rt":6719.5,"trial_type":"instructions","trial_index":8,"time_elapsed":400459,"internal_node_id":"0.0-8.0","task_version":"prescreen-v0.3"},{"responses":{"01":"No","02":"Yes","02_ages_7":"7","02_ages_8":"8","02_ages_9":"9","02_ages_10":"10","02_ages_11":"11","02_ages_12":"12","02_ages_13":"13","02_ages_14":"14","02_ages_15":"15","02_ages_16":"16","02_ages_17":"17","02_ages_18":"18","03":"Yes","03_ages_7":"7","03_ages_8":"8","03_ages_9":"9","03_ages_10":"10","04":"Yes","04_ages_7":"7","05":"No","06":"No"},"rt":87961.5,"item_order":[0,1,2,3,4,5],"radio_events":[14010.60000038147,18777.60000038147,52560.300000190735,77982.80000019073,83528.80000019073,87072.40000009537],"checkbox_events":[30842.60000038147,31533.900000095367,33388.800000190735,34158.7000002861,40540.5,43350,44168.5,44984.800000190735,45734.5,46464.300000190735,47153,48468,55563.7000002861,56315.10000038147,57021.10000038147,57721.90000009537,79188.2000002861],"key_events":[],"mouse_events":[0.40000009536743164,14010.60000038147,18777.60000038147,30842.60000038147,31533.900000095367,32361.900000095367,33388.800000190735,34158.7000002861,40540.5,43350,44168.5,44984.800000190735,45734.5,46464.300000190735,47153,48468,52560.300000190735,55563.7000002861,56315.10000038147,57021.10000038147,57721.90000009537,77982.80000019073,79188.2000002861,83528.80000019073,87072.40000009537,87955.80000019073],"honeypot":0,"survey":"mace","page":1,"trial_type":"survey-mace","trial_index":9,"time_elapsed":488473,"internal_node_id":"0.0-9.0","task_version":"prescreen-v0.3","browser_interactions":0},{"responses":{"01":"No","02":"No","03":"Yes","03_ages_8":"8","03_ages_9":"9","04":"No","05":"No","06":"No","07":"No","08":"No"},"rt":32074.099999904633,"item_order":[0,1,2,3,4,5,6,7],"radio_events":[5096.799999713898,6655,8989.099999904633,22279.299999713898,24971.699999809265,28071.400000095367,30106.900000095367,31274.099999904633],"checkbox_events":[14133.5,15023.199999809265],"key_events":[],"mouse_events":[5096.799999713898,6655,8989.099999904633,14133.5,15023.199999809265,22279.299999713898,24971.699999809265,28071.400000095367,30106.900000095367,31274.099999904633,32068.299999713898],"honeypot":0,"survey":"mace","page":2,"trial_type":"survey-mace","trial_index":10,"time_elapsed":520576,"internal_node_id":"0.0-10.0","task_version":"prescreen-v0.3","browser_interactions":0},{"responses":{"01":"Yes","01_ages_8":"8","02":"No","03":"No","04":"No"},"rt":22554.900000095367,"item_order":[0,1,2,3],"radio_events":[5105.700000286102,16987.400000095367,20321.700000286102,21389.200000286102],"checkbox_events":[8177.10000038147],"key_events":[],"mouse_events":[5105.700000286102,8177.10000038147,16987.400000095367,20321.700000286102,21389.200000286102,22551.60000038147],"honeypot":0,"survey":"mace","page":3,"trial_type":"survey-mace","trial_index":11,"time_elapsed":543142,"internal_node_id":"0.0-11.0","task_version":"prescreen-v0.3","browser_interactions":0},{"responses":{"01":"No","02":"No"},"rt":5248,"item_order":[0,1],"radio_events":[2495,3882.9000000953674],"checkbox_events":[],"key_events":[],"mouse_events":[2495,3882.9000000953674,5246.700000286102],"honeypot":0,"survey":"mace","page":4,"trial_type":"survey-mace","trial_index":12,"time_elapsed":548410,"internal_node_id":"0.0-12.0","task_version":"prescreen-v0.3","browser_interactions":0},{"responses":{"01":"No","02":"No","03":"No","04":"No","05":"No"},"rt":25139.400000095367,"item_order":[0,1,2,3,4],"radio_events":[6656.699999809265,15544.5,18559.199999809265,21621,24181.599999904633],"checkbox_events":[],"key_events":[],"mouse_events":[6656.699999809265,15544.5,18559.199999809265,20394.099999904633,21621,24181.599999904633,25136.400000095367],"honeypot":0,"survey":"mace","page":5,"trial_type":"survey-mace","trial_index":13,"time_elapsed":573558,"internal_node_id":"0.0-13.0","task_version":"prescreen-v0.3","browser_interactions":0},{"responses":{"01":"Yes","01_ages_11":"11","01_ages_12":"12","02":"Yes","02_ages_10":"10","02_ages_11":"11","02_ages_12":"12","02_ages_13":"13","02_ages_14":"14","03":"Yes","03_ages_11":"11","03_ages_12":"12","03_ages_13":"13","03_ages_14":"14","04":"No","05":"Yes","05_ages_13":"13","05_ages_14":"14"},"rt":101627.5,"item_order":[0,1,2,3,4],"radio_events":[6604.099999904633,8900.799999713898,22394.5,28265.099999904633,58417.2999997139,74245.5,93203.69999980927],"checkbox_events":[10760.799999713898,11455.599999904633,12194.5,12836.199999809265,13477.699999809265,14126.299999713898,14812.299999713898,15500.599999904633,16207.799999713898,16905.299999713898,18203.39999961853,18905,37839.59999990463,38553.09999990463,39261.5,39992.39999961853,44285.39999961853,44870.5,45479.7999997139,49835.89999961853,51571.699999809265,62248.09999990463,62870.199999809265,78522.59999990463,79661.7999997139,80577.7999997139,83271,83882.19999980927,85006.59999990463,95624.5,96298.5],"key_events":[],"mouse_events":[6604.099999904633,8900.799999713898,10760.799999713898,11455.599999904633,12194.5,12836.199999809265,13477.699999809265,14126.299999713898,14812.299999713898,15500.599999904633,16207.799999713898,16905.299999713898,17538.599999904633,18203.39999961853,18905,22394.5,28265.099999904633,37839.59999990463,38553.09999990463,39261.5,39992.39999961853,44285.39999961853,44870.5,45479.7999997139,49835.89999961853,51571.699999809265,58417.2999997139,62248.09999990463,62870.199999809265,74245.5,78522.59999990463,79661.7999997139,80577.7999997139,83271,83882.19999980927,85006.59999990463,93203.69999980927,95624.5,96298.5,101623.09999990463],"honeypot":0,"survey":"mace","page":6,"trial_type":"survey-mace","trial_index":14,"time_elapsed":675195,"internal_node_id":"0.0-14.0","task_version":"prescreen-v0.3","browser_interactions":0},{"responses":{"01":"No","02":"No","03":"Yes","03_ages_14":"14","04":"No","05":"No","06":"No","07":"No"},"rt":32853.10000038147,"item_order":[0,1,2,3,4,5,6],"radio_events":[6958.400000095367,10680.900000095367,13691.900000095367,22472.400000095367,28081.700000286102,30006,31633.300000190735],"checkbox_events":[16509.800000190735],"key_events":[],"mouse_events":[6958.400000095367,10680.900000095367,13691.900000095367,16509.800000190735,22472.400000095367,28081.700000286102,30006,31633.300000190735,32848],"honeypot":0,"survey":"mace","page":7,"trial_type":"survey-mace","trial_index":15,"time_elapsed":708073,"internal_node_id":"0.0-15.0","task_version":"prescreen-v0.3","browser_interactions":0},{"responses":{"01":"Yes","01_ages_7":"7","01_ages_8":"8","01_ages_9":"9","01_ages_10":"10","02":"Yes","02_ages_15":"15","02_ages_16":"16","02_ages_17":"17","02_ages_18":"18","03":"No","04":"No"},"rt":71841.59999990463,"item_order":[0,1,2,3],"radio_events":[26789.5,52850.09999990463,68070.69999980927,70763.39999961853],"checkbox_events":[29450,30554,31220.099999904633,31961.199999809265,56572.59999990463,57149.2999997139,57742.59999990463,58392],"key_events":[],"mouse_events":[26789.5,29450,30554,31220.099999904633,31961.199999809265,52850.09999990463,56572.59999990463,57149.2999997139,57742.59999990463,58392,68070.69999980927,70763.39999961853,71838.89999961853],"honeypot":0,"survey":"mace","page":8,"trial_type":"survey-mace","trial_index":16,"time_elapsed":779927,"internal_node_id":"0.0-16.0","task_version":"prescreen-v0.3","browser_interactions":0},{"responses":{"01":"Yes","01_ages_1":"1","01_ages_2":"2","01_ages_3":"3","01_ages_4":"4","01_ages_5":"5","01_ages_6":"6","01_ages_7":"7","01_ages_8":"8","01_ages_9":"9","01_ages_10":"10","01_ages_11":"11","01_ages_12":"12","01_ages_13":"13","01_ages_14":"14","01_ages_15":"15","01_ages_16":"16","01_ages_17":"17","01_ages_18":"18","02":"Yes","02_ages_1":"1","02_ages_2":"2","02_ages_3":"3","02_ages_4":"4","02_ages_5":"5","02_ages_6":"6","02_ages_7":"7","02_ages_8":"8","02_ages_9":"9","02_ages_10":"10","02_ages_11":"11","02_ages_12":"12","02_ages_13":"13","02_ages_14":"14","02_ages_15":"15","02_ages_16":"16","02_ages_17":"17","02_ages_18":"18","03":"Yes","03_ages_1":"1","03_ages_2":"2","03_ages_3":"3","03_ages_4":"4","03_ages_5":"5","03_ages_6":"6","03_ages_7":"7","03_ages_8":"8","03_ages_9":"9","03_ages_10":"10","03_ages_11":"11","03_ages_12":"12","03_ages_13":"13","03_ages_14":"14","03_ages_15":"15","03_ages_16":"16","03_ages_17":"17","03_ages_18":"18","04":"Yes","04_ages_1":"1","04_ages_2":"2","04_ages_3":"3","04_ages_4":"4","04_ages_5":"5","04_ages_6":"6","04_ages_7":"7","04_ages_8":"8","04_ages_9":"9","04_ages_10":"10","04_ages_11":"11","04_ages_12":"12","04_ages_13":"13","04_ages_14":"14","04_ages_15":"15","04_ages_16":"16","04_ages_17":"17","04_ages_18":"18"},"rt":90102.2000002861,"item_order":[0,1,2,3],"radio_events":[5035.400000095367,30913.700000286102,51318.7000002861,72134],"checkbox_events":[11411.5,12156.800000190735,13612.900000095367,14766.300000190735,15736.900000095367,16728.60000038147,18145.900000095367,19323.60000038147,20080.700000286102,20820.10000038147,21597.10000038147,22333.200000286102,23039.900000095367,23681.800000190735,24346.800000190735,24995.200000286102,25689,26771.10000038147,32259.60000038147,33048.5,33858.60000038147,34580.5,35349.10000038147,36038.90000009537,36743.40000009537,37453.40000009537,38069.7000002861,38768,39473.90000009537,40114.300000190735,40748.60000038147,41337.40000009537,42795.800000190735,43485.60000038147,44302.7000002861,45878,52497.60000038147,53202.7000002861,53872,54537.5,55186.5,55867.800000190735,56501.2000002861,57174.800000190735,57843.60000038147,58967,60105.90000009537,60770.10000038147,61415.40000009537,62073.5,63660.90000009537,64454,65280.60000038147,66015.5,74575.5,75353.5,76178.10000038147,77500.5,78170.5,79213.10000038147,80005.5,80823.5,81721.90000009537,82633.2000002861,83441,84139.10000038147,84940,85926.40000009537,86892.2000002861,87790,88553,89233],"key_events":[],"mouse_events":[5035.400000095367,11411.5,12156.800000190735,12795,13612.900000095367,14766.300000190735,15736.900000095367,16728.60000038147,17432.60000038147,18145.900000095367,19323.60000038147,20080.700000286102,20820.10000038147,21597.10000038147,22333.200000286102,23039.900000095367,23681.800000190735,24346.800000190735,24995.200000286102,25689,26771.10000038147,30913.700000286102,32259.60000038147,33048.5,33858.60000038147,34580.5,35349.10000038147,36038.90000009537,36743.40000009537,37453.40000009537,38069.7000002861,38768,39473.90000009537,40114.300000190735,40748.60000038147,41337.40000009537,41970,42795.800000190735,43485.60000038147,44302.7000002861,44960.5,45878,51318.7000002861,52497.60000038147,53202.7000002861,53872,54537.5,55186.5,55867.800000190735,56501.2000002861,57174.800000190735,57843.60000038147,58967,60105.90000009537,60770.10000038147,61415.40000009537,62073.5,62875,63660.90000009537,64454,65280.60000038147,66015.5,72134,74575.5,75353.5,76178.10000038147,76867.10000038147,77500.5,78170.5,79213.10000038147,80005.5,80823.5,81721.90000009537,82633.2000002861,83441,84139.10000038147,84940,85926.40000009537,86892.2000002861,87790,88553,89233,90099.5],"honeypot":0,"survey":"mace","page":9,"trial_type":"survey-mace","trial_index":17,"time_elapsed":870050,"internal_node_id":"0.0-17.0","task_version":"prescreen-v0.3","browser_interactions":0},{"responses":{"01":"No","02":"No","03":"Yes","03_ages_7":"7","03_ages_8":"8","03_ages_9":"9","03_ages_10":"10","03_ages_11":"11","03_ages_12":"12","03_ages_13":"13","03_ages_14":"14","03_ages_15":"15","03_ages_16":"16","03_ages_17":"17","03_ages_18":"18","04":"Yes","04_ages_9":"9","04_ages_10":"10","04_ages_11":"11","04_ages_12":"12","04_ages_13":"13","04_ages_14":"14","04_ages_15":"15","04_ages_16":"16","04_ages_17":"17","04_ages_18":"18","05":"No","06":"Yes","06_ages_17":"17","07":"Yes","07_ages_1":"1","07_ages_2":"2","07_ages_3":"3","07_ages_4":"4","07_ages_5":"5","07_ages_6":"6","07_ages_7":"7","07_ages_8":"8","07_ages_9":"9","07_ages_10":"10","07_ages_11":"11","07_ages_12":"12","07_ages_13":"13","07_ages_14":"14","07_ages_15":"15","07_ages_16":"16","07_ages_17":"17","07_ages_18":"18","08":"No"},"rt":103788.19999980927,"item_order":[0,1,2,3,4,5,6,7],"radio_events":[7234.900000095367,8657.900000095367,11648.699999809265,34032.2999997139,51690.199999809265,58955.09999990463,71307.69999980927,98205.19999980927],"checkbox_events":[15213.900000095367,16016.099999904633,16779.799999713898,17822.699999809265,24524.5,25362.699999809265,26140.599999904633,26896.699999809265,28184.900000095367,29126.900000095367,29808.900000095367,30529.5,35400.09999990463,36073.59999990463,36764.7999997139,37464.5,38369.59999990463,39148.40000009537,40381.90000009537,42327.09999990463,45489.2999997139,46181,46835.59999990463,47525.7999997139,48167.5,48816.199999809265,61391.7999997139,72846.59999990463,73560.19999980927,74200.7999997139,74839.7999997139,75520.19999980927,76651.09999990463,77366.40000009537,78054.40000009537,78699.59999990463,80302.7999997139,81040,81762.7999997139,82566.2999997139,83329.7999997139,84091.90000009537,84893.40000009537,85783.2999997139,86480.5],"key_events":[],"mouse_events":[7234.900000095367,8657.900000095367,11648.699999809265,15213.900000095367,16016.099999904633,16779.799999713898,17822.699999809265,24524.5,25362.699999809265,26140.599999904633,26896.699999809265,28184.900000095367,29126.900000095367,29808.900000095367,30529.5,34032.2999997139,35400.09999990463,36073.59999990463,36764.7999997139,37464.5,38369.59999990463,39148.40000009537,40381.90000009537,42327.09999990463,45489.2999997139,46181,46835.59999990463,47525.7999997139,48167.5,48816.199999809265,51690.199999809265,58955.09999990463,61391.7999997139,71307.69999980927,72846.59999990463,73560.19999980927,74200.7999997139,74839.7999997139,75520.19999980927,76651.09999990463,77366.40000009537,78054.40000009537,78699.59999990463,79373.5,80302.7999997139,81040,81762.7999997139,82566.2999997139,83329.7999997139,84091.90000009537,84893.40000009537,85783.2999997139,86480.5,98205.19999980927,103780.5],"honeypot":0,"survey":"mace","page":10,"trial_type":"survey-mace","trial_index":18,"time_elapsed":973862,"internal_node_id":"0.0-18.0","task_version":"prescreen-v0.3","browser_interactions":0,"instructed":0},{"rt":4100.099999904633,"trial_type":"mental-health-alert","trial_index":19,"time_elapsed":978001,"internal_node_id":"0.0-19.0","task_version":"prescreen-v0.3","interactions":"[]"}]