[{"view_history":[{"page_index":0,"viewing_time":1854.5},{"page_index":1,"viewing_time":1704.3999999999069},{"page_index":2,"viewing_time":2044.1000000000931},{"page_index":3,"viewing_time":1086.6000000000931}],"rt":6692.200000000186,"trial_type":"instructions","trial_index":0,"time_elapsed":6722,"internal_node_id":"0.0-0.0","task_version":"prescreen-v0.3"},{"rt":14431.799999999814,"responses":{"age":"36","gender-categorical":"Male","gender-free-response":"","ethnicity":"Not Hispanic or Latino","race":["Black or African American"],"education":"Bachelor degree","siblings":"2"},"trial_type":"survey-demo","trial_index":1,"time_elapsed":21172,"internal_node_id":"0.0-1.0","task_version":"prescreen-v0.3"},{"responses":{"Q17":"1","Q12":"1","Q13":"2","Q10":"1","Q02":"0","Q20":"0","Q18":"1","Q19":"1","Q07":"2","Q04":"1","Q11":"2","Q01":"1","Q21":"3","Q16":"0","Q06":"0","Q03":"0","Q09":"2","Q15":"0","Q14":"0","Q08":"1","Q05":"1"},"rt":96813.80000000028,"item_order":[16,11,12,9,1,19,17,18,6,3,10,0,20,15,5,2,8,14,13,7,4],"radio_events":[2784.5,5267.300000000279,10263.80000000028,12887.80000000028,15117,19084.600000000093,33992.60000000009,36933.200000000186,40398.80000000028,46088.200000000186,48341.90000000037,49700.40000000037,55795.80000000028,62315.90000000037,70162.20000000019,71177.40000000037,76124.20000000019,78228.80000000028,80194.5,86466.80000000028,95346.40000000037],"key_events":[],"mouse_events":[2784.5,5267.300000000279,8873.900000000373,10263.80000000028,12887.80000000028,15117,16758.900000000373,18000.700000000186,19084.600000000093,33992.60000000009,36933.200000000186,40398.80000000028,46088.200000000186,48341.90000000037,49700.40000000037,51368.30000000028,54986.200000000186,55795.80000000028,62315.90000000037,63615.40000000037,69322.90000000037,70162.20000000019,71177.40000000037,74900.6000000001,76124.20000000019,78228.80000000028,80194.5,86466.80000000028,87426,88854,95346.40000000037,96803.6000000001],"straightlining":0.42857142857142855,"zigzagging":0.5,"honeypot":0,"survey":"sns","trial_type":"survey-template","trial_index":2,"time_elapsed":118005,"internal_node_id":"0.0-2.0","task_version":"prescreen-v0.3","browser_interactions":0,"infrequency":0},{"responses":{"Q01":"2","Q12":"2","Q06":"2","Q13":"1","Q09":"2","Q07":"2","Q05":"2","Q10":"2","Q04":"2","Q03":"2","Q08":"2","Q11":"2","Q02":"1"},"rt":41423.89999999991,"item_order":[0,11,5,12,8,6,4,9,3,2,7,10,1],"radio_events":[4336.100000000093,5950.600000000093,8989.69999999972,10947.299999999814,14023.600000000093,15724.899999999907,16571,20151.69999999972,24184.5,25932,29040.100000000093,31239,36146],"key_events":[],"mouse_events":[2339.5,4336.100000000093,5950.600000000093,8989.69999999972,10947.299999999814,13224.69999999972,14023.600000000093,15724.899999999907,16571,20151.69999999972,21549.899999999907,23482.799999999814,24184.5,24977.399999999907,25932,27640,29040.100000000093,31239,34965.60000000009,36146,41415.5],"straightlining":0.8461538461538461,"zigzagging":0.25,"honeypot":0,"survey":"bisbas","trial_type":"survey-template","trial_index":3,"time_elapsed":159441,"internal_node_id":"0.0-3.0","task_version":"prescreen-v0.3","browser_interactions":0,"infrequency":0.5},{"responses":{"Q01":"0","Q02":"0","Q03":"0"},"rt":15716.799999999814,"radio_events":[7803,10058.899999999907,14106.399999999907],"key_events":[],"mouse_events":[7803,10058.899999999907,14106.399999999907,15713],"survey":"map","page":1,"trial_type":"survey-map","trial_index":4,"time_elapsed":175168,"internal_node_id":"0.0-4.0","task_version":"prescreen-v0.3","browser_interactions":0},{"responses":{"Q04":"1","Q05":"1","Q06":"1"},"rt":9072.399999999907,"radio_events":[4365.399999999907,6042.600000000093,8124.399999999907],"key_events":[],"mouse_events":[4365.399999999907,6042.600000000093,8124.399999999907,9067.399999999907],"survey":"map","page":2,"trial_type":"survey-map","trial_index":5,"time_elapsed":184249,"internal_node_id":"0.0-5.0","task_version":"prescreen-v0.3","browser_interactions":0},{"responses":{"Q07":"4","Q08":"4","Q09":"3"},"rt":16438.700000000186,"radio_events":[5599.899999999907,9533.700000000186,12690.5],"key_events":[],"mouse_events":[5599.899999999907,8219.899999999907,9533.700000000186,10643.799999999814,11635.700000000186,12690.5,16433.899999999907],"survey":"map","page":3,"trial_type":"survey-map","trial_index":6,"time_elapsed":200696,"internal_node_id":"0.0-6.0","task_version":"prescreen-v0.3","browser_interactions":0},{"responses":{"Q10":"2","Q11":"2","Q12":"2","Q13":"2","Q16":"0","Q14":"1","Q15":"0"},"rt":24911,"radio_events":[2893.600000000093,4243.5,5573.899999999907,7614.600000000093,13942.899999999907,20136.5,23880.5],"key_events":[],"mouse_events":[2893.600000000093,4243.5,5573.899999999907,6889.200000000186,7614.600000000093,13942.899999999907,20136.5,22395.399999999907,23119.80000000028,23880.5,24904.30000000028],"survey":"map","page":4,"trial_type":"survey-map","trial_index":7,"time_elapsed":225616,"internal_node_id":"0.0-7.0","task_version":"prescreen-v0.3","browser_interactions":0,"infrequency":0},{"view_history":[{"page_index":0,"viewing_time":1982.6000000000931},{"page_index":1,"viewing_time":2266.1999999997206}],"rt":4254.399999999907,"trial_type":"instructions","trial_index":8,"time_elapsed":229875,"internal_node_id":"0.0-8.0","task_version":"prescreen-v0.3"},{"responses":{"01":"No","02":"No","03":"No","04":"No","05":"No","06":"No"},"rt":19251.100000000093,"item_order":[0,1,2,3,4,5],"radio_events":[3571.7000000001863,5951.899999999907,8126.200000000186,11010.399999999907,13712,18344.399999999907],"checkbox_events":[],"key_events":[],"mouse_events":[0.2999999998137355,3571.7000000001863,5951.899999999907,8126.200000000186,9272.899999999907,10315.100000000093,11010.399999999907,11839.100000000093,12688.799999999814,13712,18344.399999999907,19239.700000000186],"honeypot":0,"survey":"mace","page":1,"trial_type":"survey-mace","trial_index":9,"time_elapsed":249150,"internal_node_id":"0.0-9.0","task_version":"prescreen-v0.3","browser_interactions":0},{"responses":{"01":"No","02":"No","03":"No","04":"No","05":"No","06":"No","07":"No","08":"No"},"rt":36852.69999999972,"item_order":[0,1,2,3,4,5,6,7],"radio_events":[2276.899999999907,4817.299999999814,19485.69999999972,25911.299999999814,27505.799999999814,30070.69999999972,31131.899999999907,34237.89999999991,34454,36098.5],"checkbox_events":[],"key_events":[],"mouse_events":[2276.899999999907,3453.5999999996275,4817.299999999814,19485.69999999972,25911.299999999814,27505.799999999814,29032.899999999907,30070.69999999972,31131.899999999907,34237.89999999991,34454,36098.5,36837.799999999814],"honeypot":0,"survey":"mace","page":2,"trial_type":"survey-mace","trial_index":10,"time_elapsed":286018,"internal_node_id":"0.0-10.0","task_version":"prescreen-v0.3","browser_interactions":0},{"responses":{"01":"No","02":"No","03":"No","04":"No"},"rt":11607.69999999972,"item_order":[0,1,2,3],"radio_events":[2289.0999999996275,6386,7434.0999999996275,9628.5,10621.5],"checkbox_events":[],"key_events":[],"mouse_events":[2289.0999999996275,4786.399999999907,6386,7434.0999999996275,8704.5,9628.5,10621.5,11597.299999999814],"honeypot":0,"survey":"mace","page":3,"trial_type":"survey-mace","trial_index":11,"time_elapsed":297637,"internal_node_id":"0.0-11.0","task_version":"prescreen-v0.3","browser_interactions":0},{"responses":{"01":"No","02":"No"},"rt":5607.0999999996275,"item_order":[0,1],"radio_events":[3391.899999999907,4797.799999999814],"checkbox_events":[],"key_events":[],"mouse_events":[2658.0999999996275,3391.899999999907,4797.799999999814,5601.699999999721],"honeypot":0,"survey":"mace","page":4,"trial_type":"survey-mace","trial_index":12,"time_elapsed":303252,"internal_node_id":"0.0-12.0","task_version":"prescreen-v0.3","browser_interactions":0},{"responses":{"01":"No","02":"No","03":"No","04":"No","05":"No"},"rt":17388.299999999814,"item_order":[0,1,2,3,4],"radio_events":[4701.399999999907,7798.399999999907,11460.099999999627,13182.599999999627,16489.799999999814],"checkbox_events":[],"key_events":[],"mouse_events":[4701.399999999907,7798.399999999907,9903.299999999814,11460.099999999627,12534.299999999814,13182.599999999627,16489.799999999814,17378.69999999972],"honeypot":0,"survey":"mace","page":5,"trial_type":"survey-mace","trial_index":13,"time_elapsed":320652,"internal_node_id":"0.0-13.0","task_version":"prescreen-v0.3","browser_interactions":0},{"responses":{"01":"No","02":"No","03":"No","04":"No","05":"No"},"rt":10644.100000000093,"item_order":[0,1,2,3,4],"radio_events":[2053,5713.200000000186,7294.899999999907,8473.299999999814,9917.5],"checkbox_events":[],"key_events":[],"mouse_events":[2053,2834.2000000001863,3608.100000000093,5713.200000000186,6586.399999999907,7294.899999999907,8473.299999999814,9321.600000000093,9917.5,10632.399999999907],"honeypot":0,"survey":"mace","page":6,"trial_type":"survey-mace","trial_index":14,"time_elapsed":331308,"internal_node_id":"0.0-14.0","task_version":"prescreen-v0.3","browser_interactions":0},{"responses":{"01":"No","02":"No","03":"No","04":"No","05":"No","06":"No","07":"No"},"rt":18413.400000000373,"item_order":[0,1,2,3,4,5,6],"radio_events":[2585.5,4900.600000000093,6716.200000000186,8268.200000000186,10671.100000000093,13963.700000000186,17637.100000000093],"checkbox_events":[],"key_events":[],"mouse_events":[2585.5,3819.9000000003725,4900.600000000093,5873.800000000279,6716.200000000186,8268.200000000186,9088.400000000373,9936.80000000028,10671.100000000093,11906,13963.700000000186,17637.100000000093,18401.100000000093],"honeypot":0,"survey":"mace","page":7,"trial_type":"survey-mace","trial_index":15,"time_elapsed":349735,"internal_node_id":"0.0-15.0","task_version":"prescreen-v0.3","browser_interactions":0},{"responses":{"01":"No","02":"No","03":"No","04":"No"},"rt":15587.700000000186,"item_order":[0,1,2,3],"radio_events":[4192,10869.100000000093,12971,14730.400000000373],"checkbox_events":[],"key_events":[],"mouse_events":[4192,10869.100000000093,12971,14730.400000000373,15578.200000000186],"honeypot":0,"survey":"mace","page":8,"trial_type":"survey-mace","trial_index":16,"time_elapsed":365332,"internal_node_id":"0.0-16.0","task_version":"prescreen-v0.3","browser_interactions":0},{"responses":{"01":"Yes","01_ages_1":"1","01_ages_2":"2","01_ages_3":"3","01_ages_4":"4","01_ages_5":"5","01_ages_6":"6","01_ages_7":"7","01_ages_8":"8","01_ages_9":"9","01_ages_10":"10","01_ages_11":"11","01_ages_12":"12","01_ages_13":"13","01_ages_14":"14","01_ages_15":"15","01_ages_16":"16","01_ages_17":"17","01_ages_18":"18","02":"No","03":"Yes","03_ages_1":"1","03_ages_2":"2","03_ages_3":"3","03_ages_4":"4","03_ages_5":"5","03_ages_6":"6","03_ages_7":"7","03_ages_8":"8","03_ages_9":"9","03_ages_10":"10","03_ages_11":"11","03_ages_12":"12","03_ages_13":"13","03_ages_14":"14","03_ages_15":"15","03_ages_16":"16","03_ages_17":"17","03_ages_18":"18","04":"Yes","04_ages_1":"1","04_ages_2":"2","04_ages_3":"3","04_ages_4":"4","04_ages_5":"5","04_ages_6":"6","04_ages_7":"7","04_ages_8":"8","04_ages_9":"9","04_ages_10":"10","04_ages_11":"11","04_ages_12":"12","04_ages_13":"13","04_ages_14":"14","04_ages_15":"15","04_ages_16":"16","04_ages_17":"17","04_ages_18":"18"},"rt":74428.59999999963,"item_order":[0,1,2,3],"radio_events":[3356.899999999907,28985.399999999907,30917.69999999972,54638],"checkbox_events":[5772.399999999907,6380.899999999907,7651.199999999721,8135.699999999721,8941.299999999814,10160.19999999972,11504.599999999627,12471.799999999814,13347.599999999627,14273.899999999907,15212.399999999907,16638.69999999972,19072.69999999972,19996.5,20971.299999999814,21956,22857.799999999814,23762,24717.5,25643.899999999907,32282.799999999814,33237,34348.19999999972,35331.5,36279.09999999963,37184.89999999991,38109.59999999963,39242.19999999972,40261.59999999963,41148.5,42156,43735.299999999814,44488.5,45395,46350.69999999972,47114.19999999972,47838,48782.19999999972,55789.89999999991,56715.19999999972,57670.09999999963,58646.19999999972,60227.5,60960.59999999963,62032,62813,63536.59999999963,64789.5,65515.19999999972,66209,67319.59999999963,68054.09999999963,69393.19999999972,70097.79999999981,70783.19999999972,72037],"key_events":[],"mouse_events":[3356.899999999907,5772.399999999907,6380.899999999907,6958.299999999814,7651.199999999721,8135.699999999721,8941.299999999814,9572.099999999627,10160.19999999972,10900,11504.599999999627,12471.799999999814,13347.599999999627,14273.899999999907,15212.399999999907,16000.799999999814,16638.69999999972,18361.799999999814,19072.69999999972,19996.5,20971.299999999814,21956,22857.799999999814,23762,24717.5,25643.899999999907,28985.399999999907,30917.69999999972,32282.799999999814,33237,34348.19999999972,35331.5,36279.09999999963,37184.89999999991,38109.59999999963,39242.19999999972,40261.59999999963,41148.5,42156,43079.59999999963,43735.299999999814,44488.5,45395,46350.69999999972,47114.19999999972,47838,48782.19999999972,53878.09999999963,54638,55789.89999999991,56715.19999999972,57670.09999999963,58646.19999999972,59562.299999999814,60227.5,60960.59999999963,62032,62813,63536.59999999963,64259.09999999963,64789.5,65515.19999999972,66209,67319.59999999963,68054.09999999963,68775.79999999981,69393.19999999972,70097.79999999981,70783.19999999972,72037,74418.3999999999],"honeypot":0,"survey":"mace","page":9,"trial_type":"survey-mace","trial_index":17,"time_elapsed":439771,"internal_node_id":"0.0-17.0","task_version":"prescreen-v0.3","browser_interactions":0},{"responses":{"01":"No","02":"No","03":"No","04":"No","05":"No","06":"Yes","06_ages_17":"17","07":"Yes","07_ages_1":"1","07_ages_2":"2","07_ages_3":"3","07_ages_4":"4","07_ages_5":"5","07_ages_6":"6","07_ages_7":"7","07_ages_8":"8","07_ages_9":"9","07_ages_10":"10","07_ages_11":"11","07_ages_12":"12","07_ages_13":"13","07_ages_14":"14","07_ages_15":"15","07_ages_16":"16","07_ages_17":"17","07_ages_18":"18","08":"Yes","08_ages_1":"1","08_ages_2":"2","08_ages_3":"3","08_ages_4":"4","08_ages_5":"5","08_ages_6":"6","08_ages_7":"7","08_ages_8":"8","08_ages_9":"9","08_ages_10":"10","08_ages_11":"11","08_ages_12":"12","08_ages_13":"13","08_ages_14":"14","08_ages_15":"15","08_ages_16":"16","08_ages_17":"17","08_ages_18":"18"},"rt":57862.5,"item_order":[0,1,2,3,4,5,6,7],"radio_events":[2632.3000000002794,3714.3000000002794,5702.300000000279,7659.600000000093,10331.700000000186,11897,16256.899999999907,37873.700000000186],"checkbox_events":[14866.100000000093,18277.200000000186,19490.399999999907,20339.100000000093,21276,22026.700000000186,22789.600000000093,23737.200000000186,24653.5,25598,26282.200000000186,27105,27836.899999999907,28628.100000000093,29973,30955.899999999907,31722.700000000186,33626.30000000028,34382.89999999991,38963.60000000009,39814.80000000028,40526.200000000186,42439.80000000028,43867.200000000186,44610.10000000009,45747.200000000186,46606.700000000186,47608.700000000186,48703.80000000028,49656.89999999991,50515.10000000009,51470.200000000186,52203.80000000028,52975.60000000009,53787.39999999991,54559.39999999991,55360.39999999991],"key_events":[],"mouse_events":[2632.3000000002794,3714.3000000002794,5702.300000000279,7659.600000000093,9292.5,10331.700000000186,11230.30000000028,11897,14866.100000000093,16256.899999999907,18277.200000000186,18931.5,19490.399999999907,20339.100000000093,21276,22026.700000000186,22789.600000000093,23737.200000000186,24653.5,25598,26282.200000000186,27105,27836.899999999907,28628.100000000093,29973,30955.899999999907,31722.700000000186,33626.30000000028,34382.89999999991,37873.700000000186,38963.60000000009,39814.80000000028,40526.200000000186,41560.10000000009,42439.80000000028,43286.700000000186,43867.200000000186,44610.10000000009,45747.200000000186,46606.700000000186,47608.700000000186,48703.80000000028,49656.89999999991,50515.10000000009,51470.200000000186,52203.80000000028,52975.60000000009,53787.39999999991,54559.39999999991,55360.39999999991,57845.60000000009],"honeypot":0,"survey":"mace","page":10,"trial_type":"survey-mace","trial_index":18,"time_elapsed":497649,"internal_node_id":"0.0-18.0","task_version":"prescreen-v0.3","browser_interactions":0,"instructed":0},{"rt":5178.299999999814,"trial_type":"mental-health-alert","trial_index":19,"time_elapsed":502834,"internal_node_id":"0.0-19.0","task_version":"prescreen-v0.3","interactions":"[]"}]