[{"view_history":[{"page_index":0,"viewing_time":3710.1999999999534},{"page_index":1,"viewing_time":3798.600000000093},{"page_index":2,"viewing_time":2350.5},{"page_index":3,"viewing_time":1383.6999999999534}],"rt":11244.600000000093,"trial_type":"instructions","trial_index":0,"time_elapsed":11250,"internal_node_id":"0.0-0.0","task_version":"prescreen-v0.3"},{"rt":21277.899999999907,"responses":{"age":"59","gender-categorical":"Male","gender-free-response":"","ethnicity":"Not Hispanic or Latino","race":["White"],"education":"Bachelor degree","siblings":"3"},"trial_type":"survey-demo","trial_index":1,"time_elapsed":32535,"internal_node_id":"0.0-1.0","task_version":"prescreen-v0.3"},{"responses":{"Q13":"0","Q04":"2","Q12":"1","Q18":"0","Q14":"1","Q09":"2","Q15":"1","Q19":"1","Q20":"1","Q02":"1","Q03":"2","Q05":"2","Q11":"2","Q17":"2","Q07":"1","Q08":"2","Q21":"3","Q16":"0","Q01":"1","Q06":"3","Q10":"0"},"rt":127452.20000000019,"item_order":[12,3,11,17,13,8,14,18,19,1,2,4,10,16,6,7,20,15,0,5,9],"radio_events":[9476.600000000093,17174.40000000014,25843.800000000047,31524,35992.60000000009,40058.30000000005,46125.200000000186,54943.200000000186,57143.10000000009,61226.200000000186,64909.700000000186,79810,81026.1000000001,85411.20000000019,92410.70000000019,95527.40000000014,98276.80000000005,105461.6000000001,110344.1000000001,123844.5,125677.80000000005],"key_events":[],"mouse_events":[9476.600000000093,17174.40000000014,25843.800000000047,31524,35992.60000000009,40058.30000000005,46125.200000000186,54943.200000000186,57143.10000000009,61226.200000000186,64909.700000000186,79810,81026.1000000001,85411.20000000019,92410.70000000019,95527.40000000014,98276.80000000005,105461.6000000001,110344.1000000001,123844.5,125677.80000000005,127445.80000000005],"straightlining":0.38095238095238093,"zigzagging":0.6,"honeypot":0,"survey":"sns","trial_type":"survey-template","trial_index":2,"time_elapsed":159991,"internal_node_id":"0.0-2.0","task_version":"prescreen-v0.3","browser_interactions":0,"infrequency":0},{"responses":{"Q08":"3","Q01":"0","Q02":"0","Q05":"3","Q03":"1","Q11":"3","Q12":"2","Q09":"2","Q13":"0","Q07":"3","Q06":"3","Q04":"3","Q10":"2"},"rt":57260.39999999991,"item_order":[7,0,1,4,2,10,11,8,12,6,5,3,9],"radio_events":[9238.199999999953,12688,17038.899999999907,18354.399999999907,26154.299999999814,29654.799999999814,34057.799999999814,37890.39999999991,40373.799999999814,43256.5,46022.09999999986,52255.39999999991,56056.39999999991],"key_events":[],"mouse_events":[9238.199999999953,12688,17038.899999999907,18354.399999999907,26154.299999999814,29654.799999999814,34057.799999999814,37890.39999999991,40373.799999999814,43256.5,46022.09999999986,52255.39999999991,56056.39999999991,57257.19999999995],"straightlining":0.46153846153846156,"zigzagging":0.4166666666666667,"honeypot":0,"survey":"bisbas","trial_type":"survey-template","trial_index":3,"time_elapsed":217254,"internal_node_id":"0.0-3.0","task_version":"prescreen-v0.3","browser_interactions":0,"infrequency":0},{"responses":{"Q01":"3","Q02":"3","Q03":"3"},"rt":21292.5,"radio_events":[7640.5,13756.40000000014,20323.600000000093],"key_events":[],"mouse_events":[7640.5,13756.40000000014,20323.600000000093,21290.600000000093],"survey":"map","page":1,"trial_type":"survey-map","trial_index":4,"time_elapsed":238552,"internal_node_id":"0.0-4.0","task_version":"prescreen-v0.3","browser_interactions":0},{"responses":{"Q04":"4","Q05":"4","Q06":"3"},"rt":18628.699999999953,"radio_events":[8143.399999999907,15959.899999999907,18026.5],"key_events":[],"mouse_events":[8143.399999999907,15959.899999999907,18026.5,18626.5],"survey":"map","page":2,"trial_type":"survey-map","trial_index":5,"time_elapsed":257185,"internal_node_id":"0.0-5.0","task_version":"prescreen-v0.3","browser_interactions":0},{"responses":{"Q07":"3","Q08":"0","Q09":"4"},"rt":15312.600000000093,"radio_events":[6392.800000000047,10793.800000000047,14560.90000000014],"key_events":[],"mouse_events":[6392.800000000047,10793.800000000047,14560.90000000014,15310.300000000047],"survey":"map","page":3,"trial_type":"survey-map","trial_index":6,"time_elapsed":272501,"internal_node_id":"0.0-6.0","task_version":"prescreen-v0.3","browser_interactions":0},{"responses":{"Q10":"3","Q11":"3","Q12":"3","Q13":"3","Q16":"0","Q14":"4","Q15":"4"},"rt":39832.60000000009,"radio_events":[4960.600000000093,9127.5,14610.699999999953,23260.800000000047,31260.800000000047,35527.39999999991,38894.60000000009],"key_events":[],"mouse_events":[4960.600000000093,9127.5,14610.699999999953,23260.800000000047,31260.800000000047,35527.39999999991,38894.60000000009,39411.39999999991,39828.80000000005],"survey":"map","page":4,"trial_type":"survey-map","trial_index":7,"time_elapsed":312337,"internal_node_id":"0.0-7.0","task_version":"prescreen-v0.3","browser_interactions":0,"infrequency":0},{"view_history":[{"page_index":0,"viewing_time":3409},{"page_index":1,"viewing_time":4416.300000000047}],"rt":7827.700000000186,"trial_type":"instructions","trial_index":8,"time_elapsed":320167,"internal_node_id":"0.0-8.0","task_version":"prescreen-v0.3"},{"responses":{"01":"No","02":"No","03":"No","04":"No","05":"No","06":"No"},"rt":24750.5,"item_order":[0,1,2,3,4,5],"radio_events":[9488.899999999907,12289,15754.899999999907,17722.199999999953,19872.59999999986,21822.199999999953],"checkbox_events":[],"key_events":[],"mouse_events":[0.09999999986030161,9488.899999999907,12289,15754.899999999907,17722.199999999953,19872.59999999986,21822.199999999953,24742.199999999953],"honeypot":0,"survey":"mace","page":1,"trial_type":"survey-mace","trial_index":9,"time_elapsed":344928,"internal_node_id":"0.0-9.0","task_version":"prescreen-v0.3","browser_interactions":0},{"responses":{"01":"No","02":"No","03":"Yes","03_ages_1":"1","03_ages_2":"2","03_ages_3":"3","03_ages_4":"4","03_ages_5":"5","03_ages_6":"6","03_ages_7":"7","03_ages_8":"8","03_ages_9":"9","03_ages_10":"10","04":"Yes","04_ages_1":"1","04_ages_2":"2","04_ages_3":"3","04_ages_4":"4","04_ages_5":"5","04_ages_6":"6","04_ages_7":"7","04_ages_8":"8","04_ages_9":"9","04_ages_10":"10","05":"Yes","05_ages_1":"1","05_ages_2":"2","05_ages_3":"3","05_ages_4":"4","05_ages_5":"5","05_ages_6":"6","05_ages_7":"7","05_ages_8":"8","05_ages_9":"9","05_ages_10":"10","06":"No","07":"No","08":"No"},"rt":67746.1000000001,"item_order":[0,1,2,3,4,5,6,7],"radio_events":[4834.100000000093,8768,16967.40000000014,37102.5,49502.80000000005,61852.60000000009,64386.30000000005,66502.90000000014],"checkbox_events":[23885.800000000047,24934.699999999953,25617.800000000047,26134.5,28335.800000000047,28837.300000000047,29351.699999999953,29934.5,30452.40000000014,31002.40000000014,39835.69999999995,40484.69999999995,41218.30000000005,41753.19999999995,42268.5,44184.80000000005,44818.90000000014,45519.19999999995,46635.60000000009,47417.90000000014,50835.19999999995,51335,52585.80000000005,54135.19999999995,55118.30000000005,55719.30000000005,56702.69999999995,57402.19999999995,58319.60000000009,59402.5],"key_events":[],"mouse_events":[4834.100000000093,8768,16967.40000000014,23885.800000000047,24934.699999999953,25617.800000000047,26134.5,28335.800000000047,28837.300000000047,29351.699999999953,29934.5,30452.40000000014,31002.40000000014,37102.5,39835.69999999995,40484.69999999995,41218.30000000005,41753.19999999995,42268.5,42934.80000000005,43751.69999999995,44184.80000000005,44818.90000000014,45519.19999999995,46635.60000000009,47417.90000000014,49502.80000000005,50835.19999999995,51335,52585.80000000005,54135.19999999995,55118.30000000005,55719.30000000005,56702.69999999995,57402.19999999995,58319.60000000009,59402.5,61852.60000000009,64386.30000000005,66502.90000000014,67736.30000000005],"honeypot":0,"survey":"mace","page":2,"trial_type":"survey-mace","trial_index":10,"time_elapsed":412677,"internal_node_id":"0.0-10.0","task_version":"prescreen-v0.3","browser_interactions":0},{"responses":{"01":"No","02":"No","03":"No","04":"No"},"rt":19459.399999999907,"item_order":[0,1,2,3],"radio_events":[10418.399999999907,15253.199999999953,17752.800000000047,18919.300000000047],"checkbox_events":[],"key_events":[],"mouse_events":[10418.399999999907,15253.199999999953,17752.800000000047,18919.300000000047,19452.5],"honeypot":0,"survey":"mace","page":3,"trial_type":"survey-mace","trial_index":11,"time_elapsed":432140,"internal_node_id":"0.0-11.0","task_version":"prescreen-v0.3","browser_interactions":0},{"responses":{"01":"No","02":"No"},"rt":8708.799999999814,"item_order":[0,1],"radio_events":[5040.399999999907,8106.899999999907],"checkbox_events":[],"key_events":[],"mouse_events":[5040.399999999907,8106.899999999907,8706.399999999907],"honeypot":0,"survey":"mace","page":4,"trial_type":"survey-mace","trial_index":12,"time_elapsed":440851,"internal_node_id":"0.0-12.0","task_version":"prescreen-v0.3","browser_interactions":0},{"responses":{"01":"No","02":"No","03":"No","04":"No","05":"No"},"rt":19119.100000000093,"item_order":[0,1,2,3,4],"radio_events":[6911.100000000093,10627.399999999907,12562.100000000093,16578.300000000047,18228.600000000093],"checkbox_events":[],"key_events":[],"mouse_events":[6911.100000000093,10627.399999999907,12562.100000000093,16578.300000000047,18228.600000000093,19111.100000000093],"honeypot":0,"survey":"mace","page":5,"trial_type":"survey-mace","trial_index":13,"time_elapsed":459974,"internal_node_id":"0.0-13.0","task_version":"prescreen-v0.3","browser_interactions":0},{"responses":{"01":"No","02":"No","03":"No","04":"No","05":"No"},"rt":30213.899999999907,"item_order":[0,1,2,3,4],"radio_events":[5005.399999999907,8088.899999999907,14071.59999999986,17438.699999999953,20005.399999999907],"checkbox_events":[],"key_events":[],"mouse_events":[5005.399999999907,8088.899999999907,14071.59999999986,17438.699999999953,20005.399999999907,30207.59999999986],"honeypot":0,"survey":"mace","page":6,"trial_type":"survey-mace","trial_index":14,"time_elapsed":490191,"internal_node_id":"0.0-14.0","task_version":"prescreen-v0.3","browser_interactions":0},{"responses":{"01":"No","02":"No","03":"No","04":"No","05":"No","06":"No","07":"No"},"rt":25265,"item_order":[0,1,2,3,4,5,6],"radio_events":[4188,7704.800000000047,10988.5,12687.800000000047,15971.699999999953,21788.5,24038.5],"checkbox_events":[],"key_events":[],"mouse_events":[4188,7704.800000000047,10988.5,12687.800000000047,15971.699999999953,21788.5,24038.5,25255.300000000047],"honeypot":0,"survey":"mace","page":7,"trial_type":"survey-mace","trial_index":15,"time_elapsed":515460,"internal_node_id":"0.0-15.0","task_version":"prescreen-v0.3","browser_interactions":0},{"responses":{"01":"No","02":"No","03":"No","04":"No"},"rt":26611.699999999953,"item_order":[0,1,2,3],"radio_events":[6821,17537.100000000093,22288.100000000093,25320.40000000014],"checkbox_events":[],"key_events":[],"mouse_events":[6821,17537.100000000093,22288.100000000093,25320.40000000014,26605],"honeypot":0,"survey":"mace","page":8,"trial_type":"survey-mace","trial_index":16,"time_elapsed":542074,"internal_node_id":"0.0-16.0","task_version":"prescreen-v0.3","browser_interactions":0},{"responses":{"01":"Yes","01_ages_4":"4","01_ages_5":"5","01_ages_6":"6","01_ages_7":"7","01_ages_8":"8","01_ages_9":"9","01_ages_10":"10","01_ages_11":"11","01_ages_12":"12","01_ages_13":"13","01_ages_14":"14","01_ages_15":"15","01_ages_16":"16","01_ages_17":"17","01_ages_18":"18","02":"Yes","02_ages_4":"4","02_ages_5":"5","02_ages_6":"6","02_ages_7":"7","02_ages_8":"8","02_ages_9":"9","02_ages_10":"10","02_ages_11":"11","02_ages_12":"12","02_ages_13":"13","02_ages_14":"14","02_ages_15":"15","02_ages_16":"16","02_ages_17":"17","02_ages_18":"18","03":"Yes","03_ages_1":"1","03_ages_2":"2","03_ages_3":"3","03_ages_4":"4","03_ages_5":"5","03_ages_6":"6","03_ages_7":"7","03_ages_8":"8","03_ages_9":"9","03_ages_10":"10","03_ages_11":"11","03_ages_12":"12","03_ages_13":"13","03_ages_14":"14","03_ages_15":"15","03_ages_16":"16","03_ages_17":"17","03_ages_18":"18","04":"Yes","04_ages_1":"1","04_ages_2":"2","04_ages_3":"3","04_ages_4":"4","04_ages_5":"5","04_ages_6":"6","04_ages_7":"7","04_ages_8":"8","04_ages_9":"9","04_ages_10":"10","04_ages_11":"11","04_ages_12":"12","04_ages_13":"13","04_ages_14":"14","04_ages_15":"15","04_ages_16":"16","04_ages_17":"17","04_ages_18":"18"},"rt":105632,"item_order":[0,1,2,3],"radio_events":[8923.40000000014,37506.30000000005,56707.80000000005,82625.30000000005],"checkbox_events":[14289.5,16705.800000000047,17355.90000000014,18005.699999999953,18639.5,21589.100000000093,22523.40000000014,23340.5,24839.300000000047,25706.199999999953,26356.5,27006,29924,31056.300000000047,31524.800000000047,32106.300000000047,32625,33722.60000000009,34256.30000000005,34823.10000000009,35640.60000000009,39091.30000000005,39989.90000000014,40589.80000000005,42207.69999999995,43973,45058.10000000009,45824.80000000005,46723.5,47490,48156.69999999995,48807.69999999995,49623.40000000014,50190.19999999995,50823.60000000009,51490.69999999995,52691.30000000005,53858.40000000014,61207.90000000014,62340.5,62957.30000000005,63857.10000000009,64724,65574.19999999995,66207.30000000005,67207.30000000005,67724.30000000005,68457.6000000001,69057.69999999995,70041.5,71057.40000000014,71857.80000000005,72557.40000000014,73340.80000000005,74358.40000000014,75374.40000000014,87125.6000000001,87608.40000000014,88358.80000000005,89542,90258.90000000014,91058.90000000014,91891.40000000014,92858,94875.5,95492.1000000001,97709,98575.69999999995,99475.80000000005,100325.80000000005,101491.80000000005,102692.80000000005,103558.69999999995,104441.80000000005],"key_events":[],"mouse_events":[8923.40000000014,14289.5,16705.800000000047,17355.90000000014,18005.699999999953,18639.5,21589.100000000093,22523.40000000014,23340.5,24839.300000000047,25706.199999999953,26356.5,27006,29924,31056.300000000047,31524.800000000047,32106.300000000047,32625,33722.60000000009,34256.30000000005,34823.10000000009,35640.60000000009,37506.30000000005,39091.30000000005,39989.90000000014,40589.80000000005,42207.69999999995,43973,45058.10000000009,45824.80000000005,46723.5,47490,48156.69999999995,48807.69999999995,49623.40000000014,50190.19999999995,50823.60000000009,51490.69999999995,52691.30000000005,53858.40000000014,56707.80000000005,61207.90000000014,61740.69999999995,62340.5,62957.30000000005,63857.10000000009,64724,65574.19999999995,66207.30000000005,67207.30000000005,67724.30000000005,68457.6000000001,69057.69999999995,70041.5,71057.40000000014,71857.80000000005,72557.40000000014,73340.80000000005,74358.40000000014,75374.40000000014,82625.30000000005,87125.6000000001,87608.40000000014,88358.80000000005,89542,90258.90000000014,91058.90000000014,91891.40000000014,92858,94875.5,95492.1000000001,97709,98575.69999999995,99475.80000000005,100325.80000000005,101491.80000000005,102692.80000000005,103558.69999999995,104441.80000000005,105626.30000000005],"honeypot":0,"survey":"mace","page":9,"trial_type":"survey-mace","trial_index":17,"time_elapsed":647706,"internal_node_id":"0.0-17.0","task_version":"prescreen-v0.3","browser_interactions":0},{"responses":{"01":"No","02":"No","03":"No","04":"No","05":"No","06":"Yes","06_ages_17":"17","07":"Yes","07_ages_1":"1","07_ages_2":"2","07_ages_3":"3","07_ages_4":"4","07_ages_5":"5","07_ages_6":"6","07_ages_7":"7","07_ages_8":"8","07_ages_9":"9","07_ages_10":"10","07_ages_11":"11","07_ages_12":"12","07_ages_13":"13","07_ages_14":"14","07_ages_15":"15","07_ages_16":"16","07_ages_17":"17","07_ages_18":"18","08":"Yes","08_ages_1":"1","08_ages_2":"2","08_ages_3":"3","08_ages_4":"4","08_ages_5":"5","08_ages_6":"6","08_ages_7":"7","08_ages_8":"8","08_ages_9":"9","08_ages_10":"10","08_ages_11":"11","08_ages_12":"12","08_ages_13":"13","08_ages_14":"14","08_ages_15":"15","08_ages_16":"16","08_ages_17":"17","08_ages_18":"18"},"rt":59352.30000000005,"item_order":[0,1,2,3,4,5,6,7],"radio_events":[5339.100000000093,7322.800000000047,8706,10658.300000000047,13588.40000000014,17055.199999999953,22706.40000000014,41889.10000000009],"checkbox_events":[19206.40000000014,24489,25122.600000000093,25823.100000000093,26722.90000000014,28039.699999999953,28589.800000000047,29455.800000000047,30839.100000000093,31356,32656.699999999953,33672.60000000009,34340.10000000009,35189.5,35855.80000000005,36422.90000000014,37589.19999999995,38172.80000000005,38889,43073.19999999995,43790,44540.30000000005,45290.5,46206.69999999995,46690.90000000014,47223.90000000014,47940.5,48524.19999999995,49273.5,50923.30000000005,51740,53323.60000000009,53790.19999999995,54739.80000000005,55607.19999999995,56807.40000000014,58107.10000000009],"key_events":[],"mouse_events":[5339.100000000093,7322.800000000047,8706,10658.300000000047,13588.40000000014,17055.199999999953,19206.40000000014,22706.40000000014,24489,25122.600000000093,25823.100000000093,26722.90000000014,28039.699999999953,28589.800000000047,29455.800000000047,30839.100000000093,31356,32656.699999999953,33672.60000000009,34340.10000000009,35189.5,35855.80000000005,36422.90000000014,37589.19999999995,38172.80000000005,38889,41889.10000000009,43073.19999999995,43790,44540.30000000005,45290.5,46206.69999999995,46690.90000000014,47223.90000000014,47940.5,48524.19999999995,49273.5,50923.30000000005,51740,53323.60000000009,53790.19999999995,54739.80000000005,55607.19999999995,56807.40000000014,58107.10000000009,59341.69999999995],"honeypot":0,"survey":"mace","page":10,"trial_type":"survey-mace","trial_index":18,"time_elapsed":707062,"internal_node_id":"0.0-18.0","task_version":"prescreen-v0.3","browser_interactions":0,"instructed":0},{"rt":9618.5,"trial_type":"mental-health-alert","trial_index":19,"time_elapsed":716683,"internal_node_id":"0.0-19.0","task_version":"prescreen-v0.3","interactions":"[]"}]