[{"view_history":[{"page_index":0,"viewing_time":2992.6349999950617},{"page_index":1,"viewing_time":3039.199999999255},{"page_index":2,"viewing_time":3846.9050000057905},{"page_index":3,"viewing_time":1826.3999999981024}],"rt":11707.060000000638,"trial_type":"instructions","trial_index":0,"time_elapsed":11736,"internal_node_id":"0.0-0.0","task_version":"prescreen-v0.3"},{"rt":18623.22000000131,"responses":{"age":"28","gender-categorical":"Female","gender-free-response":"","ethnicity":"Not Hispanic or Latino","race":["White"],"education":"Bachelor degree"},"trial_type":"survey-demo","trial_index":1,"time_elapsed":30380,"internal_node_id":"0.0-1.0","task_version":"prescreen-v0.3"},{"responses":{"Q11":"0","Q17":"1","Q09":"1","Q15":"2","Q10":"0","Q07":"2","Q08":"0","Q14":"1","Q21":"3","Q04":"1","Q03":"0","Q01":"0","Q13":"1","Q16":"1","Q18":"1","Q20":"2","Q19":"0","Q05":"1","Q12":"1","Q02":"0","Q06":"1"},"rt":148486.49499999738,"item_order":[10,16,8,14,9,6,7,13,20,3,2,0,12,15,17,19,18,4,11,1,5],"radio_events":[15097.900000000664,20996.12999999954,25095.750000000407,33295.61999999714,39604.92499999964,52366.49999999645,57917.170000000624,67731.42499999813,71231.39999999694,82043.05999999633,86356.66499999934,90792.41999999795,94599.04499999539,102094.22500000073,114166.09999999491,116822.9399999982,122185.69999999454,130396.95999999822,137746.07000000105,140985.39999999775,145674.5049999954],"key_events":[],"mouse_events":[15097.900000000664,20996.12999999954,25095.750000000407,33295.61999999714,39604.92499999964,52366.49999999645,57917.170000000624,67731.42499999813,71231.39999999694,82043.05999999633,86356.66499999934,90792.41999999795,94599.04499999539,102094.22500000073,114166.09999999491,116822.9399999982,122185.69999999454,130396.95999999822,137746.07000000105,140985.39999999775,145674.5049999954,148478.75999999815],"straightlining":0.47619047619047616,"zigzagging":0.45,"honeypot":0,"survey":"sns","trial_type":"survey-template","trial_index":2,"time_elapsed":178884,"internal_node_id":"0.0-2.0","task_version":"prescreen-v0.3","browser_interactions":0,"infrequency":0},{"responses":{"Q05":"3","Q13":"0","Q02":"3","Q11":"3","Q08":"3","Q06":"2","Q03":"3","Q12":"1","Q04":"3","Q10":"2","Q01":"2","Q07":"3","Q09":"2"},"rt":71640.72999999917,"item_order":[4,12,1,10,7,5,2,11,3,9,0,6,8],"radio_events":[12629.41999999748,15888.81499999843,21422.429999998712,26809.699999997974,30811.83500000043,37535.19499999675,42792.65999999916,48793.659999995725,53738.729999997304,59312.949999999546,65331.64499999839,67865.05499999475,70694.24499999877],"key_events":[],"mouse_events":[12629.41999999748,15888.81499999843,21422.429999998712,26809.699999997974,30811.83500000043,37535.19499999675,42792.65999999916,48793.659999995725,52901.079999996,53738.729999997304,59312.949999999546,65331.64499999839,67865.05499999475,70694.24499999877,71637.32499999605],"straightlining":0.5384615384615384,"zigzagging":0.5833333333333334,"honeypot":0,"survey":"bisbas","trial_type":"survey-template","trial_index":3,"time_elapsed":250538,"internal_node_id":"0.0-3.0","task_version":"prescreen-v0.3","browser_interactions":0,"infrequency":0},{"responses":{"Q01":"3","Q02":"2","Q03":"3"},"rt":21712.20500000345,"radio_events":[8926.4650000041,13941.310000001977,20295.545000000857],"key_events":[],"mouse_events":[8926.4650000041,13941.310000001977,20295.545000000857,21709.785000006377],"survey":"map","page":1,"trial_type":"survey-map","trial_index":4,"time_elapsed":272259,"internal_node_id":"0.0-4.0","task_version":"prescreen-v0.3","browser_interactions":0},{"responses":{"Q04":"2","Q05":"2","Q06":"2"},"rt":18109.134999998787,"radio_events":[6880.40500000352,14396.800000002258,15519.670000001497],"key_events":[],"mouse_events":[6880.40500000352,11228.739999998652,14396.800000002258,15519.670000001497,18107.710000003863],"survey":"map","page":2,"trial_type":"survey-map","trial_index":5,"time_elapsed":290375,"internal_node_id":"0.0-5.0","task_version":"prescreen-v0.3","browser_interactions":0},{"responses":{"Q07":"3","Q08":"4","Q09":"3"},"rt":16036.814999999478,"radio_events":[8556.23999999807,12074.91999999911,15095.710000001418],"key_events":[],"mouse_events":[8556.23999999807,12074.91999999911,15095.710000001418,16035.094999999274],"survey":"map","page":3,"trial_type":"survey-map","trial_index":6,"time_elapsed":306418,"internal_node_id":"0.0-6.0","task_version":"prescreen-v0.3","browser_interactions":0},{"responses":{"Q10":"2","Q11":"2","Q12":"1","Q13":"2","Q16":"0","Q14":"2","Q15":"2"},"rt":46274.304999999,"radio_events":[5595.615000005637,9720.100000005914,15024.750000004133,21458.604999999807,27831.530000003113,41855.8800000028,45011.20000000083],"key_events":[],"mouse_events":[5595.615000005637,9720.100000005914,15024.750000004133,21458.604999999807,27831.530000003113,41855.8800000028,45011.20000000083,46271.25000000524],"survey":"map","page":4,"trial_type":"survey-map","trial_index":7,"time_elapsed":352701,"internal_node_id":"0.0-7.0","task_version":"prescreen-v0.3","browser_interactions":0,"infrequency":0},{"view_history":[{"page_index":0,"viewing_time":2137.220000004163},{"page_index":1,"viewing_time":10276.610000000801}],"rt":12414.785000000848,"trial_type":"instructions","trial_index":8,"time_elapsed":365119,"internal_node_id":"0.0-8.0","task_version":"prescreen-v0.3"},{"responses":{"01":"No","02":"No","03":"No","04":"No","05":"No","06":"No"},"rt":126249.09499999922,"item_order":[0,1,2,3,4,5],"radio_events":[92988.51499999728,99928.24499999551,107165.65499999706,112537.6599999945,115175.91999999422,119982.07999999431,123036.33499999705],"checkbox_events":[],"key_events":[],"mouse_events":[0.24499999562976882,92988.51499999728,99928.24499999551,107165.65499999706,112537.6599999945,115175.91999999422,119982.07999999431,123036.33499999705,126239.13999999786],"honeypot":0,"survey":"mace","page":1,"trial_type":"survey-mace","trial_index":9,"time_elapsed":491394,"internal_node_id":"0.0-9.0","task_version":"prescreen-v0.3","browser_interactions":0},{"responses":{"01":"No","02":"No","03":"Yes","03_ages_1":"1","03_ages_2":"2","03_ages_3":"3","03_ages_4":"4","03_ages_5":"5","03_ages_6":"6","03_ages_7":"7","03_ages_8":"8","04":"No","05":"No","06":"No","07":"No","08":"No"},"rt":39060.950000006414,"item_order":[0,1,2,3,4,5,6,7],"radio_events":[3698.7950000038836,11315.290000005916,13909.550000003946,27683.655000000726,29099.36000000016,31615.215000005264,34545.80500000151,36074.32500000141,38003.62000000308],"checkbox_events":[17011.48000000103,17925.475000003644,18902.070000003732,19833.46000000165,20669.050000004063,21518.895000001066,22412.45500000514,23331.47500000632],"key_events":[],"mouse_events":[3698.7950000038836,11315.290000005916,13909.550000003946,17011.48000000103,17925.475000003644,18902.070000003732,19833.46000000165,20669.050000004063,21518.895000001066,22412.45500000514,23331.47500000632,27683.655000000726,29099.36000000016,31615.215000005264,34545.80500000151,36074.32500000141,38003.62000000308,39049.90499999985],"honeypot":0,"survey":"mace","page":2,"trial_type":"survey-mace","trial_index":10,"time_elapsed":530476,"internal_node_id":"0.0-10.0","task_version":"prescreen-v0.3","browser_interactions":0},{"responses":{"01":"No","02":"No","03":"No","04":"No"},"rt":13468.815000000177,"item_order":[0,1,2,3],"radio_events":[6489.045000002137,7667.29000000481,10011.10999999952,10989.90500000224],"checkbox_events":[],"key_events":[],"mouse_events":[6489.045000002137,7667.29000000481,10011.10999999952,10989.90500000224,13463.284999997937],"honeypot":0,"survey":"mace","page":3,"trial_type":"survey-mace","trial_index":11,"time_elapsed":543958,"internal_node_id":"0.0-11.0","task_version":"prescreen-v0.3","browser_interactions":0},{"responses":{"01":"No","02":"No"},"rt":16236.230000002193,"item_order":[0,1],"radio_events":[12678.415000002133,15142.62500000035],"checkbox_events":[],"key_events":[],"mouse_events":[12678.415000002133,15142.62500000035,16232.515000003274],"honeypot":0,"survey":"mace","page":4,"trial_type":"survey-mace","trial_index":12,"time_elapsed":560203,"internal_node_id":"0.0-12.0","task_version":"prescreen-v0.3","browser_interactions":0},{"responses":{"01":"No","02":"No","03":"No","04":"No","05":"No"},"rt":25571.920000002137,"item_order":[0,1,2,3,4],"radio_events":[10466.355000004056,13905.604999999865,19943.820000000414,22977.48000000138,24067.465000000084],"checkbox_events":[],"key_events":[],"mouse_events":[10466.355000004056,13905.604999999865,17676.055000003544,19943.820000000414,22977.48000000138,24067.465000000084,25564.79500000563],"honeypot":0,"survey":"mace","page":5,"trial_type":"survey-mace","trial_index":13,"time_elapsed":585790,"internal_node_id":"0.0-13.0","task_version":"prescreen-v0.3","browser_interactions":0},{"responses":{"01":"No","02":"No","03":"No","04":"No","05":"No"},"rt":34888.21499999892,"item_order":[0,1,2,3,4],"radio_events":[13154.929999996908,20177.120000000228,27530.09999999625,31576.6500000027,33873.72000000323],"checkbox_events":[],"key_events":[],"mouse_events":[13154.929999996908,20177.120000000228,27530.09999999625,31576.6500000027,33109.55000000098,33873.72000000323,34880.75499999826],"honeypot":0,"survey":"mace","page":6,"trial_type":"survey-mace","trial_index":14,"time_elapsed":620692,"internal_node_id":"0.0-14.0","task_version":"prescreen-v0.3","browser_interactions":0},{"responses":{"01":"No","02":"No","03":"No","04":"No","05":"No","06":"No","07":"No"},"rt":20081.219999999972,"item_order":[0,1,2,3,4,5,6],"radio_events":[6286.234999999637,8266.479999998352,10064.539999999339,14722.135000003618,16515.144999997574,17904.39000000339,19165.15000000072],"checkbox_events":[],"key_events":[],"mouse_events":[6286.234999999637,8266.479999998352,10064.539999999339,14722.135000003618,16515.144999997574,17904.39000000339,19165.15000000072,20071.004999998026],"honeypot":0,"survey":"mace","page":7,"trial_type":"survey-mace","trial_index":15,"time_elapsed":640793,"internal_node_id":"0.0-15.0","task_version":"prescreen-v0.3","browser_interactions":0},{"responses":{"01":"No","02":"Yes","02_ages_10":"10","02_ages_11":"11","02_ages_12":"12","02_ages_13":"13","02_ages_14":"14","02_ages_15":"15","02_ages_16":"16","02_ages_17":"17","02_ages_18":"18","03":"No","04":"Yes","04_ages_10":"10","04_ages_11":"11","04_ages_12":"12","04_ages_13":"13","04_ages_14":"14","04_ages_15":"15","04_ages_16":"16","04_ages_17":"17","04_ages_18":"18"},"rt":61710.9550000024,"item_order":[0,1,2,3],"radio_events":[11926.315000004368,20903.26500000083,45683.57500000275,49523.93000000308],"checkbox_events":[30517.130000000237,32025.30500000296,32846.15000000491,33731.14500000526,34514.50000000489,35269.42000000423,36048.82999999984,37037.86000000406,38016.21500000334,51650.19000000041,52692.02000000235,53935.785000001546,54877.76500000479,55941.78500000271,56996.19499999983,57941.60499999998,58950.96500000369,60815.314999999944],"key_events":[],"mouse_events":[11926.315000004368,20903.26500000083,30517.130000000237,32025.30500000296,32846.15000000491,33731.14500000526,34514.50000000489,35269.42000000423,36048.82999999984,37037.86000000406,38016.21500000334,45683.57500000275,49523.93000000308,50972.53000000643,51650.19000000041,52692.02000000235,53935.785000001546,54877.76500000479,55941.78500000271,56996.19499999983,57941.60499999998,58950.96500000369,59903.31000000157,60815.314999999944,61704.86000000534],"honeypot":0,"survey":"mace","page":8,"trial_type":"survey-mace","trial_index":16,"time_elapsed":702518,"internal_node_id":"0.0-16.0","task_version":"prescreen-v0.3","browser_interactions":0},{"responses":{"01":"Yes","01_ages_1":"1","01_ages_2":"2","01_ages_3":"3","01_ages_4":"4","01_ages_5":"5","01_ages_6":"6","01_ages_7":"7","01_ages_8":"8","01_ages_9":"9","01_ages_10":"10","01_ages_11":"11","01_ages_12":"12","01_ages_13":"13","01_ages_14":"14","01_ages_15":"15","01_ages_16":"16","01_ages_17":"17","01_ages_18":"18","02":"Yes","02_ages_1":"1","02_ages_2":"2","02_ages_3":"3","02_ages_4":"4","02_ages_5":"5","02_ages_6":"6","02_ages_7":"7","02_ages_8":"8","02_ages_9":"9","02_ages_10":"10","02_ages_11":"11","02_ages_12":"12","02_ages_13":"13","02_ages_14":"14","02_ages_15":"15","02_ages_16":"16","02_ages_17":"17","02_ages_18":"18","03":"Yes","03_ages_1":"1","03_ages_2":"2","03_ages_3":"3","03_ages_4":"4","03_ages_5":"5","03_ages_6":"6","03_ages_7":"7","03_ages_8":"8","03_ages_9":"9","03_ages_10":"10","03_ages_11":"11","03_ages_12":"12","03_ages_13":"13","03_ages_14":"14","03_ages_15":"15","03_ages_16":"16","03_ages_17":"17","03_ages_18":"18","04":"Yes","04_ages_1":"1","04_ages_2":"2","04_ages_3":"3","04_ages_4":"4","04_ages_5":"5","04_ages_6":"6","04_ages_7":"7","04_ages_8":"8","04_ages_9":"9","04_ages_10":"10","04_ages_11":"11","04_ages_12":"12","04_ages_13":"13","04_ages_14":"14","04_ages_15":"15","04_ages_16":"16","04_ages_17":"17","04_ages_18":"18"},"rt":91625.26499999501,"item_order":[0,1,2,3],"radio_events":[5587.455000000773,30965.14000000013,50833.07499999495,72808.06999999913],"checkbox_events":[8858.860000000219,10306.904999997583,11967.870000000345,14082.099999999627,14889.165000000503,15659.749999998836,16876.21499999659,17751.794999996433,18618.22499999823,19514.979999999865,20548.034999999683,21511.514999998268,22504.349999995553,23541.819999998435,24497.934999999357,25502.209999998682,26617.339999997057,27614.114999996615,32429.505000000005,34032.91999999783,35031.47999999777,36880.41499999957,38020.42999999679,38924.3050000004,39852.67000000016,40724.16499999957,41663.074999996694,42658.87999999535,43553.07499999611,44410.244999999064,45367.66499999794,46245.53000000003,47012.53999999608,47799.4150000012,48555.22000000195,49798.699999999255,53834.90000000154,54701.62999999593,55472.39499999699,56234.92499999702,56981.85999999987,57796.8600000022,58614.82499999693,59447.78999999829,60203.795000001206,61068.43500000099,62565.884999996284,63916.799999999,65000.704999998445,66743.39999999932,67638.31000000203,68407.71999999555,69329.09999999532,70485.76999999932,75454.19499999844,76155.32499999972,76848.71500000008,77731.81499999913,78513.469999998,79241.54499999713,80059.09499999683,80859.95499999984,81860.6749999962,82800.479999998,83622.844999998,85180.650000002,86102.19499999937,87074.49999999511,88036.65000000177,88918.27000000188,89847.354999998,90702.14999999735],"key_events":[],"mouse_events":[5587.455000000773,8858.860000000219,10306.904999997583,11967.870000000345,13159.709999999846,14082.099999999627,14889.165000000503,15659.749999998836,16876.21499999659,17751.794999996433,18618.22499999823,19514.979999999865,20548.034999999683,21511.514999998268,22504.349999995553,23541.819999998435,24497.934999999357,25502.209999998682,26617.339999997057,27614.114999996615,30965.14000000013,32429.505000000005,33237.49500000116,34032.91999999783,35031.47999999777,36880.41499999957,38020.42999999679,38924.3050000004,39852.67000000016,40724.16499999957,41663.074999996694,42658.87999999535,43553.07499999611,44410.244999999064,45367.66499999794,46245.53000000003,47012.53999999608,47799.4150000012,48555.22000000195,49798.699999999255,50833.07499999495,53834.90000000154,54701.62999999593,55472.39499999699,56234.92499999702,56981.85999999987,57796.8600000022,58614.82499999693,59447.78999999829,60203.795000001206,61068.43500000099,62565.884999996284,63916.799999999,65000.704999998445,65903.96999999927,66743.39999999932,67638.31000000203,68407.71999999555,69329.09999999532,70485.76999999932,71633.60499999532,72808.06999999913,75454.19499999844,76155.32499999972,76848.71500000008,77731.81499999913,78513.469999998,79241.54499999713,80059.09499999683,80859.95499999984,81860.6749999962,82800.479999998,83622.844999998,84410.32999999868,85180.650000002,86102.19499999937,87074.49999999511,88036.65000000177,88918.27000000188,89847.354999998,90702.14999999735,91616.51999999583],"honeypot":0,"survey":"mace","page":9,"trial_type":"survey-mace","trial_index":17,"time_elapsed":794157,"internal_node_id":"0.0-17.0","task_version":"prescreen-v0.3","browser_interactions":0},{"responses":{"01":"No","02":"No","03":"No","04":"No","05":"No","06":"Yes","06_ages_17":"17","07":"Yes","07_ages_1":"1","07_ages_2":"2","07_ages_3":"3","07_ages_4":"4","07_ages_5":"5","07_ages_6":"6","07_ages_7":"7","07_ages_8":"8","07_ages_9":"9","07_ages_10":"10","07_ages_11":"11","07_ages_12":"12","07_ages_13":"13","07_ages_14":"14","07_ages_15":"15","07_ages_16":"16","07_ages_17":"17","07_ages_18":"18","08":"Yes","08_ages_1":"1","08_ages_2":"2","08_ages_3":"3","08_ages_4":"4","08_ages_5":"5","08_ages_6":"6","08_ages_7":"7","08_ages_8":"8","08_ages_9":"9","08_ages_10":"10","08_ages_11":"11","08_ages_12":"12","08_ages_13":"13","08_ages_14":"14","08_ages_15":"15","08_ages_16":"16","08_ages_17":"17","08_ages_18":"18"},"rt":67986.8050000004,"item_order":[0,1,2,3,4,5,6,7],"radio_events":[6159.944999999367,9364.190000000177,10800.465000000317,13656.754999996396,16095.71500000311,19542.639999999665,25760.22499999823,50459.28000000282],"checkbox_events":[21502.065000000643,31802.62999999826,32787.24499999953,33982.79999999795,34870.304999996675,35772.259999997914,36687.834999996936,37542.1100000022,38476.4599999981,40066.61499999603,40963.965000002645,41751.55999999703,42531.32499999623,43360.96499999985,44485.71500000253,45283.00000000303,46027.86499999638,47678.69000000064,48480.100000000675,52286.07999999798,53468.48499999754,55163.540000001434,55948.01000000001,56729.36499999929,57482.279999996535,58228.11499999813,58989.164999999106,59765.26500000176,60645.34499999718,61540.674999996554,62287.804999999935,63061.14499999967,63914.51000000234,64706.38499999768,65575.99499999918,66340.33500000078,67106.8099999975],"key_events":[],"mouse_events":[6159.944999999367,7519.6599999980535,9364.190000000177,10800.465000000317,13656.754999996396,16095.71500000311,19542.639999999665,21502.065000000643,25760.22499999823,31802.62999999826,32787.24499999953,33982.79999999795,34870.304999996675,35772.259999997914,36687.834999996936,37542.1100000022,38476.4599999981,39364.35999999964,40066.61499999603,40963.965000002645,41751.55999999703,42531.32499999623,43360.96499999985,44485.71500000253,45283.00000000303,46027.86499999638,46831.18999999715,47678.69000000064,48480.100000000675,50459.28000000282,52286.07999999798,53468.48499999754,54309.23500000057,55163.540000001434,55948.01000000001,56729.36499999929,57482.279999996535,58228.11499999813,58989.164999999106,59765.26500000176,60645.34499999718,61540.674999996554,62287.804999999935,63061.14499999967,63914.51000000234,64706.38499999768,65575.99499999918,66340.33500000078,67106.8099999975,67974.45999999763],"honeypot":0,"survey":"mace","page":10,"trial_type":"survey-mace","trial_index":18,"time_elapsed":862164,"internal_node_id":"0.0-18.0","task_version":"prescreen-v0.3","browser_interactions":0,"instructed":0},{"rt":12906.745000000345,"trial_type":"mental-health-alert","trial_index":19,"time_elapsed":875076,"internal_node_id":"0.0-19.0","task_version":"prescreen-v0.3","interactions":"[]"}]