[{"view_history":[{"page_index":0,"viewing_time":2574.0999999046326},{"page_index":1,"viewing_time":1909.5},{"page_index":2,"viewing_time":1216.2000000476837},{"page_index":3,"viewing_time":808.1000000238419}],"rt":6509,"trial_type":"instructions","trial_index":0,"time_elapsed":6517,"internal_node_id":"0.0-0.0","task_version":"prescreen-v0.3"},{"rt":12662.900000095367,"responses":{"age":"34","gender-categorical":"Female","gender-free-response":"","ethnicity":"Not Hispanic or Latino","race":["White"],"education":"Master degree or higher"},"trial_type":"survey-demo","trial_index":1,"time_elapsed":19188,"internal_node_id":"0.0-1.0","task_version":"prescreen-v0.3"},{"responses":{"Q19":"1","Q04":"1","Q08":"1","Q05":"1","Q06":"1","Q21":"3","Q07":"1","Q13":"1","Q11":"2","Q12":"1","Q03":"1","Q14":"1","Q20":"1","Q09":"1","Q17":"1","Q01":"1","Q16":"1","Q15":"1","Q18":"1","Q10":"1","Q02":"1"},"rt":57398.89999997616,"item_order":[18,3,7,4,5,20,6,12,10,11,2,13,19,8,16,0,15,14,17,9,1],"radio_events":[7994.5,8594,10445.600000023842,17531.899999976158,21042.5,22099.800000071526,25063.700000047684,28167.800000071526,31239.800000071526,33208.10000002384,35771.5,39503.89999997616,39986.10000002384,42418.39999997616,43182,45443.60000002384,46457.60000002384,48963.700000047684,52525.89999997616,52835.89999997616,55637.89999997616,56207.5],"key_events":[],"mouse_events":[5320.800000071526,5887.700000047684,7994.5,8594,10445.600000023842,17531.899999976158,18742.300000071526,21042.5,22099.800000071526,24668.200000047684,25063.700000047684,28167.800000071526,30857.899999976158,31239.800000071526,32622.800000071526,33208.10000002384,35771.5,36640.200000047684,37349.60000002384,38554.200000047684,39503.89999997616,39986.10000002384,41600,42418.39999997616,43182,44864.200000047684,45443.60000002384,45775.89999997616,46457.60000002384,47044,47815.89999997616,48963.700000047684,50391.89999997616,51622.60000002384,52116.10000002384,52525.89999997616,52835.89999997616,53541.89999997616,54645.89999997616,55336.200000047684,55637.89999997616,56207.5,57395.89999997616],"straightlining":0.9047619047619048,"zigzagging":0.1,"honeypot":0,"survey":"sns","trial_type":"survey-template","trial_index":2,"time_elapsed":76595,"internal_node_id":"0.0-2.0","task_version":"prescreen-v0.3","browser_interactions":0,"infrequency":0},{"responses":{"Q09":"2","Q05":"2","Q11":"2","Q07":"2","Q04":"2","Q01":"2","Q10":"2","Q02":"2","Q12":"1","Q06":"2","Q03":"2","Q13":"0","Q08":"2"},"rt":36146.800000071526,"item_order":[8,4,10,6,3,0,9,1,11,5,2,12,7],"radio_events":[7312.800000071526,9119.900000095367,12184.600000023842,12597.800000071526,14442.800000071526,16277.100000023842,16793.100000023842,19710.900000095367,20201.700000047684,21598.900000095367,24103,25554.800000071526,26481.300000071526,31877.100000023842,35529.200000047684],"key_events":[],"mouse_events":[6909,7312.800000071526,9119.900000095367,10918.700000047684,11799,12184.600000023842,12597.800000071526,14165,14442.800000071526,15162,15414.800000071526,15783.200000047684,16277.100000023842,16793.100000023842,19710.900000095367,20201.700000047684,21598.900000095367,24103,25554.800000071526,26481.300000071526,28349.200000047684,31205.5,31506.900000095367,31877.100000023842,34077.5,34678.90000009537,35529.200000047684,36145.10000002384],"straightlining":0.8461538461538461,"zigzagging":0.16666666666666666,"honeypot":0,"survey":"bisbas","trial_type":"survey-template","trial_index":3,"time_elapsed":112747,"internal_node_id":"0.0-3.0","task_version":"prescreen-v0.3","browser_interactions":0,"infrequency":0},{"responses":{"Q01":"3","Q02":"3","Q03":"3"},"rt":7337.700000047684,"radio_events":[4085,5480.5,6460.399999976158],"key_events":[],"mouse_events":[4085,5480.5,6460.399999976158,7336.799999952316],"survey":"map","page":1,"trial_type":"survey-map","trial_index":4,"time_elapsed":120090,"internal_node_id":"0.0-4.0","task_version":"prescreen-v0.3","browser_interactions":0},{"responses":{"Q04":"2","Q05":"2","Q06":"2"},"rt":5814.5,"radio_events":[2659.399999976158,3987.5,5427.5],"key_events":[],"mouse_events":[2659.399999976158,3987.5,4821.599999904633,5427.5,5813.799999952316],"survey":"map","page":2,"trial_type":"survey-map","trial_index":5,"time_elapsed":125907,"internal_node_id":"0.0-5.0","task_version":"prescreen-v0.3","browser_interactions":0},{"responses":{"Q07":"3","Q08":"3","Q09":"3"},"rt":6545.700000047684,"radio_events":[3908.100000023842,4770.399999976158,5850.200000047684],"key_events":[],"mouse_events":[3426.2000000476837,3908.100000023842,4770.399999976158,5850.200000047684,6545],"survey":"map","page":3,"trial_type":"survey-map","trial_index":6,"time_elapsed":132456,"internal_node_id":"0.0-6.0","task_version":"prescreen-v0.3","browser_interactions":0},{"responses":{"Q10":"3","Q11":"2","Q12":"2","Q13":"3","Q16":"0","Q14":"2","Q15":"3"},"rt":20307,"radio_events":[4202,4724.099999904633,7517.599999904633,9181.899999976158,12178.899999976158,15625.099999904633,18405.899999976158,19269.599999904633],"key_events":[],"mouse_events":[2565.5,3437,3917.5,4202,4724.099999904633,6167.299999952316,7517.599999904633,8745.5,9181.899999976158,11547.599999904633,11916.699999928474,12178.899999976158,12875.399999976158,15625.099999904633,17201.5,18405.899999976158,19269.599999904633,20305.399999976158],"survey":"map","page":4,"trial_type":"survey-map","trial_index":7,"time_elapsed":152766,"internal_node_id":"0.0-7.0","task_version":"prescreen-v0.3","browser_interactions":0,"infrequency":0},{"view_history":[{"page_index":0,"viewing_time":1481.5},{"page_index":1,"viewing_time":1514.3999999761581}],"rt":2996.5,"trial_type":"instructions","trial_index":8,"time_elapsed":155765,"internal_node_id":"0.0-8.0","task_version":"prescreen-v0.3"},{"responses":{"01":"No","02":"No","03":"No","04":"No","05":"No","06":"No"},"rt":10834.800000071526,"item_order":[0,1,2,3,4,5],"radio_events":[4651.800000071526,5943.100000023842,7309.600000023842,8663.300000071526,9223.200000047684,10283.400000095367],"checkbox_events":[],"key_events":[],"mouse_events":[0.10000002384185791,4651.800000071526,5222.100000023842,5943.100000023842,7309.600000023842,7961.5,8663.300000071526,9223.200000047684,10283.400000095367,10830.700000047684],"honeypot":0,"survey":"mace","page":1,"trial_type":"survey-mace","trial_index":9,"time_elapsed":166612,"internal_node_id":"0.0-9.0","task_version":"prescreen-v0.3","browser_interactions":0},{"responses":{"01":"No","02":"No","03":"No","04":"No","05":"No","06":"No","07":"No","08":"No"},"rt":11088.100000023842,"item_order":[0,1,2,3,4,5,6,7],"radio_events":[2906,4889.600000023842,5472.100000023842,7451.5,7934.600000023842,8331.700000047684,8988.100000023842,9875.899999976158],"checkbox_events":[],"key_events":[],"mouse_events":[2906,3271.899999976158,3657.2999999523163,4371.600000023842,4889.600000023842,5472.100000023842,6179.5,7451.5,7934.600000023842,8331.700000047684,8729.5,8988.100000023842,9327.799999952316,9875.899999976158,10841.899999976158,11083.600000023842],"honeypot":0,"survey":"mace","page":2,"trial_type":"survey-mace","trial_index":10,"time_elapsed":177706,"internal_node_id":"0.0-10.0","task_version":"prescreen-v0.3","browser_interactions":0},{"responses":{"01":"No","02":"No","03":"No","04":"No"},"rt":5673.899999976158,"item_order":[0,1,2,3],"radio_events":[2558,3307.5999999046326,4687.5,5048.799999952316],"checkbox_events":[],"key_events":[],"mouse_events":[1701,2558,3307.5999999046326,3947.0999999046326,4687.5,5048.799999952316,5670.899999976158],"honeypot":0,"survey":"mace","page":3,"trial_type":"survey-mace","trial_index":11,"time_elapsed":183384,"internal_node_id":"0.0-11.0","task_version":"prescreen-v0.3","browser_interactions":0},{"responses":{"01":"No","02":"No"},"rt":2993,"item_order":[0,1],"radio_events":[1974.1000000238419,2439.5],"checkbox_events":[],"key_events":[],"mouse_events":[1513.4000000953674,1974.1000000238419,2439.5,2991.5],"honeypot":0,"survey":"mace","page":4,"trial_type":"survey-mace","trial_index":12,"time_elapsed":186380,"internal_node_id":"0.0-12.0","task_version":"prescreen-v0.3","browser_interactions":0},{"responses":{"01":"No","02":"No","03":"No","04":"No","05":"No"},"rt":7350.700000047684,"item_order":[0,1,2,3,4],"radio_events":[1750.3000000715256,2371.7000000476837,4764.200000047684,5826.300000071526,6298.600000023842],"checkbox_events":[],"key_events":[],"mouse_events":[1226.2000000476837,1750.3000000715256,2371.7000000476837,3888.2000000476837,4302.200000047684,4764.200000047684,5244.100000023842,5826.300000071526,6298.600000023842,7102.399999976158,7347.200000047684],"honeypot":0,"survey":"mace","page":5,"trial_type":"survey-mace","trial_index":13,"time_elapsed":193736,"internal_node_id":"0.0-13.0","task_version":"prescreen-v0.3","browser_interactions":0},{"responses":{"01":"No","02":"No","03":"No","04":"No","05":"No"},"rt":7960.899999976158,"item_order":[0,1,2,3,4],"radio_events":[1333.2999999523163,1819.3999999761581,3116.6999999284744,3652.7999999523163,6554.5],"checkbox_events":[],"key_events":[],"mouse_events":[1333.2999999523163,1819.3999999761581,2590.899999976158,3116.6999999284744,3652.7999999523163,4293,4810.5,6554.5,7713,7957.299999952316],"honeypot":0,"survey":"mace","page":6,"trial_type":"survey-mace","trial_index":14,"time_elapsed":201702,"internal_node_id":"0.0-14.0","task_version":"prescreen-v0.3","browser_interactions":0},{"responses":{"01":"No","02":"No","03":"No","04":"No","05":"No","06":"No","07":"No"},"rt":9865.399999976158,"item_order":[0,1,2,3,4,5,6],"radio_events":[3107.2999999523163,5158,6226.200000047684,6807.799999952316,7683.600000023842,8247.5,9019.700000047684],"checkbox_events":[],"key_events":[],"mouse_events":[3107.2999999523163,3673.600000023842,3987.7999999523163,5158,5585.899999976158,6226.200000047684,6807.799999952316,7683.600000023842,8247.5,8695.899999976158,9019.700000047684,9860.600000023842],"honeypot":0,"survey":"mace","page":7,"trial_type":"survey-mace","trial_index":15,"time_elapsed":211574,"internal_node_id":"0.0-15.0","task_version":"prescreen-v0.3","browser_interactions":0},{"responses":{"01":"No","02":"No","03":"No","04":"No"},"rt":7046.600000023842,"item_order":[0,1,2,3],"radio_events":[3335.100000023842,4729.699999928474,5937.5,6649.699999928474],"checkbox_events":[],"key_events":[],"mouse_events":[1147.6999999284744,3335.100000023842,4103.199999928474,4729.699999928474,5937.5,6649.699999928474,7043.799999952316],"honeypot":0,"survey":"mace","page":8,"trial_type":"survey-mace","trial_index":16,"time_elapsed":218625,"internal_node_id":"0.0-16.0","task_version":"prescreen-v0.3","browser_interactions":0},{"responses":{"01":"Yes","01_ages_1":"1","01_ages_2":"2","01_ages_3":"3","01_ages_4":"4","01_ages_5":"5","01_ages_6":"6","01_ages_7":"7","01_ages_8":"8","01_ages_9":"9","01_ages_10":"10","01_ages_11":"11","01_ages_12":"12","01_ages_13":"13","01_ages_14":"14","01_ages_15":"15","01_ages_16":"16","01_ages_17":"17","01_ages_18":"18","02":"Yes","02_ages_1":"1","02_ages_2":"2","02_ages_3":"3","02_ages_4":"4","02_ages_5":"5","02_ages_6":"6","02_ages_7":"7","02_ages_8":"8","02_ages_9":"9","02_ages_10":"10","02_ages_11":"11","02_ages_12":"12","02_ages_13":"13","02_ages_14":"14","02_ages_15":"15","02_ages_16":"16","02_ages_17":"17","02_ages_18":"18","03":"Yes","03_ages_1":"1","03_ages_2":"2","03_ages_3":"3","03_ages_4":"4","03_ages_5":"5","03_ages_6":"6","03_ages_7":"7","03_ages_8":"8","03_ages_9":"9","03_ages_10":"10","03_ages_11":"11","03_ages_12":"12","03_ages_13":"13","03_ages_14":"14","03_ages_15":"15","03_ages_16":"16","03_ages_17":"17","03_ages_18":"18","04":"Yes","04_ages_1":"1","04_ages_2":"2","04_ages_3":"3","04_ages_4":"4","04_ages_5":"5","04_ages_6":"6","04_ages_7":"7","04_ages_8":"8","04_ages_9":"9","04_ages_10":"10","04_ages_11":"11","04_ages_12":"12","04_ages_13":"13","04_ages_14":"14","04_ages_15":"15","04_ages_16":"16","04_ages_17":"17","04_ages_18":"18"},"rt":48885.10000002384,"item_order":[0,1,2,3],"radio_events":[2050.399999976158,2676.399999976158,26010.399999976158,36376],"checkbox_events":[5501.200000047684,6144.399999976158,7380.5,7828.399999976158,8178.5,8514.300000071526,8878.100000023842,9210.600000023842,9950.200000047684,10303.300000071526,10698,11096.100000023842,11598.399999976158,11910.200000047684,12760.399999976158,13255.399999976158,13698.300000071526,14002.200000047684,15629.899999976158,16144,16861.899999976158,17194.399999976158,17776,18423.899999976158,19026.5,20362.200000047684,20910.399999976158,21466.100000023842,21910.100000023842,23044.399999976158,23430.300000071526,23978.399999976158,24367.800000071526,24709.399999976158,25049.899999976158,25328.800000071526,26906.100000023842,27366.200000047684,27918,28259.800000071526,28628.200000047684,28966,29302.300000071526,30082.200000047684,30440.100000023842,30873.800000071526,31494,32138.399999976158,32756.100000023842,33099.89999997616,33489.89999997616,33876.10000002384,34234.200000047684,34844.300000071526,37824.10000002384,38562.60000002384,40123.800000071526,40592.39999997616,41718.300000071526,42050.200000047684,42822.60000002384,43220.300000071526,43709.800000071526,44168.300000071526,44508.200000047684,45264.300000071526,45712.200000047684,46303.89999997616,46964.10000002384,47260.300000071526,47685.800000071526,48264.60000002384],"key_events":[],"mouse_events":[2050.399999976158,2676.399999976158,5150.399999976158,5501.200000047684,5866.100000023842,6144.399999976158,6744.600000023842,7028.100000023842,7380.5,7828.399999976158,8178.5,8514.300000071526,8878.100000023842,9210.600000023842,9552.5,9950.200000047684,10303.300000071526,10698,11096.100000023842,11598.399999976158,11910.200000047684,12266.100000023842,12760.399999976158,13255.399999976158,13698.300000071526,14002.200000047684,15629.899999976158,16144,16600.100000023842,16861.899999976158,17194.399999976158,17510.200000047684,17776,18150.200000047684,18423.899999976158,18780,19026.5,20362.200000047684,20910.399999976158,21466.100000023842,21910.100000023842,22426.100000023842,23044.399999976158,23430.300000071526,23978.399999976158,24367.800000071526,24709.399999976158,25049.899999976158,25328.800000071526,26010.399999976158,26906.100000023842,27366.200000047684,27918,28259.800000071526,28628.200000047684,28966,29302.300000071526,29631.800000071526,29866.600000023842,30082.200000047684,30440.100000023842,30873.800000071526,31224.200000047684,31494,31850.100000023842,32138.399999976158,32506.100000023842,32756.100000023842,33099.89999997616,33489.89999997616,33876.10000002384,34234.200000047684,34532.200000047684,34844.300000071526,35404.5,36052.200000047684,36376,37824.10000002384,38180.5,38562.60000002384,40123.800000071526,40592.39999997616,40966.300000071526,41428.200000047684,41718.300000071526,42050.200000047684,42520.300000071526,42822.60000002384,43220.300000071526,43709.800000071526,44168.300000071526,44508.200000047684,44956,45264.300000071526,45712.200000047684,46303.89999997616,46650,46964.10000002384,47260.300000071526,47685.800000071526,48264.60000002384,48882.300000071526],"honeypot":0,"survey":"mace","page":9,"trial_type":"survey-mace","trial_index":17,"time_elapsed":267515,"internal_node_id":"0.0-17.0","task_version":"prescreen-v0.3","browser_interactions":0},{"responses":{"01":"No","02":"No","03":"No","04":"No","05":"No","06":"Yes","06_ages_17":"17","07":"Yes","07_ages_1":"1","07_ages_2":"2","07_ages_3":"3","07_ages_4":"4","07_ages_5":"5","07_ages_6":"6","07_ages_7":"7","07_ages_8":"8","07_ages_9":"9","07_ages_10":"10","07_ages_11":"11","07_ages_12":"12","07_ages_13":"13","07_ages_14":"14","07_ages_15":"15","07_ages_16":"16","07_ages_17":"17","07_ages_18":"18","08":"Yes","08_ages_1":"1","08_ages_2":"2","08_ages_3":"3","08_ages_4":"4","08_ages_5":"5","08_ages_6":"6","08_ages_7":"7","08_ages_8":"8","08_ages_9":"9","08_ages_10":"10","08_ages_11":"11","08_ages_12":"12","08_ages_13":"13","08_ages_14":"14","08_ages_15":"15","08_ages_16":"16","08_ages_17":"17","08_ages_18":"18"},"rt":43727,"item_order":[0,1,2,3,4,5,6,7],"radio_events":[3719.4000000953674,4383.600000023842,5201.300000071526,5913.5,7273.200000047684,8787.300000071526,11155.300000071526,13003.300000071526,13455.300000071526,14289.5,16377.400000095367],"checkbox_events":[10529.400000095367,18959.200000047684,19303.300000071526,19939.900000095367,20233.300000071526,23363.100000023842,23885.300000071526,24561.200000047684,24919.400000095367,26097.200000047684,26525.300000071526,26911.300000071526,27427.400000095367,28049.100000023842,28411.300000071526,28813.300000071526,29223.400000095367,29697.200000047684,30029.600000023842,30465,30855.200000047684,31187.300000071526,31515.100000023842,31835.300000071526,32195.300000071526,33337.300000071526,33931.5,34857.200000047684,35173.300000071526,35698.90000009537,36197.200000047684,36629.300000071526,37037.300000071526,37721.300000071526,39233.300000071526,40383.40000009537,40981.60000002384,41556.90000009537,42185.5,42763.800000071526,43011.300000071526],"key_events":[],"mouse_events":[3719.4000000953674,4383.600000023842,5201.300000071526,5913.5,6463.200000047684,6947.900000095367,7273.200000047684,7646.5,8787.300000071526,10185.900000095367,10529.400000095367,11155.300000071526,13003.300000071526,13455.300000071526,14289.5,16377.400000095367,18959.200000047684,19303.300000071526,19939.900000095367,20233.300000071526,20839.5,21155.600000023842,21463.5,21846.300000071526,23363.100000023842,23885.300000071526,24263.400000095367,24561.200000047684,24919.400000095367,25613.400000095367,26097.200000047684,26525.300000071526,26911.300000071526,27427.400000095367,27791.700000047684,28049.100000023842,28411.300000071526,28813.300000071526,29223.400000095367,29697.200000047684,30029.600000023842,30465,30855.200000047684,31187.300000071526,31515.100000023842,31835.300000071526,32195.300000071526,32703.300000071526,33016.800000071526,33337.300000071526,33629.200000047684,33931.5,34579,34857.200000047684,35173.300000071526,35698.90000009537,36197.200000047684,36629.300000071526,37037.300000071526,37439.40000009537,37721.300000071526,38319.10000002384,38867.10000002384,39233.300000071526,39643.40000009537,40097.700000047684,40383.40000009537,40724.200000047684,40981.60000002384,41556.90000009537,42185.5,42763.800000071526,43011.300000071526,43510.10000002384,43721.700000047684],"honeypot":0,"survey":"mace","page":10,"trial_type":"survey-mace","trial_index":18,"time_elapsed":311248,"internal_node_id":"0.0-18.0","task_version":"prescreen-v0.3","browser_interactions":0,"instructed":0},{"rt":2446.899999976158,"trial_type":"mental-health-alert","trial_index":19,"time_elapsed":313699,"internal_node_id":"0.0-19.0","task_version":"prescreen-v0.3","interactions":"[]"}]