[{"view_history":[{"page_index":0,"viewing_time":1654.4000000059605},{"page_index":1,"viewing_time":1977.300000011921},{"page_index":2,"viewing_time":4740},{"page_index":3,"viewing_time":845.6999999880791}],"rt":9217.700000017881,"trial_type":"instructions","trial_index":0,"time_elapsed":9240,"internal_node_id":"0.0-0.0","task_version":"prescreen-v0.3"},{"rt":10342.200000017881,"responses":{"age":"27","gender-categorical":"Female","gender-free-response":"","ethnicity":"Not Hispanic or Latino","race":["Asian"],"education":"Bachelor degree"},"trial_type":"survey-demo","trial_index":1,"time_elapsed":19586,"internal_node_id":"0.0-1.0","task_version":"prescreen-v0.3"},{"responses":{"Q10":"0","Q19":"0","Q03":"0","Q04":"1","Q12":"2","Q18":"1","Q13":"3","Q01":"2","Q02":"1","Q11":"0","Q16":"2","Q07":"0","Q14":"2","Q17":"0","Q20":"0","Q09":"0","Q15":"2","Q21":"3","Q08":"1","Q06":"0","Q05":"0"},"rt":66857.29999998212,"item_order":[9,18,2,3,11,17,12,0,1,10,15,6,13,16,19,8,14,20,7,5,4],"radio_events":[10157.59999999404,11476.199999988079,12694.09999999404,17012.69999998808,21382.29999998212,25782.5,29501.899999976158,31608.19999998808,32425.09999999404,35431.5,36274.59999999404,39078.89999997616,41498,44757,46642.79999998212,51070,51694.29999998212,55155.39999997616,59240.79999998212,61752.09999999404,63688.09999999404,65692.39999997616],"key_events":[],"mouse_events":[3027.399999976158,10157.59999999404,11476.199999988079,11854.299999982119,12694.09999999404,17012.69999998808,21002.19999998808,21382.29999998212,25782.5,29501.899999976158,31608.19999998808,32425.09999999404,34472.29999998212,35431.5,36274.59999999404,39078.89999997616,41498,44757,46284.5,46642.79999998212,48539.89999997616,50115.09999999404,50502.89999997616,50786,51070,51694.29999998212,55155.39999997616,59240.79999998212,61752.09999999404,63688.09999999404,65692.39999997616,66856],"straightlining":0.47619047619047616,"zigzagging":0.4,"honeypot":0,"survey":"sns","trial_type":"survey-template","trial_index":2,"time_elapsed":86447,"internal_node_id":"0.0-2.0","task_version":"prescreen-v0.3","browser_interactions":0,"infrequency":0},{"responses":{"Q05":"3","Q07":"3","Q11":"3","Q04":"3","Q03":"3","Q12":"2","Q02":"3","Q09":"3","Q13":"0","Q10":"2","Q06":"3","Q08":"3","Q01":"3"},"rt":35549.09999999404,"item_order":[4,6,10,3,2,11,1,8,12,9,5,7,0],"radio_events":[3199,3576.9000000059605,3924,6712.4000000059605,9259.800000011921,13210.800000011921,18719.20000001788,19989.70000001788,23349.20000001788,24317.20000001788,27708.40000000596,30266.70000001788,33884.09999999404,35005.90000000596],"key_events":[],"mouse_events":[2595.9000000059605,3199,3576.9000000059605,3924,6712.4000000059605,9259.800000011921,12159.800000011921,13210.800000011921,18262.59999999404,18719.20000001788,19989.70000001788,22301.90000000596,23349.20000001788,24317.20000001788,27708.40000000596,29551.80000001192,30266.70000001788,33884.09999999404,35005.90000000596,35548.30000001192],"straightlining":0.7692307692307693,"zigzagging":0.3333333333333333,"honeypot":0,"survey":"bisbas","trial_type":"survey-template","trial_index":3,"time_elapsed":121999,"internal_node_id":"0.0-3.0","task_version":"prescreen-v0.3","browser_interactions":0,"infrequency":0},{"responses":{"Q01":"3","Q02":"3","Q03":"1"},"rt":9243.199999988079,"radio_events":[4383.4000000059605,6019.4000000059605,8332.5,8805.699999988079],"key_events":[],"mouse_events":[4383.4000000059605,6019.4000000059605,8332.5,8805.699999988079,9242.799999982119],"survey":"map","page":1,"trial_type":"survey-map","trial_index":4,"time_elapsed":131245,"internal_node_id":"0.0-4.0","task_version":"prescreen-v0.3","browser_interactions":0},{"responses":{"Q04":"4","Q05":"3","Q06":"3"},"rt":12057.5,"radio_events":[5241.4000000059605,7930.700000017881,8910.90000000596,11436.100000023842],"key_events":[],"mouse_events":[256.80000001192093,1528.1000000238419,2910.2000000178814,3406.2000000178814,4482.4000000059605,4951.4000000059605,5241.4000000059605,7930.700000017881,8542.90000000596,8910.90000000596,11436.100000023842,12057],"survey":"map","page":2,"trial_type":"survey-map","trial_index":5,"time_elapsed":143304,"internal_node_id":"0.0-5.0","task_version":"prescreen-v0.3","browser_interactions":0},{"responses":{"Q07":"1","Q08":"4","Q09":"4"},"rt":9727,"radio_events":[2770.5999999940395,4916.300000011921,5966.4000000059605,8571.699999988079,9111.199999988079],"key_events":[],"mouse_events":[2770.5999999940395,4916.300000011921,5966.4000000059605,7990.9000000059605,8571.699999988079,9111.199999988079,9726.699999988079],"survey":"map","page":3,"trial_type":"survey-map","trial_index":6,"time_elapsed":153033,"internal_node_id":"0.0-6.0","task_version":"prescreen-v0.3","browser_interactions":0},{"responses":{"Q10":"3","Q11":"3","Q12":"0","Q13":"1","Q16":"0","Q14":"3","Q15":"4"},"rt":29904.5,"radio_events":[4895.300000011921,9678.59999999404,12545.09999999404,17129.40000000596,17755.69999998808,20761.90000000596,26522.40000000596,29521.69999998808],"key_events":[],"mouse_events":[4895.300000011921,9678.59999999404,12545.09999999404,14720.300000011921,15676.09999999404,16134.699999988079,16658.30000001192,16890.19999998808,17129.40000000596,17755.69999998808,20761.90000000596,26522.40000000596,27063.5,29521.69999998808,29903.80000001192],"survey":"map","page":4,"trial_type":"survey-map","trial_index":7,"time_elapsed":182940,"internal_node_id":"0.0-7.0","task_version":"prescreen-v0.3","browser_interactions":0,"infrequency":0},{"view_history":[{"page_index":0,"viewing_time":1154.8999999761581},{"page_index":1,"viewing_time":2550.9000000059605}],"rt":3706.0999999940395,"trial_type":"instructions","trial_index":8,"time_elapsed":186647,"internal_node_id":"0.0-8.0","task_version":"prescreen-v0.3"},{"responses":{"01":"Yes","01_ages_6":"6","01_ages_7":"7","01_ages_8":"8","01_ages_9":"9","01_ages_10":"10","01_ages_11":"11","01_ages_12":"12","01_ages_13":"13","02":"Yes","02_ages_7":"7","02_ages_8":"8","02_ages_9":"9","02_ages_10":"10","02_ages_11":"11","02_ages_12":"12","02_ages_13":"13","03":"Yes","03_ages_4":"4","03_ages_5":"5","03_ages_6":"6","03_ages_7":"7","03_ages_8":"8","03_ages_9":"9","03_ages_10":"10","03_ages_11":"11","03_ages_12":"12","03_ages_13":"13","03_ages_14":"14","03_ages_15":"15","03_ages_16":"16","03_ages_17":"17","03_ages_18":"18","04":"No","05":"No","06":"Yes","06_ages_4":"4","06_ages_5":"5","06_ages_6":"6","06_ages_7":"7","06_ages_8":"8","06_ages_9":"9","06_ages_10":"10","06_ages_11":"11","06_ages_12":"12","06_ages_13":"13","06_ages_14":"14","06_ages_15":"15","06_ages_16":"16","06_ages_17":"17","06_ages_18":"18"},"rt":62788.39999997616,"item_order":[0,1,2,3,4,5],"radio_events":[6020.5,29404.69999998808,38567.5,48114.59999999404,50489.79999998212,51962.09999999404],"checkbox_events":[9862.09999999404,10250,10677.799999982119,11116.799999982119,11609,11958.799999982119,12797.09999999404,13956.399999976158,30513.899999976158,31200.79999998212,31535,31973.899999976158,32520,33308.39999997616,33740.09999999404,34263.19999998808,35718.69999998808,36115.39999997616,36590.5,41020.29999998212,41327.79999998212,41640.5,41981.89999997616,42554,42855,43169,43557.09999999404,43888.29999998212,44429.39999997616,44706.19999998808,45073.09999999404,45385.39999997616,45762.39999997616,46144.19999998808,55448.09999999404,55872.59999999404,56425.29999998212,57124.39999997616,57562.39999997616,57921.39999997616,58254.5,58577.59999999404,59541.69999998808,60046.59999999404,60434.89999997616,60756.79999998212,61078.79999998212,61866.69999998808,62288.89999997616],"key_events":[],"mouse_events":[0.09999999403953552,5191.399999976158,6020.5,9862.09999999404,10250,10677.799999982119,11116.799999982119,11609,11958.799999982119,12465.699999988079,12797.09999999404,13956.399999976158,27154.29999998212,29404.69999998808,30513.899999976158,31200.79999998212,31535,31973.899999976158,32520,33308.39999997616,33740.09999999404,34263.19999998808,35718.69999998808,36115.39999997616,36590.5,38567.5,41020.29999998212,41327.79999998212,41640.5,41981.89999997616,42554,42855,43169,43557.09999999404,43888.29999998212,44429.39999997616,44706.19999998808,45073.09999999404,45385.39999997616,45762.39999997616,46144.19999998808,48114.59999999404,50489.79999998212,51962.09999999404,55448.09999999404,55872.59999999404,56149.29999998212,56425.29999998212,56848.19999998808,57124.39999997616,57562.39999997616,57921.39999997616,58254.5,58577.59999999404,59132.5,59541.69999998808,60046.59999999404,60434.89999997616,60756.79999998212,61078.79999998212,61467.79999998212,61866.69999998808,62288.89999997616,62786.39999997616],"honeypot":0,"survey":"mace","page":1,"trial_type":"survey-mace","trial_index":9,"time_elapsed":249442,"internal_node_id":"0.0-9.0","task_version":"prescreen-v0.3","browser_interactions":0},{"responses":{"01":"Yes","01_ages_4":"4","01_ages_5":"5","01_ages_6":"6","01_ages_7":"7","01_ages_8":"8","01_ages_9":"9","01_ages_10":"10","01_ages_11":"11","01_ages_12":"12","01_ages_13":"13","01_ages_14":"14","01_ages_15":"15","01_ages_16":"16","01_ages_17":"17","01_ages_18":"18","02":"Yes","02_ages_8":"8","03":"Yes","03_ages_4":"4","03_ages_5":"5","03_ages_6":"6","03_ages_7":"7","03_ages_8":"8","03_ages_9":"9","03_ages_10":"10","03_ages_11":"11","03_ages_12":"12","03_ages_13":"13","03_ages_14":"14","03_ages_15":"15","03_ages_16":"16","03_ages_17":"17","03_ages_18":"18","04":"No","05":"Yes","05_ages_4":"4","05_ages_5":"5","05_ages_6":"6","05_ages_7":"7","05_ages_8":"8","05_ages_9":"9","05_ages_10":"10","05_ages_11":"11","05_ages_12":"12","05_ages_13":"13","05_ages_14":"14","06":"Yes","06_ages_7":"7","06_ages_8":"8","06_ages_9":"9","06_ages_10":"10","06_ages_11":"11","06_ages_12":"12","06_ages_13":"13","06_ages_14":"14","06_ages_15":"15","06_ages_16":"16","06_ages_17":"17","06_ages_18":"18","07":"No","08":"No"},"rt":52482.69999998808,"item_order":[0,1,2,3,4,5,6,7],"radio_events":[2273.0999999940395,17361.5,22334.40000000596,30710.90000000596,32029,38877.80000001192,40632.90000000596,50243.80000001192,51535.80000001192],"checkbox_events":[3318.199999988079,3655,4161.4000000059605,4565.300000011921,4889.300000011921,5219.4000000059605,5666.300000011921,6292.0999999940395,6844.5999999940395,7488.5,8416.5,9112.199999988079,9935.699999988079,10453.09999999404,11906.09999999404,18259.59999999404,23444.90000000596,23767.30000001192,24392.19999998808,24717.80000001192,25025.30000001192,25325.19999998808,25645.5,25971.40000000596,26288.40000000596,26636.19999998808,27232.5,27618.5,27905.59999999404,28379.5,29304.59999999404,33481,33894,34376.40000000596,34659.19999998808,34968.19999998808,35488.19999998808,35820.30000001192,36337.30000001192,36637.5,36965.80000001192,37301.69999998808,43113.09999999404,44180.09999999404,44527,44863.09999999404,45278.40000000596,45624.30000001192,45939.59999999404,46334.30000001192,46914.30000001192,47315.30000001192,48105.40000000596,48525.5],"key_events":[],"mouse_events":[1952,2273.0999999940395,3318.199999988079,3655,4161.4000000059605,4565.300000011921,4889.300000011921,5219.4000000059605,5666.300000011921,6292.0999999940395,6844.5999999940395,7136.199999988079,7488.5,7945.5999999940395,8416.5,8818.5,9112.199999988079,9468.800000011921,9935.699999988079,10453.09999999404,10863,11906.09999999404,12780.40000000596,17361.5,18259.59999999404,22334.40000000596,23247.80000001192,23444.90000000596,23767.30000001192,24133.19999998808,24392.19999998808,24717.80000001192,25025.30000001192,25325.19999998808,25645.5,25971.40000000596,26288.40000000596,26636.19999998808,27232.5,27618.5,27905.59999999404,28379.5,28848.69999998808,29304.59999999404,30710.90000000596,32029,32944.19999998808,33481,33894,34376.40000000596,34659.19999998808,34968.19999998808,35278.40000000596,35488.19999998808,35820.30000001192,36337.30000001192,36637.5,36965.80000001192,37301.69999998808,38877.80000001192,40632.90000000596,43113.09999999404,43532.80000001192,43851,44180.09999999404,44527,44863.09999999404,45278.40000000596,45624.30000001192,45939.59999999404,46334.30000001192,46914.30000001192,47315.30000001192,47609.5,48105.40000000596,48525.5,49248.69999998808,50243.80000001192,51535.80000001192,52480.30000001192],"honeypot":0,"survey":"mace","page":2,"trial_type":"survey-mace","trial_index":10,"time_elapsed":301930,"internal_node_id":"0.0-10.0","task_version":"prescreen-v0.3","browser_interactions":0},{"responses":{"01":"Yes","01_ages_8":"8","01_ages_9":"9","01_ages_10":"10","01_ages_11":"11","02":"No","03":"No","04":"No"},"rt":23817.09999999404,"item_order":[0,1,2,3],"radio_events":[8898.199999988079,18904.19999998808,21241.59999999404,22670.69999998808,23422.59999999404],"checkbox_events":[11757.59999999404,12189.5,12950.699999988079,13451.90000000596,14002,14319.800000011921,14982.90000000596,16968],"key_events":[],"mouse_events":[8898.199999988079,10546.300000011921,11757.59999999404,12189.5,12600.59999999404,12950.699999988079,13451.90000000596,14002,14319.800000011921,14982.90000000596,16382,16968,18904.19999998808,21241.59999999404,22670.69999998808,23247.40000000596,23422.59999999404,23815.80000001192],"honeypot":0,"survey":"mace","page":3,"trial_type":"survey-mace","trial_index":11,"time_elapsed":325751,"internal_node_id":"0.0-11.0","task_version":"prescreen-v0.3","browser_interactions":0},{"responses":{"01":"No","02":"No"},"rt":4385.5,"item_order":[0,1],"radio_events":[3112.5999999940395,3962.7999999821186],"checkbox_events":[],"key_events":[],"mouse_events":[3112.5999999940395,3962.7999999821186,4384.799999982119],"honeypot":0,"survey":"mace","page":4,"trial_type":"survey-mace","trial_index":12,"time_elapsed":330139,"internal_node_id":"0.0-12.0","task_version":"prescreen-v0.3","browser_interactions":0},{"responses":{"01":"No","02":"No","03":"No","04":"No","05":"No"},"rt":8296.100000023842,"item_order":[0,1,2,3,4],"radio_events":[2434.300000011921,3758.5,5482.600000023842,6935.700000017881,7786.700000017881],"checkbox_events":[],"key_events":[],"mouse_events":[2434.300000011921,3758.5,5482.600000023842,6935.700000017881,7550.800000011921,7786.700000017881,8294.300000011921],"honeypot":0,"survey":"mace","page":5,"trial_type":"survey-mace","trial_index":13,"time_elapsed":338438,"internal_node_id":"0.0-13.0","task_version":"prescreen-v0.3","browser_interactions":0},{"responses":{"01":"Yes","01_ages_6":"6","01_ages_7":"7","01_ages_8":"8","01_ages_9":"9","01_ages_10":"10","01_ages_11":"11","01_ages_12":"12","02":"Yes","02_ages_6":"6","02_ages_7":"7","02_ages_8":"8","02_ages_9":"9","02_ages_10":"10","02_ages_11":"11","02_ages_12":"12","03":"Yes","03_ages_11":"11","03_ages_12":"12","03_ages_13":"13","03_ages_14":"14","03_ages_15":"15","03_ages_16":"16","03_ages_17":"17","04":"No","05":"No"},"rt":34541.30000001192,"item_order":[0,1,2,3,4],"radio_events":[5544.199999988079,13787.800000011921,21483.5,32795.59999999404,34004.80000001192],"checkbox_events":[7629.199999988079,8339.40000000596,8634.59999999404,8965.59999999404,9357.199999988079,10358.40000000596,10683.59999999404,11178.5,11865.699999988079,15165.800000011921,16099.09999999404,16644.09999999404,18318.19999998808,18826.40000000596,19808.59999999404,20309.59999999404,26824.09999999404,27198.19999998808,27836.30000001192,28154.09999999404,28541.30000001192,29433.5,30209.59999999404],"key_events":[],"mouse_events":[5544.199999988079,7629.199999988079,7945.300000011921,8339.40000000596,8634.59999999404,8965.59999999404,9357.199999988079,9885.699999988079,10358.40000000596,10683.59999999404,11178.5,11865.699999988079,13787.800000011921,15165.800000011921,16099.09999999404,16644.09999999404,17191.09999999404,17784.09999999404,18050.09999999404,18318.19999998808,18826.40000000596,19333.19999998808,19808.59999999404,20309.59999999404,21483.5,26824.09999999404,27198.19999998808,27836.30000001192,28154.09999999404,28541.30000001192,29433.5,30209.59999999404,32795.59999999404,33633.80000001192,34004.80000001192,34539.80000001192],"honeypot":0,"survey":"mace","page":6,"trial_type":"survey-mace","trial_index":14,"time_elapsed":372983,"internal_node_id":"0.0-14.0","task_version":"prescreen-v0.3","browser_interactions":0},{"responses":{"01":"No","02":"No","03":"No","04":"No","05":"No","06":"No","07":"No"},"rt":17112.79999998212,"item_order":[0,1,2,3,4,5,6],"radio_events":[4097.5999999940395,8434.59999999404,11652.199999988079,13159.299999982119,13626.5,14054.40000000596,14739.40000000596,16406.69999998808],"checkbox_events":[],"key_events":[],"mouse_events":[3833.199999988079,4097.5999999940395,8434.59999999404,10232.90000000596,11652.199999988079,13159.299999982119,13626.5,14054.40000000596,14739.40000000596,16406.69999998808,17110.69999998808],"honeypot":0,"survey":"mace","page":7,"trial_type":"survey-mace","trial_index":15,"time_elapsed":390100,"internal_node_id":"0.0-15.0","task_version":"prescreen-v0.3","browser_interactions":0},{"responses":{"01":"Yes","01_ages_10":"10","01_ages_11":"11","01_ages_12":"12","01_ages_13":"13","01_ages_14":"14","01_ages_15":"15","01_ages_16":"16","01_ages_17":"17","01_ages_18":"18","02":"No","03":"Yes","03_ages_6":"6","03_ages_7":"7","03_ages_8":"8","03_ages_9":"9","03_ages_10":"10","03_ages_11":"11","03_ages_12":"12","03_ages_13":"13","03_ages_14":"14","03_ages_15":"15","03_ages_16":"16","03_ages_17":"17","03_ages_18":"18","04":"Yes","04_ages_10":"10","04_ages_11":"11","04_ages_12":"12","04_ages_13":"13","04_ages_14":"14","04_ages_15":"15","04_ages_16":"16","04_ages_17":"17","04_ages_18":"18"},"rt":35441.20000001788,"item_order":[0,1,2,3],"radio_events":[3502.9000000059605,6756.9000000059605,17602.20000001788,28075.09999999404],"checkbox_events":[12148.700000017881,12520.59999999404,12854.200000017881,13296.800000011921,13849.800000011921,14156.800000011921,14615.09999999404,14961.90000000596,15421.90000000596,19670.40000000596,20164.40000000596,20954.40000000596,22156,22516.5,22949.59999999404,23267.70000001788,23573.80000001192,23891.80000001192,24231.59999999404,24531.90000000596,24869,25418,26100.90000000596,26570,30651.5,31254.5,31653.5,31980.59999999404,32309.59999999404,32766.40000000596,33131.59999999404,34071.80000001192,34380.5,34821.70000001788,35120.90000000596],"key_events":[],"mouse_events":[3502.9000000059605,6756.9000000059605,12148.700000017881,12520.59999999404,12854.200000017881,13296.800000011921,13621.59999999404,13849.800000011921,14156.800000011921,14615.09999999404,14961.90000000596,15421.90000000596,17602.20000001788,19670.40000000596,20164.40000000596,20954.40000000596,22156,22516.5,22949.59999999404,23267.70000001788,23573.80000001192,23891.80000001192,24231.59999999404,24531.90000000596,24869,25418,25900.59999999404,26100.90000000596,26570,28075.09999999404,30651.5,31254.5,31653.5,31980.59999999404,32309.59999999404,32766.40000000596,33131.59999999404,33672.59999999404,34071.80000001192,34380.5,34821.70000001788,35120.90000000596,35439.90000000596],"honeypot":0,"survey":"mace","page":8,"trial_type":"survey-mace","trial_index":16,"time_elapsed":425545,"internal_node_id":"0.0-16.0","task_version":"prescreen-v0.3","browser_interactions":0},{"responses":{"01":"Yes","01_ages_1":"1","01_ages_2":"2","01_ages_3":"3","01_ages_4":"4","01_ages_5":"5","01_ages_6":"6","01_ages_7":"7","01_ages_8":"8","01_ages_9":"9","01_ages_10":"10","01_ages_11":"11","01_ages_12":"12","01_ages_13":"13","01_ages_14":"14","01_ages_15":"15","01_ages_16":"16","01_ages_17":"17","01_ages_18":"18","02":"Yes","02_ages_1":"1","02_ages_2":"2","02_ages_3":"3","02_ages_4":"4","02_ages_5":"5","02_ages_6":"6","02_ages_7":"7","02_ages_8":"8","02_ages_9":"9","02_ages_10":"10","02_ages_11":"11","02_ages_12":"12","02_ages_13":"13","02_ages_14":"14","02_ages_15":"15","02_ages_16":"16","02_ages_17":"17","02_ages_18":"18","03":"Yes","03_ages_1":"1","03_ages_2":"2","03_ages_3":"3","03_ages_4":"4","03_ages_5":"5","03_ages_6":"6","03_ages_7":"7","03_ages_8":"8","03_ages_9":"9","03_ages_10":"10","03_ages_11":"11","03_ages_12":"12","03_ages_13":"13","03_ages_14":"14","03_ages_15":"15","03_ages_16":"16","03_ages_17":"17","03_ages_18":"18","04":"Yes","04_ages_1":"1","04_ages_2":"2","04_ages_3":"3","04_ages_4":"4","04_ages_5":"5","04_ages_6":"6","04_ages_7":"7","04_ages_8":"8","04_ages_9":"9","04_ages_10":"10","04_ages_11":"11","04_ages_12":"12","04_ages_13":"13","04_ages_14":"14","04_ages_15":"15","04_ages_16":"16","04_ages_17":"17","04_ages_18":"18"},"rt":42809.09999999404,"item_order":[0,1,2,3],"radio_events":[2147.899999976158,11698.399999976158,21688.69999998808,33041.89999997616],"checkbox_events":[3266.199999988079,3970,4246.0999999940395,4805.0999999940395,5398.199999988079,5696.399999976158,6034.299999982119,6438.399999976158,6746.399999976158,7084.399999976158,7396.699999988079,7745.5999999940395,8060.199999988079,8400.5,8734.59999999404,9152.59999999404,9707.59999999404,10095.899999976158,13005.799999982119,13382.899999976158,13676.5,14253,14765.09999999404,15066.09999999404,15350.199999988079,15689.299999982119,16293.299999982119,17055.899999976158,17483.399999976158,17995.399999976158,18278.29999998212,18633.5,18926.399999976158,19492.69999998808,19782.59999999404,20129.399999976158,22330.5,22622.899999976158,23062.399999976158,23499.899999976158,24215.29999998212,24578,24907.899999976158,26041.29999998212,26365.19999998808,27037.29999998212,27906.5,28815.09999999404,29304.09999999404,30191.59999999404,30463.59999999404,30833.5,31271.79999998212,31642.79999998212,33691.19999998808,34287.69999998808,34634,35404.09999999404,35707.19999998808,36077.19999998808,36447.19999998808,36871.29999998212,37191.69999998808,38050.59999999404,38468.39999997616,39149.59999999404,39444.59999999404,40193.59999999404,40707.59999999404,41381.39999997616,41858.79999998212,42170.79999998212],"key_events":[],"mouse_events":[2147.899999976158,3266.199999988079,3527,3970,4246.0999999940395,4805.0999999940395,5117.0999999940395,5398.199999988079,5696.399999976158,6034.299999982119,6438.399999976158,6746.399999976158,7084.399999976158,7396.699999988079,7745.5999999940395,8060.199999988079,8400.5,8734.59999999404,9152.59999999404,9707.59999999404,10095.899999976158,11698.399999976158,12481.899999976158,13005.799999982119,13382.899999976158,13676.5,13962.899999976158,14253,14538.09999999404,14765.09999999404,15066.09999999404,15350.199999988079,15689.299999982119,16090,16293.299999982119,17055.899999976158,17483.399999976158,17995.399999976158,18278.29999998212,18633.5,18926.399999976158,19208.69999998808,19492.69999998808,19782.59999999404,20129.399999976158,21688.69999998808,22330.5,22622.899999976158,23062.399999976158,23499.899999976158,24215.29999998212,24578,24907.899999976158,25572.899999976158,26041.29999998212,26365.19999998808,27037.29999998212,27313.09999999404,27906.5,28556.69999998808,28815.09999999404,29304.09999999404,29742.29999998212,30191.59999999404,30463.59999999404,30833.5,31271.79999998212,31642.79999998212,33041.89999997616,33691.19999998808,34035.5,34287.69999998808,34634,35037.09999999404,35404.09999999404,35707.19999998808,36077.19999998808,36447.19999998808,36871.29999998212,37191.69999998808,38050.59999999404,38468.39999997616,38833.39999997616,39149.59999999404,39444.59999999404,39783.5,40001.79999998212,40193.59999999404,40707.59999999404,41381.39999997616,41858.79999998212,42170.79999998212,42807.69999998808],"honeypot":0,"survey":"mace","page":9,"trial_type":"survey-mace","trial_index":17,"time_elapsed":468357,"internal_node_id":"0.0-17.0","task_version":"prescreen-v0.3","browser_interactions":0},{"responses":{"01":"No","02":"No","03":"Yes","03_ages_6":"6","03_ages_7":"7","03_ages_8":"8","03_ages_9":"9","03_ages_10":"10","03_ages_11":"11","03_ages_12":"12","03_ages_13":"13","03_ages_14":"14","03_ages_15":"15","03_ages_16":"16","03_ages_17":"17","03_ages_18":"18","04":"Yes","04_ages_4":"4","04_ages_5":"5","04_ages_6":"6","04_ages_7":"7","04_ages_8":"8","04_ages_9":"9","04_ages_10":"10","04_ages_11":"11","04_ages_12":"12","04_ages_13":"13","04_ages_14":"14","04_ages_15":"15","04_ages_16":"16","04_ages_17":"17","04_ages_18":"18","05":"No","06":"Yes","06_ages_17":"17","07":"No","08":"No"},"rt":31259.69999998808,"item_order":[0,1,2,3,4,5,6,7],"radio_events":[1878.5,2694.5999999940395,3809.7999999821186,13120.5,25154.79999998212,26524.59999999404,29458.09999999404,30573.29999998212],"checkbox_events":[4898.9000000059605,5265.5999999940395,6340.199999988079,6680.799999982119,7762,8085.0999999940395,8474.09999999404,8961.199999988079,9261.5,9505.199999988079,10197.299999982119,10486.299999982119,11117.40000000596,11517.5,11926.59999999404,14021.799999982119,14516.699999988079,14908.59999999404,15283.59999999404,15635.90000000596,15866.699999988079,16639,17375,17780.90000000596,18165.90000000596,18528.19999998808,19468.09999999404,19742.40000000596,20293.29999998212,20674.40000000596,21040.40000000596,21473,27405.09999999404],"key_events":[],"mouse_events":[1878.5,2694.5999999940395,3570.5999999940395,3809.7999999821186,4898.9000000059605,5265.5999999940395,5836.9000000059605,6340.199999988079,6680.799999982119,7106,7380.4000000059605,7762,8085.0999999940395,8474.09999999404,8961.199999988079,9261.5,9505.199999988079,9905.199999988079,10197.299999982119,10486.299999982119,11117.40000000596,11517.5,11926.59999999404,13120.5,14021.799999982119,14516.699999988079,14908.59999999404,15283.59999999404,15635.90000000596,15866.699999988079,16639,17375,17780.90000000596,18165.90000000596,18528.19999998808,19007,19468.09999999404,19742.40000000596,20293.29999998212,20674.40000000596,21040.40000000596,21473,25154.79999998212,26524.59999999404,27405.09999999404,29458.09999999404,30573.29999998212,31257.29999998212],"honeypot":0,"survey":"mace","page":10,"trial_type":"survey-mace","trial_index":18,"time_elapsed":499622,"internal_node_id":"0.0-18.0","task_version":"prescreen-v0.3","browser_interactions":0,"instructed":0},{"rt":21547,"trial_type":"mental-health-alert","trial_index":19,"time_elapsed":521170,"internal_node_id":"0.0-19.0","task_version":"prescreen-v0.3","interactions":"[{\"event\":\"blur\",\"trial\":0,\"time\":7146},{\"event\":\"focus\",\"trial\":0,\"time\":8334}]"}]