[{"view_history":[{"page_index":0,"viewing_time":4505.600000143051},{"page_index":1,"viewing_time":4253.699999809265},{"page_index":2,"viewing_time":6688},{"page_index":3,"viewing_time":1382.1000001430511}],"rt":16829.900000095367,"trial_type":"instructions","trial_index":0,"time_elapsed":16852,"internal_node_id":"0.0-0.0","task_version":"prescreen-v0.3"},{"rt":37909.40000009537,"responses":{"age":"22","gender-categorical":"Male","gender-free-response":"","ethnicity":"Hispanic or Latino","race":["White"],"education":"High school"},"trial_type":"survey-demo","trial_index":1,"time_elapsed":54765,"internal_node_id":"0.0-1.0","task_version":"prescreen-v0.3"},{"responses":{"Q15":"3","Q05":"1","Q07":"1","Q16":"2","Q19":"3","Q10":"1","Q06":"2","Q09":"1","Q12":"1","Q08":"1","Q03":"2","Q21":"2","Q02":"0","Q18":"1","Q11":"0","Q14":"2","Q13":"2","Q04":"2","Q20":"0","Q01":"0","Q17":"1"},"rt":112573.80000019073,"item_order":[14,4,6,15,18,9,5,8,11,7,2,20,1,17,10,13,12,3,19,0,16],"radio_events":[8196.400000095367,8868.200000047684,14544.200000047684,32452,34908.10000014305,41212.200000047684,45752.300000190735,51818.200000047684,59988.200000047684,64044.200000047684,68802.10000014305,76118.20000004768,76902.10000014305,80684.10000014305,86518.20000004768,89190.40000009537,96026.20000004768,98126.10000014305,102240,105416.20000004768,108722.10000014305,111052.20000004768],"key_events":[],"mouse_events":[8196.400000095367,8868.200000047684,14544.200000047684,26546.200000047684,30584,31306.10000014305,32082.10000014305,32452,34492.300000190735,34908.10000014305,41212.200000047684,45196.200000047684,45752.300000190735,46902,51268,51818.200000047684,59164.200000047684,59988.200000047684,64044.200000047684,68802.10000014305,71986.30000019073,74242.10000014305,74906,75360.10000014305,75730.5,76118.20000004768,76902.10000014305,79766.30000019073,80684.10000014305,86518.20000004768,88510.10000014305,89190.40000009537,95052.30000019073,96026.20000004768,98126.10000014305,101832.20000004768,102240,104548.20000004768,105416.20000004768,108722.10000014305,111052.20000004768,112572.30000019073],"straightlining":0.38095238095238093,"zigzagging":0.4,"honeypot":0,"survey":"sns","trial_type":"survey-template","trial_index":2,"time_elapsed":167343,"internal_node_id":"0.0-2.0","task_version":"prescreen-v0.3","browser_interactions":0,"infrequency":0.5},{"responses":{"Q12":"1","Q11":"1","Q09":"2","Q13":"0","Q01":"3","Q06":"2","Q02":"3","Q07":"2","Q10":"2","Q05":"3","Q04":"3","Q03":"3","Q08":"3"},"rt":58410.299999952316,"item_order":[11,10,8,12,0,5,1,6,9,4,3,2,7],"radio_events":[8007.200000047684,13637.299999952316,16443.400000095367,19881.400000095367,23583.400000095367,28227.299999952316,31473.299999952316,33947.40000009537,36957.40000009537,40147.200000047684,43971.200000047684,47321.299999952316,53707.299999952316,57621.200000047684],"key_events":[],"mouse_events":[7253.299999952316,8007.200000047684,13637.299999952316,16443.400000095367,18685.400000095367,19881.400000095367,23583.400000095367,27501.400000095367,28227.299999952316,30941.400000095367,31473.299999952316,33947.40000009537,36957.40000009537,40147.200000047684,43971.200000047684,47321.299999952316,51509.200000047684,53707.299999952316,55269.40000009537,57621.200000047684,58067.40000009537,58409.40000009537],"straightlining":0.46153846153846156,"zigzagging":0.5,"honeypot":0,"survey":"bisbas","trial_type":"survey-template","trial_index":3,"time_elapsed":225756,"internal_node_id":"0.0-3.0","task_version":"prescreen-v0.3","browser_interactions":2,"infrequency":0},{"responses":{"Q01":"4","Q02":"3","Q03":"3"},"rt":20079,"radio_events":[8506.799999952316,14024.700000047684,19486.599999904633],"key_events":[],"mouse_events":[8506.799999952316,14024.700000047684,19486.599999904633,20078.599999904633],"survey":"map","page":1,"trial_type":"survey-map","trial_index":4,"time_elapsed":245838,"internal_node_id":"0.0-4.0","task_version":"prescreen-v0.3","browser_interactions":0},{"responses":{"Q04":"4","Q05":"4","Q06":"1"},"rt":15206.700000047684,"radio_events":[5382,11400.100000143051,14398.100000143051],"key_events":[],"mouse_events":[5382,10466,11400.100000143051,14398.100000143051,15206.100000143051],"survey":"map","page":2,"trial_type":"survey-map","trial_index":5,"time_elapsed":261046,"internal_node_id":"0.0-5.0","task_version":"prescreen-v0.3","browser_interactions":0},{"responses":{"Q07":"3","Q08":"4","Q09":"2"},"rt":16692.299999952316,"radio_events":[9196,12637.899999856949,15765.899999856949],"key_events":[],"mouse_events":[7434.099999904633,9196,12637.899999856949,15765.899999856949,16691.89999985695],"survey":"map","page":3,"trial_type":"survey-map","trial_index":6,"time_elapsed":277740,"internal_node_id":"0.0-6.0","task_version":"prescreen-v0.3","browser_interactions":0},{"responses":{"Q10":"3","Q11":"4","Q12":"1","Q13":"1","Q16":"0","Q14":"1","Q15":"3"},"rt":44291,"radio_events":[5120.100000143051,8382.100000143051,14944.100000143051,25076,30826.10000014305,37724.10000014305,42375.90000009537],"key_events":[],"mouse_events":[5120.100000143051,8382.100000143051,14944.100000143051,25076,29922.200000047684,30826.10000014305,37724.10000014305,42375.90000009537,44290.200000047684],"survey":"map","page":4,"trial_type":"survey-map","trial_index":7,"time_elapsed":322034,"internal_node_id":"0.0-7.0","task_version":"prescreen-v0.3","browser_interactions":0,"infrequency":0},{"view_history":[{"page_index":0,"viewing_time":2069.7000000476837},{"page_index":1,"viewing_time":5422}],"rt":7492.299999952316,"trial_type":"instructions","trial_index":8,"time_elapsed":329527,"internal_node_id":"0.0-8.0","task_version":"prescreen-v0.3"},{"responses":{"01":"Yes","01_ages_6":"6","01_ages_7":"7","01_ages_8":"8","01_ages_9":"9","01_ages_10":"10","01_ages_11":"11","01_ages_12":"12","01_ages_13":"13","01_ages_14":"14","01_ages_15":"15","01_ages_16":"16","02":"Yes","02_ages_6":"6","02_ages_7":"7","02_ages_8":"8","02_ages_9":"9","02_ages_10":"10","02_ages_11":"11","02_ages_12":"12","02_ages_14":"14","02_ages_15":"15","02_ages_16":"16","02_ages_17":"17","02_ages_18":"18","03":"No","04":"Yes","04_ages_14":"14","04_ages_15":"15","04_ages_16":"16","04_ages_17":"17","04_ages_18":"18","05":"No","06":"No"},"rt":61423.90000009537,"item_order":[0,1,2,3,4,5],"radio_events":[5841.599999904633,30047.400000095367,45149.5,48305.40000009537,56597.59999990463,60939.5],"checkbox_events":[13707.799999952316,14405.400000095367,15449.599999904633,15885.599999904633,16425.5,16823.400000095367,17388,17881.700000047684,18271.5,18701.5,19409.5,31495.5,31931.599999904633,32347.299999952316,33101.40000009537,33469.5,33803.5,34961.40000009537,36099.40000009537,38347.40000009537,38833.59999990463,39261.59999990463,39835.40000009537,49515.5,49951.40000009537,50337.5,50733.59999990463,51101.59999990463],"key_events":[],"mouse_events":[0,5841.599999904633,13707.799999952316,14405.400000095367,14939.700000047684,15449.599999904633,15885.599999904633,16425.5,16823.400000095367,17388,17881.700000047684,18271.5,18701.5,19409.5,29725.400000095367,30047.400000095367,31495.5,31931.599999904633,32347.299999952316,33101.40000009537,33469.5,33803.5,34961.40000009537,35727.5,36099.40000009537,36511.5,37577.40000009537,37969.40000009537,38347.40000009537,38833.59999990463,39261.59999990463,39835.40000009537,45149.5,48305.40000009537,49515.5,49951.40000009537,50337.5,50733.59999990463,51101.59999990463,56597.59999990463,60939.5,61421.90000009537],"honeypot":0,"survey":"mace","page":1,"trial_type":"survey-mace","trial_index":9,"time_elapsed":390956,"internal_node_id":"0.0-9.0","task_version":"prescreen-v0.3","browser_interactions":0},{"responses":{"01":"Yes","01_ages_13":"13","01_ages_14":"14","01_ages_15":"15","01_ages_16":"16","01_ages_17":"17","01_ages_18":"18","02":"No","03":"Yes","03_ages_6":"6","03_ages_7":"7","03_ages_8":"8","04":"No","05":"No","06":"No","07":"No","08":"No"},"rt":32455.5,"item_order":[0,1,2,3,4,5,6,7],"radio_events":[4290.600000143051,12746.400000095367,14514.400000095367,21336.5,23996.400000095367,25904.5,28116.5,31946.5],"checkbox_events":[5832.5,6456.5,6838.5,8218.5,8626.5,9426.200000047684,15640.5,16330.400000095367,16668.400000095367],"key_events":[],"mouse_events":[4290.600000143051,5832.5,6456.5,6838.5,7486.400000095367,8218.5,8626.5,9426.200000047684,12746.400000095367,14514.400000095367,15640.5,15988.300000190735,16330.400000095367,16668.400000095367,21336.5,23996.400000095367,25904.5,28116.5,31946.5,32452.700000047684],"honeypot":0,"survey":"mace","page":2,"trial_type":"survey-mace","trial_index":10,"time_elapsed":423414,"internal_node_id":"0.0-10.0","task_version":"prescreen-v0.3","browser_interactions":0},{"responses":{"01":"No","02":"No","03":"No","04":"No"},"rt":13923.699999809265,"item_order":[0,1,2,3],"radio_events":[6124.199999809265,8126.099999904633,10272.199999809265,13526.299999952316],"checkbox_events":[],"key_events":[],"mouse_events":[6124.199999809265,8126.099999904633,10272.199999809265,12168.199999809265,13526.299999952316,13922.399999856949],"honeypot":0,"survey":"mace","page":3,"trial_type":"survey-mace","trial_index":11,"time_elapsed":437340,"internal_node_id":"0.0-11.0","task_version":"prescreen-v0.3","browser_interactions":0},{"responses":{"01":"No","02":"No"},"rt":7761.200000047684,"item_order":[0,1],"radio_events":[6206.5,6920.5],"checkbox_events":[],"key_events":[],"mouse_events":[4042.5,6206.5,6920.5,7760.5],"honeypot":0,"survey":"mace","page":4,"trial_type":"survey-mace","trial_index":12,"time_elapsed":445104,"internal_node_id":"0.0-12.0","task_version":"prescreen-v0.3","browser_interactions":0},{"responses":{"01":"No","02":"No","03":"No","04":"No","05":"No"},"rt":18763.200000047684,"item_order":[0,1,2,3,4],"radio_events":[7331.200000047684,9937.299999952316,14183.299999952316,16417.299999952316,18361.299999952316],"checkbox_events":[],"key_events":[],"mouse_events":[7331.200000047684,9937.299999952316,14183.299999952316,16417.299999952316,18361.299999952316,18761.39999985695],"honeypot":0,"survey":"mace","page":5,"trial_type":"survey-mace","trial_index":13,"time_elapsed":463869,"internal_node_id":"0.0-13.0","task_version":"prescreen-v0.3","browser_interactions":0},{"responses":{"01":"Yes","01_ages_6":"6","01_ages_7":"7","01_ages_8":"8","01_ages_9":"9","01_ages_10":"10","01_ages_11":"11","01_ages_12":"12","01_ages_13":"13","01_ages_14":"14","02":"Yes","02_ages_9":"9","02_ages_10":"10","02_ages_11":"11","02_ages_12":"12","02_ages_13":"13","02_ages_14":"14","02_ages_15":"15","03":"Yes","03_ages_13":"13","03_ages_14":"14","03_ages_15":"15","04":"Yes","04_ages_15":"15","04_ages_16":"16","05":"No"},"rt":46203.40000009537,"item_order":[0,1,2,3,4],"radio_events":[12235.700000047684,21787.700000047684,23907.700000047684,33093.700000047684,38413.799999952316,45501.799999952316],"checkbox_events":[14413.799999952316,14861.900000095367,15639.799999952316,15941.900000095367,16451.60000014305,17393.799999952316,18001.700000047684,18349.799999952316,19681.799999952316,25211.799999952316,25559.700000047684,25921.60000014305,26693.799999952316,28005.700000047684,28451.60000014305,28837.60000014305,34399.60000014305,34753.799999952316,35549.60000014305,39237.799999952316,39567.700000047684,40289.799999952316,42441.700000047684],"key_events":[],"mouse_events":[12235.700000047684,13357.799999952316,14413.799999952316,14861.900000095367,15313.700000047684,15639.799999952316,15941.900000095367,16451.60000014305,16929.700000047684,17393.799999952316,18001.700000047684,18349.799999952316,19681.799999952316,21787.700000047684,23907.700000047684,25211.799999952316,25559.700000047684,25921.60000014305,26693.799999952316,28005.700000047684,28451.60000014305,28837.60000014305,33093.700000047684,34399.60000014305,34753.799999952316,35549.60000014305,38413.799999952316,39237.799999952316,39567.700000047684,40289.799999952316,42441.700000047684,45501.799999952316,46201.700000047684],"honeypot":0,"survey":"mace","page":6,"trial_type":"survey-mace","trial_index":14,"time_elapsed":510074,"internal_node_id":"0.0-14.0","task_version":"prescreen-v0.3","browser_interactions":0},{"responses":{"01":"No","02":"Yes","02_ages_13":"13","02_ages_14":"14","02_ages_15":"15","02_ages_16":"16","03":"No","04":"No","05":"No","06":"No","07":"No"},"rt":22307.900000095367,"item_order":[0,1,2,3,4,5,6],"radio_events":[3265.600000143051,7399.400000095367,13679.600000143051,15599.5,17165.5,21117.400000095367,21665.5],"checkbox_events":[8793.5,9303.600000143051,9715.600000143051,10591.5],"key_events":[],"mouse_events":[3265.600000143051,7399.400000095367,8793.5,9303.600000143051,9715.600000143051,10591.5,13679.600000143051,15599.5,17165.5,18777.60000014305,19907.300000190735,21117.400000095367,21665.5,22305.5],"honeypot":0,"survey":"mace","page":7,"trial_type":"survey-mace","trial_index":15,"time_elapsed":532385,"internal_node_id":"0.0-15.0","task_version":"prescreen-v0.3","browser_interactions":0},{"responses":{"01":"No","02":"No","03":"No","04":"No"},"rt":21394.5,"item_order":[0,1,2,3],"radio_events":[8051.100000143051,11441.100000143051,18151,21024.900000095367],"checkbox_events":[],"key_events":[],"mouse_events":[8051.100000143051,11441.100000143051,18151,21024.900000095367,21393],"honeypot":0,"survey":"mace","page":8,"trial_type":"survey-mace","trial_index":16,"time_elapsed":553782,"internal_node_id":"0.0-16.0","task_version":"prescreen-v0.3","browser_interactions":0},{"responses":{"01":"Yes","01_ages_1":"1","01_ages_2":"2","01_ages_3":"3","01_ages_4":"4","01_ages_5":"5","01_ages_6":"6","01_ages_7":"7","01_ages_8":"8","01_ages_9":"9","01_ages_10":"10","01_ages_11":"11","01_ages_12":"12","01_ages_13":"13","01_ages_14":"14","01_ages_15":"15","01_ages_16":"16","01_ages_17":"17","01_ages_18":"18","02":"Yes","02_ages_1":"1","02_ages_2":"2","02_ages_3":"3","02_ages_4":"4","02_ages_5":"5","02_ages_6":"6","02_ages_7":"7","02_ages_8":"8","02_ages_9":"9","02_ages_10":"10","02_ages_11":"11","02_ages_12":"12","02_ages_13":"13","02_ages_14":"14","02_ages_15":"15","02_ages_16":"16","02_ages_17":"17","02_ages_18":"18","03":"Yes","03_ages_1":"1","03_ages_2":"2","03_ages_3":"3","03_ages_4":"4","03_ages_5":"5","03_ages_6":"6","03_ages_7":"7","03_ages_8":"8","03_ages_9":"9","03_ages_10":"10","03_ages_11":"11","03_ages_12":"12","03_ages_13":"13","03_ages_14":"14","03_ages_15":"15","03_ages_16":"16","03_ages_17":"17","03_ages_18":"18","04":"Yes","04_ages_1":"1","04_ages_2":"2","04_ages_3":"3","04_ages_4":"4","04_ages_5":"5","04_ages_6":"6","04_ages_7":"7","04_ages_8":"8","04_ages_9":"9","04_ages_10":"10","04_ages_11":"11","04_ages_12":"12","04_ages_13":"13","04_ages_14":"14","04_ages_15":"15","04_ages_16":"16","04_ages_17":"17","04_ages_18":"18"},"rt":58611.90000009537,"item_order":[0,1,2,3],"radio_events":[5754.5,19436.5,33174.40000009537,47382.40000009537],"checkbox_events":[7374.400000095367,7794.5,8634.300000190735,9066.600000143051,9510.5,11354.400000095367,12658.5,13300.5,13854.400000095367,14262.400000095367,14604.400000095367,15106.5,15820.600000143051,16236.5,16680.400000095367,17496.60000014305,18074.400000095367,18520.5,20362.60000014305,20946.5,22786.60000014305,23214.5,23830.300000190735,24424.400000095367,25094.5,25576.5,26162.5,26628.900000095367,27182.300000190735,27960.5,29262.5,30036.400000095367,30820.5,31236.400000095367,31688.5,32218.5,35644.5,36166.5,38034.5,38422.40000009537,39128.5,40074.800000190735,40996.60000014305,41460.5,41908.40000009537,42456.60000014305,42924.5,43368.5,43854.5,44576.300000190735,45274.40000009537,45636.40000009537,46110.40000009537,46518.5,48838.5,49360.40000009537,50098.300000190735,50664.300000190735,51138.40000009537,51546.5,51974.40000009537,52354.5,52826.5,53520.60000014305,53996.5,55070.60000014305,55546.40000009537,56126.300000190735,56586.5,57018.300000190735,57528.40000009537,58072.40000009537],"key_events":[],"mouse_events":[4354.400000095367,5072.400000095367,5754.5,7374.400000095367,7794.5,8192.400000095367,8634.300000190735,9066.600000143051,9510.5,9868.5,11354.400000095367,11696.300000190735,12658.5,13300.5,13854.400000095367,14262.400000095367,14604.400000095367,15106.5,15820.600000143051,16236.5,16680.400000095367,17182.300000190735,17496.60000014305,18074.400000095367,18520.5,19436.5,20362.60000014305,20946.5,21452.400000095367,22786.60000014305,23214.5,23830.300000190735,24424.400000095367,25094.5,25576.5,26162.5,26628.900000095367,27182.300000190735,27960.5,28496.300000190735,29262.5,30036.400000095367,30820.5,31236.400000095367,31688.5,32218.5,33174.40000009537,35644.5,36166.5,37574.40000009537,38034.5,38422.40000009537,39128.5,40074.800000190735,40996.60000014305,41460.5,41908.40000009537,42456.60000014305,42924.5,43368.5,43854.5,44242.300000190735,44576.300000190735,44968.40000009537,45274.40000009537,45636.40000009537,46110.40000009537,46518.5,47382.40000009537,48838.5,49360.40000009537,49804.300000190735,50098.300000190735,50664.300000190735,51138.40000009537,51546.5,51974.40000009537,52354.5,52826.5,53520.60000014305,53996.5,54498.800000190735,55070.60000014305,55546.40000009537,56126.300000190735,56586.5,57018.300000190735,57528.40000009537,58072.40000009537,58610.5],"honeypot":0,"survey":"mace","page":9,"trial_type":"survey-mace","trial_index":17,"time_elapsed":612385,"internal_node_id":"0.0-17.0","task_version":"prescreen-v0.3","browser_interactions":0},{"responses":{"01":"No","02":"No","03":"No","04":"Yes","04_ages_16":"16","05":"No","06":"Yes","06_ages_17":"17","07":"Yes","07_ages_1":"1","07_ages_2":"2","07_ages_3":"3","07_ages_4":"4","07_ages_5":"5","07_ages_6":"6","07_ages_7":"7","07_ages_8":"8","07_ages_9":"9","07_ages_10":"10","07_ages_11":"11","07_ages_12":"12","07_ages_13":"13","07_ages_14":"14","07_ages_15":"15","07_ages_16":"16","07_ages_17":"17","07_ages_18":"18","08":"Yes","08_ages_1":"1","08_ages_2":"2","08_ages_3":"3","08_ages_4":"4","08_ages_5":"5","08_ages_6":"6","08_ages_7":"7","08_ages_8":"8","08_ages_9":"9","08_ages_10":"10","08_ages_11":"11","08_ages_12":"12","08_ages_13":"13","08_ages_14":"14","08_ages_15":"15","08_ages_16":"16","08_ages_17":"17","08_ages_18":"18"},"rt":65218.799999952316,"item_order":[0,1,2,3,4,5,6,7],"radio_events":[2967.899999856949,4310,7422,10790.099999904633,18812,20934,39620.200000047684,49803.700000047684],"checkbox_events":[11614,11953.899999856949,13250,22464,40679.59999990463,41002,41328,41691.89999985695,42046,42389.799999952316,42751.89999985695,43516,43829.89999985695,44172,44616,45007.89999985695,45647.89999985695,45982,46439.89999985695,46879.89999985695,47555.89999985695,48131.89999985695,51059.89999985695,51435.89999985695,51810,52181.89999985695,52574,53029.89999985695,53482,53845.89999985695,54314,54713.89999985695,55157.799999952316,55554,56007.799999952316,56476.09999990463,56908,57358,57790.200000047684,58140],"key_events":[],"mouse_events":[2967.899999856949,4310,7422,10790.099999904633,11614,11953.899999856949,13250,18812,20934,22464,38474.39999985695,39620.200000047684,40679.59999990463,41002,41328,41691.89999985695,42046,42389.799999952316,42751.89999985695,43516,43829.89999985695,44172,44616,45007.89999985695,45647.89999985695,45982,46439.89999985695,46879.89999985695,47201.89999985695,47555.89999985695,48131.89999985695,49803.700000047684,51059.89999985695,51435.89999985695,51810,52181.89999985695,52574,53029.89999985695,53482,53845.89999985695,54314,54713.89999985695,55157.799999952316,55554,56007.799999952316,56476.09999990463,56908,57358,57790.200000047684,58140,65216.09999990463],"honeypot":0,"survey":"mace","page":10,"trial_type":"survey-mace","trial_index":18,"time_elapsed":677596,"internal_node_id":"0.0-18.0","task_version":"prescreen-v0.3","browser_interactions":0,"instructed":0},{"rt":3932.600000143051,"trial_type":"mental-health-alert","trial_index":19,"time_elapsed":681530,"internal_node_id":"0.0-19.0","task_version":"prescreen-v0.3","interactions":"[{\"event\":\"blur\",\"trial\":0,\"time\":6236},{\"event\":\"focus\",\"trial\":0,\"time\":6309},{\"event\":\"blur\",\"trial\":3,\"time\":223703},{\"event\":\"focus\",\"trial\":3,\"time\":224275}]"}]