[{"view_history":[{"page_index":0,"viewing_time":1769.0999999996275},{"page_index":1,"viewing_time":1323.2999999998137},{"page_index":2,"viewing_time":1996.1000000005588},{"page_index":3,"viewing_time":813.7999999998137}],"rt":5903.5,"trial_type":"instructions","trial_index":0,"time_elapsed":5913,"internal_node_id":"0.0-0.0","task_version":"prescreen-v0.3"},{"rt":8483.600000000559,"responses":{"age":"25","gender-categorical":"Female","gender-free-response":"","ethnicity":"Not Hispanic or Latino","race":["White"],"education":"High school"},"trial_type":"survey-demo","trial_index":1,"time_elapsed":14406,"internal_node_id":"0.0-1.0","task_version":"prescreen-v0.3"},{"responses":{"Q20":"1","Q10":"1","Q09":"1","Q03":"1","Q08":"1","Q07":"0","Q05":"2","Q17":"1","Q14":"1","Q13":"0","Q16":"2","Q19":"1","Q18":"2","Q04":"1","Q12":"1","Q01":"3","Q02":"3","Q21":"2","Q15":"2","Q06":"1","Q11":"2"},"rt":69488.5,"item_order":[19,9,8,2,7,6,4,16,13,12,15,18,17,3,11,0,1,20,14,5,10],"radio_events":[4635,5325.299999999814,8242.900000000373,10720.799999999814,11400.799999999814,13351.200000000186,14350.700000000186,18832.599999999627,19644.5,23616.299999999814,27486.299999999814,30922.200000000186,33176,35923.90000000037,40837.799999999814,42563.799999999814,45977.40000000037,48525.5,51573.5,52363.5,54739.299999999814,58517,62573,64221,68185],"key_events":[],"mouse_events":[3119.2000000001863,4635,5325.299999999814,8242.900000000373,10333,10720.799999999814,11400.799999999814,12206.900000000373,13351.200000000186,14350.700000000186,18228.599999999627,18832.599999999627,19644.5,23616.299999999814,26658.400000000373,27486.299999999814,28454.200000000186,30326.299999999814,30922.200000000186,32750.299999999814,33176,35257.799999999814,35923.90000000037,40837.799999999814,42563.799999999814,45977.40000000037,48045.700000000186,48525.5,49469.59999999963,49847.799999999814,50041.59999999963,51573.5,52363.5,54437.40000000037,54739.299999999814,58517,62573,64221,64693.09999999963,68185,69484.79999999981],"straightlining":0.5238095238095238,"zigzagging":0.45,"honeypot":0,"survey":"sns","trial_type":"survey-template","trial_index":2,"time_elapsed":83906,"internal_node_id":"0.0-2.0","task_version":"prescreen-v0.3","browser_interactions":0,"infrequency":0.5},{"responses":{"Q08":"2","Q05":"2","Q07":"2","Q09":"1","Q11":"1","Q06":"2","Q12":"1","Q13":"0","Q02":"3","Q04":"3","Q03":"2","Q01":"3","Q10":"2"},"rt":37891.5,"item_order":[7,4,6,8,10,5,11,12,1,3,2,0,9],"radio_events":[5738.299999999814,6444.299999999814,7628.200000000186,8882.200000000186,11350,14121.900000000373,16721.900000000373,18355.799999999814,24671.900000000373,28649.5,29331.5,30639.5,32125.5,36459.299999999814,37123.59999999963],"key_events":[],"mouse_events":[5738.299999999814,6444.299999999814,7628.200000000186,8882.200000000186,10986,11350,13510.099999999627,13890.5,14121.900000000373,16721.900000000373,17791.700000000186,18355.799999999814,24671.900000000373,28069.599999999627,28347.299999999814,28649.5,29331.5,29841.5,30097.400000000373,30639.5,32125.5,33549.59999999963,34515.200000000186,34825.200000000186,35421.09999999963,36157.40000000037,36459.299999999814,37123.59999999963,37403.299999999814,37889.299999999814],"straightlining":0.46153846153846156,"zigzagging":0.6666666666666666,"honeypot":0,"survey":"bisbas","trial_type":"survey-template","trial_index":3,"time_elapsed":121805,"internal_node_id":"0.0-3.0","task_version":"prescreen-v0.3","browser_interactions":0,"infrequency":0},{"responses":{"Q01":"1","Q02":"2","Q03":"2"},"rt":7778.700000000186,"radio_events":[2515.7999999998137,4883.5999999996275,7275.5],"key_events":[],"mouse_events":[2515.7999999998137,4481.5,4883.5999999996275,5185.5999999996275,6353.5,7003.4000000003725,7275.5,7777.5999999996275],"survey":"map","page":1,"trial_type":"survey-map","trial_index":4,"time_elapsed":129589,"internal_node_id":"0.0-4.0","task_version":"prescreen-v0.3","browser_interactions":0},{"responses":{"Q04":"2","Q05":"2","Q06":"2"},"rt":8525.599999999627,"radio_events":[4328.5999999996275,6086.5,7874.5],"key_events":[],"mouse_events":[4328.5999999996275,6086.5,7284.5999999996275,7572.5,7874.5,8524.599999999627],"survey":"map","page":2,"trial_type":"survey-map","trial_index":5,"time_elapsed":138118,"internal_node_id":"0.0-5.0","task_version":"prescreen-v0.3","browser_interactions":0},{"responses":{"Q07":"1","Q08":"2","Q09":"2"},"rt":11016.099999999627,"radio_events":[3021.5,5257.299999999814,7379.200000000186,9351.299999999814],"key_events":[],"mouse_events":[3021.5,5257.299999999814,7045.299999999814,7379.200000000186,9351.299999999814,11015.200000000186],"survey":"map","page":3,"trial_type":"survey-map","trial_index":6,"time_elapsed":149138,"internal_node_id":"0.0-6.0","task_version":"prescreen-v0.3","browser_interactions":0},{"responses":{"Q10":"2","Q11":"2","Q12":"1","Q13":"3","Q16":"0","Q14":"1","Q15":"2"},"rt":22218.299999999814,"radio_events":[4523.100000000559,6033,7495,7874.799999999814,9562.600000000559,9918.799999999814,11504.700000000186,18694.5,18996.400000000373,20606.400000000373],"key_events":[],"mouse_events":[3835,4236.9000000003725,4523.100000000559,5436.9000000003725,6033,7184.799999999814,7495,7874.799999999814,9562.600000000559,9918.799999999814,11504.700000000186,17788.799999999814,18508.5,18694.5,18996.400000000373,20606.400000000373,22216.5],"survey":"map","page":4,"trial_type":"survey-map","trial_index":7,"time_elapsed":171362,"internal_node_id":"0.0-7.0","task_version":"prescreen-v0.3","browser_interactions":0,"infrequency":0},{"view_history":[{"page_index":0,"viewing_time":1828.0999999996275},{"page_index":1,"viewing_time":2197.9000000003725}],"rt":4026.399999999441,"trial_type":"instructions","trial_index":8,"time_elapsed":175391,"internal_node_id":"0.0-8.0","task_version":"prescreen-v0.3"},{"responses":{"01":"Yes","01_ages_3":"3","01_ages_4":"4","01_ages_5":"5","01_ages_6":"6","01_ages_7":"7","01_ages_8":"8","01_ages_9":"9","01_ages_10":"10","01_ages_11":"11","01_ages_12":"12","01_ages_13":"13","01_ages_14":"14","01_ages_15":"15","01_ages_16":"16","01_ages_17":"17","01_ages_18":"18","02":"Yes","02_ages_4":"4","02_ages_5":"5","02_ages_6":"6","02_ages_7":"7","02_ages_8":"8","02_ages_9":"9","02_ages_10":"10","02_ages_11":"11","02_ages_12":"12","02_ages_13":"13","02_ages_14":"14","02_ages_15":"15","02_ages_16":"16","02_ages_17":"17","02_ages_18":"18","03":"Yes","03_ages_5":"5","03_ages_6":"6","03_ages_7":"7","03_ages_8":"8","03_ages_9":"9","03_ages_10":"10","03_ages_11":"11","03_ages_12":"12","03_ages_13":"13","03_ages_14":"14","03_ages_15":"15","04":"Yes","04_ages_6":"6","04_ages_7":"7","04_ages_8":"8","04_ages_9":"9","04_ages_10":"10","04_ages_11":"11","04_ages_12":"12","04_ages_13":"13","04_ages_14":"14","04_ages_15":"15","04_ages_16":"16","04_ages_17":"17","04_ages_18":"18","05":"No","06":"Yes","06_ages_3":"3","06_ages_4":"4","06_ages_5":"5","06_ages_6":"6","06_ages_7":"7","06_ages_8":"8","06_ages_9":"9","06_ages_10":"10","06_ages_11":"11","06_ages_12":"12","06_ages_13":"13","06_ages_14":"14","06_ages_15":"15","06_ages_16":"16"},"rt":77100.40000000037,"item_order":[0,1,2,3,4,5],"radio_events":[2090.7999999998137,14534.400000000373,26243.900000000373,27505.700000000186,28836.299999999814,30359.700000000186],"checkbox_events":[3987,5014.9000000003725,5510.5999999996275,6028.299999999814,6478.5999999996275,7762.5999999996275,8156.5999999996275,8830.5,9240.5,9860.099999999627,10502.400000000373,10882.400000000373,11314.5,11724.200000000186,12630.400000000373,13520.299999999814,15710.299999999814,16414.299999999814,17150.200000000186,17630.299999999814,18412.200000000186,18744.200000000186,19418.200000000186,20316.200000000186,20904.099999999627,21554.5,21909.799999999814,22412,23156,23650.400000000373,24207.900000000373,31467.799999999814,32071.400000000373,32729.700000000186,33819.799999999814,34261.700000000186,34911.59999999963,35244.09999999963,35739.59999999963,36815.40000000037,37411.59999999963,38433.59999999963,39029.40000000037,40469.5,40933.40000000037,42147.200000000186,42945.299999999814,47589.200000000186,48579.200000000186,48965.299999999814,49523.200000000186,49965.200000000186,50505.200000000186,50969.200000000186,52039.200000000186,52533.5,53153,53547,53902.90000000037,54173.299999999814,54917,55651,60078.90000000037,60550.90000000037,61486.799999999814,62082.799999999814,66624.79999999981,67592.70000000019,68458.59999999963,69511.29999999981,70007.09999999963,70842.5,71368.59999999963,72762.59999999963,74130.5,74680.5,76166.40000000037],"key_events":[],"mouse_events":[0.20000000018626451,2090.7999999998137,3987,5014.9000000003725,5510.5999999996275,6028.299999999814,6478.5999999996275,7406.5,7762.5999999996275,8156.5999999996275,8830.5,9240.5,9580.400000000373,9860.099999999627,10255,10502.400000000373,10882.400000000373,11314.5,11724.200000000186,12212.400000000373,12630.400000000373,13172.400000000373,13520.299999999814,14202.5,14534.400000000373,15710.299999999814,16414.299999999814,16748.299999999814,17150.200000000186,17630.299999999814,18126.099999999627,18412.200000000186,18744.200000000186,19146.099999999627,19418.200000000186,19852.099999999627,20316.200000000186,20671.900000000373,20904.099999999627,21554.5,21909.799999999814,22412,22822,23156,23650.400000000373,24207.900000000373,25740.099999999627,26243.900000000373,27265.799999999814,27505.700000000186,28836.299999999814,29888,30105.599999999627,30359.700000000186,31467.799999999814,32071.400000000373,32729.700000000186,33053.59999999963,33479.40000000037,33819.799999999814,34261.700000000186,34687.90000000037,34911.59999999963,35244.09999999963,35739.59999999963,36273.700000000186,36815.40000000037,37411.59999999963,37859.59999999963,38433.59999999963,39029.40000000037,39563.59999999963,39763.299999999814,40011.299999999814,40469.5,40933.40000000037,41373.59999999963,41667.299999999814,42147.200000000186,42705.40000000037,42945.299999999814,47357.09999999963,47589.200000000186,48061.200000000186,48579.200000000186,48965.299999999814,49523.200000000186,49965.200000000186,50505.200000000186,50969.200000000186,51387.40000000037,51675.200000000186,52039.200000000186,52533.5,52936.200000000186,53153,53547,53902.90000000037,54173.299999999814,54685.200000000186,54917,55651,60078.90000000037,60550.90000000037,61486.799999999814,62082.799999999814,66624.79999999981,67592.70000000019,68458.59999999963,69038.70000000019,69511.29999999981,70007.09999999963,70486.59999999963,70842.5,71368.59999999963,71810.5,72042.29999999981,72482.09999999963,72762.59999999963,73334.79999999981,73542.29999999981,74130.5,74680.5,75896.09999999963,76166.40000000037,77095.20000000019],"honeypot":0,"survey":"mace","page":1,"trial_type":"survey-mace","trial_index":9,"time_elapsed":252503,"internal_node_id":"0.0-9.0","task_version":"prescreen-v0.3","browser_interactions":0},{"responses":{"01":"Yes","01_ages_6":"6","01_ages_7":"7","01_ages_8":"8","01_ages_9":"9","01_ages_10":"10","01_ages_11":"11","01_ages_12":"12","01_ages_13":"13","01_ages_14":"14","01_ages_15":"15","01_ages_16":"16","02":"No","03":"Yes","03_ages_3":"3","03_ages_4":"4","03_ages_5":"5","03_ages_6":"6","03_ages_7":"7","03_ages_8":"8","03_ages_9":"9","03_ages_10":"10","03_ages_11":"11","03_ages_12":"12","03_ages_13":"13","03_ages_14":"14","04":"Yes","04_ages_3":"3","04_ages_4":"4","04_ages_5":"5","04_ages_6":"6","04_ages_7":"7","04_ages_8":"8","05":"Yes","05_ages_4":"4","05_ages_5":"5","05_ages_6":"6","05_ages_7":"7","05_ages_8":"8","05_ages_9":"9","05_ages_10":"10","05_ages_11":"11","05_ages_12":"12","06":"No","07":"No","08":"No"},"rt":65338.200000000186,"item_order":[0,1,2,3,4,5,6,7],"radio_events":[3477.300000000745,15771,17256.900000000373,36052.300000000745,48401.90000000037,49817.800000000745,50405.90000000037,51735.700000000186],"checkbox_events":[5379.9000000003725,5991.9000000003725,6897.100000000559,7267.100000000559,7979.100000000559,8777,11336.900000000373,12676.700000000186,13094.900000000373,13542.700000000186,13984.900000000373,18788.800000000745,19376.700000000186,20166.700000000186,20638.700000000186,20986.800000000745,21396.700000000186,22132.60000000056,22774.60000000056,23300.700000000186,23942.60000000056,24592.400000000373,25088.5,25754.400000000373,28996.5,29374.400000000373,30172.400000000373,31324.400000000373,31734.400000000373,39078.200000000186,39914.10000000056,40402.10000000056,40750,41530.10000000056,42096.10000000056,57887.60000000056,58917.5,59359.5,59977.5,60363.90000000037,61075.40000000037,61469.40000000037,63775.40000000037,64131.300000000745],"key_events":[],"mouse_events":[2531.100000000559,3196.800000000745,3477.300000000745,5071.9000000003725,5379.9000000003725,5727.5,5991.9000000003725,6649.600000000559,6897.100000000559,7267.100000000559,7979.100000000559,8405.200000000186,8777,9340.800000000745,9804.700000000186,10424.700000000186,11144.600000000559,11336.900000000373,11740.800000000745,12454.100000000559,12676.700000000186,13094.900000000373,13542.700000000186,13984.900000000373,14804.900000000373,15771,16367.100000000559,16762.800000000745,17256.900000000373,18788.800000000745,19376.700000000186,19896.700000000186,20166.700000000186,20638.700000000186,20986.800000000745,21396.700000000186,21854.60000000056,22132.60000000056,22774.60000000056,23300.700000000186,23942.60000000056,24592.400000000373,25088.5,25754.400000000373,28996.5,29374.400000000373,29800.900000000373,30172.400000000373,30838.400000000373,31324.400000000373,31734.400000000373,35410.300000000745,35711.90000000037,36052.300000000745,39078.200000000186,39914.10000000056,40402.10000000056,40750,41276.10000000056,41530.10000000056,41824.10000000056,42096.10000000056,47001.90000000037,47551.700000000186,48401.90000000037,49229.800000000745,49817.800000000745,50405.90000000037,51735.700000000186,57887.60000000056,58917.5,59359.5,59977.5,60363.90000000037,60806.800000000745,61075.40000000037,61469.40000000037,61911.5,62283.10000000056,63071.60000000056,63335.5,63536.40000000037,63775.40000000037,64131.300000000745,65331.60000000056],"honeypot":0,"survey":"mace","page":2,"trial_type":"survey-mace","trial_index":10,"time_elapsed":317852,"internal_node_id":"0.0-10.0","task_version":"prescreen-v0.3","browser_interactions":0},{"responses":{"01":"No","02":"No","03":"No","04":"No"},"rt":10472.699999999255,"item_order":[0,1,2,3],"radio_events":[2879.5999999996275,6423.199999999255,6849.0999999996275,9425.199999999255],"checkbox_events":[],"key_events":[],"mouse_events":[2879.5999999996275,4349.399999999441,5091.299999999814,5765.0999999996275,6423.199999999255,6849.0999999996275,7723.199999999255,8219.099999999627,9039.099999999627,9425.199999999255,10469.199999999255],"honeypot":0,"survey":"mace","page":3,"trial_type":"survey-mace","trial_index":11,"time_elapsed":328330,"internal_node_id":"0.0-11.0","task_version":"prescreen-v0.3","browser_interactions":0},{"responses":{"01":"No","02":"No"},"rt":6277.5,"item_order":[0,1],"radio_events":[4929.5,5741.600000000559],"checkbox_events":[],"key_events":[],"mouse_events":[247.5,2059.4000000003725,3203.5,4039.4000000003725,4557.4000000003725,4929.5,5439.600000000559,5741.600000000559,6275.5],"honeypot":0,"survey":"mace","page":4,"trial_type":"survey-mace","trial_index":12,"time_elapsed":334612,"internal_node_id":"0.0-12.0","task_version":"prescreen-v0.3","browser_interactions":0},{"responses":{"01":"No","02":"No","03":"No","04":"Yes","04_ages_10":"10","04_ages_11":"11","04_ages_12":"12","04_ages_13":"13","04_ages_14":"14","04_ages_15":"15","04_ages_16":"16","05":"No"},"rt":19564.799999999814,"item_order":[0,1,2,3,4],"radio_events":[5688.699999999255,6352.899999999441,6980.799999999814,8752.599999999627,19034.39999999944],"checkbox_events":[12188.599999999627,13782.599999999627,14842.5,15484.5,16172.299999999814,16574.5,17208.5],"key_events":[],"mouse_events":[2517.5,3706.699999999255,4426.699999999255,5688.699999999255,6129,6352.899999999441,6980.799999999814,8752.599999999627,12188.599999999627,13782.599999999627,14524.199999999255,14842.5,15484.5,15840.399999999441,16172.299999999814,16574.5,17208.5,19034.39999999944,19560.5],"honeypot":0,"survey":"mace","page":5,"trial_type":"survey-mace","trial_index":13,"time_elapsed":354184,"internal_node_id":"0.0-13.0","task_version":"prescreen-v0.3","browser_interactions":0},{"responses":{"01":"Yes","01_ages_6":"6","01_ages_7":"7","01_ages_8":"8","01_ages_9":"9","01_ages_10":"10","01_ages_11":"11","01_ages_12":"12","01_ages_13":"13","01_ages_14":"14","01_ages_15":"15","01_ages_16":"16","02":"Yes","02_ages_8":"8","02_ages_9":"9","02_ages_10":"10","02_ages_11":"11","02_ages_12":"12","02_ages_13":"13","02_ages_14":"14","02_ages_15":"15","02_ages_16":"16","03":"Yes","03_ages_14":"14","03_ages_15":"15","03_ages_16":"16","04":"Yes","04_ages_6":"6","04_ages_7":"7","04_ages_8":"8","04_ages_9":"9","04_ages_10":"10","04_ages_11":"11","04_ages_12":"12","04_ages_13":"13","04_ages_14":"14","04_ages_15":"15","05":"No"},"rt":43790.700000000186,"item_order":[0,1,2,3,4],"radio_events":[5197.4000000003725,6877.299999999814,7867.299999999814,12401.200000000186,13065,14907.100000000559],"checkbox_events":[17677.10000000056,19656.900000000373,20075.400000000373,20492.900000000373,20980.799999999814,21390.700000000186,21877,22264.900000000373,22688.900000000373,23284.799999999814,23602.900000000373,25722.799999999814,26558.5,26976.700000000186,27400.5,27826.799999999814,28554.5,28981,29722.60000000056,30340.799999999814,32452.60000000056,32808.5,33428.40000000037,37466.299999999814,39176.299999999814,39578.299999999814,40212.299999999814,40568.299999999814,41039.90000000037,41466.200000000186,41876.200000000186,42348.40000000037,42718.200000000186],"key_events":[],"mouse_events":[4269.299999999814,5197.4000000003725,6877.299999999814,7603.299999999814,7867.299999999814,10799.100000000559,11230.799999999814,12036.900000000373,12401.200000000186,12811,13065,14907.100000000559,17677.10000000056,19371.10000000056,19656.900000000373,20075.400000000373,20492.900000000373,20980.799999999814,21390.700000000186,21877,22264.900000000373,22688.900000000373,23060.799999999814,23284.799999999814,23602.900000000373,25722.799999999814,26558.5,26976.700000000186,27400.5,27826.799999999814,28182.5,28554.5,28981,29722.60000000056,30340.799999999814,32452.60000000056,32808.5,33164.700000000186,33428.40000000037,37466.299999999814,38920.299999999814,39176.299999999814,39578.299999999814,39918.299999999814,40212.299999999814,40568.299999999814,41039.90000000037,41466.200000000186,41876.200000000186,42348.40000000037,42718.200000000186,43786.5],"honeypot":0,"survey":"mace","page":6,"trial_type":"survey-mace","trial_index":14,"time_elapsed":397981,"internal_node_id":"0.0-14.0","task_version":"prescreen-v0.3","browser_interactions":0},{"responses":{"01":"Yes","01_ages_10":"10","01_ages_11":"11","01_ages_12":"12","01_ages_13":"13","01_ages_14":"14","02":"No","03":"Yes","03_ages_9":"9","03_ages_10":"10","03_ages_11":"11","03_ages_12":"12","03_ages_13":"13","03_ages_14":"14","03_ages_15":"15","04":"No","05":"No","06":"No","07":"No"},"rt":33628.40000000037,"item_order":[0,1,2,3,4,5,6],"radio_events":[3014.5999999996275,3640.5,8723.900000000373,10974.200000000186,11532.200000000186,14008,14572.099999999627,18208.099999999627],"checkbox_events":[20436.099999999627,21317.799999999814,21697.900000000373,22084,22448.5,23011.700000000186,25341.599999999627,27893.700000000186,29727.599999999627,30493.599999999627,30849.599999999627,31205.700000000186,31869.5,32365.599999999627],"key_events":[],"mouse_events":[274.20000000018626,2154.4000000003725,3014.5999999996275,3640.5,5776.299999999814,7834.299999999814,8383.900000000373,8723.900000000373,10078.200000000186,10974.200000000186,11532.200000000186,12545.900000000373,13317.900000000373,13743.799999999814,14008,14572.099999999627,18208.099999999627,20436.099999999627,21317.799999999814,21697.900000000373,22084,22448.5,23011.700000000186,25341.599999999627,27893.700000000186,28953.599999999627,29727.599999999627,30493.599999999627,30849.599999999627,31205.700000000186,31615.700000000186,31869.5,32365.599999999627,33625.09999999963],"honeypot":0,"survey":"mace","page":7,"trial_type":"survey-mace","trial_index":15,"time_elapsed":431617,"internal_node_id":"0.0-15.0","task_version":"prescreen-v0.3","browser_interactions":0},{"responses":{"01":"Yes","01_ages_10":"10","01_ages_11":"11","01_ages_12":"12","01_ages_13":"13","01_ages_14":"14","01_ages_15":"15","01_ages_16":"16","02":"No","03":"No","04":"No"},"rt":15266.299999999814,"item_order":[0,1,2,3],"radio_events":[3334.899999999441,12618.799999999814,13616.799999999814,14584.599999999627],"checkbox_events":[6468.899999999441,7437.5,8054.899999999441,8526.799999999814,9028.699999999255,9810.699999999255,10190.5],"key_events":[],"mouse_events":[3334.899999999441,6468.899999999441,7437.5,7806.5999999996275,8054.899999999441,8526.799999999814,9028.699999999255,9486.5,9810.699999999255,10190.5,11868.599999999627,12618.799999999814,13616.799999999814,14336.399999999441,14584.599999999627,15264.399999999441],"honeypot":0,"survey":"mace","page":8,"trial_type":"survey-mace","trial_index":16,"time_elapsed":446887,"internal_node_id":"0.0-16.0","task_version":"prescreen-v0.3","browser_interactions":0},{"responses":{"01":"No","02":"No","03":"No","04":"Yes","04_ages_1":"1","04_ages_2":"2","04_ages_3":"3","04_ages_4":"4","04_ages_5":"5","04_ages_6":"6","04_ages_7":"7","04_ages_8":"8","04_ages_9":"9","04_ages_10":"10","04_ages_11":"11","04_ages_12":"12","04_ages_13":"13","04_ages_14":"14","04_ages_15":"15","04_ages_16":"16","04_ages_17":"17","04_ages_18":"18"},"rt":26540,"item_order":[0,1,2,3],"radio_events":[5805.100000000559,6547,8173,9114.799999999814,10190.600000000559],"checkbox_events":[15628.600000000559,17748.700000000186,18228.5,18846.60000000056,19148.5,19790.60000000056,20224.299999999814,20936.5,21292.60000000056,21794.60000000056,22180.60000000056,22576.5,22916.5,23366.200000000186,24022.5,24354.400000000373,24888.299999999814,25406.10000000056,25786.299999999814,26172.400000000373],"key_events":[],"mouse_events":[3307,4189,4683.600000000559,5805.100000000559,6207,6547,7221,7768.799999999814,8173,8860.600000000559,9114.799999999814,9673.600000000559,9904.799999999814,10190.600000000559,15264.400000000373,15628.600000000559,15992.600000000559,16473.10000000056,16696.60000000056,17222.299999999814,17500.5,17748.700000000186,18228.5,18846.60000000056,19148.5,19520.60000000056,19790.60000000056,20224.299999999814,20936.5,21292.60000000056,21794.60000000056,22180.60000000056,22576.5,22916.5,23366.200000000186,24022.5,24354.400000000373,24888.299999999814,25406.10000000056,25786.299999999814,26172.400000000373,26536.5],"honeypot":0,"survey":"mace","page":9,"trial_type":"survey-mace","trial_index":17,"time_elapsed":473432,"internal_node_id":"0.0-17.0","task_version":"prescreen-v0.3","browser_interactions":0},{"responses":{"01":"Yes","01_ages_4":"4","01_ages_5":"5","01_ages_6":"6","01_ages_7":"7","01_ages_8":"8","01_ages_9":"9","01_ages_10":"10","01_ages_11":"11","01_ages_12":"12","01_ages_13":"13","01_ages_14":"14","01_ages_15":"15","01_ages_16":"16","01_ages_17":"17","02":"Yes","02_ages_10":"10","02_ages_11":"11","02_ages_12":"12","02_ages_13":"13","02_ages_14":"14","03":"Yes","03_ages_12":"12","03_ages_13":"13","03_ages_14":"14","03_ages_15":"15","03_ages_16":"16","03_ages_17":"17","04":"Yes","04_ages_10":"10","04_ages_11":"11","04_ages_12":"12","04_ages_13":"13","04_ages_14":"14","04_ages_15":"15","04_ages_16":"16","04_ages_17":"17","05":"Yes","05_ages_8":"8","05_ages_9":"9","05_ages_10":"10","05_ages_11":"11","05_ages_12":"12","05_ages_13":"13","05_ages_14":"14","06":"Yes","06_ages_17":"17","07":"No","08":"No"},"rt":93317.59999999963,"item_order":[0,1,2,3,4,5,6,7],"radio_events":[2047.2000000001863,4599.200000000186,5373,6681.0999999996275,9171,11112.900000000373,88538.90000000037,89930.59999999963],"checkbox_events":[12248.799999999814,19480.799999999814,20325,20750.799999999814,21352.700000000186,21624.700000000186,21980.700000000186,22382.799999999814,22690.799999999814,23094.5,24044.5,24850.400000000373,25228.599999999627,25608.599999999627,26026.5,31898.400000000373,32964.299999999814,33560.40000000037,33908.299999999814,34272.200000000186,39842.09999999963,40220.40000000037,40932.09999999963,41797.799999999814,42170,42588,47073.90000000037,47561.90000000037,47901.700000000186,49039.799999999814,49387.5,49851.5,50199.799999999814,50585.799999999814,53255.700000000186,53757.700000000186,54221.59999999963,54733.59999999963,55621.5,56325.200000000186,56797.5],"key_events":[],"mouse_events":[1489.2999999998137,2047.2000000001863,3849.2000000001863,4599.200000000186,5373,6681.0999999996275,9171,10060.900000000373,10516.599999999627,11112.900000000373,12248.799999999814,19480.799999999814,19992.5,20325,20750.799999999814,21128.700000000186,21352.700000000186,21624.700000000186,21980.700000000186,22382.799999999814,22690.799999999814,23094.5,23572.5,24044.5,24400.599999999627,24664.599999999627,24850.400000000373,25228.599999999627,25608.599999999627,26026.5,31588.299999999814,31898.400000000373,32254.400000000373,32678.299999999814,32964.299999999814,33244.299999999814,33560.40000000037,33908.299999999814,34272.200000000186,39842.09999999963,40220.40000000037,40600,40932.09999999963,41436,41797.799999999814,42170,42588,47073.90000000037,47561.90000000037,47901.700000000186,48351.59999999963,48783.5,49039.799999999814,49387.5,49851.5,50199.799999999814,50585.799999999814,53255.700000000186,53757.700000000186,54221.59999999963,54733.59999999963,55313.700000000186,55621.5,56026.299999999814,56325.200000000186,56797.5,88538.90000000037,88978.59999999963,89660.29999999981,89930.59999999963,92638.40000000037,93310.70000000019],"honeypot":0,"survey":"mace","page":10,"trial_type":"survey-mace","trial_index":18,"time_elapsed":566760,"internal_node_id":"0.0-18.0","task_version":"prescreen-v0.3","browser_interactions":0,"instructed":0},{"rt":7080.200000000186,"trial_type":"mental-health-alert","trial_index":19,"time_elapsed":573844,"internal_node_id":"0.0-19.0","task_version":"prescreen-v0.3","interactions":"[]"}]