[{"view_history":[{"page_index":0,"viewing_time":2423.800000000745},{"page_index":1,"viewing_time":4880.199999999255},{"page_index":2,"viewing_time":6159.700000000186},{"page_index":3,"viewing_time":1208}],"rt":14672.400000000373,"trial_type":"instructions","trial_index":0,"time_elapsed":14696,"internal_node_id":"0.0-0.0","task_version":"prescreen-v0.3"},{"rt":47788.40000000037,"responses":{"age":"22","gender-categorical":"Female","gender-free-response":"","ethnicity":"Not Hispanic or Latino","race":["White"],"education":"High school"},"trial_type":"survey-demo","trial_index":1,"time_elapsed":62489,"internal_node_id":"0.0-1.0","task_version":"prescreen-v0.3"},{"responses":{"Q06":"1","Q01":"2","Q13":"2","Q10":"3","Q03":"1","Q04":"3","Q20":"1","Q09":"2","Q12":"2","Q21":"3","Q11":"2","Q18":"3","Q16":"2","Q15":"3","Q19":"1","Q02":"2","Q05":"1","Q14":"3","Q07":"2","Q17":"2","Q08":"3"},"rt":190675.7000000002,"item_order":[5,0,12,9,2,3,19,8,11,20,10,17,15,14,18,1,4,13,6,16,7],"radio_events":[20554.400000000373,25082.10000000056,37442.299999999814,43458.200000000186,47042.10000000056,48506.200000000186,53442.200000000186,56842,73282.20000000019,78969.70000000019,81938.20000000019,84809.90000000037,89650.5,95426.10000000056,102074,111730,114601.90000000037,116066.20000000019,126841.79999999981,177273.90000000037,181234,184962.40000000037,188154],"key_events":[],"mouse_events":[20554.400000000373,25082.10000000056,37442.299999999814,43458.200000000186,47042.10000000056,48506.200000000186,53442.200000000186,56842,67413.10000000056,73282.20000000019,78969.70000000019,81938.20000000019,84809.90000000037,89650.5,95426.10000000056,102074,111730,114601.90000000037,116066.20000000019,126442.10000000056,126841.79999999981,177273.90000000037,181234,184962.40000000037,188154,190674],"straightlining":0.42857142857142855,"zigzagging":0.6,"honeypot":0,"survey":"sns","trial_type":"survey-template","trial_index":2,"time_elapsed":253173,"internal_node_id":"0.0-2.0","task_version":"prescreen-v0.3","browser_interactions":4,"infrequency":0},{"responses":{"Q05":"2","Q01":"3","Q10":"1","Q08":"2","Q02":"2","Q06":"2","Q04":"3","Q09":"1","Q13":"0","Q03":"3","Q07":"3","Q12":"1","Q11":"1"},"rt":125299.59999999963,"item_order":[4,0,9,7,1,5,3,8,12,2,6,11,10],"radio_events":[67186,69106.39999999944,72298,79178.29999999981,82170.5,88330,92450.09999999963,97962.09999999963,101098.09999999963,106338.09999999963,110234.5,116065.79999999981,123394.70000000019],"key_events":[],"mouse_events":[67186,69106.39999999944,72298,79178.29999999981,82170.5,88330,92450.09999999963,97962.09999999963,101098.09999999963,106338.09999999963,110234.5,116065.79999999981,123394.70000000019,125298.39999999944],"straightlining":0.3076923076923077,"zigzagging":0.4166666666666667,"honeypot":0,"survey":"bisbas","trial_type":"survey-template","trial_index":3,"time_elapsed":378480,"internal_node_id":"0.0-3.0","task_version":"prescreen-v0.3","browser_interactions":2,"infrequency":0},{"responses":{"Q01":"3","Q02":"3","Q03":"3"},"rt":35411.799999999814,"radio_events":[19051,25922.599999999627,34090.90000000037],"key_events":[],"mouse_events":[19051,25922.599999999627,34090.90000000037,35411.200000000186],"survey":"map","page":1,"trial_type":"survey-map","trial_index":4,"time_elapsed":413896,"internal_node_id":"0.0-4.0","task_version":"prescreen-v0.3","browser_interactions":0},{"responses":{"Q04":"4","Q05":"1","Q06":"2"},"rt":16739.800000000745,"radio_events":[9171.900000000373,13147.600000000559,16091.5],"key_events":[],"mouse_events":[9171.900000000373,13147.600000000559,16091.5,16739.400000000373],"survey":"map","page":2,"trial_type":"survey-map","trial_index":5,"time_elapsed":430638,"internal_node_id":"0.0-5.0","task_version":"prescreen-v0.3","browser_interactions":0},{"responses":{"Q07":"3","Q08":"4","Q09":"2"},"rt":22574.5,"radio_events":[9109.899999999441,17053.799999999814,17974,21430],"key_events":[],"mouse_events":[9109.899999999441,16573.799999999814,17053.799999999814,17974,20918.200000000186,21430,22574],"survey":"map","page":3,"trial_type":"survey-map","trial_index":6,"time_elapsed":453216,"internal_node_id":"0.0-6.0","task_version":"prescreen-v0.3","browser_interactions":0},{"responses":{"Q10":"1","Q11":"1","Q12":"2","Q13":"3","Q16":"0","Q14":"3","Q15":"1"},"rt":589644.7999999998,"radio_events":[8596.900000000373,11388.200000000186,16268.299999999814,29236.200000000186,29788.200000000186,190740.2000000002,209603.90000000037,213651.90000000037,215012.59999999963],"key_events":[],"mouse_events":[8596.900000000373,11388.200000000186,16268.299999999814,29236.200000000186,29788.200000000186,190740.2000000002,209603.90000000037,213651.90000000037,214668.59999999963,215012.59999999963,589643.9000000004],"survey":"map","page":4,"trial_type":"survey-map","trial_index":7,"time_elapsed":1042867,"internal_node_id":"0.0-7.0","task_version":"prescreen-v0.3","browser_interactions":6,"infrequency":0},{"view_history":[{"page_index":0,"viewing_time":3933.5},{"page_index":1,"viewing_time":55247.799999999814}],"rt":59182,"trial_type":"instructions","trial_index":8,"time_elapsed":1102051,"internal_node_id":"0.0-8.0","task_version":"prescreen-v0.3"},{"responses":{"01":"Yes","01_ages_11":"11","01_ages_12":"12","01_ages_13":"13","01_ages_14":"14","01_ages_15":"15","01_ages_16":"16","02":"Yes","02_ages_4":"4","02_ages_5":"5","02_ages_6":"6","02_ages_7":"7","02_ages_8":"8","02_ages_9":"9","02_ages_10":"10","02_ages_11":"11","02_ages_12":"12","02_ages_13":"13","02_ages_14":"14","02_ages_15":"15","02_ages_16":"16","03":"Yes","03_ages_4":"4","03_ages_5":"5","03_ages_6":"6","03_ages_7":"7","03_ages_8":"8","03_ages_9":"9","03_ages_10":"10","03_ages_11":"11","03_ages_12":"12","03_ages_13":"13","03_ages_14":"14","03_ages_15":"15","04":"No","05":"No","06":"Yes","06_ages_6":"6","06_ages_7":"7","06_ages_8":"8","06_ages_9":"9","06_ages_10":"10","06_ages_11":"11"},"rt":103626.79999999981,"item_order":[0,1,2,3,4,5],"radio_events":[15983.799999999814,33952.299999999814,52744,69624.59999999963,72560,77695.89999999944],"checkbox_events":[23936.39999999944,24672.299999999814,25480.39999999944,25856.299999999814,26360.199999999255,26720,37544.199999999255,37864.299999999814,38343.699999999255,40200,40696.199999999255,41215.799999999814,41584.199999999255,42448,42872.299999999814,43280,43832.59999999963,45703.799999999814,50424.09999999963,54279.799999999814,54647.799999999814,55039.89999999944,56071.799999999814,56407.89999999944,57135.799999999814,57647.799999999814,57984.199999999255,58416.09999999963,59232.799999999814,59776.199999999255,60376,83344.39999999944,83816.39999999944,84839.79999999981,85247.79999999981,86320,86824.29999999981,87193.09999999963,87584,88216.19999999925,88775.89999999944],"key_events":[],"mouse_events":[0.09999999962747097,15983.799999999814,23936.39999999944,24352.39999999944,24672.299999999814,25136.5,25480.39999999944,25856.299999999814,26360.199999999255,26720,33952.299999999814,37544.199999999255,37864.299999999814,38343.699999999255,39024,39863.699999999255,40200,40696.199999999255,41215.799999999814,41584.199999999255,41991.699999999255,42448,42872.299999999814,43280,43832.59999999963,45703.799999999814,50424.09999999963,52744,54279.799999999814,54647.799999999814,55039.89999999944,55520.699999999255,56071.799999999814,56407.89999999944,56824.09999999963,57135.799999999814,57647.799999999814,57984.199999999255,58416.09999999963,58775.89999999944,59232.799999999814,59776.199999999255,60376,69624.59999999963,72560,77695.89999999944,83344.39999999944,83816.39999999944,84839.79999999981,85247.79999999981,86320,86824.29999999981,87193.09999999963,87584,88216.19999999925,88775.89999999944,103624.5],"honeypot":0,"survey":"mace","page":1,"trial_type":"survey-mace","trial_index":9,"time_elapsed":1205687,"internal_node_id":"0.0-9.0","task_version":"prescreen-v0.3","browser_interactions":6},{"responses":{"01":"No","02":"No","03":"Yes","03_ages_1":"1","03_ages_2":"2","03_ages_3":"3","03_ages_4":"4","03_ages_5":"5","03_ages_6":"6","03_ages_7":"7","03_ages_8":"8","03_ages_9":"9","03_ages_10":"10","03_ages_11":"11","03_ages_12":"12","04":"Yes","04_ages_1":"1","04_ages_2":"2","04_ages_3":"3","04_ages_4":"4","04_ages_5":"5","04_ages_6":"6","04_ages_7":"7","04_ages_8":"8","05":"Yes","05_ages_1":"1","05_ages_2":"2","05_ages_3":"3","05_ages_4":"4","05_ages_5":"5","05_ages_6":"6","05_ages_7":"7","05_ages_8":"8","06":"No","07":"No","08":"No"},"rt":96997.79999999981,"item_order":[0,1,2,3,4,5,6,7],"radio_events":[4537.799999999814,10417.700000000186,13201.200000000186,61609.700000000186,73833.60000000056,89114.10000000056,92569.5,95466.40000000037],"checkbox_events":[14778,15314.100000000559,15633.900000000373,16025.5,16417.60000000056,16873.900000000373,17265.5,17737.299999999814,18537.60000000056,19489.400000000373,20281.5,20666.5,63209.799999999814,63809.799999999814,64145.40000000037,64473.40000000037,64833.5,65249.60000000056,66425.5,66993.60000000056,68826.40000000037,69713.29999999981,75017.5,75713.40000000037,76201.5,76761.90000000037,77129.70000000019,77785.60000000056,78073.60000000056,78489.5],"key_events":[],"mouse_events":[4537.799999999814,10417.700000000186,13201.200000000186,14778,15314.100000000559,15633.900000000373,16025.5,16417.60000000056,16873.900000000373,17265.5,17737.299999999814,18537.60000000056,19489.400000000373,20281.5,20666.5,61609.700000000186,63209.799999999814,63505.799999999814,63809.799999999814,64145.40000000037,64473.40000000037,64833.5,65249.60000000056,65705.5,66121.60000000056,66425.5,66993.60000000056,68826.40000000037,69713.29999999981,73833.60000000056,75017.5,75353.40000000037,75713.40000000037,76201.5,76514,76761.90000000037,77129.70000000019,77785.60000000056,78073.60000000056,78489.5,89114.10000000056,92569.5,95466.40000000037,96994.20000000019],"honeypot":0,"survey":"mace","page":2,"trial_type":"survey-mace","trial_index":10,"time_elapsed":1302689,"internal_node_id":"0.0-10.0","task_version":"prescreen-v0.3","browser_interactions":8},{"responses":{"01":"Yes","01_ages_5":"5","01_ages_6":"6","01_ages_7":"7","01_ages_8":"8","01_ages_9":"9","02":"No","03":"No","04":"No"},"rt":140257.09999999963,"item_order":[0,1,2,3],"radio_events":[5383.5999999996275,136095.59999999963,136943.5,137935.59999999963],"checkbox_events":[107959.90000000037,108303.70000000019,109119.70000000019,109519.90000000037,110296],"key_events":[],"mouse_events":[5383.5999999996275,107959.90000000037,108303.70000000019,108695.70000000019,109119.70000000019,109519.90000000037,110024,110296,136095.59999999963,136943.5,137935.59999999963,140255.59999999963],"honeypot":0,"survey":"mace","page":3,"trial_type":"survey-mace","trial_index":11,"time_elapsed":1442949,"internal_node_id":"0.0-11.0","task_version":"prescreen-v0.3","browser_interactions":8},{"responses":{"01":"No","02":"No"},"rt":7292.5,"item_order":[0,1],"radio_events":[3523.800000000745,5307.700000000186],"checkbox_events":[],"key_events":[],"mouse_events":[3523.800000000745,5003.4000000003725,5307.700000000186,7291.600000000559],"honeypot":0,"survey":"mace","page":4,"trial_type":"survey-mace","trial_index":12,"time_elapsed":1450244,"internal_node_id":"0.0-12.0","task_version":"prescreen-v0.3","browser_interactions":0},{"responses":{"01":"Yes","01_ages_7":"7","01_ages_8":"8","01_ages_9":"9","01_ages_10":"10","01_ages_11":"11","01_ages_12":"12","01_ages_13":"13","02":"No","03":"No","04":"No","05":"No"},"rt":219359.5,"item_order":[0,1,2,3,4],"radio_events":[170308.2999999998,179300.69999999925,182204.59999999963,187796.09999999963,188532.7999999998],"checkbox_events":[173460.2999999998,173796.5,174388.69999999925,174740.19999999925,175052.19999999925,175804.09999999963,176164.69999999925],"key_events":[],"mouse_events":[170308.2999999998,173460.2999999998,173796.5,174388.69999999925,174740.19999999925,175052.19999999925,175524.19999999925,175804.09999999963,176164.69999999925,179300.69999999925,182204.59999999963,187796.09999999963,188532.7999999998,219356.69999999925],"honeypot":0,"survey":"mace","page":5,"trial_type":"survey-mace","trial_index":13,"time_elapsed":1669607,"internal_node_id":"0.0-13.0","task_version":"prescreen-v0.3","browser_interactions":8},{"responses":{"01":"Yes","01_ages_8":"8","01_ages_9":"9","01_ages_10":"10","01_ages_11":"11","01_ages_12":"12","01_ages_13":"13","01_ages_14":"14","01_ages_15":"15","01_ages_16":"16","01_ages_17":"17","01_ages_18":"18","02":"Yes","02_ages_8":"8","02_ages_9":"9","02_ages_10":"10","02_ages_11":"11","02_ages_12":"12","02_ages_13":"13","02_ages_14":"14","02_ages_15":"15","02_ages_16":"16","02_ages_17":"17","02_ages_18":"18","03":"Yes","03_ages_12":"12","03_ages_13":"13","03_ages_14":"14","03_ages_15":"15","03_ages_16":"16","03_ages_17":"17","03_ages_18":"18","04":"Yes","04_ages_12":"12","04_ages_13":"13","04_ages_14":"14","04_ages_15":"15","04_ages_16":"16","04_ages_17":"17","04_ages_18":"18","05":"No"},"rt":149402.80000000075,"item_order":[0,1,2,3,4],"radio_events":[12376.700000000186,42432.800000000745,126768.30000000075,136880.80000000075,148648.2000000002],"checkbox_events":[23432.60000000056,23985.10000000056,24312.5,24785,25128.800000000745,25624.400000000373,25992.200000000186,26608.5,26912.60000000056,28888.300000000745,29120.400000000373,44384.300000000745,44760.40000000037,45064.700000000186,45408.200000000186,46264.60000000056,46776.300000000745,47448.40000000037,47768.5,48104.5,48680.800000000745,48952.300000000745,128136.30000000075,128992.80000000075,129360.20000000019,129744.90000000037,130400.60000000056,130929.60000000056,131304.80000000075,138168.40000000037,138505.2000000002,139456.80000000075,139984.5,141368.5,141784.2000000002,143528.5],"key_events":[],"mouse_events":[12104.5,12376.700000000186,23432.60000000056,23985.10000000056,24312.5,24785,25128.800000000745,25624.400000000373,25992.200000000186,26608.5,26912.60000000056,28888.300000000745,29120.400000000373,42432.800000000745,44384.300000000745,44760.40000000037,45064.700000000186,45408.200000000186,45760.40000000037,46264.60000000056,46776.300000000745,47448.40000000037,47768.5,48104.5,48680.800000000745,48952.300000000745,126768.30000000075,127760.5,128136.30000000075,128512.20000000019,128992.80000000075,129360.20000000019,129744.90000000037,130400.60000000056,130929.60000000056,131304.80000000075,132888.2000000002,136880.80000000075,138168.40000000037,138505.2000000002,139001.10000000056,139456.80000000075,139984.5,141024.10000000056,141368.5,141784.2000000002,142920.2000000002,143528.5,145904.30000000075,148648.2000000002,149401.10000000056],"honeypot":0,"survey":"mace","page":6,"trial_type":"survey-mace","trial_index":14,"time_elapsed":1819015,"internal_node_id":"0.0-14.0","task_version":"prescreen-v0.3","browser_interactions":4},{"responses":{"01":"No","02":"No","03":"Yes","03_ages_12":"12","03_ages_13":"13","03_ages_14":"14","03_ages_15":"15","03_ages_16":"16","04":"No","05":"No","06":"No","07":"No"},"rt":28395.799999999814,"item_order":[0,1,2,3,4,5,6],"radio_events":[6001.299999999814,9232.899999999441,11664.899999999441,20201,23793.599999999627,25265,26192.699999999255],"checkbox_events":[14473.299999999814,14865.099999999627,15361.099999999627,15864.799999999814,17745.299999999814],"key_events":[],"mouse_events":[6001.299999999814,8857,9232.899999999441,11664.899999999441,14473.299999999814,14865.099999999627,15361.099999999627,15864.799999999814,17745.299999999814,20201,23793.599999999627,25265,26192.699999999255,28393.199999999255],"honeypot":0,"survey":"mace","page":7,"trial_type":"survey-mace","trial_index":15,"time_elapsed":1847418,"internal_node_id":"0.0-15.0","task_version":"prescreen-v0.3","browser_interactions":0},{"responses":{"01":"No","02":"Yes","02_ages_1":"1","02_ages_2":"2","02_ages_3":"3","02_ages_4":"4","02_ages_5":"5","02_ages_6":"6","02_ages_7":"7","02_ages_8":"8","02_ages_9":"9","02_ages_10":"10","02_ages_11":"11","02_ages_12":"12","02_ages_13":"13","02_ages_14":"14","02_ages_15":"15","03":"Yes","03_ages_1":"1","03_ages_2":"2","03_ages_3":"3","03_ages_4":"4","03_ages_5":"5","03_ages_6":"6","03_ages_7":"7","03_ages_8":"8","03_ages_9":"9","03_ages_10":"10","03_ages_11":"11","03_ages_12":"12","03_ages_13":"13","03_ages_14":"14","03_ages_15":"15","04":"No"},"rt":58471.700000000186,"item_order":[0,1,2,3],"radio_events":[16431.400000000373,22358.799999999814,42174.10000000056,56758.200000000186],"checkbox_events":[25759.200000000186,26286,26590.5,26902.400000000373,27494.5,27878.400000000373,28230,28758,29134.900000000373,29662.400000000373,30046.700000000186,30597.900000000373,33934.10000000056,34246.299999999814,37374.40000000037,43294,43606.10000000056,43910.40000000037,44638,45294.299999999814,45702.299999999814,46574.5,47198.10000000056,47597.90000000037,48278.200000000186,48917.799999999814,49333.90000000037,50085.799999999814,50510.10000000056,51390.10000000056],"key_events":[],"mouse_events":[15965.900000000373,16431.400000000373,22358.799999999814,25759.200000000186,26286,26590.5,26902.400000000373,27279.10000000056,27494.5,27878.400000000373,28230,28758,29134.900000000373,29662.400000000373,30046.700000000186,30351.799999999814,30597.900000000373,33934.10000000056,34246.299999999814,36182.10000000056,37374.40000000037,42174.10000000056,43294,43606.10000000056,43910.40000000037,44262.200000000186,44638,45022.5,45294.299999999814,45702.299999999814,46270,46574.5,47198.10000000056,47597.90000000037,48278.200000000186,48917.799999999814,49333.90000000037,49806.10000000056,50085.799999999814,50510.10000000056,50998,51390.10000000056,56758.200000000186,58470.10000000056],"honeypot":0,"survey":"mace","page":8,"trial_type":"survey-mace","trial_index":16,"time_elapsed":1905893,"internal_node_id":"0.0-16.0","task_version":"prescreen-v0.3","browser_interactions":0},{"responses":{"01":"Yes","01_ages_1":"1","01_ages_2":"2","01_ages_3":"3","01_ages_4":"4","01_ages_5":"5","01_ages_6":"6","01_ages_7":"7","01_ages_8":"8","01_ages_9":"9","01_ages_10":"10","01_ages_11":"11","01_ages_12":"12","01_ages_13":"13","01_ages_14":"14","01_ages_15":"15","01_ages_16":"16","01_ages_17":"17","01_ages_18":"18","02":"No","03":"Yes","03_ages_1":"1","03_ages_2":"2","03_ages_3":"3","03_ages_4":"4","03_ages_5":"5","03_ages_6":"6","03_ages_7":"7","03_ages_8":"8","03_ages_9":"9","03_ages_10":"10","03_ages_11":"11","03_ages_12":"12","03_ages_13":"13","03_ages_14":"14","03_ages_15":"15","03_ages_16":"16","03_ages_17":"17","03_ages_18":"18","04":"Yes","04_ages_1":"1","04_ages_2":"2","04_ages_3":"3","04_ages_4":"4","04_ages_5":"5","04_ages_6":"6","04_ages_7":"7","04_ages_8":"8","04_ages_9":"9","04_ages_10":"10","04_ages_11":"11","04_ages_12":"12","04_ages_13":"13","04_ages_14":"14","04_ages_15":"15","04_ages_16":"16","04_ages_17":"17","04_ages_18":"18"},"rt":278557,"item_order":[0,1,2,3],"radio_events":[185123.30000000075,243987.10000000056,248331.30000000075,266619.10000000056],"checkbox_events":[186579.80000000075,186907.30000000075,187251,187587.90000000037,187987,188451.5,189307.2000000002,189667.60000000056,190011.30000000075,190515.30000000075,191028.2000000002,191531,192099.60000000056,192715.2000000002,193099.80000000075,193571.7000000002,195411.30000000075,195667.40000000037,249291.30000000075,250035.10000000056,250467.5,250803.30000000075,251219.7000000002,251579.80000000075,252011.10000000056,252667.30000000075,253211.2000000002,253587.40000000037,253971.40000000037,254467.2000000002,254859.40000000037,255340.40000000037,256003.30000000075,256843.7000000002,258603.40000000037,259459.10000000056,268371.5,269027.10000000056,269380.10000000056,269739.4000000004,270099,270580.5,270923.60000000056,271299.4000000004,271700,272099.5,272835.60000000056,273555.2000000002,274075.4000000004,274603.10000000056,275155.2000000002,275651.4000000004,277443,278147.10000000056],"key_events":[],"mouse_events":[185123.30000000075,186579.80000000075,186907.30000000075,187251,187587.90000000037,187987,188451.5,188915.30000000075,189307.2000000002,189667.60000000056,190011.30000000075,190515.30000000075,191028.2000000002,191531,192099.60000000056,192715.2000000002,193099.80000000075,193571.7000000002,195411.30000000075,195667.40000000037,243987.10000000056,248331.30000000075,249291.30000000075,249763.40000000037,250035.10000000056,250467.5,250803.30000000075,251219.7000000002,251579.80000000075,252011.10000000056,252667.30000000075,253211.2000000002,253587.40000000037,253971.40000000037,254467.2000000002,254859.40000000037,255340.40000000037,255747.30000000075,256003.30000000075,256467.5,256843.7000000002,258603.40000000037,258963.90000000037,259459.10000000056,266619.10000000056,268371.5,268667.10000000056,269027.10000000056,269380.10000000056,269739.4000000004,270099,270580.5,270923.60000000056,271299.4000000004,271700,272099.5,272835.60000000056,273252,273555.2000000002,274075.4000000004,274603.10000000056,275155.2000000002,275651.4000000004,277443,278147.10000000056,278555.10000000056],"honeypot":0,"survey":"mace","page":9,"trial_type":"survey-mace","trial_index":17,"time_elapsed":2184457,"internal_node_id":"0.0-17.0","task_version":"prescreen-v0.3","browser_interactions":6},{"responses":{"01":"No","02":"No","03":"Yes","03_ages_12":"12","03_ages_13":"13","03_ages_14":"14","03_ages_15":"15","03_ages_16":"16","03_ages_17":"17","03_ages_18":"18","04":"Yes","04_ages_10":"10","04_ages_11":"11","04_ages_12":"12","04_ages_13":"13","04_ages_14":"14","04_ages_15":"15","04_ages_16":"16","04_ages_17":"17","04_ages_18":"18","05":"Yes","05_ages_7":"7","05_ages_8":"8","05_ages_9":"9","05_ages_10":"10","05_ages_11":"11","05_ages_12":"12","05_ages_13":"13","05_ages_14":"14","05_ages_15":"15","05_ages_16":"16","06":"Yes","06_ages_17":"17","07":"Yes","07_ages_1":"1","07_ages_2":"2","07_ages_3":"3","07_ages_4":"4","07_ages_5":"5","07_ages_6":"6","07_ages_7":"7","07_ages_8":"8","07_ages_9":"9","07_ages_10":"10","07_ages_11":"11","07_ages_12":"12","07_ages_13":"13","07_ages_14":"14","07_ages_15":"15","07_ages_16":"16","07_ages_17":"17","07_ages_18":"18","08":"Yes","08_ages_3":"3","08_ages_4":"4","08_ages_5":"5","08_ages_6":"6","08_ages_7":"7","08_ages_8":"8","08_ages_15":"15","08_ages_16":"16","08_ages_17":"17","08_ages_18":"18"},"rt":121828.90000000037,"item_order":[0,1,2,3,4,5,6,7],"radio_events":[7017,7657.5,10617.099999999627,41649.700000000186,55232.90000000037,81873.29999999981,87584.79999999981,107401.79999999981],"checkbox_events":[13289.599999999627,13664.799999999814,14185,14640.799999999814,14985,16929,17224.900000000373,43905.200000000186,44465.40000000037,44856.799999999814,45392.700000000186,45752.799999999814,46209.59999999963,47952.59999999963,48832.90000000037,49265.5,72480.70000000019,72848.79999999981,73232.79999999981,73840.79999999981,74193.09999999963,75040.90000000037,75377,76337,77224.70000000019,77832.70000000019,84200.90000000037,89200.59999999963,89504.79999999981,90113.09999999963,90720.59999999963,91096.90000000037,91536.59999999963,92120.70000000019,92584.90000000037,93360.90000000037,93760.90000000037,94424.79999999981,94832.79999999981,95233,95705.40000000037,96152.90000000037,96392.79999999981,97080.79999999981,97416.90000000037,99656.79999999981,100424.59999999963,112985,113841,114160.70000000019,114824.79999999981,116193.09999999963,116552.59999999963,117745.70000000019,118160.70000000019,118649,119568.59999999963],"key_events":[],"mouse_events":[7017,7657.5,10617.099999999627,13289.599999999627,13664.799999999814,14185,14640.799999999814,14985,16929,17224.900000000373,41649.700000000186,43905.200000000186,44465.40000000037,44856.799999999814,45392.700000000186,45752.799999999814,46209.59999999963,47952.59999999963,48832.90000000037,49265.5,55232.90000000037,72480.70000000019,72848.79999999981,73232.79999999981,73840.79999999981,74193.09999999963,74633,75040.90000000037,75377,76337,76945,77224.70000000019,77832.70000000019,80810.09999999963,81873.29999999981,84200.90000000037,87584.79999999981,89200.59999999963,89504.79999999981,89800.79999999981,90113.09999999963,90720.59999999963,91096.90000000037,91536.59999999963,92120.70000000019,92584.90000000037,92992.79999999981,93360.90000000037,93760.90000000037,94185.20000000019,94424.79999999981,94832.79999999981,95233,95705.40000000037,96152.90000000037,96392.79999999981,97080.79999999981,97416.90000000037,99193.20000000019,99656.79999999981,100089,100424.59999999963,107401.79999999981,112985,113841,114160.70000000019,114824.79999999981,116193.09999999963,116552.59999999963,117041.09999999963,117432.70000000019,117745.70000000019,118160.70000000019,118649,119568.59999999963,121825.20000000019],"honeypot":0,"survey":"mace","page":10,"trial_type":"survey-mace","trial_index":18,"time_elapsed":2306295,"internal_node_id":"0.0-18.0","task_version":"prescreen-v0.3","browser_interactions":6,"instructed":0},{"rt":8142.9000000003725,"trial_type":"mental-health-alert","trial_index":19,"time_elapsed":2314439,"internal_node_id":"0.0-19.0","task_version":"prescreen-v0.3","interactions":"[{\"event\":\"blur\",\"trial\":1,\"time\":31604},{\"event\":\"focus\",\"trial\":1,\"time\":53242},{\"event\":\"blur\",\"trial\":1,\"time\":53607},{\"event\":\"focus\",\"trial\":1,\"time\":55796},{\"event\":\"blur\",\"trial\":2,\"time\":127898},{\"event\":\"focus\",\"trial\":2,\"time\":129850},{\"event\":\"blur\",\"trial\":2,\"time\":191034},{\"event\":\"focus\",\"trial\":2,\"time\":235139},{\"event\":\"blur\",\"trial\":3,\"time\":255028},{\"event\":\"focus\",\"trial\":3,\"time\":310683},{\"event\":\"blur\",\"trial\":7,\"time\":484896},{\"event\":\"focus\",\"trial\":7,\"time\":635624},{\"event\":\"blur\",\"trial\":7,\"time\":644707},{\"event\":\"focus\",\"trial\":7,\"time\":656814},{\"event\":\"blur\",\"trial\":7,\"time\":670611},{\"event\":\"focus\",\"trial\":7,\"time\":1036145},{\"event\":\"blur\",\"trial\":8,\"time\":1054213},{\"event\":\"focus\",\"trial\":8,\"time\":1069006},{\"event\":\"blur\",\"trial\":8,\"time\":1069873},{\"event\":\"focus\",\"trial\":8,\"time\":1099666},{\"event\":\"blur\",\"trial\":8,\"time\":1100108},{\"event\":\"focus\",\"trial\":8,\"time\":1101150},{\"event\":\"blur\",\"trial\":9,\"time\":1112255},{\"event\":\"focus\",\"trial\":9,\"time\":1114897},{\"event\":\"blur\",\"trial\":9,\"time\":1163117},{\"event\":\"focus\",\"trial\":9,\"time\":1168514},{\"event\":\"blur\",\"trial\":9,\"time\":1192705},{\"event\":\"focus\",\"trial\":9,\"time\":1202276},{\"event\":\"blur\",\"trial\":10,\"time\":1231204},{\"event\":\"focus\",\"trial\":10,\"time\":1240300},{\"event\":\"blur\",\"trial\":10,\"time\":1250005},{\"event\":\"focus\",\"trial\":10,\"time\":1257107},{\"event\":\"blur\",\"trial\":10,\"time\":1260540},{\"event\":\"focus\",\"trial\":10,\"time\":1265664},{\"event\":\"blur\",\"trial\":10,\"time\":1289134},{\"event\":\"focus\",\"trial\":10,\"time\":1293788},{\"event\":\"blur\",\"trial\":11,\"time\":1312850},{\"event\":\"focus\",\"trial\":11,\"time\":1363846},{\"event\":\"blur\",\"trial\":11,\"time\":1370924},{\"event\":\"focus\",\"trial\":11,\"time\":1407946},{\"event\":\"blur\",\"trial\":11,\"time\":1413517},{\"event\":\"focus\",\"trial\":11,\"time\":1427156},{\"event\":\"blur\",\"trial\":11,\"time\":1433365},{\"event\":\"focus\",\"trial\":11,\"time\":1437274},{\"event\":\"blur\",\"trial\":13,\"time\":1451341},{\"event\":\"focus\",\"trial\":13,\"time\":1576006},{\"event\":\"blur\",\"trial\":13,\"time\":1581388},{\"event\":\"focus\",\"trial\":13,\"time\":1612288},{\"event\":\"blur\",\"trial\":13,\"time\":1639437},{\"event\":\"focus\",\"trial\":13,\"time\":1644244},{\"event\":\"blur\",\"trial\":13,\"time\":1646076},{\"event\":\"focus\",\"trial\":13,\"time\":1668039},{\"event\":\"blur\",\"trial\":14,\"time\":1699254},{\"event\":\"focus\",\"trial\":14,\"time\":1709162},{\"event\":\"blur\",\"trial\":14,\"time\":1719397},{\"event\":\"focus\",\"trial\":14,\"time\":1790229},{\"event\":\"blur\",\"trial\":17,\"time\":1911030},{\"event\":\"focus\",\"trial\":17,\"time\":2085034},{\"event\":\"blur\",\"trial\":17,\"time\":2102245},{\"event\":\"focus\",\"trial\":17,\"time\":2135857},{\"event\":\"blur\",\"trial\":17,\"time\":2140735},{\"event\":\"focus\",\"trial\":17,\"time\":2143877},{\"event\":\"blur\",\"trial\":18,\"time\":2202215},{\"event\":\"focus\",\"trial\":18,\"time\":2207139},{\"event\":\"blur\",\"trial\":18,\"time\":2208411},{\"event\":\"focus\",\"trial\":18,\"time\":2221190},{\"event\":\"blur\",\"trial\":18,\"time\":2240337},{\"event\":\"focus\",\"trial\":18,\"time\":2250870}]"}]