[{"view_history":[{"page_index":0,"viewing_time":4290},{"page_index":1,"viewing_time":3127},{"page_index":2,"viewing_time":3105},{"page_index":3,"viewing_time":1407}],"rt":11929,"trial_type":"instructions","trial_index":0,"time_elapsed":11932,"internal_node_id":"0.0-0.0","task_version":"prescreen-v0.3"},{"rt":20458,"responses":{"age":"39","gender-categorical":"Male","gender-free-response":"","ethnicity":"Not Hispanic or Latino","race":["White"],"education":"Bachelor degree","siblings":"5"},"trial_type":"survey-demo","trial_index":1,"time_elapsed":32394,"internal_node_id":"0.0-1.0","task_version":"prescreen-v0.3"},{"responses":{"Q04":"1","Q09":"3","Q05":"2","Q11":"3","Q07":"2","Q01":"3","Q17":"3","Q15":"2","Q19":"2","Q12":"2","Q02":"1","Q06":"1","Q08":"3","Q18":"1","Q14":"0","Q10":"2","Q21":"3","Q16":"1","Q20":"0","Q03":"0","Q13":"1"},"rt":104881,"item_order":[3,8,4,10,6,0,16,14,18,11,1,5,7,17,13,9,20,15,19,2,12],"radio_events":[9519,13599,18168,21040,27111,28223,33784,36462,43006,47432,55391,60439,65815,68608,72728,77303,82413,83343,86775,92830,94799,95720,99887,103887],"key_events":[],"mouse_events":[9519,12935,13599,18168,21040,27111,28223,33784,36462,43006,47432,54726,55391,60439,65815,68608,72728,77303,77896,81656,82413,83343,86775,92830,94799,95720,99887,103887,104881],"straightlining":0.2857142857142857,"zigzagging":0.5,"honeypot":0,"survey":"sns","trial_type":"survey-template","trial_index":2,"time_elapsed":137279,"internal_node_id":"0.0-2.0","task_version":"prescreen-v0.3","browser_interactions":0,"infrequency":0},{"responses":{"Q05":"2","Q09":"3","Q03":"2","Q02":"1","Q10":"3","Q12":"2","Q07":"3","Q11":"3","Q06":"3","Q01":"2","Q08":"3","Q13":"0","Q04":"3"},"rt":59835,"item_order":[4,8,2,1,9,11,6,10,5,0,7,12,3],"radio_events":[6250,10740,17059,22249,25074,27972,32099,35985,38682,42658,47011,49865,58915],"key_events":[],"mouse_events":[6250,10132,10740,17059,22249,24457,25074,27972,32099,35985,38682,41962,42658,47011,49865,58139,58915,59835],"straightlining":0.5384615384615384,"zigzagging":0.75,"honeypot":0,"survey":"bisbas","trial_type":"survey-template","trial_index":3,"time_elapsed":197117,"internal_node_id":"0.0-3.0","task_version":"prescreen-v0.3","browser_interactions":0,"infrequency":0},{"responses":{"Q01":"1","Q02":"1","Q03":"2"},"rt":16861,"radio_events":[7108,11516,16101],"key_events":[],"mouse_events":[7108,11516,16101,16861],"survey":"map","page":1,"trial_type":"survey-map","trial_index":4,"time_elapsed":213981,"internal_node_id":"0.0-4.0","task_version":"prescreen-v0.3","browser_interactions":0},{"responses":{"Q04":"3","Q05":"3","Q06":"3"},"rt":14645,"radio_events":[5838,10701,13567],"key_events":[],"mouse_events":[5838,10701,13567,14644],"survey":"map","page":2,"trial_type":"survey-map","trial_index":5,"time_elapsed":228627,"internal_node_id":"0.0-5.0","task_version":"prescreen-v0.3","browser_interactions":0},{"responses":{"Q07":"4","Q08":"3","Q09":"1"},"rt":16263,"radio_events":[7160,11280,12463,15224],"key_events":[],"mouse_events":[7160,11280,12463,15224,16263],"survey":"map","page":3,"trial_type":"survey-map","trial_index":6,"time_elapsed":244891,"internal_node_id":"0.0-6.0","task_version":"prescreen-v0.3","browser_interactions":0},{"responses":{"Q10":"3","Q11":"0","Q12":"0","Q13":"3","Q16":"0","Q14":"3","Q15":"3"},"rt":34143,"radio_events":[4680,6973,11726,15399,19421,23495,30014,33137],"key_events":[],"mouse_events":[4680,6973,11007,11726,15399,19421,23495,29375,30014,33137,34143],"survey":"map","page":4,"trial_type":"survey-map","trial_index":7,"time_elapsed":279037,"internal_node_id":"0.0-7.0","task_version":"prescreen-v0.3","browser_interactions":0,"infrequency":0},{"view_history":[{"page_index":0,"viewing_time":2590},{"page_index":1,"viewing_time":4937}],"rt":7527,"trial_type":"instructions","trial_index":8,"time_elapsed":286565,"internal_node_id":"0.0-8.0","task_version":"prescreen-v0.3"},{"responses":{"01":"No","02":"No","03":"No","04":"No","05":"No","06":"No"},"rt":31280,"item_order":[0,1,2,3,4,5],"radio_events":[11217,18779,22082,25530,27922,30602],"checkbox_events":[],"key_events":[],"mouse_events":[0,11217,18779,22082,25530,27922,30602,31279],"honeypot":0,"survey":"mace","page":1,"trial_type":"survey-mace","trial_index":9,"time_elapsed":317850,"internal_node_id":"0.0-9.0","task_version":"prescreen-v0.3","browser_interactions":0},{"responses":{"01":"No","02":"No","03":"Yes","03_ages_6":"6","03_ages_7":"7","03_ages_8":"8","03_ages_9":"9","03_ages_10":"10","03_ages_11":"11","03_ages_12":"12","04":"No","05":"No","06":"No","07":"No","08":"No"},"rt":40662,"item_order":[0,1,2,3,4,5,6,7],"radio_events":[5628,8925,10859,29180,32115,33956,35908,37883],"checkbox_events":[17053,18115,18628,19221,19860,21302,25193],"key_events":[],"mouse_events":[5628,8925,10859,17053,18115,18628,19221,19860,21302,25193,29180,32115,33956,35908,37883,40662],"honeypot":0,"survey":"mace","page":2,"trial_type":"survey-mace","trial_index":10,"time_elapsed":358518,"internal_node_id":"0.0-10.0","task_version":"prescreen-v0.3","browser_interactions":0},{"responses":{"01":"No","02":"No","03":"No","04":"No"},"rt":13577,"item_order":[0,1,2,3],"radio_events":[4731,7914,9876,12827],"checkbox_events":[],"key_events":[],"mouse_events":[4731,7914,9876,12827,13577],"honeypot":0,"survey":"mace","page":3,"trial_type":"survey-mace","trial_index":11,"time_elapsed":372099,"internal_node_id":"0.0-11.0","task_version":"prescreen-v0.3","browser_interactions":0},{"responses":{"01":"No","01_ages_12":"12","01_ages_13":"13","02":"No","02_ages_12":"12","02_ages_13":"13"},"rt":45586,"item_order":[0,1],"radio_events":[11141,20711,43598,44766],"checkbox_events":[17287,18742,24277,24902],"key_events":[],"mouse_events":[11141,17287,18742,20711,24277,24902,43598,44766,45586],"honeypot":0,"survey":"mace","page":4,"trial_type":"survey-mace","trial_index":12,"time_elapsed":417688,"internal_node_id":"0.0-12.0","task_version":"prescreen-v0.3","browser_interactions":0},{"responses":{"01":"No","02":"No","03":"No","04":"No","05":"No"},"rt":40859,"item_order":[0,1,2,3,4],"radio_events":[31246,33815,35710,37848,40135],"checkbox_events":[],"key_events":[],"mouse_events":[31246,33815,35710,37848,40135,40859],"honeypot":0,"survey":"mace","page":5,"trial_type":"survey-mace","trial_index":13,"time_elapsed":458552,"internal_node_id":"0.0-13.0","task_version":"prescreen-v0.3","browser_interactions":0},{"responses":{"01":"Yes","01_ages_11":"11","01_ages_12":"12","01_ages_13":"13","01_ages_14":"14","02":"Yes","02_ages_11":"11","02_ages_12":"12","02_ages_13":"13","02_ages_14":"14","03":"No","04":"No","05":"No"},"rt":29633,"item_order":[0,1,2,3,4],"radio_events":[7975,19288,24911,27176,29087],"checkbox_events":[12225,12617,13705,14589,20519,21032,21488,21912],"key_events":[],"mouse_events":[7975,12225,12617,13048,13705,14589,19288,20519,21032,21488,21912,24911,27176,29087,29633],"honeypot":0,"survey":"mace","page":6,"trial_type":"survey-mace","trial_index":14,"time_elapsed":488190,"internal_node_id":"0.0-14.0","task_version":"prescreen-v0.3","browser_interactions":0},{"responses":{"01":"No","02":"Yes","02_ages_7":"7","02_ages_8":"8","02_ages_9":"9","02_ages_10":"10","02_ages_11":"11","02_ages_12":"12","03":"Yes","03_ages_9":"9","03_ages_10":"10","03_ages_11":"11","03_ages_12":"12","03_ages_13":"13","04":"No","05":"No","06":"No","07":"No"},"rt":47222,"item_order":[0,1,2,3,4,5,6],"radio_events":[15288,16353,28137,34353,36032,44778,45544],"checkbox_events":[21137,21697,22107,23322,23833,24433,30186,30578,31048,31544,32487],"key_events":[],"mouse_events":[15288,16353,21137,21697,22107,23322,23833,24433,28137,30186,30578,31048,31544,32487,34353,36032,44778,45544,47222],"honeypot":0,"survey":"mace","page":7,"trial_type":"survey-mace","trial_index":15,"time_elapsed":535417,"internal_node_id":"0.0-15.0","task_version":"prescreen-v0.3","browser_interactions":0},{"responses":{"01":"No","02":"No","03":"Yes","03_ages_6":"6","03_ages_7":"7","03_ages_8":"8","03_ages_9":"9","03_ages_10":"10","03_ages_11":"11","03_ages_12":"12","03_ages_13":"13","03_ages_14":"14","04":"No"},"rt":28584,"item_order":[0,1,2,3],"radio_events":[9813,12204,16516,28046],"checkbox_events":[18996,20309,20780,21302,21805,22292,22740,23301,24415],"key_events":[],"mouse_events":[9013,9813,12204,16516,18996,20309,20780,21302,21805,22292,22740,23301,24415,28046,28584],"honeypot":0,"survey":"mace","page":8,"trial_type":"survey-mace","trial_index":16,"time_elapsed":564007,"internal_node_id":"0.0-16.0","task_version":"prescreen-v0.3","browser_interactions":0},{"responses":{"01":"Yes","01_ages_1":"1","01_ages_2":"2","01_ages_3":"3","01_ages_4":"4","01_ages_5":"5","01_ages_6":"6","01_ages_7":"7","01_ages_8":"8","01_ages_9":"9","01_ages_10":"10","01_ages_11":"11","01_ages_12":"12","01_ages_13":"13","01_ages_14":"14","01_ages_15":"15","01_ages_16":"16","01_ages_17":"17","01_ages_18":"18","02":"Yes","02_ages_1":"1","02_ages_2":"2","02_ages_3":"3","02_ages_4":"4","02_ages_5":"5","02_ages_6":"6","02_ages_7":"7","02_ages_8":"8","02_ages_9":"9","02_ages_10":"10","02_ages_11":"11","02_ages_12":"12","02_ages_13":"13","02_ages_14":"14","02_ages_15":"15","02_ages_16":"16","02_ages_17":"17","02_ages_18":"18","03":"Yes","03_ages_1":"1","03_ages_2":"2","03_ages_3":"3","03_ages_4":"4","03_ages_5":"5","03_ages_6":"6","03_ages_7":"7","03_ages_8":"8","03_ages_9":"9","03_ages_10":"10","03_ages_11":"11","03_ages_12":"12","03_ages_13":"13","03_ages_14":"14","03_ages_15":"15","03_ages_16":"16","03_ages_17":"17","03_ages_18":"18","04":"Yes","04_ages_1":"1","04_ages_2":"2","04_ages_3":"3","04_ages_4":"4","04_ages_5":"5","04_ages_6":"6","04_ages_7":"7","04_ages_8":"8","04_ages_9":"9","04_ages_10":"10","04_ages_11":"11","04_ages_12":"12","04_ages_13":"13","04_ages_14":"14","04_ages_15":"15","04_ages_16":"16","04_ages_17":"17","04_ages_18":"18"},"rt":64110,"item_order":[0,1,2,3],"radio_events":[4488,21480,38087,53009],"checkbox_events":[6680,8466,8970,9951,10977,11570,12105,12640,13113,13562,14258,14784,15353,15824,16312,17593,18585,19360,23345,24712,25385,26465,27377,27803,28272,28768,29194,29603,30120,31559,32729,33321,33761,34793,35187,35791,39257,39754,40320,40808,41417,41826,42311,42760,43298,43786,44311,44776,45313,46201,47138,47625,48113,48599,54288,54760,55233,55801,56290,56768,57200,57761,58410,58968,60033,60545,61001,61497,62017,62567,63008,63504],"key_events":[],"mouse_events":[4488,6680,7106,8466,8970,9496,9951,10456,10977,11570,12105,12640,13113,13562,14258,14784,15353,15824,16312,16834,17593,18585,19360,21480,22921,23345,24011,24712,25385,26465,26952,27377,27803,28272,28768,29194,29603,30120,30681,31559,31986,32729,33321,33761,34364,34793,35187,35791,38087,39257,39754,40320,40808,41417,41826,42311,42760,43298,43786,44311,44776,45313,46201,47138,47625,48113,48599,53009,54288,54760,55233,55801,56290,56768,57200,57761,58410,58968,60033,60545,61001,61497,62017,62567,63008,63504,64110],"honeypot":0,"survey":"mace","page":9,"trial_type":"survey-mace","trial_index":17,"time_elapsed":628122,"internal_node_id":"0.0-17.0","task_version":"prescreen-v0.3","browser_interactions":0},{"responses":{"01":"No","02":"No","03":"No","04":"No","05":"Yes","05_ages_1":"1","05_ages_2":"2","05_ages_3":"3","05_ages_4":"4","05_ages_5":"5","05_ages_6":"6","05_ages_7":"7","05_ages_8":"8","05_ages_9":"9","05_ages_10":"10","05_ages_11":"11","05_ages_12":"12","05_ages_13":"13","05_ages_14":"14","05_ages_15":"15","05_ages_16":"16","05_ages_17":"17","05_ages_18":"18","06":"Yes","06_ages_17":"17","07":"Yes","07_ages_1":"1","07_ages_2":"2","07_ages_3":"3","07_ages_4":"4","07_ages_5":"5","07_ages_6":"6","07_ages_7":"7","07_ages_8":"8","07_ages_9":"9","07_ages_10":"10","07_ages_11":"11","07_ages_12":"12","07_ages_13":"13","07_ages_14":"14","07_ages_15":"15","07_ages_16":"16","07_ages_17":"17","07_ages_18":"18","08":"Yes","08_ages_1":"1","08_ages_2":"2","08_ages_3":"3","08_ages_4":"4","08_ages_5":"5","08_ages_6":"6","08_ages_7":"7","08_ages_8":"8","08_ages_9":"9","08_ages_10":"10","08_ages_11":"11","08_ages_12":"12","08_ages_13":"13","08_ages_14":"14","08_ages_15":"15","08_ages_16":"16","08_ages_17":"17","08_ages_18":"18"},"rt":66091,"item_order":[0,1,2,3,4,5,6,7],"radio_events":[4724,7100,10485,13148,16507,33964,38771,53484],"checkbox_events":[19734,20141,20892,21308,21789,22278,22733,23189,24373,25613,26398,26860,27326,27877,28374,28906,29565,30300,35716,40108,40468,42397,42852,43340,43852,44422,44853,45333,45797,46333,46843,47276,48270,49087,50069,50421,51403,54685,55204,55693,56196,56668,57148,57604,58069,58502,58974,59431,60461,60838,61614,62542,62979,63524,64082],"key_events":[],"mouse_events":[4724,7100,10485,13148,16507,19734,20141,20892,21308,21789,22278,22733,23189,24373,25613,26398,26860,27326,27877,28374,28906,29565,30300,33964,35716,38771,40108,40468,42397,42852,43340,43852,44422,44853,45333,45797,46333,46843,47276,48270,49087,49492,50069,50421,50876,51403,53484,54685,55204,55693,56196,56668,57148,57604,58069,58502,58974,59431,59934,60461,60838,61614,62542,62979,63524,64082,66091],"honeypot":0,"survey":"mace","page":10,"trial_type":"survey-mace","trial_index":18,"time_elapsed":694219,"internal_node_id":"0.0-18.0","task_version":"prescreen-v0.3","browser_interactions":0,"instructed":0},{"rt":9216,"trial_type":"mental-health-alert","trial_index":19,"time_elapsed":703437,"internal_node_id":"0.0-19.0","task_version":"prescreen-v0.3","interactions":"[{\"event\":\"focus\",\"trial\":0,\"time\":0}]"}]