[{"view_history":[{"page_index":0,"viewing_time":5448.200000047684},{"page_index":1,"viewing_time":5726},{"page_index":2,"viewing_time":7080.699999988079},{"page_index":3,"viewing_time":2042.0999999642372}],"rt":20298.400000035763,"trial_type":"instructions","trial_index":0,"time_elapsed":20367,"internal_node_id":"0.0-0.0","task_version":"prescreen-v0.3"},{"rt":25230.399999976158,"responses":{"age":"42","gender-categorical":"Female","gender-free-response":"","ethnicity":"Not Hispanic or Latino","race":["White"],"education":"Some college"},"trial_type":"survey-demo","trial_index":1,"time_elapsed":45606,"internal_node_id":"0.0-1.0","task_version":"prescreen-v0.3"},{"responses":{"Q11":"2","Q09":"3","Q01":"3","Q10":"2","Q17":"3","Q06":"0","Q03":"3","Q07":"3","Q21":"3","Q18":"2","Q16":"2","Q13":"3","Q02":"2","Q12":"2","Q05":"1","Q14":"3","Q20":"3","Q08":"2","Q15":"3","Q04":"3","Q19":"2"},"rt":153266.19999998808,"item_order":[10,8,0,9,16,5,2,6,20,17,15,12,1,11,4,13,19,7,14,3,18],"radio_events":[9425.899999976158,13569.599999964237,15498.199999988079,21236.5,25671.80000001192,34190.59999996424,43044.5,53451.09999996424,64171.19999998808,70765.59999996424,76079.19999998808,80772.30000001192,85981.39999997616,95665.09999996424,107616.80000001192,112193.39999997616,119276.30000001192,127767,134209,140580.09999996424,150677.5],"key_events":[],"mouse_events":[9425.899999976158,13569.599999964237,15498.199999988079,21236.5,25671.80000001192,34190.59999996424,41453,43044.5,53451.09999996424,64171.19999998808,70765.59999996424,76079.19999998808,80772.30000001192,85981.39999997616,95665.09999996424,107616.80000001192,112193.39999997616,115090.59999996424,119276.30000001192,127767,134209,140580.09999996424,142784.89999997616,150677.5,153262.19999998808],"straightlining":0.5238095238095238,"zigzagging":0.6,"honeypot":0,"survey":"sns","trial_type":"survey-template","trial_index":2,"time_elapsed":198881,"internal_node_id":"0.0-2.0","task_version":"prescreen-v0.3","browser_interactions":0,"infrequency":0},{"responses":{"Q12":"0","Q02":"3","Q08":"0","Q09":"0","Q13":"0","Q01":"3","Q07":"1","Q06":"2","Q10":"0","Q05":"1","Q04":"3","Q11":"0","Q03":"2"},"rt":86901.69999998808,"item_order":[11,1,7,8,12,0,6,5,9,4,3,10,2],"radio_events":[7652,10741.800000011921,17000.69999998808,20912.30000001192,25370.19999998808,29543,33928.10000002384,43072.80000001192,52481.69999998808,60142.90000003576,65662.19999998808,76529.80000001192,82842.5],"key_events":[],"mouse_events":[7652,10741.800000011921,17000.69999998808,20912.30000001192,25370.19999998808,29543,33928.10000002384,43072.80000001192,49434.10000002384,52481.69999998808,60142.90000003576,65662.19999998808,76529.80000001192,82842.5,86899.19999998808],"straightlining":0.46153846153846156,"zigzagging":0.5,"honeypot":0,"survey":"bisbas","trial_type":"survey-template","trial_index":3,"time_elapsed":285788,"internal_node_id":"0.0-3.0","task_version":"prescreen-v0.3","browser_interactions":0,"infrequency":0},{"responses":{"Q01":"0","Q02":"0","Q03":"0"},"rt":25483.799999952316,"radio_events":[13011.599999964237,18122.5,23600.399999976158],"key_events":[],"mouse_events":[13011.599999964237,18122.5,23600.399999976158,25482.299999952316],"survey":"map","page":1,"trial_type":"survey-map","trial_index":4,"time_elapsed":311276,"internal_node_id":"0.0-4.0","task_version":"prescreen-v0.3","browser_interactions":0},{"responses":{"Q04":"1","Q05":"2","Q06":"1"},"rt":38435.60000002384,"radio_events":[7657.199999988079,14666.800000011921,36721.10000002384],"key_events":[],"mouse_events":[7657.199999988079,14666.800000011921,36721.10000002384,38434.80000001192],"survey":"map","page":2,"trial_type":"survey-map","trial_index":5,"time_elapsed":349715,"internal_node_id":"0.0-5.0","task_version":"prescreen-v0.3","browser_interactions":0},{"responses":{"Q07":"1","Q08":"0","Q09":"0"},"rt":22854.69999998808,"radio_events":[7529.300000011921,12382,15545.199999988079,20540.30000001192],"key_events":[],"mouse_events":[7529.300000011921,12382,15545.199999988079,20540.30000001192,22853.600000023842],"survey":"map","page":3,"trial_type":"survey-map","trial_index":6,"time_elapsed":372573,"internal_node_id":"0.0-6.0","task_version":"prescreen-v0.3","browser_interactions":0},{"responses":{"Q10":"0","Q11":"0","Q12":"0","Q13":"0","Q16":"0","Q14":"0","Q15":"0"},"rt":63399.30000001192,"radio_events":[4739.600000023842,13834.199999988079,19834.399999976158,25899.5,34255.60000002384,49060.30000001192,52964.69999998808],"key_events":[],"mouse_events":[4739.600000023842,13834.199999988079,19834.399999976158,25899.5,34255.60000002384,47519.39999997616,49060.30000001192,52964.69999998808,63397.30000001192],"survey":"map","page":4,"trial_type":"survey-map","trial_index":7,"time_elapsed":435975,"internal_node_id":"0.0-7.0","task_version":"prescreen-v0.3","browser_interactions":0,"infrequency":0},{"view_history":[{"page_index":0,"viewing_time":4148.399999976158},{"page_index":1,"viewing_time":6394.399999976158}],"rt":10544,"trial_type":"instructions","trial_index":8,"time_elapsed":446521,"internal_node_id":"0.0-8.0","task_version":"prescreen-v0.3"},{"responses":{"01":"Yes","01_ages_2":"2","01_ages_3":"3","01_ages_4":"4","01_ages_5":"5","01_ages_6":"6","01_ages_7":"7","01_ages_8":"8","01_ages_9":"9","01_ages_10":"10","01_ages_11":"11","02":"Yes","02_ages_2":"2","02_ages_3":"3","02_ages_4":"4","02_ages_5":"5","02_ages_6":"6","02_ages_7":"7","02_ages_8":"8","02_ages_9":"9","02_ages_10":"10","02_ages_11":"11","02_ages_12":"12","02_ages_13":"13","02_ages_14":"14","02_ages_15":"15","02_ages_16":"16","02_ages_17":"17","02_ages_18":"18","03":"Yes","03_ages_2":"2","03_ages_3":"3","03_ages_4":"4","03_ages_5":"5","03_ages_6":"6","03_ages_7":"7","03_ages_8":"8","03_ages_9":"9","03_ages_10":"10","04":"Yes","04_ages_2":"2","04_ages_3":"3","04_ages_4":"4","04_ages_5":"5","04_ages_6":"6","04_ages_7":"7","04_ages_8":"8","04_ages_9":"9","04_ages_10":"10","05":"No","06":"Yes","06_ages_2":"2","06_ages_3":"3","06_ages_4":"4","06_ages_5":"5","06_ages_6":"6","06_ages_7":"7","06_ages_8":"8","06_ages_9":"9","06_ages_10":"10"},"rt":159482.29999995232,"item_order":[0,1,2,3,4,5],"radio_events":[4719.699999988079,40955.19999998808,78912,100345.29999995232,122531.79999995232,127367.59999996424],"checkbox_events":[9895.699999988079,13092,15631.799999952316,18949.099999964237,20242.799999952316,21345.5,22834.69999998808,24246.399999976158,26930.5,29220.399999976158,34551.19999998808,37972.09999996424,44671.69999998808,45918.69999998808,47101.39999997616,48659.5,49806.19999998808,50987.69999998808,52147.59999996424,54477.59999996424,57605.299999952316,59016.59999996424,62519.69999998808,65300.5,67508.79999995232,68813.09999996424,70681.09999996424,71752.19999998808,73642.09999996424,81832.19999998808,83267,84510.69999998808,85987.39999997616,87044.19999998808,88794.39999997616,93588.39999997616,95068.89999997616,96202.39999997616,102918.59999996424,104913,106094.29999995232,107582.69999998808,108604,110143.59999996424,111545.69999998808,112842.09999996424,114085,129451.39999997616,132933.79999995232,134403.5,136984.79999995232,139697.5,141402.89999997616,144229.89999997616,148469.09999996424,150797.09999996424],"key_events":[],"mouse_events":[0.3999999761581421,4719.699999988079,9895.699999988079,13092,15631.799999952316,17173.69999998808,18949.099999964237,20242.799999952316,21345.5,22834.69999998808,24246.399999976158,26930.5,29220.399999976158,34551.19999998808,37972.09999996424,40955.19999998808,44671.69999998808,45918.69999998808,47101.39999997616,48659.5,49806.19999998808,50987.69999998808,52147.59999996424,54477.59999996424,57605.299999952316,59016.59999996424,62519.69999998808,65300.5,67508.79999995232,68813.09999996424,70681.09999996424,71752.19999998808,73642.09999996424,78912,81832.19999998808,83267,84510.69999998808,85987.39999997616,87044.19999998808,88794.39999997616,93588.39999997616,95068.89999997616,96202.39999997616,100345.29999995232,102918.59999996424,104913,106094.29999995232,107582.69999998808,108604,110143.59999996424,111545.69999998808,112842.09999996424,114085,122531.79999995232,127367.59999996424,129451.39999997616,131238.09999996424,132933.79999995232,134403.5,136984.79999995232,139697.5,141402.89999997616,144229.89999997616,146432.29999995232,148469.09999996424,150797.09999996424,159478.09999996424],"honeypot":0,"survey":"mace","page":1,"trial_type":"survey-mace","trial_index":9,"time_elapsed":606017,"internal_node_id":"0.0-9.0","task_version":"prescreen-v0.3","browser_interactions":0},{"responses":{"01":"Yes","01_ages_2":"2","01_ages_3":"3","01_ages_4":"4","01_ages_5":"5","01_ages_6":"6","01_ages_7":"7","01_ages_8":"8","01_ages_9":"9","01_ages_10":"10","02":"Yes","02_ages_3":"3","02_ages_4":"4","02_ages_6":"6","02_ages_7":"7","02_ages_8":"8","03":"Yes","03_ages_2":"2","03_ages_3":"3","03_ages_4":"4","03_ages_5":"5","03_ages_6":"6","03_ages_7":"7","03_ages_8":"8","03_ages_9":"9","03_ages_10":"10","03_ages_11":"11","03_ages_12":"12","04":"Yes","04_ages_2":"2","04_ages_3":"3","04_ages_4":"4","04_ages_5":"5","04_ages_6":"6","04_ages_7":"7","04_ages_8":"8","04_ages_9":"9","04_ages_10":"10","04_ages_11":"11","04_ages_12":"12","05":"Yes","05_ages_2":"2","05_ages_3":"3","05_ages_4":"4","05_ages_5":"5","05_ages_6":"6","05_ages_7":"7","06":"No","07":"No","08":"No"},"rt":135656.60000002384,"item_order":[0,1,2,3,4,5,6,7],"radio_events":[6581.5,31267.69999998808,47485.80000001192,75780.60000002384,103387.60000002384,128740.40000003576,130736.40000003576,133407.40000003576],"checkbox_events":[8354,10219,12014.699999988079,13186.800000011921,14459.5,16296.900000035763,18156.400000035763,20622.69999998808,23978,34790.5,37986.40000003576,40122.30000001192,42385.40000003576,43896.80000001192,49918.60000002384,51525.40000003576,52806.80000001192,54511.90000003576,55738.69999998808,56918.5,58475.5,59802.19999998808,62158.80000001192,63531.10000002384,64881.90000003576,79186.80000001192,80670.60000002384,81891.80000001192,84053.80000001192,85259.40000003576,87086.69999998808,88984,91399.90000003576,93668.60000002384,95224.5,97329.10000002384,109526.30000001192,112700.60000002384,114158.19999998808,115997.30000001192,118995.80000001192,123491.60000002384],"key_events":[],"mouse_events":[6581.5,8354,10219,12014.699999988079,13186.800000011921,14459.5,16296.900000035763,18156.400000035763,20622.69999998808,23978,31267.69999998808,34790.5,37986.40000003576,40122.30000001192,42385.40000003576,43896.80000001192,47485.80000001192,49918.60000002384,51525.40000003576,52806.80000001192,54511.90000003576,55738.69999998808,56918.5,58475.5,59802.19999998808,62158.80000001192,63531.10000002384,64881.90000003576,75780.60000002384,79186.80000001192,80670.60000002384,81891.80000001192,84053.80000001192,85259.40000003576,87086.69999998808,88984,91399.90000003576,93668.60000002384,95224.5,97329.10000002384,101077.5,103387.60000002384,109526.30000001192,110855.60000002384,112700.60000002384,114158.19999998808,115997.30000001192,118995.80000001192,123491.60000002384,128740.40000003576,130736.40000003576,133407.40000003576,135651.5],"honeypot":0,"survey":"mace","page":2,"trial_type":"survey-mace","trial_index":10,"time_elapsed":741682,"internal_node_id":"0.0-10.0","task_version":"prescreen-v0.3","browser_interactions":0},{"responses":{"01":"Yes","01_ages_3":"3","01_ages_4":"4","01_ages_5":"5","01_ages_6":"6","02":"No","03":"No","04":"No"},"rt":57153.299999952316,"item_order":[0,1,2,3],"radio_events":[14848.399999976158,21049.399999976158,23586,25528.399999976158,51532],"checkbox_events":[32616.69999998808,36435.19999998808,38889.89999997616,40927.5],"key_events":[],"mouse_events":[14848.399999976158,21049.399999976158,23586,25528.399999976158,32616.69999998808,36435.19999998808,38889.89999997616,40927.5,51532,57149.59999996424],"honeypot":0,"survey":"mace","page":3,"trial_type":"survey-mace","trial_index":11,"time_elapsed":798839,"internal_node_id":"0.0-11.0","task_version":"prescreen-v0.3","browser_interactions":0},{"responses":{"01":"No","02":"No"},"rt":16180.399999976158,"item_order":[0,1],"radio_events":[9235.199999988079,14608.5],"checkbox_events":[],"key_events":[],"mouse_events":[9235.199999988079,14608.5,16178.599999964237],"honeypot":0,"survey":"mace","page":4,"trial_type":"survey-mace","trial_index":12,"time_elapsed":815024,"internal_node_id":"0.0-12.0","task_version":"prescreen-v0.3","browser_interactions":0},{"responses":{"01":"Yes","01_ages_6":"6","02":"Yes","02_ages_6":"6","03":"No","04":"No","05":"No"},"rt":41026.5,"item_order":[0,1,2,3,4],"radio_events":[6826.5,15094.399999976158,25323,35943,38590],"checkbox_events":[8791.899999976158,17298.5],"key_events":[],"mouse_events":[6826.5,8791.899999976158,15094.399999976158,17298.5,25323,35943,38590,41023.5],"honeypot":0,"survey":"mace","page":5,"trial_type":"survey-mace","trial_index":13,"time_elapsed":856055,"internal_node_id":"0.0-13.0","task_version":"prescreen-v0.3","browser_interactions":0},{"responses":{"01":"Yes","01_ages_8":"8","01_ages_12":"12","01_ages_14":"14","01_ages_15":"15","01_ages_16":"16","02":"Yes","02_ages_8":"8","02_ages_12":"12","02_ages_14":"14","02_ages_15":"15","02_ages_16":"16","03":"Yes","03_ages_14":"14","03_ages_15":"15","03_ages_16":"16","04":"Yes","04_ages_8":"8","04_ages_9":"9","04_ages_10":"10","04_ages_11":"11","04_ages_12":"12","04_ages_13":"13","04_ages_14":"14","04_ages_15":"15","04_ages_16":"16","05":"No"},"rt":122338.5,"item_order":[0,1,2,3,4],"radio_events":[12131.699999988079,37206.10000002384,65880.10000002384,78046.10000002384,120709.90000003576],"checkbox_events":[16296.400000035763,21459,22852.400000035763,25647.80000001192,40032.60000002384,44111.40000003576,46340.5,47560.40000003576,49506.69999998808,57774.30000001192,68984.30000001192,70677.69999998808,72395.30000001192,81415.40000003576,83184.90000003576,86359.69999998808,87995.5,89827,92393.90000003576,93878,95891.60000002384,97678.5,100008.60000002384,104876.80000001192,106042.40000003576,108089.19999998808],"key_events":[],"mouse_events":[1369,12131.699999988079,16296.400000035763,21459,22852.400000035763,25647.80000001192,37206.10000002384,40032.60000002384,44111.40000003576,46340.5,47560.40000003576,49506.69999998808,57774.30000001192,65880.10000002384,68984.30000001192,70677.69999998808,72395.30000001192,78046.10000002384,81415.40000003576,83184.90000003576,84356.19999998808,86359.69999998808,87995.5,89827,92393.90000003576,93878,95891.60000002384,97678.5,100008.60000002384,104876.80000001192,106042.40000003576,108089.19999998808,120709.90000003576,122334.90000003576],"honeypot":0,"survey":"mace","page":6,"trial_type":"survey-mace","trial_index":14,"time_elapsed":978400,"internal_node_id":"0.0-14.0","task_version":"prescreen-v0.3","browser_interactions":0},{"responses":{"01":"No","02":"No","03":"No","04":"No","05":"No","06":"No","07":"No"},"rt":32366.700000047684,"item_order":[0,1,2,3,4,5,6],"radio_events":[5150.600000023842,8049.800000011921,10726.5,12536.600000023842,20417,23684.200000047684,28134],"checkbox_events":[],"key_events":[],"mouse_events":[5150.600000023842,8049.800000011921,10726.5,12536.600000023842,20417,23684.200000047684,28134,32359.600000023842],"honeypot":0,"survey":"mace","page":7,"trial_type":"survey-mace","trial_index":15,"time_elapsed":1010775,"internal_node_id":"0.0-15.0","task_version":"prescreen-v0.3","browser_interactions":0},{"responses":{"01":"Yes","01_ages_1":"1","01_ages_2":"2","01_ages_3":"3","01_ages_4":"4","01_ages_5":"5","01_ages_6":"6","01_ages_7":"7","01_ages_8":"8","01_ages_9":"9","01_ages_10":"10","01_ages_11":"11","02":"No","03":"No","04":"Yes","04_ages_2":"2","04_ages_3":"3","04_ages_4":"4","04_ages_5":"5","04_ages_6":"6","04_ages_7":"7"},"rt":84999.69999998808,"item_order":[0,1,2,3],"radio_events":[14059.199999988079,50960.39999997616,56675.19999998808,64070.59999996424],"checkbox_events":[17876.399999976158,19376.5,20703,22379,23759.19999998808,25716.19999998808,28122.899999976158,30105.5,33749.30000001192,36055.5,38227.39999997616,68156.59999996424,72240.19999998808,73687.89999997616,75720.19999998808,78312.69999998808,81910.80000001192],"key_events":[],"mouse_events":[14059.199999988079,17876.399999976158,19376.5,20703,22379,23759.19999998808,25716.19999998808,28122.899999976158,30105.5,31429.19999998808,32054.899999976158,33258.5,33749.30000001192,36055.5,38227.39999997616,50960.39999997616,56675.19999998808,64070.59999996424,68156.59999996424,72240.19999998808,73687.89999997616,75720.19999998808,78312.69999998808,81910.80000001192,84995],"honeypot":0,"survey":"mace","page":8,"trial_type":"survey-mace","trial_index":16,"time_elapsed":1095780,"internal_node_id":"0.0-16.0","task_version":"prescreen-v0.3","browser_interactions":0},{"responses":{"01":"No","02":"No","03":"No","04":"No"},"rt":28939.5,"item_order":[0,1,2,3],"radio_events":[10704.5,16011.899999976158,18907.899999976158,24121.80000001192],"checkbox_events":[],"key_events":[],"mouse_events":[10704.5,16011.899999976158,18907.899999976158,24121.80000001192,28936.69999998808],"honeypot":0,"survey":"mace","page":9,"trial_type":"survey-mace","trial_index":17,"time_elapsed":1124723,"internal_node_id":"0.0-17.0","task_version":"prescreen-v0.3","browser_interactions":0},{"responses":{"01":"Yes","01_ages_2":"2","01_ages_3":"3","01_ages_4":"4","01_ages_5":"5","01_ages_6":"6","02":"No","03":"Yes","03_ages_6":"6","03_ages_7":"7","04":"No","05":"No","06":"Yes","06_ages_17":"17","07":"No","08":"No"},"rt":67995.19999998808,"item_order":[0,1,2,3,4,5,6,7],"radio_events":[3707.300000011921,18807.69999998808,24460.899999976158,39219.5,49371.5,53908.30000001192,61096.80000001192,63055.69999998808],"checkbox_events":[5834.199999988079,7394.5,9021.699999988079,11425.300000011921,14235.300000011921,26531.69999998808,27745.600000023842,56735.60000002384],"key_events":[],"mouse_events":[3707.300000011921,5834.199999988079,7394.5,9021.699999988079,11425.300000011921,14235.300000011921,18807.69999998808,24460.899999976158,26531.69999998808,27745.600000023842,29934.899999976158,30802.600000023842,39219.5,49371.5,52269.30000001192,53908.30000001192,56735.60000002384,61096.80000001192,63055.69999998808,67989.69999998808],"honeypot":0,"survey":"mace","page":10,"trial_type":"survey-mace","trial_index":18,"time_elapsed":1192724,"internal_node_id":"0.0-18.0","task_version":"prescreen-v0.3","browser_interactions":0,"instructed":0},{"rt":14831.299999952316,"trial_type":"mental-health-alert","trial_index":19,"time_elapsed":1207559,"internal_node_id":"0.0-19.0","task_version":"prescreen-v0.3","interactions":"[]"}]