[{"view_history":[{"page_index":0,"viewing_time":2197},{"page_index":1,"viewing_time":1981},{"page_index":2,"viewing_time":1995},{"page_index":3,"viewing_time":1338}],"rt":7511,"trial_type":"instructions","trial_index":0,"time_elapsed":7518,"internal_node_id":"0.0-0.0","task_version":"prescreen-v0.3"},{"rt":15294,"responses":{"age":"32","gender-categorical":"Male","gender-free-response":"","ethnicity":"Not Hispanic or Latino","race":["White"],"education":"Bachelor degree","siblings":"3"},"trial_type":"survey-demo","trial_index":1,"time_elapsed":22821,"internal_node_id":"0.0-1.0","task_version":"prescreen-v0.3"},{"responses":{"Q05":"2","Q16":"1","Q19":"2","Q10":"2","Q09":"1","Q01":"2","Q07":"1","Q02":"1","Q20":"0","Q08":"2","Q14":"2","Q21":"3","Q11":"2","Q15":"3","Q03":"2","Q04":"0","Q18":"2","Q12":"1","Q17":"2","Q06":"1","Q13":"2"},"rt":127510,"item_order":[4,15,18,9,8,0,6,1,19,7,13,20,10,14,2,3,17,11,16,5,12],"radio_events":[10731,17918,24730,29602,39823.00000000001,40942.00000000001,49101,49895,55985,59657.000000000015,64691,69186,74025,77827.00000000001,84654,87842,92286,97606,103042,110019.00000000003,114700,117092,123844,126651],"key_events":[],"mouse_events":[9858,10731,17234,17918,24730,29602,35060,36837,39252,39823.00000000001,40942.00000000001,49101,49895,55179,55985,58446,59657.000000000015,64691,69186,74025,77827.00000000001,84654,87842,92286,97606,103042,110019.00000000003,113874,114700,115454,116370.00000000003,117092,123844,126651,127487],"straightlining":0.5238095238095238,"zigzagging":0.7,"honeypot":0,"survey":"sns","trial_type":"survey-template","trial_index":2,"time_elapsed":150337,"internal_node_id":"0.0-2.0","task_version":"prescreen-v0.3","browser_interactions":0,"infrequency":0},{"responses":{"Q11":"2","Q08":"2","Q02":"3","Q10":"2","Q12":"2","Q07":"2","Q04":"3","Q01":"3","Q03":"3","Q09":"2","Q13":"0","Q06":"3","Q05":"2"},"rt":63411.99999999997,"item_order":[10,7,1,9,11,6,3,0,2,8,12,5,4],"radio_events":[8410.99999999997,13924.99999999997,17321.99999999997,20104.99999999997,25396.99999999997,29661,34396.99999999997,37703.99999999997,38811.99999999997,43188.99999999997,48063.99999999997,51387,57211.99999999997,62426.99999999997],"key_events":[],"mouse_events":[8410.99999999997,13924.99999999997,17321.99999999997,20104.99999999997,25396.99999999997,29661,34396.99999999997,37703.99999999997,38811.99999999997,42542.99999999997,43188.99999999997,48063.99999999997,51387,57211.99999999997,59040.99999999997,62426.99999999997,63399],"straightlining":0.5384615384615384,"zigzagging":0.5,"honeypot":0,"survey":"bisbas","trial_type":"survey-template","trial_index":3,"time_elapsed":213755,"internal_node_id":"0.0-3.0","task_version":"prescreen-v0.3","browser_interactions":0,"infrequency":0},{"responses":{"Q01":"2","Q02":"4","Q03":"3"},"rt":26028,"radio_events":[10992,15445,17067.00000000003,19470,25154],"key_events":[],"mouse_events":[10992,15445,17067.00000000003,19470,22794,23748,25154,26022],"survey":"map","page":1,"trial_type":"survey-map","trial_index":4,"time_elapsed":239790,"internal_node_id":"0.0-4.0","task_version":"prescreen-v0.3","browser_interactions":0},{"responses":{"Q04":"2","Q05":"3","Q06":"3"},"rt":16455,"radio_events":[4871,9316,15180],"key_events":[],"mouse_events":[4871,9316,15180,15882.00000000003,16453],"survey":"map","page":2,"trial_type":"survey-map","trial_index":5,"time_elapsed":256249,"internal_node_id":"0.0-5.0","task_version":"prescreen-v0.3","browser_interactions":0},{"responses":{"Q07":"2","Q08":"4","Q09":"2"},"rt":15117.99999999997,"radio_events":[6271.999999999971,6874.999999999971,9727.99999999997,11259.99999999997,11951.99999999997,13998.99999999997],"key_events":[],"mouse_events":[6271.999999999971,6874.999999999971,9727.99999999997,11259.99999999997,11951.99999999997,13998.99999999997,15111.99999999997],"survey":"map","page":3,"trial_type":"survey-map","trial_index":6,"time_elapsed":271369,"internal_node_id":"0.0-6.0","task_version":"prescreen-v0.3","browser_interactions":0},{"responses":{"Q10":"3","Q11":"3","Q12":"1","Q13":"2","Q16":"0","Q14":"1","Q15":"1"},"rt":36858,"radio_events":[6225.000000000058,10299,14928,15846,17975.00000000006,22914,31485,32742,35921],"key_events":[],"mouse_events":[6225.000000000058,10299,14928,15846,17975.00000000006,22914,31485,32742,35037,35921,36850.00000000006],"survey":"map","page":4,"trial_type":"survey-map","trial_index":7,"time_elapsed":308230,"internal_node_id":"0.0-7.0","task_version":"prescreen-v0.3","browser_interactions":0,"infrequency":0},{"view_history":[{"page_index":0,"viewing_time":2795},{"page_index":1,"viewing_time":1321}],"rt":4116,"trial_type":"instructions","trial_index":8,"time_elapsed":312354,"internal_node_id":"0.0-8.0","task_version":"prescreen-v0.3"},{"responses":{"01":"Yes","01_ages_5":"5","01_ages_6":"6","01_ages_7":"7","01_ages_8":"8","01_ages_9":"9","01_ages_10":"10","01_ages_11":"11","01_ages_12":"12","01_ages_13":"13","01_ages_14":"14","01_ages_15":"15","01_ages_16":"16","01_ages_17":"17","01_ages_18":"18","02":"Yes","02_ages_5":"5","02_ages_6":"6","02_ages_7":"7","02_ages_8":"8","02_ages_9":"9","02_ages_10":"10","02_ages_11":"11","02_ages_12":"12","02_ages_13":"13","02_ages_14":"14","02_ages_15":"15","02_ages_16":"16","02_ages_17":"17","02_ages_18":"18","03":"Yes","03_ages_5":"5","03_ages_6":"6","03_ages_7":"7","03_ages_8":"8","03_ages_9":"9","03_ages_10":"10","03_ages_11":"11","03_ages_12":"12","03_ages_13":"13","04":"No","05":"Yes","05_ages_5":"5","05_ages_6":"6","06":"Yes","06_ages_5":"5","06_ages_6":"6","06_ages_7":"7","06_ages_8":"8","06_ages_9":"9","06_ages_10":"10","06_ages_11":"11","06_ages_12":"12","06_ages_13":"13"},"rt":86736,"item_order":[0,1,2,3,4,5],"radio_events":[13577,31512,47354,58052,61086,64232,75456],"checkbox_events":[20682,21214,21684,22786,23282,23696,24342,24764,25468,25890,26580,27031.00000000006,27444,28136,33815,34408,34972,35471.00000000006,35848,36603.00000000006,37953,38434,38839,40314,40969,42211,42900,43951,48942.00000000006,49641,50286,50729,51501,52544,52984,53672,54822.00000000006,65812,66382.00000000006,67675,69510,78142,79420,80135,80901,82004,82916,83610,84412,85139],"key_events":[],"mouse_events":[0,13577,20682,21214,21684,22146,22786,23282,23696,24342,24764,25468,25890,26580,27031.00000000006,27444,28136,31512,33815,34408,34972,35471.00000000006,35848,36603.00000000006,36986,37953,38434,38839,39534,40314,40969,41579.00000000006,42211,42900,43356,43951,46466.00000000006,47354,48942.00000000006,49641,50286,50729,51501,51956,52544,52984,53672,54117,54822.00000000006,57394.00000000006,58052,61086,64232,65812,66382.00000000006,67675,68327,69510,75456,78142,78935,79420,80135,80901,81355,82004,82421,82916,83610,84412,85139,86720],"honeypot":0,"survey":"mace","page":1,"trial_type":"survey-mace","trial_index":9,"time_elapsed":399097,"internal_node_id":"0.0-9.0","task_version":"prescreen-v0.3","browser_interactions":0},{"responses":{"01":"Yes","01_ages_6":"6","01_ages_7":"7","01_ages_8":"8","01_ages_9":"9","01_ages_10":"10","01_ages_11":"11","02":"No","03":"Yes","03_ages_5":"5","03_ages_6":"6","03_ages_7":"7","03_ages_8":"8","03_ages_9":"9","03_ages_10":"10","03_ages_11":"11","03_ages_12":"12","04":"Yes","04_ages_5":"5","04_ages_6":"6","04_ages_7":"7","04_ages_8":"8","05":"Yes","05_ages_5":"5","05_ages_6":"6","05_ages_7":"7","05_ages_8":"8","05_ages_9":"9","05_ages_10":"10","06":"No","07":"No","08":"No"},"rt":51635,"item_order":[0,1,2,3,4,5,6,7],"radio_events":[3781,4995,17634.00000000006,20037,30984,37716,47203,48611,50742.00000000006],"checkbox_events":[8121,9376,10014,10850,11403,12540,21644,22260,22936,23511,24424,24970,25565,26225,32287,32973.00000000006,33826,34343.00000000006,39021.00000000006,39607,40199.00000000006,40691,41153.00000000006,43130],"key_events":[],"mouse_events":[3781,4995,8121,8638,9376,10014,10850,11403,12008,12540,17634.00000000006,20037,21644,22260,22936,23511,24424,24970,25565,26225,30984,32287,32973.00000000006,33826,34343.00000000006,34774,37716,39021.00000000006,39607,40199.00000000006,40691,41153.00000000006,41662,43130,47203,48611,50742.00000000006,51618],"honeypot":0,"survey":"mace","page":2,"trial_type":"survey-mace","trial_index":10,"time_elapsed":450742,"internal_node_id":"0.0-10.0","task_version":"prescreen-v0.3","browser_interactions":0},{"responses":{"01":"No","02":"No","03":"No","04":"No"},"rt":18140,"item_order":[0,1,2,3],"radio_events":[12011,13731,15717,17657],"checkbox_events":[],"key_events":[],"mouse_events":[12011,13731,15717,16891,17657,18132],"honeypot":0,"survey":"mace","page":3,"trial_type":"survey-mace","trial_index":11,"time_elapsed":468890,"internal_node_id":"0.0-11.0","task_version":"prescreen-v0.3","browser_interactions":0},{"responses":{"01":"No","02":"No"},"rt":9655,"item_order":[0,1],"radio_events":[3715,5206.000000000058],"checkbox_events":[],"key_events":[],"mouse_events":[3715,5206.000000000058,9649],"honeypot":0,"survey":"mace","page":4,"trial_type":"survey-mace","trial_index":12,"time_elapsed":478551,"internal_node_id":"0.0-12.0","task_version":"prescreen-v0.3","browser_interactions":0},{"responses":{"01":"No","02":"No","03":"No","04":"No","05":"No"},"rt":21836.00000000006,"item_order":[0,1,2,3,4],"radio_events":[7114,8393,12583,14233,20635],"checkbox_events":[],"key_events":[],"mouse_events":[7114,8393,11216.000000000058,12583,14233,19124,20635,21827],"honeypot":0,"survey":"mace","page":5,"trial_type":"survey-mace","trial_index":13,"time_elapsed":500394,"internal_node_id":"0.0-13.0","task_version":"prescreen-v0.3","browser_interactions":0},{"responses":{"01":"Yes","01_ages_5":"5","01_ages_6":"6","01_ages_7":"7","01_ages_8":"8","01_ages_9":"9","01_ages_10":"10","01_ages_11":"11","01_ages_12":"12","01_ages_13":"13","01_ages_14":"14","01_ages_15":"15","01_ages_16":"16","01_ages_17":"17","01_ages_18":"18","02":"Yes","02_ages_5":"5","02_ages_6":"6","02_ages_7":"7","02_ages_8":"8","02_ages_9":"9","02_ages_10":"10","02_ages_11":"11","02_ages_12":"12","02_ages_13":"13","02_ages_14":"14","02_ages_15":"15","02_ages_16":"16","02_ages_17":"17","02_ages_18":"18","03":"Yes","03_ages_5":"5","03_ages_6":"6","03_ages_7":"7","03_ages_8":"8","03_ages_9":"9","03_ages_10":"10","03_ages_11":"11","03_ages_12":"12","03_ages_13":"13","03_ages_14":"14","03_ages_15":"15","03_ages_16":"16","03_ages_17":"17","03_ages_18":"18","04":"Yes","04_ages_5":"5","04_ages_6":"6","04_ages_7":"7","04_ages_8":"8","04_ages_9":"9","04_ages_10":"10","04_ages_11":"11","04_ages_12":"12","04_ages_13":"13","04_ages_14":"14","04_ages_15":"15","04_ages_16":"16","04_ages_17":"17","04_ages_18":"18","05":"Yes","05_ages_5":"5","05_ages_6":"6","05_ages_7":"7","05_ages_8":"8","05_ages_9":"9","05_ages_10":"10","05_ages_11":"11","05_ages_12":"12","05_ages_13":"13","05_ages_14":"14","05_ages_15":"15","05_ages_16":"16","05_ages_17":"17","05_ages_18":"18"},"rt":73294,"item_order":[0,1,2,3,4],"radio_events":[5433,17530.99999999994,19194.99999999994,31714,47095,61547],"checkbox_events":[7005,7412,7878,8310,9418,9935,11141,11756.999999999942,12405.999999999942,12821.000000000058,13806.000000000058,14621,15268.000000000058,15718,20814,21261,22014,22496,22903.00000000006,23588,24018,24512,25882,26298,26776,27429,27837,28407,35411,36425,36826,37473,38364,38843,39245,39845,41021,41508,41978,43297,43718,44349.00000000012,48097,49496,49926.00000000012,51217,51645,52147.00000000012,52845,53997,54458,54878.00000000012,56029,56513,57188,57590,63600,64532,65174,65656,66122,66884,67307,67926.00000000012,68670,70120,70607,71139,71856,72452],"key_events":[],"mouse_events":[4720,5433,7005,7412,7878,8310,8768,9418,9935,10711.000000000058,11141,11756.999999999942,12405.999999999942,12821.000000000058,13221,13806.000000000058,14287.000000000058,14621,15268.000000000058,15718,17530.99999999994,19194.99999999994,20814,21261,22014,22496,22903.00000000006,23588,24018,24512,25187,25882,26298,26776,27429,27837,28407,29498.000000000116,31714,35411,35814,36425,36826,37473,38364,38843,39245,39845,40273,41021,41508,41978,42648,43297,43718,44349.00000000012,46178,47095,48097,48805,49496,49926.00000000012,50614,51217,51645,52147.00000000012,52845,53346,53997,54458,54878.00000000012,55319,56029,56513,57188,57590,61547,63600,64049,64532,65174,65656,66122,66884,67307,67926.00000000012,68670,69441,70120,70607,71139,71856,72452,73279],"honeypot":0,"survey":"mace","page":6,"trial_type":"survey-mace","trial_index":14,"time_elapsed":573692,"internal_node_id":"0.0-14.0","task_version":"prescreen-v0.3","browser_interactions":0},{"responses":{"01":"No","02":"No","03":"Yes","03_ages_5":"5","03_ages_6":"6","03_ages_7":"7","03_ages_8":"8","03_ages_9":"9","03_ages_10":"10","03_ages_11":"11","03_ages_12":"12","03_ages_13":"13","03_ages_14":"14","03_ages_15":"15","03_ages_16":"16","03_ages_17":"17","03_ages_18":"18","04":"Yes","04_ages_5":"5","04_ages_6":"6","04_ages_7":"7","04_ages_8":"8","04_ages_9":"9","04_ages_10":"10","04_ages_11":"11","04_ages_12":"12","04_ages_13":"13","04_ages_14":"14","04_ages_15":"15","05":"No","06":"No","07":"No"},"rt":47466.99999999988,"item_order":[0,1,2,3,4,5,6],"radio_events":[6561.999999999884,12061.999999999884,14346.999999999884,30082.999999999884,42899,45421.99999999988,46418.99999999988],"checkbox_events":[16186.999999999884,17353.999999999884,17820.999999999884,18266.999999999884,19348.999999999884,19818.999999999884,20261.999999999884,20936.999999999884,21819.999999999884,22480.999999999884,23325.999999999884,24005.999999999884,24434.999999999884,24905.999999999884,31429.999999999884,32610.999999999884,33150.99999999988,33632.99999999988,34036.99999999988,35247.99999999988,35747.99999999988,36823.99999999988,37232.99999999988,37982.99999999988,38528.99999999988],"key_events":[],"mouse_events":[6561.999999999884,12061.999999999884,14346.999999999884,15587.999999999884,16186.999999999884,16850.999999999884,17353.999999999884,17820.999999999884,18266.999999999884,18682.999999999884,19348.999999999884,19818.999999999884,20261.999999999884,20936.999999999884,21406.999999999884,21819.999999999884,22480.999999999884,22968.999999999884,23325.999999999884,24005.999999999884,24434.999999999884,24905.999999999884,30082.999999999884,31429.999999999884,31885.999999999884,32610.999999999884,33150.99999999988,33632.99999999988,34036.99999999988,35247.99999999988,35747.99999999988,36200.99999999988,36823.99999999988,37232.99999999988,37982.99999999988,38528.99999999988,42899,45421.99999999988,46418.99999999988,47450.99999999988],"honeypot":0,"survey":"mace","page":7,"trial_type":"survey-mace","trial_index":15,"time_elapsed":621170,"internal_node_id":"0.0-15.0","task_version":"prescreen-v0.3","browser_interactions":0},{"responses":{"01":"Yes","01_ages_5":"5","01_ages_6":"6","01_ages_7":"7","01_ages_8":"8","01_ages_9":"9","01_ages_10":"10","01_ages_11":"11","01_ages_12":"12","01_ages_13":"13","01_ages_14":"14","01_ages_15":"15","01_ages_16":"16","01_ages_17":"17","01_ages_18":"18","02":"Yes","02_ages_5":"5","02_ages_6":"6","02_ages_7":"7","02_ages_8":"8","02_ages_9":"9","02_ages_10":"10","02_ages_11":"11","02_ages_12":"12","02_ages_13":"13","02_ages_14":"14","02_ages_15":"15","03":"Yes","03_ages_5":"5","03_ages_6":"6","03_ages_7":"7","03_ages_8":"8","03_ages_9":"9","03_ages_10":"10","03_ages_11":"11","03_ages_12":"12","03_ages_13":"13","03_ages_14":"14","03_ages_15":"15","03_ages_16":"16","03_ages_17":"17","03_ages_18":"18","04":"No","04_ages_5":"5","04_ages_6":"6","04_ages_7":"7","04_ages_8":"8","04_ages_9":"9","04_ages_10":"10","04_ages_11":"11","04_ages_12":"12","04_ages_13":"13","04_ages_14":"14","04_ages_15":"15"},"rt":74272,"item_order":[0,1,2,3],"radio_events":[9199,23233,43371,61116,73361],"checkbox_events":[11604,12518,13335,14412,14930,15741,16402,16884,17557,18219,18615,19093.000000000116,19789,20478,26159,27195,27860,32837,33442,34165.00000000012,35403,36345,37489,37910.00000000012,38852,45743,46767,47187,47729,48452,48919,50154,50773,51560,52227,53355,53796,54849,55315,64063,64476,65371,65772,66283,66845,68048,68716,71647,72131,72562],"key_events":[],"mouse_events":[9199,11604,12034,12518,12943,13335,13974,14412,14930,15286,15741,16402,16884,17557,18219,18615,19093.000000000116,19789,20478,21587,23233,26159,26604,27195,27860,32837,33442,34165.00000000012,34719,35403,35913,36345,37024,37489,37910.00000000012,38421,38852,43371,45743,46174,46767,47187,47729,48452,48919,49591,50154,50773,51560,52227,52743,53355,53796,54285.00000000012,54849,55315,61116,64063,64476,64925,65371,65772,66283,66845,67500,68048,68716,71647,72131,72562,73361,74267],"honeypot":0,"survey":"mace","page":8,"trial_type":"survey-mace","trial_index":16,"time_elapsed":695449,"internal_node_id":"0.0-16.0","task_version":"prescreen-v0.3","browser_interactions":0},{"responses":{"01":"Yes","01_ages_5":"5","01_ages_6":"6","01_ages_7":"7","01_ages_8":"8","01_ages_9":"9","01_ages_10":"10","01_ages_11":"11","01_ages_12":"12","01_ages_13":"13","01_ages_14":"14","01_ages_15":"15","01_ages_16":"16","01_ages_17":"17","01_ages_18":"18","02":"Yes","02_ages_5":"5","02_ages_6":"6","02_ages_7":"7","02_ages_8":"8","02_ages_9":"9","02_ages_10":"10","02_ages_11":"11","02_ages_12":"12","02_ages_13":"13","02_ages_14":"14","02_ages_15":"15","02_ages_16":"16","02_ages_17":"17","02_ages_18":"18","03":"Yes","03_ages_5":"5","03_ages_6":"6","03_ages_7":"7","03_ages_8":"8","03_ages_9":"9","03_ages_10":"10","03_ages_11":"11","03_ages_12":"12","03_ages_13":"13","03_ages_14":"14","03_ages_15":"15","03_ages_16":"16","03_ages_17":"17","03_ages_18":"18","04":"Yes","04_ages_5":"5","04_ages_6":"6","04_ages_7":"7","04_ages_8":"8","04_ages_9":"9","04_ages_10":"10","04_ages_11":"11","04_ages_12":"12","04_ages_13":"13","04_ages_14":"14","04_ages_15":"15"},"rt":59421,"item_order":[0,1,2,3],"radio_events":[4394,19409,34146,49903],"checkbox_events":[5925,6313,6690,7463.000000000116,8128,8641.000000000116,9294,9699,10218,10883,12528,12973,14351,14976,20884,21304.000000000116,22224,23265,23925,24448,25087,25954,26613,27074,28291,28726,29323,29993,35346,35702,36111,36578.00000000012,37270,37739,38557,38979,40940,41359,42054.00000000012,42487.00000000012,42990,43946,51079,51582,52855,53649,54057,54559.00000000012,55259,55773,56411,57824,58262],"key_events":[],"mouse_events":[4394,5925,6313,6690,7132,7463.000000000116,8128,8641.000000000116,9294,9699,10218,10883,11332,11730,12528,12973,13834,14351,14976,19409,20884,21304.000000000116,21764,22224,22746,23265,23925,24448,25087,25564.000000000116,25954,26613,27074,27738,28291,28726,29323,29993,34146,35346,35702,36111,36578.00000000012,37270,37739,38557,38979,39762,40411,40940,41359,42054.00000000012,42487.00000000012,42990,43946,49903,51079,51582,51983,52855,53649,54057,54559.00000000012,55259,55773,56411,57107.00000000012,57824,58262,59414],"honeypot":0,"survey":"mace","page":9,"trial_type":"survey-mace","trial_index":17,"time_elapsed":754874,"internal_node_id":"0.0-17.0","task_version":"prescreen-v0.3","browser_interactions":0},{"responses":{"01":"No","02":"No","03":"Yes","03_ages_15":"15","03_ages_16":"16","03_ages_17":"17","03_ages_18":"18","04":"Yes","04_ages_5":"5","04_ages_6":"6","04_ages_7":"7","04_ages_8":"8","04_ages_9":"9","04_ages_10":"10","04_ages_11":"11","04_ages_12":"12","04_ages_13":"13","04_ages_14":"14","05":"No","06":"Yes","06_ages_17":"17","07":"Yes","07_ages_5":"5","07_ages_6":"6","07_ages_7":"7","07_ages_8":"8","07_ages_9":"9","07_ages_10":"10","07_ages_11":"11","07_ages_12":"12","07_ages_13":"13","07_ages_14":"14","07_ages_15":"15","08":"No"},"rt":55651,"item_order":[0,1,2,3,4,5,6,7],"radio_events":[5105,5949,9798,17120,36555,39210,44351,54861],"checkbox_events":[11328.000000000116,11860,13380,13871,19486,19921,20325,20777,21743,22374,24878,26694,27387,29518,41058,45820,46649,47045,47463.00000000012,47856,48524,48964,49459,50057,50513,51291],"key_events":[],"mouse_events":[5105,5949,9142,9798,11328.000000000116,11860,12712,13380,13871,17120,19486,19921,20325,20777,21743,22374,23148,24878,26694,27387,29518,36555,39210,41058,44351,45820,46211,46649,47045,47463.00000000012,47856,48524,48964,49459,50057,50513,51291,54861,55634],"honeypot":0,"survey":"mace","page":10,"trial_type":"survey-mace","trial_index":18,"time_elapsed":810531,"internal_node_id":"0.0-18.0","task_version":"prescreen-v0.3","browser_interactions":0,"instructed":0},{"rt":3341,"trial_type":"mental-health-alert","trial_index":19,"time_elapsed":813881,"internal_node_id":"0.0-19.0","task_version":"prescreen-v0.3","interactions":"[]"}]