[{"view_history":[{"page_index":0,"viewing_time":8095.5},{"page_index":1,"viewing_time":10559.299999982119},{"page_index":2,"viewing_time":11991},{"page_index":3,"viewing_time":1971.2000000178814}],"rt":32619.90000000596,"trial_type":"instructions","trial_index":0,"time_elapsed":32639,"internal_node_id":"0.0-0.0","task_version":"prescreen-v0.3"},{"rt":20651.40000000596,"responses":{"age":"31","gender-categorical":"Female","gender-free-response":"","ethnicity":"Not Hispanic or Latino","race":["White"],"education":"Bachelor degree"},"trial_type":"survey-demo","trial_index":1,"time_elapsed":53310,"internal_node_id":"0.0-1.0","task_version":"prescreen-v0.3"},{"responses":{"Q17":"0","Q07":"0","Q09":"0","Q10":"0","Q04":"1","Q02":"0","Q16":"0","Q05":"0","Q19":"0","Q14":"0","Q12":"0","Q21":"3","Q18":"0","Q03":"0","Q06":"2","Q13":"1","Q11":"0","Q20":"1","Q15":"1","Q08":"0","Q01":"0"},"rt":316517.10000002384,"item_order":[16,6,8,9,3,1,15,4,18,13,11,20,17,2,5,12,10,19,14,7,0],"radio_events":[5670.5,7341.600000023842,17033.20000001788,54185.40000000596,63860.80000001192,73902.80000001192,95814.40000000596,105849.5,153648.90000000596,160884.30000001192,177569.90000000596,180484.90000000596,188605.30000001192,196027.60000002384,203800.20000001788,209621,211781.80000001192,230499.70000001788,244085.20000001788,256753.10000002384,263292,269246.40000000596,272992.40000000596,285943.90000000596,292291.40000000596,294213.5],"key_events":[],"mouse_events":[5670.5,7341.600000023842,17033.20000001788,54185.40000000596,63860.80000001192,73902.80000001192,95814.40000000596,105849.5,153648.90000000596,160884.30000001192,177569.90000000596,180484.90000000596,188605.30000001192,196027.60000002384,203800.20000001788,209621,211781.80000001192,230499.70000001788,244085.20000001788,256753.10000002384,263292,269246.40000000596,272992.40000000596,285943.90000000596,292291.40000000596,294213.5,316512.60000002384],"straightlining":0.7142857142857143,"zigzagging":0.4,"honeypot":0,"survey":"sns","trial_type":"survey-template","trial_index":2,"time_elapsed":369844,"internal_node_id":"0.0-2.0","task_version":"prescreen-v0.3","browser_interactions":0,"infrequency":0},{"responses":{"Q07":"3","Q02":"2","Q04":"1","Q11":"3","Q09":"3","Q06":"3","Q12":"1","Q13":"0","Q10":"3","Q05":"3","Q01":"1","Q03":"2","Q08":"3"},"rt":187739.90000000596,"item_order":[6,1,3,10,8,5,11,12,9,4,0,2,7],"radio_events":[5468.200000017881,9178.800000011921,12684.700000017881,47917.90000000596,63121.20000001788,74756.59999999404,80679.5,119581.70000001788,135404.70000001788,143231.09999999404,151370.40000000596,155558.20000001788,168312.40000000596,178924.5],"key_events":[],"mouse_events":[5468.200000017881,9178.800000011921,12684.700000017881,47917.90000000596,63121.20000001788,74756.59999999404,80679.5,119581.70000001788,135404.70000001788,143231.09999999404,151370.40000000596,155558.20000001788,168312.40000000596,178924.5,187736.09999999404],"straightlining":0.5384615384615384,"zigzagging":0.5,"honeypot":0,"survey":"bisbas","trial_type":"survey-template","trial_index":3,"time_elapsed":557593,"internal_node_id":"0.0-3.0","task_version":"prescreen-v0.3","browser_interactions":0,"infrequency":0},{"responses":{"Q01":"3","Q02":"3","Q03":"3"},"rt":82878.59999999404,"radio_events":[28526.40000000596,44564.30000001192,51998.59999999404],"key_events":[],"mouse_events":[27348.5,28526.40000000596,44564.30000001192,51998.59999999404,82876.69999998808],"survey":"map","page":1,"trial_type":"survey-map","trial_index":4,"time_elapsed":640481,"internal_node_id":"0.0-4.0","task_version":"prescreen-v0.3","browser_interactions":4},{"responses":{"Q04":"3","Q05":"3","Q06":"3"},"rt":30940.5,"radio_events":[11038.600000023842,17662.100000023842,24921],"key_events":[],"mouse_events":[11038.600000023842,17662.100000023842,24921,30938.90000000596],"survey":"map","page":2,"trial_type":"survey-map","trial_index":5,"time_elapsed":671427,"internal_node_id":"0.0-5.0","task_version":"prescreen-v0.3","browser_interactions":0},{"responses":{"Q07":"4","Q08":"4","Q09":"3"},"rt":46363.19999998808,"radio_events":[7904.5,16044,35778.5,37212.59999999404],"key_events":[],"mouse_events":[6505.4000000059605,7904.5,16044,35778.5,37212.59999999404,46361.69999998808],"survey":"map","page":3,"trial_type":"survey-map","trial_index":6,"time_elapsed":717795,"internal_node_id":"0.0-6.0","task_version":"prescreen-v0.3","browser_interactions":0},{"responses":{"Q10":"3","Q11":"2","Q12":"1","Q13":"3","Q16":"0","Q14":"4","Q15":"2"},"rt":204276,"radio_events":[5736.5,23104.59999999404,38777.19999998808,40540.69999998808,53134.59999999404,83304.40000000596,91773.79999998212,110274.90000000596,111664.69999998808,151553.79999998212,154054.79999998212,186568.19999998808,189086.90000000596,193837.29999998212],"key_events":[],"mouse_events":[5736.5,23104.59999999404,38777.19999998808,40540.69999998808,53134.59999999404,83304.40000000596,91773.79999998212,110274.90000000596,111664.69999998808,143955.79999998212,151553.79999998212,154054.79999998212,186568.19999998808,189086.90000000596,193837.29999998212,204273.29999998212],"survey":"map","page":4,"trial_type":"survey-map","trial_index":7,"time_elapsed":922079,"internal_node_id":"0.0-7.0","task_version":"prescreen-v0.3","browser_interactions":0,"infrequency":0},{"view_history":[{"page_index":0,"viewing_time":3172.5},{"page_index":1,"viewing_time":9151.09999999404}],"rt":12325.800000011921,"trial_type":"instructions","trial_index":8,"time_elapsed":934408,"internal_node_id":"0.0-8.0","task_version":"prescreen-v0.3"},{"responses":{"01":"No","02":"No","03":"No","04":"No","05":"No","06":"No"},"rt":66875.80000001192,"item_order":[0,1,2,3,4,5],"radio_events":[12513.5,18436.20000001788,29742,31881.80000001192,34416.40000000596,39506.59999999404],"checkbox_events":[],"key_events":[],"mouse_events":[0.20000001788139343,12513.5,18436.20000001788,29742,31881.80000001192,34416.40000000596,39506.59999999404,66868.90000000596],"honeypot":0,"survey":"mace","page":1,"trial_type":"survey-mace","trial_index":9,"time_elapsed":1001303,"internal_node_id":"0.0-9.0","task_version":"prescreen-v0.3","browser_interactions":0},{"responses":{"01":"No","02":"No","03":"No","04":"No","05":"No","06":"No","07":"No","08":"No"},"rt":50057.40000000596,"item_order":[0,1,2,3,4,5,6,7],"radio_events":[10219.09999999404,23072.5,25633.40000000596,32629.80000001192,35800.90000000596,39054.80000001192,40915.30000001192,42567],"checkbox_events":[],"key_events":[],"mouse_events":[10219.09999999404,21924.09999999404,23072.5,25633.40000000596,32629.80000001192,35800.90000000596,39054.80000001192,40915.30000001192,42567,50048.19999998808],"honeypot":0,"survey":"mace","page":2,"trial_type":"survey-mace","trial_index":10,"time_elapsed":1051373,"internal_node_id":"0.0-10.0","task_version":"prescreen-v0.3","browser_interactions":0},{"responses":{"01":"No","02":"No","03":"No","04":"No"},"rt":14283.399999976158,"item_order":[0,1,2,3],"radio_events":[3229.899999976158,6542.5,9750.199999988079,11229.399999976158],"checkbox_events":[],"key_events":[],"mouse_events":[3229.899999976158,6542.5,9750.199999988079,11229.399999976158,14279.09999999404],"honeypot":0,"survey":"mace","page":3,"trial_type":"survey-mace","trial_index":11,"time_elapsed":1065665,"internal_node_id":"0.0-11.0","task_version":"prescreen-v0.3","browser_interactions":0},{"responses":{"01":"No","02":"No"},"rt":27465,"item_order":[0,1],"radio_events":[5377,6933.0999999940395],"checkbox_events":[],"key_events":[],"mouse_events":[5377,6933.0999999940395,27462.40000000596],"honeypot":0,"survey":"mace","page":4,"trial_type":"survey-mace","trial_index":12,"time_elapsed":1093136,"internal_node_id":"0.0-12.0","task_version":"prescreen-v0.3","browser_interactions":0},{"responses":{"01":"No","02":"No","03":"No","04":"No","05":"No"},"rt":31888.59999999404,"item_order":[0,1,2,3,4],"radio_events":[14026.90000000596,18080.30000001192,21347.40000000596,26565.90000000596,30739.30000001192],"checkbox_events":[],"key_events":[],"mouse_events":[14026.90000000596,18080.30000001192,21347.40000000596,26565.90000000596,30739.30000001192,31879.19999998808],"honeypot":0,"survey":"mace","page":5,"trial_type":"survey-mace","trial_index":13,"time_elapsed":1125037,"internal_node_id":"0.0-13.0","task_version":"prescreen-v0.3","browser_interactions":0},{"responses":{"01":"Yes","01_ages_17":"17","02":"Yes","02_ages_16":"16","02_ages_17":"17","02_ages_18":"18","03":"Yes","03_ages_17":"17","04":"No","05":"No"},"rt":194994.10000002384,"item_order":[0,1,2,3,4],"radio_events":[18342.70000001788,50934.90000000596,74064.30000001192,91622.90000000596,96011.5,164265.30000001192],"checkbox_events":[32119.20000001788,34185.80000001192,35267.90000000596,52802.70000001788,55275.60000002384,57088.80000001192,75973.20000001788,116351.70000001788,117687.60000002384,125938.60000002384,130231.30000001192,141774.90000000596,142503.60000002384],"key_events":[],"mouse_events":[18342.70000001788,32119.20000001788,34185.80000001192,35267.90000000596,50934.90000000596,52802.70000001788,55275.60000002384,57088.80000001192,74064.30000001192,75973.20000001788,91622.90000000596,96011.5,116351.70000001788,117687.60000002384,125938.60000002384,130231.30000001192,141774.90000000596,142503.60000002384,164265.30000001192,194988.60000002384],"honeypot":0,"survey":"mace","page":6,"trial_type":"survey-mace","trial_index":14,"time_elapsed":1320045,"internal_node_id":"0.0-14.0","task_version":"prescreen-v0.3","browser_interactions":0},{"responses":{"01":"No","02":"Yes","02_ages_17":"17","02_ages_18":"18","03":"No","04":"No","05":"No","06":"Yes","06_ages_17":"17","06_ages_18":"18","07":"Yes","07_ages_17":"17","07_ages_18":"18"},"rt":69360.90000000596,"item_order":[0,1,2,3,4,5,6],"radio_events":[5137.0999999940395,10682.40000000596,22222,26749.40000000596,28963.79999998212,33727.59999999404,44827.09999999404],"checkbox_events":[12866.5,16267.699999988079,37533.90000000596,39042.29999998212,46861.59999999404,47820.79999998212],"key_events":[],"mouse_events":[5137.0999999940395,10682.40000000596,12866.5,16267.699999988079,22222,25633,26749.40000000596,28963.79999998212,33727.59999999404,37533.90000000596,39042.29999998212,44827.09999999404,46861.59999999404,47820.79999998212,69353.5],"honeypot":0,"survey":"mace","page":7,"trial_type":"survey-mace","trial_index":15,"time_elapsed":1389418,"internal_node_id":"0.0-15.0","task_version":"prescreen-v0.3","browser_interactions":0},{"responses":{"01":"No","02":"No","03":"No","04":"No"},"rt":26436,"item_order":[0,1,2,3],"radio_events":[8847.90000000596,12457.199999988079,17996.29999998212,25172.19999998808],"checkbox_events":[],"key_events":[],"mouse_events":[8847.90000000596,12457.199999988079,17996.29999998212,25172.19999998808,26429.09999999404],"honeypot":0,"survey":"mace","page":8,"trial_type":"survey-mace","trial_index":16,"time_elapsed":1415865,"internal_node_id":"0.0-16.0","task_version":"prescreen-v0.3","browser_interactions":0},{"responses":{"01":"Yes","01_ages_1":"1","01_ages_2":"2","01_ages_3":"3","01_ages_4":"4","01_ages_5":"5","01_ages_6":"6","01_ages_7":"7","01_ages_8":"8","01_ages_9":"9","01_ages_10":"10","01_ages_11":"11","01_ages_12":"12","01_ages_13":"13","01_ages_14":"14","01_ages_15":"15","01_ages_16":"16","01_ages_17":"17","01_ages_18":"18","02":"Yes","02_ages_1":"1","02_ages_2":"2","02_ages_3":"3","02_ages_4":"4","02_ages_5":"5","02_ages_6":"6","02_ages_7":"7","02_ages_8":"8","02_ages_9":"9","02_ages_10":"10","02_ages_11":"11","02_ages_12":"12","02_ages_13":"13","02_ages_14":"14","02_ages_15":"15","02_ages_16":"16","02_ages_17":"17","02_ages_18":"18","03":"Yes","03_ages_1":"1","03_ages_2":"2","03_ages_3":"3","03_ages_4":"4","03_ages_5":"5","03_ages_6":"6","03_ages_7":"7","03_ages_8":"8","03_ages_9":"9","03_ages_10":"10","03_ages_11":"11","03_ages_12":"12","03_ages_13":"13","03_ages_14":"14","03_ages_15":"15","03_ages_16":"16","03_ages_17":"17","03_ages_18":"18","04":"Yes","04_ages_1":"1","04_ages_2":"2","04_ages_3":"3","04_ages_4":"4","04_ages_5":"5","04_ages_6":"6","04_ages_7":"7","04_ages_8":"8","04_ages_9":"9","04_ages_10":"10","04_ages_11":"11","04_ages_12":"12","04_ages_13":"13","04_ages_14":"14","04_ages_15":"15","04_ages_16":"16","04_ages_17":"17","04_ages_18":"18"},"rt":102472.30000001192,"item_order":[0,1,2,3],"radio_events":[12330.199999988079,39854.80000001192,64575.19999998808,84880],"checkbox_events":[14705.90000000596,15715.5,19301,20232.69999998808,21284,22761.80000001192,23954.5,24866.19999998808,25750.40000000596,26556,27440.30000001192,28360.19999998808,29255.30000001192,30246.69999998808,33386.5,34422.40000000596,35574.09999999404,36596.80000001192,41490.59999999404,42478.30000001192,43455.09999999404,44456.90000000596,45368.69999998808,46200.69999998808,47854.59999999404,48886.09999999404,49955.5,50910.90000000596,51900.30000001192,52749.40000000596,53631.90000000596,54515.5,55460.59999999404,56308,57284.69999998808,58291.30000001192,66210.40000000596,67082.09999999404,69179.69999998808,70094.69999998808,71200.90000000596,72320.40000000596,73347.30000001192,74308.69999998808,75286.90000000596,76135,77013.19999998808,78221.5,79182.59999999404,80019.09999999404,81021.30000001192,81899.90000000596,82734.09999999404,83580.69999998808,87131.19999998808,88010.90000000596,88865.90000000596,89667.69999998808,90394,91214.5,92015.80000001192,92910.5,93696.19999998808,94518.90000000596,95320.40000000596,96110.09999999404,96897.09999999404,97684.09999999404,98676,99554.5,100390,101258.90000000596],"key_events":[],"mouse_events":[12330.199999988079,14705.90000000596,15715.5,17445.80000001192,19301,20232.69999998808,21284,22761.80000001192,23954.5,24866.19999998808,25750.40000000596,26556,27440.30000001192,28360.19999998808,29255.30000001192,30246.69999998808,32283.90000000596,33386.5,34422.40000000596,35574.09999999404,36596.80000001192,39854.80000001192,41490.59999999404,42478.30000001192,43455.09999999404,44456.90000000596,45368.69999998808,46200.69999998808,47452.90000000596,47854.59999999404,48886.09999999404,49955.5,50910.90000000596,51900.30000001192,52749.40000000596,53631.90000000596,54515.5,55460.59999999404,56308,57284.69999998808,58291.30000001192,64575.19999998808,66210.40000000596,67082.09999999404,67880.90000000596,69179.69999998808,70094.69999998808,71200.90000000596,72320.40000000596,73347.30000001192,74308.69999998808,75286.90000000596,76135,77013.19999998808,78221.5,79182.59999999404,80019.09999999404,81021.30000001192,81899.90000000596,82734.09999999404,83580.69999998808,84880,87131.19999998808,88010.90000000596,88865.90000000596,89667.69999998808,90394,91214.5,92015.80000001192,92910.5,93696.19999998808,94518.90000000596,95320.40000000596,96110.09999999404,96897.09999999404,97684.09999999404,98676,99554.5,100390,101258.90000000596,102468.19999998808],"honeypot":0,"survey":"mace","page":9,"trial_type":"survey-mace","trial_index":17,"time_elapsed":1518352,"internal_node_id":"0.0-17.0","task_version":"prescreen-v0.3","browser_interactions":0},{"responses":{"01":"No","02":"No","03":"No","04":"No","05":"No","06":"Yes","06_ages_17":"17","07":"Yes","07_ages_1":"1","07_ages_2":"2","07_ages_3":"3","07_ages_4":"4","07_ages_5":"5","07_ages_6":"6","07_ages_7":"7","07_ages_8":"8","07_ages_9":"9","07_ages_10":"10","07_ages_11":"11","07_ages_12":"12","07_ages_13":"13","07_ages_14":"14","07_ages_15":"15","07_ages_16":"16","07_ages_17":"17","07_ages_18":"18","08":"Yes","08_ages_1":"1","08_ages_2":"2","08_ages_3":"3","08_ages_4":"4","08_ages_5":"5","08_ages_6":"6","08_ages_7":"7","08_ages_8":"8","08_ages_9":"9","08_ages_10":"10","08_ages_11":"11","08_ages_12":"12","08_ages_13":"13","08_ages_14":"14","08_ages_15":"15","08_ages_16":"16","08_ages_17":"17","08_ages_18":"18"},"rt":85090.09999999404,"item_order":[0,1,2,3,4,5,6,7],"radio_events":[6287.300000011921,10267.700000017881,14920.5,17866.20000001788,26327.40000000596,30980.09999999404,43500,63664.90000000596],"checkbox_events":[33243.70000001788,46126.90000000596,47250.59999999404,48331.20000001788,49293.59999999404,50111.80000001192,50980.90000000596,51766.70000001788,52526.70000001788,53280.59999999404,54086.90000000596,54876.40000000596,55661.09999999404,56480,57347.09999999404,58872.09999999404,59880.90000000596,61322.59999999404,62427.5,65611.09999999404,66486.80000001192,68031.09999999404,69539.20000001788,71496.59999999404,72406.70000001788,73359.5,74193.30000001192,75005.59999999404,75842.30000001192,76626.30000001192,77476.80000001192,78234.59999999404,79023,79875.59999999404,82267.40000000596,83147,84057.70000001788],"key_events":[],"mouse_events":[6287.300000011921,10267.700000017881,13688.800000011921,14920.5,17866.20000001788,26327.40000000596,30980.09999999404,33243.70000001788,43500,46126.90000000596,47250.59999999404,48331.20000001788,49293.59999999404,50111.80000001192,50980.90000000596,51766.70000001788,52526.70000001788,53280.59999999404,54086.90000000596,54876.40000000596,55661.09999999404,56480,57347.09999999404,58467.59999999404,58872.09999999404,59880.90000000596,61322.59999999404,62427.5,63664.90000000596,65611.09999999404,66486.80000001192,68031.09999999404,69539.20000001788,71496.59999999404,72406.70000001788,73359.5,74193.30000001192,75005.59999999404,75842.30000001192,76626.30000001192,77476.80000001192,78234.59999999404,79023,79875.59999999404,80663.5,81866.30000001192,82267.40000000596,83147,84057.70000001788,85082.59999999404],"honeypot":0,"survey":"mace","page":10,"trial_type":"survey-mace","trial_index":18,"time_elapsed":1603454,"internal_node_id":"0.0-18.0","task_version":"prescreen-v0.3","browser_interactions":0,"instructed":0},{"rt":21310.09999999404,"trial_type":"mental-health-alert","trial_index":19,"time_elapsed":1624769,"internal_node_id":"0.0-19.0","task_version":"prescreen-v0.3","interactions":"[{\"event\":\"blur\",\"trial\":4,\"time\":566911},{\"event\":\"focus\",\"trial\":4,\"time\":569931},{\"event\":\"blur\",\"trial\":4,\"time\":573394},{\"event\":\"focus\",\"trial\":4,\"time\":574703}]"}]