[{"view_history":[{"page_index":0,"viewing_time":69530},{"page_index":1,"viewing_time":2641},{"page_index":2,"viewing_time":5248},{"page_index":3,"viewing_time":1452}],"rt":78871,"trial_type":"instructions","trial_index":0,"time_elapsed":78878,"internal_node_id":"0.0-0.0","task_version":"prescreen-v0.3"},{"rt":36976,"responses":{"age":"43","gender-categorical":"Male","gender-free-response":"","ethnicity":"Not Hispanic or Latino","race":["White"],"education":"Master degree or higher"},"trial_type":"survey-demo","trial_index":1,"time_elapsed":115884,"internal_node_id":"0.0-1.0","task_version":"prescreen-v0.3"},{"responses":{"Q18":"1","Q16":"1","Q05":"2","Q15":"1","Q19":"1","Q14":"1","Q04":"0","Q07":"1","Q09":"0","Q17":"0","Q10":"1","Q12":"0","Q21":"1","Q11":"0","Q08":"0","Q13":"0","Q20":"1","Q02":"1","Q01":"1","Q06":"1","Q03":"1"},"rt":172464,"item_order":[17,15,4,14,18,13,3,6,8,16,9,11,20,10,7,12,19,1,0,5,2],"radio_events":[12896,16353,19379,20274,22317,25344,26600,28481,30608,33579,34844,36266,38546,41028,42822,46115,48222,49282,50815,56301,57675,65122,65688,146351,147955,149432,151499,154524,155828,158083,160769,161885,163849,165083,166442,167841,170150],"key_events":[],"mouse_events":[12896,13801,15191,15945,16353,17257,19379,20274,22317,23174,25344,26600,28481,29225,30608,31111,33579,34844,36266,38546,41028,42822,43984,46115,48222,49282,50218,50815,56301,57675,64390,65122,65688,145323,146351,147955,149432,150485,151499,154524,155828,157014,158083,159826,160769,161885,163849,165083,166442,167841,169412,170150,172464],"straightlining":0.6190476190476191,"zigzagging":0.5,"honeypot":0,"survey":"sns","trial_type":"survey-template","trial_index":2,"time_elapsed":288358,"internal_node_id":"0.0-2.0","task_version":"prescreen-v0.3","browser_interactions":4,"infrequency":1},{"responses":{"Q04":"2","Q06":"2","Q05":"2","Q13":"2","Q03":"3","Q08":"2","Q02":"2","Q11":"2","Q01":"2","Q09":"2","Q10":"3","Q12":"2","Q07":"2"},"rt":74096,"item_order":[3,5,4,12,2,7,1,10,0,8,9,11,6],"radio_events":[59973,60570,61993,62495,64703,65630,66229,67768,68241,68736,70621,71305,73277],"key_events":[],"mouse_events":[59973,60570,61033,61529,61993,62495,63619,64241,64703,65630,66229,67768,68241,68736,69419,70621,71305,71855,73277,74095],"straightlining":0.8461538461538461,"zigzagging":0.3333333333333333,"honeypot":0,"survey":"bisbas","trial_type":"survey-template","trial_index":3,"time_elapsed":362459,"internal_node_id":"0.0-3.0","task_version":"prescreen-v0.3","browser_interactions":4,"infrequency":1},{"responses":{"Q01":"2","Q02":"1","Q03":"2"},"rt":62453,"radio_events":[57877,59897,61084],"key_events":[],"mouse_events":[57877,59897,61084,62453],"survey":"map","page":1,"trial_type":"survey-map","trial_index":4,"time_elapsed":424915,"internal_node_id":"0.0-4.0","task_version":"prescreen-v0.3","browser_interactions":4},{"responses":{"Q04":"2","Q05":"1","Q06":"2"},"rt":22037,"radio_events":[15180,16973,18135],"key_events":[],"mouse_events":[15180,16973,18135,22036],"survey":"map","page":2,"trial_type":"survey-map","trial_index":5,"time_elapsed":446953,"internal_node_id":"0.0-5.0","task_version":"prescreen-v0.3","browser_interactions":2},{"responses":{"Q07":"2","Q08":"3","Q09":"2"},"rt":16033,"radio_events":[11623,13351,14499],"key_events":[],"mouse_events":[11623,12715,13351,14499,16033],"survey":"map","page":3,"trial_type":"survey-map","trial_index":6,"time_elapsed":462989,"internal_node_id":"0.0-6.0","task_version":"prescreen-v0.3","browser_interactions":2},{"responses":{"Q10":"2","Q11":"1","Q12":"2","Q13":"1","Q16":"2","Q14":"1","Q15":"2"},"rt":44036,"radio_events":[29098,30458,32573,34461,35861,37495,38903],"key_events":[],"mouse_events":[29098,30458,32573,34461,35861,37495,38903,44036],"survey":"map","page":4,"trial_type":"survey-map","trial_index":7,"time_elapsed":507029,"internal_node_id":"0.0-7.0","task_version":"prescreen-v0.3","browser_interactions":2,"infrequency":1},{"view_history":[{"page_index":0,"viewing_time":22926},{"page_index":1,"viewing_time":11007}],"rt":33933,"trial_type":"instructions","trial_index":8,"time_elapsed":540964,"internal_node_id":"0.0-8.0","task_version":"prescreen-v0.3"},{"responses":{"01":"No","02":"No","03":"No","04":"No","05":"No","06":"No"},"rt":26913,"item_order":[0,1,2,3,4,5],"radio_events":[11131,12012,13710,15660,17249,22061],"checkbox_events":[],"key_events":[],"mouse_events":[0,10417,11131,12012,13710,15660,17249,22061,26913],"honeypot":0,"survey":"mace","page":1,"trial_type":"survey-mace","trial_index":9,"time_elapsed":567890,"internal_node_id":"0.0-9.0","task_version":"prescreen-v0.3","browser_interactions":2},{"responses":{"01":"No","02":"No","03":"No","04":"No","05":"No","06":"Yes","06_ages_15":"15","06_ages_16":"16","07":"No","08":"No"},"rt":62660,"item_order":[0,1,2,3,4,5,6,7],"radio_events":[36025,36841,38500,40826,42445,48756,57729,60802],"checkbox_events":[51859,54169],"key_events":[],"mouse_events":[36025,36841,38500,40826,42445,48756,51859,54169,57729,60802,62660],"honeypot":0,"survey":"mace","page":2,"trial_type":"survey-mace","trial_index":10,"time_elapsed":630557,"internal_node_id":"0.0-10.0","task_version":"prescreen-v0.3","browser_interactions":2},{"responses":{"01":"No","02":"No","03":"Yes","03_ages_16":"16","04":"No"},"rt":129564,"item_order":[0,1,2,3],"radio_events":[119992,121194,125648,128822],"checkbox_events":[127589],"key_events":[],"mouse_events":[119992,121194,122529,125648,127589,128822,129564],"honeypot":0,"survey":"mace","page":3,"trial_type":"survey-mace","trial_index":11,"time_elapsed":760126,"internal_node_id":"0.0-11.0","task_version":"prescreen-v0.3","browser_interactions":4},{"responses":{"01":"No","02":"No"},"rt":31714,"item_order":[0,1],"radio_events":[23347,26632],"checkbox_events":[],"key_events":[],"mouse_events":[23347,26632,31714],"honeypot":0,"survey":"mace","page":4,"trial_type":"survey-mace","trial_index":12,"time_elapsed":791845,"internal_node_id":"0.0-12.0","task_version":"prescreen-v0.3","browser_interactions":2},{"responses":{"01":"Yes","01_ages_12":"12","01_ages_13":"13","02":"No","03":"No","04":"No","05":"No"},"rt":35748,"item_order":[0,1,2,3,4],"radio_events":[15085,25304,29783,31512,34254],"checkbox_events":[17835,18815],"key_events":[],"mouse_events":[15085,17835,18815,25304,27621,29783,31512,34254,35748],"honeypot":0,"survey":"mace","page":5,"trial_type":"survey-mace","trial_index":13,"time_elapsed":827599,"internal_node_id":"0.0-13.0","task_version":"prescreen-v0.3","browser_interactions":2},{"responses":{"01":"Yes","01_ages_14":"14","01_ages_15":"15","02":"No","03":"No","04":"No","05":"No"},"rt":40041,"item_order":[0,1,2,3,4],"radio_events":[30126,34072,35628,37570,38881],"checkbox_events":[31675,32201],"key_events":[],"mouse_events":[30126,31675,32201,34072,34597,35628,36107,37570,38064,38881,40040],"honeypot":0,"survey":"mace","page":6,"trial_type":"survey-mace","trial_index":14,"time_elapsed":867646,"internal_node_id":"0.0-14.0","task_version":"prescreen-v0.3","browser_interactions":2},{"responses":{"01":"No","02":"No","03":"No","04":"No","05":"No","06":"No","07":"No"},"rt":43434,"item_order":[0,1,2,3,4,5,6],"radio_events":[28536,29150,33232,34860,37075,39236,42718],"checkbox_events":[],"key_events":[],"mouse_events":[28536,29150,33232,34860,37075,39236,42718,43434],"honeypot":0,"survey":"mace","page":7,"trial_type":"survey-mace","trial_index":15,"time_elapsed":911086,"internal_node_id":"0.0-15.0","task_version":"prescreen-v0.3","browser_interactions":2},{"responses":{"01":"No","02":"No","03":"No","04":"No"},"rt":39369,"item_order":[0,1,2,3],"radio_events":[34958,35965,36971,38581],"checkbox_events":[],"key_events":[],"mouse_events":[34958,35965,36971,38581,39369],"honeypot":0,"survey":"mace","page":8,"trial_type":"survey-mace","trial_index":16,"time_elapsed":950461,"internal_node_id":"0.0-16.0","task_version":"prescreen-v0.3","browser_interactions":2},{"responses":{"01":"Yes","01_ages_14":"14","01_ages_15":"15","02":"No","03":"Yes","03_ages_13":"13","03_ages_14":"14","04":"Yes","04_ages_11":"11","04_ages_14":"14","04_ages_16":"16"},"rt":50761,"item_order":[0,1,2,3],"radio_events":[12815,31577,32779,42162],"checkbox_events":[16778,18034,34941,35436,44041,45950,47397],"key_events":[],"mouse_events":[12815,16778,18034,31577,32779,34941,35436,42162,44041,45950,47397,50761],"honeypot":0,"survey":"mace","page":9,"trial_type":"survey-mace","trial_index":17,"time_elapsed":1001229,"internal_node_id":"0.0-17.0","task_version":"prescreen-v0.3","browser_interactions":2},{"responses":{"01":"No","02":"No","03":"No","04":"No","05":"No","06":"Yes","06_ages_17":"17","07":"Yes","07_ages_13":"13","07_ages_14":"14","07_ages_15":"15","07_ages_16":"16","08":"Yes","08_ages_10":"10","08_ages_11":"11","08_ages_12":"12","08_ages_13":"13","08_ages_14":"14","08_ages_15":"15","08_ages_16":"16","08_ages_17":"17","08_ages_18":"18"},"rt":81193,"item_order":[0,1,2,3,4,5,6,7],"radio_events":[37047,40708,43734,49173,50344,52726,66060,72922],"checkbox_events":[55327,67984,68465,68960,69423,74501,75634,76115,76579,78073,78583,79085,79589,80108],"key_events":[],"mouse_events":[37047,38555,40708,43208,43734,45308,49173,50344,52726,55327,66060,67984,68465,68960,69423,72922,74501,74983,75634,76115,76579,78073,78583,79085,79589,80108,81193],"honeypot":0,"survey":"mace","page":10,"trial_type":"survey-mace","trial_index":18,"time_elapsed":1082432,"internal_node_id":"0.0-18.0","task_version":"prescreen-v0.3","browser_interactions":2,"instructed":0},{"rt":74983,"trial_type":"mental-health-alert","trial_index":19,"time_elapsed":1157419,"internal_node_id":"0.0-19.0","task_version":"prescreen-v0.3","interactions":"[{\"event\":\"blur\",\"trial\":0,\"time\":2325},{\"event\":\"focus\",\"trial\":0,\"time\":9019},{\"event\":\"blur\",\"trial\":0,\"time\":16074},{\"event\":\"focus\",\"trial\":0,\"time\":67800},{\"event\":\"blur\",\"trial\":1,\"time\":98224},{\"event\":\"focus\",\"trial\":1,\"time\":114261},{\"event\":\"blur\",\"trial\":2,\"time\":118509},{\"event\":\"focus\",\"trial\":2,\"time\":121618},{\"event\":\"blur\",\"trial\":2,\"time\":186868},{\"event\":\"focus\",\"trial\":2,\"time\":257495},{\"event\":\"blur\",\"trial\":3,\"time\":290063},{\"event\":\"focus\",\"trial\":3,\"time\":297612},{\"event\":\"blur\",\"trial\":3,\"time\":298739},{\"event\":\"focus\",\"trial\":3,\"time\":333231},{\"event\":\"blur\",\"trial\":4,\"time\":364480},{\"event\":\"focus\",\"trial\":4,\"time\":396458},{\"event\":\"blur\",\"trial\":4,\"time\":397257},{\"event\":\"focus\",\"trial\":4,\"time\":413986},{\"event\":\"blur\",\"trial\":5,\"time\":426149},{\"event\":\"focus\",\"trial\":5,\"time\":436852},{\"event\":\"blur\",\"trial\":6,\"time\":448485},{\"event\":\"focus\",\"trial\":6,\"time\":457226},{\"event\":\"blur\",\"trial\":7,\"time\":464446},{\"event\":\"focus\",\"trial\":7,\"time\":489642},{\"event\":\"blur\",\"trial\":8,\"time\":510624},{\"event\":\"focus\",\"trial\":8,\"time\":527038},{\"event\":\"blur\",\"trial\":8,\"time\":531492},{\"event\":\"focus\",\"trial\":8,\"time\":533988},{\"event\":\"blur\",\"trial\":9,\"time\":542290},{\"event\":\"focus\",\"trial\":9,\"time\":545108},{\"event\":\"blur\",\"trial\":10,\"time\":569860},{\"event\":\"focus\",\"trial\":10,\"time\":599159},{\"event\":\"blur\",\"trial\":11,\"time\":632363},{\"event\":\"focus\",\"trial\":11,\"time\":657873},{\"event\":\"blur\",\"trial\":11,\"time\":659892},{\"event\":\"focus\",\"trial\":11,\"time\":748038},{\"event\":\"blur\",\"trial\":12,\"time\":761205},{\"event\":\"focus\",\"trial\":12,\"time\":778645},{\"event\":\"blur\",\"trial\":13,\"time\":793290},{\"event\":\"focus\",\"trial\":13,\"time\":797908},{\"event\":\"blur\",\"trial\":14,\"time\":828969},{\"event\":\"focus\",\"trial\":14,\"time\":852114},{\"event\":\"blur\",\"trial\":15,\"time\":868942},{\"event\":\"focus\",\"trial\":15,\"time\":892191},{\"event\":\"blur\",\"trial\":16,\"time\":912957},{\"event\":\"focus\",\"trial\":16,\"time\":924254},{\"event\":\"blur\",\"trial\":17,\"time\":951952},{\"event\":\"focus\",\"trial\":17,\"time\":958549},{\"event\":\"blur\",\"trial\":18,\"time\":1002669},{\"event\":\"focus\",\"trial\":18,\"time\":1031891},{\"event\":\"blur\",\"trial\":19,\"time\":1085360},{\"event\":\"focus\",\"trial\":19,\"time\":1149207},{\"event\":\"blur\",\"trial\":19,\"time\":1152702},{\"event\":\"focus\",\"trial\":19,\"time\":1155449}]"}]