[{"view_history":[{"page_index":0,"viewing_time":3573.2999999821186},{"page_index":1,"viewing_time":4894},{"page_index":2,"viewing_time":3906.4000000059605},{"page_index":3,"viewing_time":1528.300000011921}],"rt":13903.59999999404,"trial_type":"instructions","trial_index":0,"time_elapsed":13927,"internal_node_id":"0.0-0.0","task_version":"prescreen-v0.3"},{"rt":13343.700000017881,"responses":{"age":"20","gender-categorical":"Male","gender-free-response":"","ethnicity":"Not Hispanic or Latino","race":["White"],"education":"Some college"},"trial_type":"survey-demo","trial_index":1,"time_elapsed":27282,"internal_node_id":"0.0-1.0","task_version":"prescreen-v0.3"},{"responses":{"Q05":"1","Q19":"0","Q21":"3","Q07":"1","Q12":"0","Q09":"0","Q14":"0","Q13":"0","Q01":"3","Q16":"0","Q11":"2","Q15":"0","Q03":"2","Q02":"2","Q10":"1","Q08":"0","Q06":"1","Q18":"1","Q20":"0","Q04":"1","Q17":"2"},"rt":235285.90000000596,"item_order":[4,18,20,6,11,8,13,12,0,15,10,14,2,1,9,7,5,17,19,3,16],"radio_events":[68622.19999998808,97192.59999999404,102986.59999999404,107422.80000001192,111365.09999999404,117690,119598.30000001192,122737.19999998808,129080.90000000596,131594,138339.30000001192,152257.5,157221.90000000596,163053.19999998808,171101.30000001192,178517.59999999404,182340.69999998808,187819.69999998808,193268.69999998808,199517.19999998808,229888.69999998808],"key_events":[],"mouse_events":[68622.19999998808,79989,95354.30000001192,96430,97192.59999999404,101893.19999998808,102986.59999999404,107422.80000001192,111365.09999999404,116779.59999999404,117690,119598.30000001192,122737.19999998808,128375.40000000596,129080.90000000596,131594,137525.09999999404,138339.30000001192,151429.19999998808,152257.5,157221.90000000596,161234.40000000596,162068.69999998808,162434.59999999404,163053.19999998808,171101.30000001192,178517.59999999404,182340.69999998808,187167,187819.69999998808,193268.69999998808,199517.19999998808,224933.40000000596,229888.69999998808,235284.19999998808],"straightlining":0.42857142857142855,"zigzagging":0.55,"honeypot":0,"survey":"sns","trial_type":"survey-template","trial_index":2,"time_elapsed":262575,"internal_node_id":"0.0-2.0","task_version":"prescreen-v0.3","browser_interactions":0,"infrequency":0},{"responses":{"Q07":"3","Q03":"3","Q11":"2","Q01":"3","Q06":"3","Q02":"2","Q10":"3","Q08":"2","Q05":"3","Q04":"3","Q12":"2","Q09":"3","Q13":"0"},"rt":124497.90000000596,"item_order":[6,2,10,0,5,1,9,7,4,3,11,8,12],"radio_events":[3877.300000011921,8811.5,17235.5,20127.80000001192,25442.80000001192,31686.100000023842,37128.90000000596,41784.5,47466.90000000596,68248.5,71350.5,75811.20000001788,84461.30000001192,102530],"key_events":[],"mouse_events":[3089.2000000178814,3877.300000011921,8811.5,17235.5,20127.80000001192,24650.5,25442.80000001192,31686.100000023842,37128.90000000596,41784.5,47466.90000000596,68248.5,71350.5,74009.10000002384,74804.60000002384,75811.20000001788,84461.30000001192,102530,124494.30000001192],"straightlining":0.6153846153846154,"zigzagging":0.75,"honeypot":0,"survey":"bisbas","trial_type":"survey-template","trial_index":3,"time_elapsed":387079,"internal_node_id":"0.0-3.0","task_version":"prescreen-v0.3","browser_interactions":4,"infrequency":0},{"responses":{"Q01":"2","Q02":"2","Q03":"2"},"rt":98872.5,"radio_events":[35862.29999998212,70218.09999999404,79088.39999997616,80884.69999998808],"key_events":[],"mouse_events":[35862.29999998212,70218.09999999404,78468.19999998808,79088.39999997616,80884.69999998808,98870.69999998808],"survey":"map","page":1,"trial_type":"survey-map","trial_index":4,"time_elapsed":485960,"internal_node_id":"0.0-4.0","task_version":"prescreen-v0.3","browser_interactions":0},{"responses":{"Q04":"4","Q05":"4","Q06":"4"},"rt":32794.70000001788,"radio_events":[3626.9000000059605,14890.90000000596,32083.80000001192],"key_events":[],"mouse_events":[3626.9000000059605,14890.90000000596,32083.80000001192,32794.20000001788],"survey":"map","page":2,"trial_type":"survey-map","trial_index":5,"time_elapsed":518765,"internal_node_id":"0.0-5.0","task_version":"prescreen-v0.3","browser_interactions":0},{"responses":{"Q07":"1","Q08":"2","Q09":"3"},"rt":38548.79999998212,"radio_events":[23495,27725.40000000596,35625.19999998808],"key_events":[],"mouse_events":[23495,27725.40000000596,35625.19999998808,38548],"survey":"map","page":3,"trial_type":"survey-map","trial_index":6,"time_elapsed":557320,"internal_node_id":"0.0-6.0","task_version":"prescreen-v0.3","browser_interactions":0},{"responses":{"Q10":"1","Q11":"2","Q12":"4","Q13":"4","Q16":"0","Q14":"4","Q15":"4"},"rt":94770.40000000596,"radio_events":[24004.5,28630.30000001192,48972.60000002384,79307.30000001192,82278.10000002384,84765.80000001192,86874.20000001788],"key_events":[],"mouse_events":[24004.5,28630.30000001192,48493.60000002384,48972.60000002384,78710.90000000596,79307.30000001192,82278.10000002384,84765.80000001192,86874.20000001788,94768.40000000596],"survey":"map","page":4,"trial_type":"survey-map","trial_index":7,"time_elapsed":652099,"internal_node_id":"0.0-7.0","task_version":"prescreen-v0.3","browser_interactions":0,"infrequency":0},{"view_history":[{"page_index":0,"viewing_time":1615.699999988079},{"page_index":1,"viewing_time":3230.0999999940395}],"rt":4846.799999982119,"trial_type":"instructions","trial_index":8,"time_elapsed":656955,"internal_node_id":"0.0-8.0","task_version":"prescreen-v0.3"},{"responses":{"01":"Yes","01_ages_12":"12","01_ages_13":"13","01_ages_14":"14","01_ages_15":"15","01_ages_16":"16","01_ages_17":"17","01_ages_18":"18","02":"Yes","02_ages_8":"8","02_ages_9":"9","02_ages_10":"10","02_ages_11":"11","02_ages_12":"12","02_ages_13":"13","02_ages_14":"14","02_ages_15":"15","02_ages_16":"16","02_ages_17":"17","02_ages_18":"18","03":"Yes","03_ages_11":"11","04":"No","05":"No","06":"No"},"rt":211445.20000001788,"item_order":[0,1,2,3,4,5],"radio_events":[30321.30000001192,31875.20000001788,33485.40000000596,44799.70000001788,56254.70000001788,89656.40000000596,106529.5,135763.90000000596],"checkbox_events":[109705.40000000596,160706.20000001788,161177.20000001788,162315.5,163439.90000000596,163906.80000001192,164466.30000001192,166428.30000001192,168150.40000000596,168650.30000001192,169333.30000001192,170472.90000000596,182411.09999999404,183169.80000001192,190993,191476.59999999404,191948.40000000596,192577.59999999404,193649.59999999404],"key_events":[],"mouse_events":[22.700000017881393,30321.30000001192,31875.20000001788,33485.40000000596,44799.70000001788,54219.90000000596,55407.30000001192,56254.70000001788,89656.40000000596,106529.5,109705.40000000596,135763.90000000596,159532.80000001192,160706.20000001788,161177.20000001788,161617.90000000596,162315.5,162856.30000001192,163439.90000000596,163906.80000001192,164466.30000001192,166428.30000001192,167071,167506.70000001788,168150.40000000596,168650.30000001192,169333.30000001192,170472.90000000596,182411.09999999404,183169.80000001192,190545.30000001192,190993,191476.59999999404,191948.40000000596,192577.59999999404,193070.70000001788,193649.59999999404,211443.5],"honeypot":0,"survey":"mace","page":1,"trial_type":"survey-mace","trial_index":9,"time_elapsed":868410,"internal_node_id":"0.0-9.0","task_version":"prescreen-v0.3","browser_interactions":0},{"responses":{"01":"No","02":"No","03":"No","04":"No","05":"No","06":"No","07":"No","08":"No"},"rt":26717.79999998212,"item_order":[0,1,2,3,4,5,6,7],"radio_events":[6149.5,8352.59999999404,9815.59999999404,11313,13089.40000000596,13967.799999982119,16868.79999998212,18681.79999998212],"checkbox_events":[],"key_events":[],"mouse_events":[6149.5,8352.59999999404,9815.59999999404,11313,13089.40000000596,13967.799999982119,15061.59999999404,15899.59999999404,16868.79999998212,17749,18681.79999998212,26713.59999999404],"honeypot":0,"survey":"mace","page":2,"trial_type":"survey-mace","trial_index":10,"time_elapsed":895137,"internal_node_id":"0.0-10.0","task_version":"prescreen-v0.3","browser_interactions":0},{"responses":{"01":"No","02":"No","03":"No","04":"No"},"rt":14018.90000000596,"item_order":[0,1,2,3],"radio_events":[4893.9000000059605,7763,11740.800000011921,12358.5],"checkbox_events":[],"key_events":[],"mouse_events":[3362.800000011921,4893.9000000059605,7057.800000011921,7763,8563.40000000596,9702.5,10279.90000000596,11740.800000011921,12358.5,13084.09999999404,14016.800000011921],"honeypot":0,"survey":"mace","page":3,"trial_type":"survey-mace","trial_index":11,"time_elapsed":909165,"internal_node_id":"0.0-11.0","task_version":"prescreen-v0.3","browser_interactions":0},{"responses":{"01":"No","02":"No"},"rt":9418.200000017881,"item_order":[0,1],"radio_events":[6517.800000011921,8628],"checkbox_events":[],"key_events":[],"mouse_events":[6517.800000011921,7408.5,8066.300000011921,8628,9417.100000023842],"honeypot":0,"survey":"mace","page":4,"trial_type":"survey-mace","trial_index":12,"time_elapsed":918589,"internal_node_id":"0.0-12.0","task_version":"prescreen-v0.3","browser_interactions":0},{"responses":{"01":"No","02":"No","03":"No","04":"No","05":"No"},"rt":19615.40000000596,"item_order":[0,1,2,3,4],"radio_events":[8099.5,10176.59999999404,11930.300000011921,14514.700000017881,15652.800000011921],"checkbox_events":[],"key_events":[],"mouse_events":[8099.5,10176.59999999404,11930.300000011921,14514.700000017881,15652.800000011921,19612.30000001192],"honeypot":0,"survey":"mace","page":5,"trial_type":"survey-mace","trial_index":13,"time_elapsed":938214,"internal_node_id":"0.0-13.0","task_version":"prescreen-v0.3","browser_interactions":0},{"responses":{"01":"Yes","01_ages_7":"7","01_ages_8":"8","01_ages_9":"9","02":"No","03":"No","04":"Yes","04_ages_6":"6","04_ages_7":"7","04_ages_8":"8","04_ages_9":"9","04_ages_10":"10","05":"No"},"rt":95016.30000001192,"item_order":[0,1,2,3,4],"radio_events":[11807.100000023842,17376.90000000596,55555.10000002384,61486.20000001788,87865.40000000596],"checkbox_events":[36348.40000000596,40506.20000001788,40959.80000001192,42370,45454.70000001788,68931.30000001192,69387.10000002384,70297,71730.60000002384,72184.5,72733.90000000596,77523.20000001788,78435.5,79843.40000000596],"key_events":[],"mouse_events":[11807.100000023842,17376.90000000596,36348.40000000596,39506.20000001788,40079.80000001192,40506.20000001788,40959.80000001192,41488.20000001788,42370,45454.70000001788,55555.10000002384,61486.20000001788,68931.30000001192,69387.10000002384,70297,71730.60000002384,72184.5,72733.90000000596,77523.20000001788,77917.90000000596,78435.5,79026.5,79843.40000000596,87865.40000000596,95011.40000000596],"honeypot":0,"survey":"mace","page":6,"trial_type":"survey-mace","trial_index":14,"time_elapsed":1033239,"internal_node_id":"0.0-14.0","task_version":"prescreen-v0.3","browser_interactions":2},{"responses":{"01":"No","02":"No","03":"No","04":"No","05":"No","06":"No","07":"No"},"rt":13738.800000011921,"item_order":[0,1,2,3,4,5,6],"radio_events":[4166.9000000059605,5703,6633.5,7587.800000011921,9337.300000011921,10935.800000011921,11774.200000017881],"checkbox_events":[],"key_events":[],"mouse_events":[4166.9000000059605,4952.700000017881,5703,6633.5,7587.800000011921,8666.200000017881,9337.300000011921,10935.800000011921,11774.200000017881,13735.700000017881],"honeypot":0,"survey":"mace","page":7,"trial_type":"survey-mace","trial_index":15,"time_elapsed":1046989,"internal_node_id":"0.0-15.0","task_version":"prescreen-v0.3","browser_interactions":0},{"responses":{"01":"Yes","01_ages_10":"10","01_ages_11":"11","01_ages_12":"12","01_ages_13":"13","01_ages_14":"14","01_ages_15":"15","01_ages_16":"16","01_ages_17":"17","01_ages_18":"18","02":"No","03":"Yes","03_ages_1":"1","03_ages_2":"2","03_ages_3":"3","03_ages_4":"4","03_ages_5":"5","03_ages_6":"6","03_ages_7":"7","03_ages_8":"8","03_ages_9":"9","03_ages_10":"10","03_ages_11":"11","03_ages_12":"12","03_ages_13":"13","03_ages_14":"14","03_ages_15":"15","03_ages_16":"16","03_ages_17":"17","03_ages_18":"18","04":"Yes","04_ages_12":"12","04_ages_13":"13","04_ages_14":"14","04_ages_15":"15","04_ages_16":"16","04_ages_17":"17","04_ages_18":"18"},"rt":88559.69999998808,"item_order":[0,1,2,3],"radio_events":[12671.40000000596,34559.69999998808,53305.59999999404,60250.69999998808],"checkbox_events":[15471.59999999404,16502.90000000596,17623.29999998212,18056.29999998212,18610,19870.09999999404,20781.09999999404,23797.79999998212,24370.29999998212,24849.5,25781,26212.5,27380.29999998212,28700.90000000596,29247.29999998212,29752,30354,31427.79999998212,31952.90000000596,32613.69999998808,36180.40000000596,36598.29999998212,37261.69999998808,38620.29999998212,39678.90000000596,40302.09999999404,43935.40000000596,44362.5,44803.5,45591.19999998808,48120.79999998212,48855.29999998212,49413,64561,65749.90000000596,67499.69999998808,68054.09999999404,69081.69999998808,70299.5,71613.5,72599.09999999404,74323.69999998808,74423.69999998808,75006,75617.79999998212,80159],"key_events":[],"mouse_events":[11823.5,12671.40000000596,15471.59999999404,16502.90000000596,17623.29999998212,18056.29999998212,18610,19269.69999998808,19870.09999999404,20346.90000000596,20781.09999999404,23797.79999998212,24370.29999998212,24849.5,25375.90000000596,25781,26212.5,27380.29999998212,28700.90000000596,29247.29999998212,29752,30354,31427.79999998212,31952.90000000596,32613.69999998808,33905.5,34559.69999998808,36180.40000000596,36598.29999998212,37261.69999998808,38151,38620.29999998212,39083.09999999404,39678.90000000596,40302.09999999404,43935.40000000596,44362.5,44803.5,45591.19999998808,48120.79999998212,48855.29999998212,49413,53305.59999999404,60250.69999998808,64561,65749.90000000596,67499.69999998808,68054.09999999404,68648.69999998808,69081.69999998808,70299.5,71613.5,72599.09999999404,74323.69999998808,74423.69999998808,75006,75617.79999998212,80159,88553.59999999404],"honeypot":0,"survey":"mace","page":8,"trial_type":"survey-mace","trial_index":16,"time_elapsed":1135557,"internal_node_id":"0.0-16.0","task_version":"prescreen-v0.3","browser_interactions":0},{"responses":{"01":"Yes","01_ages_1":"1","01_ages_2":"2","01_ages_3":"3","01_ages_4":"4","01_ages_5":"5","01_ages_6":"6","01_ages_7":"7","01_ages_8":"8","01_ages_9":"9","01_ages_10":"10","01_ages_11":"11","01_ages_12":"12","01_ages_13":"13","01_ages_14":"14","01_ages_15":"15","01_ages_16":"16","01_ages_17":"17","01_ages_18":"18","02":"Yes","02_ages_1":"1","02_ages_2":"2","02_ages_3":"3","02_ages_4":"4","02_ages_5":"5","02_ages_6":"6","02_ages_7":"7","02_ages_8":"8","02_ages_9":"9","02_ages_10":"10","02_ages_11":"11","02_ages_12":"12","02_ages_13":"13","02_ages_14":"14","02_ages_15":"15","02_ages_16":"16","02_ages_17":"17","02_ages_18":"18","03":"Yes","03_ages_1":"1","03_ages_2":"2","03_ages_3":"3","03_ages_4":"4","03_ages_5":"5","03_ages_6":"6","03_ages_7":"7","03_ages_8":"8","03_ages_9":"9","03_ages_10":"10","03_ages_11":"11","03_ages_12":"12","03_ages_13":"13","03_ages_14":"14","03_ages_15":"15","03_ages_16":"16","03_ages_17":"17","03_ages_18":"18","04":"Yes","04_ages_1":"1","04_ages_2":"2","04_ages_3":"3","04_ages_4":"4","04_ages_5":"5","04_ages_6":"6","04_ages_7":"7","04_ages_8":"8","04_ages_9":"9","04_ages_10":"10","04_ages_11":"11","04_ages_12":"12","04_ages_13":"13","04_ages_14":"14","04_ages_15":"15","04_ages_16":"16","04_ages_17":"17","04_ages_18":"18"},"rt":92242.29999998212,"item_order":[0,1,2,3],"radio_events":[3295.2999999821186,36246.19999998808,54961.29999998212,75746.09999999404],"checkbox_events":[11294.40000000596,13178.199999988079,13884.59999999404,15821,16826.40000000596,17329.19999998808,17928.19999998808,18830.59999999404,19404.90000000596,20023.69999998808,20630.5,21276.09999999404,21775.40000000596,23757.40000000596,24256.5,24888.19999998808,25438.90000000596,26129.40000000596,40887.40000000596,41917.69999998808,42473.19999998808,43309.69999998808,45271.40000000596,45814.29999998212,46350.69999998808,46943.79999998212,47435.79999998212,47912.90000000596,48516.19999998808,49595.79999998212,50056.79999998212,51009.5,51517.79999998212,52126.79999998212,52642.79999998212,53354.09999999404,58331.09999999404,58838.09999999404,61223.90000000596,61824.29999998212,62876.90000000596,63808.5,64358.19999998808,65694.29999998212,66423.5,67420.29999998212,68111,68807.59999999404,69483.5,70103.79999998212,70892.79999998212,71586.90000000596,72250.69999998808,72947.90000000596,78154.79999998212,79084.69999998808,79615.29999998212,80482.69999998808,81037.40000000596,81656,82735.90000000596,83256.79999998212,83873,85055.79999998212,85575.19999998808,86214.19999998808,86744.79999998212,87373.59999999404,88019.79999998212,88784.79999998212,89268.40000000596,89846.79999998212],"key_events":[],"mouse_events":[3295.2999999821186,11294.40000000596,13178.199999988079,13884.59999999404,14470.799999982119,15821,16336.299999982119,16826.40000000596,17329.19999998808,17928.19999998808,18419.79999998212,18830.59999999404,19404.90000000596,20023.69999998808,20630.5,21276.09999999404,21775.40000000596,22340.69999998808,22731.90000000596,23281.5,23757.40000000596,24256.5,24888.19999998808,25438.90000000596,26129.40000000596,36246.19999998808,40887.40000000596,41349.5,41917.69999998808,42473.19999998808,43309.69999998808,45271.40000000596,45814.29999998212,46350.69999998808,46943.79999998212,47435.79999998212,47912.90000000596,48516.19999998808,49015.90000000596,49595.79999998212,50056.79999998212,50592.40000000596,51009.5,51517.79999998212,52126.79999998212,52642.79999998212,53354.09999999404,54961.29999998212,57625.59999999404,58331.09999999404,58838.09999999404,59264.59999999404,59907.69999998808,61223.90000000596,61824.29999998212,62317.29999998212,62876.90000000596,63381.09999999404,63808.5,64358.19999998808,65694.29999998212,66423.5,67420.29999998212,68111,68807.59999999404,69483.5,70103.79999998212,70892.79999998212,71586.90000000596,72250.69999998808,72947.90000000596,74349.79999998212,75047.09999999404,75746.09999999404,77613.29999998212,78154.79999998212,78666.69999998808,79084.69999998808,79615.29999998212,80482.69999998808,81037.40000000596,81656,82227.19999998808,82735.90000000596,83256.79999998212,83873,84385.40000000596,85055.79999998212,85575.19999998808,86214.19999998808,86744.79999998212,87373.59999999404,88019.79999998212,88784.79999998212,89268.40000000596,89846.79999998212,92236.40000000596],"honeypot":0,"survey":"mace","page":9,"trial_type":"survey-mace","trial_index":17,"time_elapsed":1227813,"internal_node_id":"0.0-17.0","task_version":"prescreen-v0.3","browser_interactions":0},{"responses":{"01":"No","02":"No","03":"No","04":"No","05":"Yes","05_ages_15":"15","05_ages_16":"16","05_ages_17":"17","05_ages_18":"18","06":"Yes","06_ages_17":"17","07":"No","08":"No"},"rt":62355.40000000596,"item_order":[0,1,2,3,4,5,6,7],"radio_events":[7918.0999999940395,11008.5,12491.09999999404,15435.40000000596,22987.20000001788,27985.59999999404,33442.20000001788,47652.80000001192],"checkbox_events":[35569.30000001192,49664.59999999404,50612.20000001788,51746,53488.40000000596],"key_events":[],"mouse_events":[7918.0999999940395,11008.5,12491.09999999404,15435.40000000596,22987.20000001788,27985.59999999404,33442.20000001788,35569.30000001192,47652.80000001192,49664.59999999404,50187.90000000596,50612.20000001788,51117.30000001192,51746,53488.40000000596,62345.59999999404],"honeypot":0,"survey":"mace","page":10,"trial_type":"survey-mace","trial_index":18,"time_elapsed":1290182,"internal_node_id":"0.0-18.0","task_version":"prescreen-v0.3","browser_interactions":0,"instructed":0},{"rt":22625.70000001788,"trial_type":"mental-health-alert","trial_index":19,"time_elapsed":1312814,"internal_node_id":"0.0-19.0","task_version":"prescreen-v0.3","interactions":"[{\"event\":\"blur\",\"trial\":3,\"time\":315208},{\"event\":\"focus\",\"trial\":3,\"time\":326992},{\"event\":\"blur\",\"trial\":3,\"time\":327847},{\"event\":\"focus\",\"trial\":3,\"time\":328372},{\"event\":\"blur\",\"trial\":14,\"time\":961963},{\"event\":\"focus\",\"trial\":14,\"time\":972481}]"}]