[{"view_history":[{"page_index":0,"viewing_time":2744.100000023842},{"page_index":1,"viewing_time":5284.300000011921},{"page_index":2,"viewing_time":1198.8999999761581},{"page_index":1,"viewing_time":4505.600000023842},{"page_index":2,"viewing_time":3935.399999976158},{"page_index":3,"viewing_time":1168.3999999761581}],"rt":18838.400000035763,"trial_type":"instructions","trial_index":0,"time_elapsed":18901,"internal_node_id":"0.0-0.0","task_version":"prescreen-v0.3"},{"rt":18478.600000023842,"responses":{"age":"21","gender-categorical":"Female","gender-free-response":"","ethnicity":"Not Hispanic or Latino","race":["White"],"education":"Some college"},"trial_type":"survey-demo","trial_index":1,"time_elapsed":37393,"internal_node_id":"0.0-1.0","task_version":"prescreen-v0.3"},{"responses":{"Q09":"0","Q06":"2","Q05":"0","Q19":"1","Q02":"0","Q17":"0","Q04":"0","Q11":"2","Q10":"1","Q18":"0","Q15":"1","Q14":"2","Q07":"0","Q08":"0","Q12":"1","Q21":"3","Q01":"0","Q03":"0","Q16":"1","Q13":"1","Q20":"2"},"rt":104282.19999998808,"item_order":[8,5,4,18,1,16,3,10,9,17,14,13,6,7,11,20,0,2,15,12,19],"radio_events":[11052.799999952316,17203.099999964237,24993.399999976158,33249.19999998808,36163.89999997616,38407.39999997616,41602.09999996424,45544.5,49352.69999998808,52387.09999996424,59431.69999998808,64714.69999998808,70299.39999997616,72199.59999996424,78251.89999997616,82336.39999997616,85655.59999996424,88303.39999997616,93316.09999996424,99941.19999998808,102464.19999998808],"key_events":[],"mouse_events":[11052.799999952316,17203.099999964237,24993.399999976158,33249.19999998808,36163.89999997616,38407.39999997616,40884.89999997616,41602.09999996424,45544.5,49352.69999998808,52387.09999996424,59431.69999998808,64714.69999998808,70299.39999997616,72199.59999996424,78251.89999997616,82336.39999997616,85655.59999996424,88303.39999997616,93316.09999996424,99941.19999998808,102464.19999998808,104275.79999995232],"straightlining":0.47619047619047616,"zigzagging":0.5,"honeypot":0,"survey":"sns","trial_type":"survey-template","trial_index":2,"time_elapsed":141692,"internal_node_id":"0.0-2.0","task_version":"prescreen-v0.3","browser_interactions":0,"infrequency":0},{"responses":{"Q10":"1","Q13":"0","Q03":"1","Q11":"2","Q04":"1","Q08":"2","Q01":"1","Q09":"2","Q05":"3","Q07":"2","Q06":"3","Q02":"2","Q12":"2"},"rt":71641,"item_order":[9,12,2,10,3,7,0,8,4,6,5,1,11],"radio_events":[6203.699999988079,11352.599999964237,12234.699999988079,15390.599999964237,22162.399999976158,28177.30000001192,37196.19999998808,41098.39999997616,46604.30000001192,50259.59999996424,52763.19999998808,55851,61135.5,64450.30000001192,68969.89999997616],"key_events":[],"mouse_events":[6203.699999988079,11352.599999964237,12234.699999988079,15390.599999964237,22162.399999976158,28177.30000001192,37196.19999998808,41098.39999997616,46604.30000001192,50259.59999996424,52763.19999998808,55851,61135.5,64450.30000001192,68969.89999997616,71636.89999997616],"straightlining":0.46153846153846156,"zigzagging":0.9166666666666666,"honeypot":0,"survey":"bisbas","trial_type":"survey-template","trial_index":3,"time_elapsed":213343,"internal_node_id":"0.0-3.0","task_version":"prescreen-v0.3","browser_interactions":0,"infrequency":0},{"responses":{"Q01":"2","Q02":"2","Q03":"4"},"rt":27402.30000001192,"radio_events":[11843.800000011921,12974.800000011921,17556.599999964237,26383.399999976158],"key_events":[],"mouse_events":[11843.800000011921,12974.800000011921,17556.599999964237,26383.399999976158,27400.399999976158],"survey":"map","page":1,"trial_type":"survey-map","trial_index":4,"time_elapsed":240754,"internal_node_id":"0.0-4.0","task_version":"prescreen-v0.3","browser_interactions":0},{"responses":{"Q04":"3","Q05":"3","Q06":"4"},"rt":17369.5,"radio_events":[4377.299999952316,12505.699999988079,16475.599999964237],"key_events":[],"mouse_events":[4377.299999952316,12505.699999988079,16475.599999964237,17368],"survey":"map","page":2,"trial_type":"survey-map","trial_index":5,"time_elapsed":258129,"internal_node_id":"0.0-5.0","task_version":"prescreen-v0.3","browser_interactions":0},{"responses":{"Q07":"1","Q08":"1","Q09":"4"},"rt":15831.699999988079,"radio_events":[5962,12129,15043.199999988079],"key_events":[],"mouse_events":[5962,12129,15043.199999988079,15830.199999988079],"survey":"map","page":3,"trial_type":"survey-map","trial_index":6,"time_elapsed":273966,"internal_node_id":"0.0-6.0","task_version":"prescreen-v0.3","browser_interactions":0},{"responses":{"Q10":"3","Q11":"2","Q12":"3","Q13":"3","Q16":"0","Q14":"3","Q15":"2"},"rt":45275.60000002384,"radio_events":[4758.900000035763,9176.200000047684,11189.200000047684,15968.800000011921,25378.100000023842,36667.60000002384,39870.5,43737.5],"key_events":[],"mouse_events":[4758.900000035763,9176.200000047684,11189.200000047684,15968.800000011921,25378.100000023842,33781.90000003576,35543.90000003576,36667.60000002384,39870.5,43737.5,45272.60000002384],"survey":"map","page":4,"trial_type":"survey-map","trial_index":7,"time_elapsed":319249,"internal_node_id":"0.0-7.0","task_version":"prescreen-v0.3","browser_interactions":0,"infrequency":0},{"view_history":[{"page_index":0,"viewing_time":2436.199999988079},{"page_index":1,"viewing_time":5825.200000047684}],"rt":8262.100000023842,"trial_type":"instructions","trial_index":8,"time_elapsed":327514,"internal_node_id":"0.0-8.0","task_version":"prescreen-v0.3"},{"responses":{"01":"Yes","01_ages_6":"6","01_ages_7":"7","01_ages_8":"8","01_ages_9":"9","01_ages_10":"10","02":"Yes","02_ages_6":"6","02_ages_7":"7","02_ages_8":"8","02_ages_9":"9","02_ages_10":"10","02_ages_11":"11","02_ages_12":"12","02_ages_13":"13","02_ages_14":"14","02_ages_15":"15","03":"Yes","03_ages_18":"18","04":"No","05":"No","06":"No"},"rt":46445.69999998808,"item_order":[0,1,2,3,4,5],"radio_events":[11092.100000023842,24135.69999998808,33974.19999998808,40004.19999998808,41949.90000003576,45308.19999998808],"checkbox_events":[17052,17643.30000001192,18093,18553.30000001192,18946.600000023842,26924.80000001192,27163,27518.30000001192,28015.600000023842,28305.100000023842,28687.100000023842,28994.30000001192,29292.30000001192,30404.80000001192,30951.19999998808,35451.40000003576],"key_events":[],"mouse_events":[0.19999998807907104,11092.100000023842,17052,17643.30000001192,18093,18553.30000001192,18946.600000023842,24135.69999998808,26924.80000001192,27163,27518.30000001192,28015.600000023842,28305.100000023842,28687.100000023842,28994.30000001192,29292.30000001192,30404.80000001192,30951.19999998808,33974.19999998808,35451.40000003576,40004.19999998808,41949.90000003576,45308.19999998808,46436.90000003576],"honeypot":0,"survey":"mace","page":1,"trial_type":"survey-mace","trial_index":9,"time_elapsed":373978,"internal_node_id":"0.0-9.0","task_version":"prescreen-v0.3","browser_interactions":0},{"responses":{"01":"No","02":"No","03":"Yes","03_ages_5":"5","03_ages_6":"6","03_ages_7":"7","03_ages_8":"8","04":"Yes","04_ages_5":"5","04_ages_6":"6","04_ages_7":"7","04_ages_8":"8","05":"Yes","05_ages_5":"5","05_ages_6":"6","05_ages_7":"7","05_ages_8":"8","06":"No","07":"No","08":"No"},"rt":40777,"item_order":[0,1,2,3,4,5,6,7],"radio_events":[2441.399999976158,6692.599999964237,9987.099999964237,18142.30000001192,25484.19999998808,33422.59999996424,38338.39999997616,40017.59999996424],"checkbox_events":[11359.099999964237,11787.800000011921,12216.800000011921,12560.199999988079,19540.69999998808,20431.69999998808,21409.30000001192,22759.69999998808,26242.19999998808,26614.80000001192,27084.69999998808,27382.599999964237],"key_events":[],"mouse_events":[2441.399999976158,6692.599999964237,9987.099999964237,11359.099999964237,11787.800000011921,12216.800000011921,12560.199999988079,18142.30000001192,19540.69999998808,20431.69999998808,21409.30000001192,22759.69999998808,25484.19999998808,26242.19999998808,26614.80000001192,27084.69999998808,27382.599999964237,33422.59999996424,38338.39999997616,40017.59999996424,40765.30000001192],"honeypot":0,"survey":"mace","page":2,"trial_type":"survey-mace","trial_index":10,"time_elapsed":414771,"internal_node_id":"0.0-10.0","task_version":"prescreen-v0.3","browser_interactions":0},{"responses":{"01":"No","02":"No","03":"No","04":"No"},"rt":11670.5,"item_order":[0,1,2,3],"radio_events":[3330.899999976158,5075,7700.5,8208.600000023842],"checkbox_events":[],"key_events":[],"mouse_events":[3330.899999976158,5075,7700.5,8208.600000023842,11664],"honeypot":0,"survey":"mace","page":3,"trial_type":"survey-mace","trial_index":11,"time_elapsed":426452,"internal_node_id":"0.0-11.0","task_version":"prescreen-v0.3","browser_interactions":0},{"responses":{"01":"No","02":"No"},"rt":13025.5,"item_order":[0,1],"radio_events":[10299.100000023842,11009],"checkbox_events":[],"key_events":[],"mouse_events":[10299.100000023842,11009,13022.300000011921],"honeypot":0,"survey":"mace","page":4,"trial_type":"survey-mace","trial_index":12,"time_elapsed":439484,"internal_node_id":"0.0-12.0","task_version":"prescreen-v0.3","browser_interactions":0},{"responses":{"01":"Yes","01_ages_8":"8","02":"No","03":"No","04":"Yes","04_ages_11":"11","04_ages_12":"12","04_ages_13":"13","04_ages_18":"18","05":"Yes","05_ages_11":"11","05_ages_12":"12","05_ages_13":"13","05_ages_18":"18"},"rt":59500,"item_order":[0,1,2,3,4],"radio_events":[6128.899999976158,31390.099999964237,36483.09999996424,43084.69999998808,54265.80000001192],"checkbox_events":[8308.399999976158,8710.399999976158,9065,10513.599999964237,10724.399999976158,16938.69999998808,17245.399999976158,17686.5,18204.899999976158,18511.69999998808,19384,21714.899999976158,22002.5,22708.30000001192,23141.5,44582.5,45442,45768.5,48289.30000001192,55896.59999996424,57161.09999996424,57525.5,57842.59999996424],"key_events":[],"mouse_events":[6128.899999976158,8308.399999976158,8710.399999976158,9065,10513.599999964237,10724.399999976158,16938.69999998808,17245.399999976158,17686.5,18204.899999976158,18511.69999998808,19384,21714.899999976158,22002.5,22708.30000001192,23141.5,31390.099999964237,36483.09999996424,43084.69999998808,44582.5,45442,45768.5,48289.30000001192,54265.80000001192,55896.59999996424,57161.09999996424,57525.5,57842.59999996424,59492.59999996424],"honeypot":0,"survey":"mace","page":5,"trial_type":"survey-mace","trial_index":13,"time_elapsed":498997,"internal_node_id":"0.0-13.0","task_version":"prescreen-v0.3","browser_interactions":0},{"responses":{"01":"Yes","01_ages_10":"10","01_ages_11":"11","01_ages_12":"12","01_ages_13":"13","02":"Yes","02_ages_10":"10","02_ages_11":"11","02_ages_12":"12","02_ages_13":"13","03":"No","04":"No","05":"No"},"rt":35231.19999998808,"item_order":[0,1,2,3,4],"radio_events":[4842.399999976158,11290.199999988079,27311.399999976158,31311.600000023842,32623.19999998808],"checkbox_events":[6215.399999976158,7370.600000023842,7723.800000011921,8557.899999976158,12019.899999976158,12315.199999988079,12630.300000011921,12869.300000011921],"key_events":[],"mouse_events":[4842.399999976158,6215.399999976158,7370.600000023842,7723.800000011921,8557.899999976158,11290.199999988079,12019.899999976158,12315.199999988079,12630.300000011921,12869.300000011921,27311.399999976158,30267.100000023842,31311.600000023842,32623.19999998808,35223.60000002384],"honeypot":0,"survey":"mace","page":6,"trial_type":"survey-mace","trial_index":14,"time_elapsed":534242,"internal_node_id":"0.0-14.0","task_version":"prescreen-v0.3","browser_interactions":0},{"responses":{"01":"No","02":"No","02_ages_14":"14","03":"No","04":"No","05":"No","06":"No","07":"Yes","07_ages_14":"14"},"rt":51547.30000001192,"item_order":[0,1,2,3,4,5,6],"radio_events":[6837.099999964237,11296.199999988079,12581.199999988079,19426.30000001192,21538.099999964237,23131,35738.19999998808,44180],"checkbox_events":[8074.800000011921,8572.599999964237,8820.599999964237,26620.69999998808,27117.5,27414.899999976158],"key_events":[],"mouse_events":[6837.099999964237,8074.800000011921,8572.599999964237,8820.599999964237,11296.199999988079,12581.199999988079,19426.30000001192,21538.099999964237,23131,26620.69999998808,27117.5,27414.899999976158,32099.899999976158,35738.19999998808,43635.09999996424,44180,51537.30000001192],"honeypot":0,"survey":"mace","page":7,"trial_type":"survey-mace","trial_index":15,"time_elapsed":585804,"internal_node_id":"0.0-15.0","task_version":"prescreen-v0.3","browser_interactions":2},{"responses":{"01":"Yes","01_ages_5":"5","01_ages_6":"6","01_ages_7":"7","01_ages_8":"8","01_ages_9":"9","01_ages_10":"10","01_ages_11":"11","01_ages_12":"12","01_ages_13":"13","01_ages_14":"14","01_ages_15":"15","01_ages_16":"16","01_ages_17":"17","01_ages_18":"18","02":"Yes","02_ages_9":"9","02_ages_10":"10","02_ages_11":"11","02_ages_12":"12","02_ages_13":"13","02_ages_14":"14","03":"Yes","03_ages_5":"5","03_ages_6":"6","03_ages_7":"7","03_ages_8":"8","03_ages_9":"9","03_ages_10":"10","03_ages_11":"11","03_ages_12":"12","03_ages_13":"13","03_ages_14":"14","03_ages_15":"15","03_ages_16":"16","03_ages_17":"17","03_ages_18":"18","04":"Yes","04_ages_9":"9","04_ages_10":"10","04_ages_11":"11","04_ages_12":"12"},"rt":69036.80000001192,"item_order":[0,1,2,3],"radio_events":[22249.700000047684,36951.5,44047,56230.5],"checkbox_events":[25501.700000047684,26181.80000001192,26475.5,26926.5,27338.900000035763,27579.700000047684,28154.200000047684,28490.5,28902.700000047684,29295.600000023842,29698.700000047684,30120.5,30581.30000001192,31300.600000023842,31654.400000035763,32192.400000035763,38046.40000003576,38390.5,38829.30000001192,39213.200000047684,39558.5,40028.30000001192,45857.40000003576,46983.5,47307.60000002384,48082.40000003576,49087.60000002384,49575.80000001192,50343.60000002384,50756.60000002384,51129.30000001192,51504.10000002384,51896.90000003576,52481.5,52894.700000047684,53153.10000002384,57007.90000003576,57323.90000003576,57602.10000002384,58484.40000003576,58791.700000047684,59030.60000002384,61308.60000002384,61712.200000047684,61894,62015.80000001192,63533.80000001192,63812.90000003576,65856.60000002384,66489,67244.40000003576,67666.60000002384,68089.40000003576,68414.70000004768],"key_events":[],"mouse_events":[22249.700000047684,25501.700000047684,26181.80000001192,26475.5,26926.5,27338.900000035763,27579.700000047684,28154.200000047684,28490.5,28902.700000047684,29295.600000023842,29698.700000047684,30120.5,30581.30000001192,31300.600000023842,31654.400000035763,32192.400000035763,36951.5,38046.40000003576,38390.5,38829.30000001192,39213.200000047684,39558.5,40028.30000001192,44047,45857.40000003576,46983.5,47307.60000002384,48082.40000003576,49087.60000002384,49575.80000001192,50343.60000002384,50756.60000002384,51129.30000001192,51504.10000002384,51896.90000003576,52481.5,52894.700000047684,53153.10000002384,56230.5,57007.90000003576,57323.90000003576,57602.10000002384,58484.40000003576,58791.700000047684,59030.60000002384,61308.60000002384,61712.200000047684,61894,62015.80000001192,63533.80000001192,63812.90000003576,65856.60000002384,66489,67244.40000003576,67666.60000002384,68089.40000003576,68414.70000004768,69030.80000001192],"honeypot":0,"survey":"mace","page":8,"trial_type":"survey-mace","trial_index":16,"time_elapsed":654851,"internal_node_id":"0.0-16.0","task_version":"prescreen-v0.3","browser_interactions":0},{"responses":{"01":"Yes","01_ages_1":"1","01_ages_2":"2","01_ages_3":"3","01_ages_4":"4","01_ages_5":"5","01_ages_6":"6","01_ages_7":"7","01_ages_8":"8","01_ages_9":"9","01_ages_14":"14","01_ages_15":"15","01_ages_16":"16","01_ages_17":"17","01_ages_18":"18","02":"Yes","02_ages_1":"1","02_ages_2":"2","02_ages_3":"3","02_ages_4":"4","02_ages_5":"5","02_ages_6":"6","02_ages_7":"7","02_ages_8":"8","02_ages_9":"9","02_ages_14":"14","02_ages_15":"15","02_ages_16":"16","02_ages_17":"17","02_ages_18":"18","03":"Yes","03_ages_1":"1","03_ages_2":"2","03_ages_3":"3","03_ages_4":"4","03_ages_5":"5","03_ages_6":"6","03_ages_7":"7","03_ages_8":"8","03_ages_9":"9","04":"Yes","04_ages_1":"1","04_ages_2":"2","04_ages_3":"3","04_ages_4":"4","04_ages_5":"5","04_ages_6":"6","04_ages_7":"7","04_ages_8":"8","04_ages_9":"9","04_ages_10":"10","04_ages_11":"11","04_ages_12":"12","04_ages_13":"13","04_ages_14":"14","04_ages_15":"15","04_ages_16":"16","04_ages_17":"17","04_ages_18":"18"},"rt":59691.5,"item_order":[0,1,2,3],"radio_events":[6083.199999988079,17859.69999998808,33378.5,45873.299999952316],"checkbox_events":[7934.199999988079,8142.899999976158,8354.599999964237,8555.5,9006.699999988079,9178.5,10118.399999976158,12067.099999964237,12460.099999964237,12777.699999988079,13083.299999952316,14156.099999964237,15373.5,18702.69999998808,19652.799999952316,20026.799999952316,20427.299999952316,21173.69999998808,21678.69999998808,21937.599999964237,22723.69999998808,23243.19999998808,23654.399999976158,23942.599999964237,25506.399999976158,26446.099999964237,26743.799999952316,27098.099999964237,27510.19999998808,28371.5,34108.39999997616,34931.5,35181.69999998808,35680.09999996424,35977.299999952316,36361.69999998808,37680.69999998808,38217.5,38448.19999998808,47388.69999998808,47934.5,48845.59999996424,49431.09999996424,49746.19999998808,50475.19999998808,51231.09999996424,51566.19999998808,51998.89999997616,52304.89999997616,52640.89999997616,52919.39999997616,53600.69999998808,53935.799999952316,55084.59999996424,55362.19999998808,56130.299999952316,56456.19999998808,57201.59999996424,57576.799999952316],"key_events":[],"mouse_events":[6083.199999988079,7934.199999988079,8142.899999976158,8354.599999964237,8555.5,9006.699999988079,9178.5,10118.399999976158,12067.099999964237,12460.099999964237,12777.699999988079,13083.299999952316,14156.099999964237,15373.5,17859.69999998808,18702.69999998808,19652.799999952316,20026.799999952316,20427.299999952316,21173.69999998808,21678.69999998808,21937.599999964237,22723.69999998808,23243.19999998808,23654.399999976158,23942.599999964237,24854.5,25506.399999976158,26446.099999964237,26743.799999952316,27098.099999964237,27510.19999998808,27749.19999998808,28371.5,33378.5,34108.39999997616,34931.5,35181.69999998808,35680.09999996424,35977.299999952316,36361.69999998808,37680.69999998808,38217.5,38448.19999998808,45873.299999952316,47388.69999998808,47934.5,48845.59999996424,49431.09999996424,49746.19999998808,50475.19999998808,51231.09999996424,51566.19999998808,51998.89999997616,52304.89999997616,52640.89999997616,52919.39999997616,53600.69999998808,53935.799999952316,55084.59999996424,55362.19999998808,56130.299999952316,56456.19999998808,57201.59999996424,57576.799999952316,59685.59999996424],"honeypot":0,"survey":"mace","page":9,"trial_type":"survey-mace","trial_index":17,"time_elapsed":714551,"internal_node_id":"0.0-17.0","task_version":"prescreen-v0.3","browser_interactions":0},{"responses":{"01":"Yes","01_ages_9":"9","01_ages_10":"10","01_ages_11":"11","01_ages_12":"12","01_ages_13":"13","01_ages_14":"14","01_ages_15":"15","02":"No","03":"Yes","03_ages_9":"9","03_ages_10":"10","03_ages_11":"11","03_ages_12":"12","03_ages_13":"13","03_ages_14":"14","03_ages_15":"15","03_ages_16":"16","03_ages_17":"17","03_ages_18":"18","04":"Yes","04_ages_9":"9","04_ages_10":"10","04_ages_11":"11","04_ages_12":"12","04_ages_13":"13","04_ages_14":"14","04_ages_15":"15","04_ages_16":"16","04_ages_17":"17","04_ages_18":"18","05":"No","06":"Yes","06_ages_17":"17","07":"No","08":"No"},"rt":41708,"item_order":[0,1,2,3,4,5,6,7],"radio_events":[2909.100000023842,9037.100000023842,11644.600000023842,20307.700000047684,28028.30000001192,31732.100000023842,38322.200000047684,40258.10000002384],"checkbox_events":[4291.100000023842,4844.5,5735.800000011921,5976.100000023842,6369.600000023842,6743.300000011921,7022.400000035763,13103.300000011921,13474.600000023842,13840,14330,14760.900000035763,15086.800000011921,15500,16773.700000047684,17041.30000001192,17301.600000023842,21058.400000035763,21267.80000001192,21566.900000035763,21920.5,22255.5,22773.30000001192,23098.900000035763,23579.5,24550.5,24921.600000023842,33258.200000047684],"key_events":[],"mouse_events":[2909.100000023842,4291.100000023842,4844.5,5735.800000011921,5976.100000023842,6369.600000023842,6743.300000011921,7022.400000035763,9037.100000023842,11644.600000023842,13103.300000011921,13474.600000023842,13840,14330,14760.900000035763,15086.800000011921,15500,16773.700000047684,17041.30000001192,17301.600000023842,19823.600000023842,20307.700000047684,21058.400000035763,21267.80000001192,21566.900000035763,21920.5,22255.5,22773.30000001192,23098.900000035763,23579.5,24550.5,24921.600000023842,28028.30000001192,31732.100000023842,33258.200000047684,38322.200000047684,40258.10000002384,41696.60000002384],"honeypot":0,"survey":"mace","page":10,"trial_type":"survey-mace","trial_index":18,"time_elapsed":756276,"internal_node_id":"0.0-18.0","task_version":"prescreen-v0.3","browser_interactions":0,"instructed":0},{"rt":2967.2999999523163,"trial_type":"mental-health-alert","trial_index":19,"time_elapsed":759248,"internal_node_id":"0.0-19.0","task_version":"prescreen-v0.3","interactions":"[{\"event\":\"blur\",\"trial\":15,\"time\":536164},{\"event\":\"focus\",\"trial\":15,\"time\":541034}]"}]