[{"view_history":[{"page_index":0,"viewing_time":2027.5},{"page_index":1,"viewing_time":951.4000000059605},{"page_index":2,"viewing_time":780.7999999821186},{"page_index":3,"viewing_time":824.0999999940395}],"rt":4585.0999999940395,"trial_type":"instructions","trial_index":0,"time_elapsed":4603,"internal_node_id":"0.0-0.0","task_version":"prescreen-v0.3"},{"rt":14717.399999976158,"responses":{"age":"32","gender-categorical":"Female","gender-free-response":"","ethnicity":"Not Hispanic or Latino","race":["White"],"education":"Some college"},"trial_type":"survey-demo","trial_index":1,"time_elapsed":19332,"internal_node_id":"0.0-1.0","task_version":"prescreen-v0.3"},{"responses":{"Q08":"1","Q01":"1","Q05":"2","Q02":"0","Q13":"2","Q16":"2","Q15":"2","Q20":"2","Q17":"1","Q11":"1","Q10":"0","Q07":"0","Q03":"0","Q04":"0","Q12":"0","Q19":"1","Q06":"1","Q14":"2","Q18":"1","Q21":"3","Q09":"0"},"rt":149207.80000001192,"item_order":[7,0,4,1,12,15,14,19,16,10,9,6,2,3,11,18,5,13,17,20,8],"radio_events":[30353.59999999404,33880,45051.5,51114.40000000596,57724.59999999404,65579.59999999404,71702.70000001788,73752.59999999404,77846.40000000596,80624.09999999404,85250.20000001788,86311.09999999404,87128.70000001788,92085.80000001192,96723.09999999404,99918.09999999404,110524.20000001788,119208.09999999404,128111.30000001192,133016.5,136440.5,141891.20000001788,148398.40000000596],"key_events":[],"mouse_events":[30353.59999999404,33880,45051.5,51114.40000000596,57724.59999999404,65579.59999999404,71702.70000001788,73752.59999999404,77846.40000000596,80624.09999999404,85250.20000001788,86311.09999999404,87128.70000001788,92085.80000001192,96723.09999999404,99918.09999999404,110524.20000001788,119208.09999999404,128111.30000001192,133016.5,136440.5,141891.20000001788,148398.40000000596,149203.40000000596],"straightlining":0.3333333333333333,"zigzagging":0.35,"honeypot":0,"survey":"sns","trial_type":"survey-template","trial_index":2,"time_elapsed":168553,"internal_node_id":"0.0-2.0","task_version":"prescreen-v0.3","browser_interactions":2,"infrequency":0},{"responses":{"Q08":"2","Q07":"3","Q13":"0","Q01":"1","Q12":"1","Q04":"2","Q03":"2","Q11":"2","Q02":"2","Q10":"2","Q05":"2","Q09":"2","Q06":"2"},"rt":73325.89999997616,"item_order":[7,6,12,0,11,3,2,10,1,9,4,8,5],"radio_events":[14458.199999988079,15436.699999988079,19681.69999998808,24057.5,27888.19999998808,30692.899999976158,47363.19999998808,49857.89999997616,54067.09999999404,59030.09999999404,59717.5,66099.69999998808,71846.09999999404],"key_events":[],"mouse_events":[11645.199999988079,14458.199999988079,15436.699999988079,19681.69999998808,24057.5,27888.19999998808,30692.899999976158,47363.19999998808,49857.89999997616,54067.09999999404,56489,57002.59999999404,58475.29999998212,59030.09999999404,59717.5,60438.79999998212,66099.69999998808,66716,71197.79999998212,71846.09999999404,73320.5],"straightlining":0.6923076923076923,"zigzagging":0.3333333333333333,"honeypot":0,"survey":"bisbas","trial_type":"survey-template","trial_index":3,"time_elapsed":241889,"internal_node_id":"0.0-3.0","task_version":"prescreen-v0.3","browser_interactions":2,"infrequency":0},{"responses":{"Q01":"3","Q02":"3","Q03":"3"},"rt":16171.90000000596,"radio_events":[9009.90000000596,12151.90000000596,15576.59999999404],"key_events":[],"mouse_events":[9009.90000000596,12151.90000000596,15576.59999999404,16170],"survey":"map","page":1,"trial_type":"survey-map","trial_index":4,"time_elapsed":258069,"internal_node_id":"0.0-4.0","task_version":"prescreen-v0.3","browser_interactions":0},{"responses":{"Q04":"2","Q05":"2","Q06":"2"},"rt":11763.300000011921,"radio_events":[6160.199999988079,9372.199999988079,10961.300000011921],"key_events":[],"mouse_events":[6160.199999988079,9372.199999988079,10961.300000011921,11762.40000000596],"survey":"map","page":2,"trial_type":"survey-map","trial_index":5,"time_elapsed":269837,"internal_node_id":"0.0-5.0","task_version":"prescreen-v0.3","browser_interactions":0},{"responses":{"Q07":"3","Q08":"3","Q09":"3"},"rt":22912.19999998808,"radio_events":[6092.0999999940395,21503.899999976158,22368.399999976158],"key_events":[],"mouse_events":[6092.0999999940395,21503.899999976158,22368.399999976158,22911.69999998808],"survey":"map","page":3,"trial_type":"survey-map","trial_index":6,"time_elapsed":292753,"internal_node_id":"0.0-6.0","task_version":"prescreen-v0.3","browser_interactions":2},{"responses":{"Q10":"2","Q11":"2","Q12":"1","Q13":"1","Q16":"0","Q14":"2","Q15":"2"},"rt":26754.30000001192,"radio_events":[8038.4000000059605,8889.699999988079,12066.40000000596,13982.300000011921,19678.69999998808,24044.59999999404,25919.19999998808],"key_events":[],"mouse_events":[7375.9000000059605,8038.4000000059605,8889.699999988079,12066.40000000596,13982.300000011921,17736.09999999404,18693.59999999404,18861.19999998808,19678.69999998808,24044.59999999404,25919.19999998808,26753],"survey":"map","page":4,"trial_type":"survey-map","trial_index":7,"time_elapsed":319508,"internal_node_id":"0.0-7.0","task_version":"prescreen-v0.3","browser_interactions":0,"infrequency":0},{"view_history":[{"page_index":0,"viewing_time":2469.4000000059605},{"page_index":1,"viewing_time":7529.4000000059605}],"rt":9999.40000000596,"trial_type":"instructions","trial_index":8,"time_elapsed":329491,"internal_node_id":"0.0-8.0","task_version":"prescreen-v0.3"},{"responses":{"01":"No","02":"Yes","02_ages_15":"15","02_ages_16":"16","02_ages_17":"17","02_ages_18":"18","03":"No","04":"No","05":"No","06":"No"},"rt":52070.20000001788,"item_order":[0,1,2,3,4,5],"radio_events":[32547,36900.20000001788,41393.70000001788,47122.40000000596,48405.20000001788,50328.60000002384,51521.80000001192],"checkbox_events":[42640,43134.20000001788,43548.60000002384,44029],"key_events":[],"mouse_events":[0.20000001788139343,32547,36900.20000001788,41393.70000001788,42640,43134.20000001788,43548.60000002384,44029,47122.40000000596,48405.20000001788,50328.60000002384,51521.80000001192,52066.80000001192],"honeypot":0,"survey":"mace","page":1,"trial_type":"survey-mace","trial_index":9,"time_elapsed":381553,"internal_node_id":"0.0-9.0","task_version":"prescreen-v0.3","browser_interactions":0},{"responses":{"01":"No","02":"No","03":"No","04":"No","05":"No","06":"No","07":"No","08":"No"},"rt":14362.800000011921,"item_order":[0,1,2,3,4,5,6,7],"radio_events":[2664.7000000178814,4449.800000011921,5416.200000017881,6168.9000000059605,7510.5,9887.200000017881,12652.90000000596,13726.800000011921],"checkbox_events":[],"key_events":[],"mouse_events":[2664.7000000178814,4449.800000011921,5416.200000017881,6168.9000000059605,7510.5,9887.200000017881,12652.90000000596,13726.800000011921,14358.300000011921],"honeypot":0,"survey":"mace","page":2,"trial_type":"survey-mace","trial_index":10,"time_elapsed":395924,"internal_node_id":"0.0-10.0","task_version":"prescreen-v0.3","browser_interactions":0},{"responses":{"01":"No","02":"No","03":"No","04":"No"},"rt":11185.59999999404,"item_order":[0,1,2,3],"radio_events":[7121.0999999940395,9246,9904.699999988079,10744.699999988079],"checkbox_events":[],"key_events":[],"mouse_events":[7121.0999999940395,8160.699999988079,9246,9904.699999988079,10744.699999988079,11183.199999988079],"honeypot":0,"survey":"mace","page":3,"trial_type":"survey-mace","trial_index":11,"time_elapsed":407114,"internal_node_id":"0.0-11.0","task_version":"prescreen-v0.3","browser_interactions":0},{"responses":{"01":"No","02":"No"},"rt":4792.199999988079,"item_order":[0,1],"radio_events":[3366.899999976158,4326.899999976158],"checkbox_events":[],"key_events":[],"mouse_events":[1693.5,2805.0999999940395,3366.899999976158,3918.5,4326.899999976158,4791.0999999940395],"honeypot":0,"survey":"mace","page":4,"trial_type":"survey-mace","trial_index":12,"time_elapsed":411912,"internal_node_id":"0.0-12.0","task_version":"prescreen-v0.3","browser_interactions":0},{"responses":{"01":"No","02":"No","03":"No","04":"No","05":"No"},"rt":7406.799999982119,"item_order":[0,1,2,3,4],"radio_events":[2676.699999988079,3297.9000000059605,3973.2999999821186,5546.299999982119,6764.699999988079],"checkbox_events":[],"key_events":[],"mouse_events":[2676.699999988079,3297.9000000059605,3973.2999999821186,4909.9000000059605,5546.299999982119,6764.699999988079,7403.699999988079],"honeypot":0,"survey":"mace","page":5,"trial_type":"survey-mace","trial_index":13,"time_elapsed":419327,"internal_node_id":"0.0-13.0","task_version":"prescreen-v0.3","browser_interactions":0},{"responses":{"01":"Yes","01_ages_12":"12","01_ages_13":"13","01_ages_14":"14","01_ages_15":"15","01_ages_16":"16","01_ages_17":"17","01_ages_18":"18","02":"Yes","02_ages_12":"12","02_ages_13":"13","02_ages_14":"14","02_ages_15":"15","02_ages_16":"16","02_ages_17":"17","02_ages_18":"18","03":"Yes","03_ages_12":"12","03_ages_13":"13","03_ages_14":"14","03_ages_15":"15","03_ages_16":"16","03_ages_17":"17","03_ages_18":"18","04":"Yes","04_ages_12":"12","04_ages_13":"13","04_ages_14":"14","04_ages_15":"15","04_ages_16":"16","04_ages_17":"17","04_ages_18":"18","05":"No"},"rt":50282.39999997616,"item_order":[0,1,2,3,4],"radio_events":[2972.5999999940395,4061.899999976158,11092.09999999404,20904.29999998212,31057.29999998212,39275.39999997616,49669.29999998212],"checkbox_events":[13700.699999988079,15072.09999999404,15479.799999982119,16305.199999988079,16720.5,17817.29999998212,18307,23476.899999976158,23916.899999976158,24854.19999998808,26102.5,26525.5,26979.09999999404,27445.59999999404,32297.09999999404,32865.59999999404,33394.59999999404,33961.5,35261.5,35797.79999998212,40311.19999998808,42005.19999998808,43385.69999998808,43932.19999998808,44585.39999997616,45173.09999999404,45765.89999997616,46819.19999998808],"key_events":[],"mouse_events":[2972.5999999940395,4061.899999976158,9173.199999988079,9780.799999982119,11092.09999999404,13700.699999988079,14146.59999999404,14688.09999999404,15072.09999999404,15479.799999982119,15904.59999999404,16305.199999988079,16720.5,17201.19999998808,17817.29999998212,18307,20904.29999998212,21946.899999976158,22475.5,23068.69999998808,23476.899999976158,23916.899999976158,24381,24854.19999998808,25262.5,25685.59999999404,26102.5,26525.5,26979.09999999404,27445.59999999404,30452.09999999404,31057.29999998212,31745.5,32297.09999999404,32865.59999999404,33394.59999999404,33961.5,34608.5,35261.5,35797.79999998212,36334.59999999404,36872.39999997616,39275.39999997616,40311.19999998808,41373.69999998808,42005.19999998808,42742.59999999404,43385.69999998808,43932.19999998808,44585.39999997616,45173.09999999404,45765.89999997616,46341.79999998212,46819.19999998808,49669.29999998212,50277.29999998212],"honeypot":0,"survey":"mace","page":6,"trial_type":"survey-mace","trial_index":14,"time_elapsed":469615,"internal_node_id":"0.0-14.0","task_version":"prescreen-v0.3","browser_interactions":0},{"responses":{"01":"No","02":"No","03":"No","04":"No","05":"No","06":"No","07":"No"},"rt":12840,"item_order":[0,1,2,3,4,5,6],"radio_events":[3572.699999988079,5397.699999988079,6765,8207.800000011921,9008.40000000596,10940.5,11734.40000000596],"checkbox_events":[],"key_events":[],"mouse_events":[3572.699999988079,5397.699999988079,6765,7551.199999988079,8207.800000011921,9008.40000000596,10043,10940.5,11734.40000000596,12831.09999999404],"honeypot":0,"survey":"mace","page":7,"trial_type":"survey-mace","trial_index":15,"time_elapsed":482463,"internal_node_id":"0.0-15.0","task_version":"prescreen-v0.3","browser_interactions":0},{"responses":{"01":"No","02":"No","02_ages_12":"12","02_ages_13":"13","02_ages_14":"14","02_ages_15":"15","02_ages_16":"16","02_ages_17":"17","03":"No","04":"No"},"rt":30585.80000001192,"item_order":[0,1,2,3],"radio_events":[11528.100000023842,14010.100000023842,24903,28411.600000023842,29451.70000001788],"checkbox_events":[17801,18880.90000000596,19980.30000001192,20539.90000000596,22778.40000000596,23359.70000001788],"key_events":[],"mouse_events":[11528.100000023842,13417.100000023842,14010.100000023842,17801,18320.40000000596,18880.90000000596,19395.90000000596,19980.30000001192,20539.90000000596,22168.90000000596,22778.40000000596,23359.70000001788,24404.100000023842,24903,28411.600000023842,29451.70000001788,30582.30000001192],"honeypot":0,"survey":"mace","page":8,"trial_type":"survey-mace","trial_index":16,"time_elapsed":513055,"internal_node_id":"0.0-16.0","task_version":"prescreen-v0.3","browser_interactions":0},{"responses":{"01":"Yes","01_ages_1":"1","01_ages_2":"2","01_ages_3":"3","01_ages_4":"4","01_ages_5":"5","01_ages_6":"6","01_ages_7":"7","01_ages_8":"8","01_ages_9":"9","01_ages_10":"10","01_ages_11":"11","01_ages_12":"12","01_ages_13":"13","01_ages_14":"14","01_ages_15":"15","01_ages_16":"16","01_ages_17":"17","01_ages_18":"18","02":"Yes","02_ages_1":"1","02_ages_2":"2","02_ages_3":"3","02_ages_4":"4","02_ages_5":"5","02_ages_6":"6","02_ages_7":"7","02_ages_8":"8","02_ages_9":"9","02_ages_10":"10","02_ages_11":"11","02_ages_12":"12","02_ages_13":"13","02_ages_14":"14","02_ages_15":"15","02_ages_16":"16","02_ages_17":"17","02_ages_18":"18","03":"Yes","03_ages_1":"1","03_ages_2":"2","03_ages_3":"3","03_ages_4":"4","03_ages_5":"5","03_ages_6":"6","03_ages_7":"7","03_ages_8":"8","03_ages_9":"9","03_ages_10":"10","03_ages_11":"11","03_ages_12":"12","03_ages_13":"13","03_ages_14":"14","03_ages_15":"15","03_ages_16":"16","03_ages_17":"17","03_ages_18":"18","04":"Yes","04_ages_1":"1","04_ages_2":"2","04_ages_3":"3","04_ages_4":"4","04_ages_5":"5","04_ages_6":"6","04_ages_7":"7","04_ages_8":"8","04_ages_9":"9","04_ages_10":"10","04_ages_11":"11","04_ages_12":"12","04_ages_13":"13","04_ages_14":"14","04_ages_15":"15","04_ages_16":"16","04_ages_17":"17","04_ages_18":"18"},"rt":85122.69999998808,"item_order":[0,1,2,3],"radio_events":[9529.199999988079,28632.40000000596,51131.5,70302.69999998808],"checkbox_events":[14716.800000011921,15450.40000000596,16283.800000011921,16810.59999999404,17355.80000001192,17922,18443.09999999404,19009.5,19504.5,20010.90000000596,21036.90000000596,21571,22456.69999998808,22980.40000000596,23569,24120.59999999404,24635,26016.5,32384,32924.5,34190.19999998808,34751.30000001192,35366.40000000596,36602.40000000596,37474.30000001192,38139.30000001192,39068.19999998808,39608.80000001192,40273.09999999404,40899.30000001192,42210,42790,43361.80000001192,43943.40000000596,44511.09999999404,45240,53303.40000000596,53853.19999998808,56723.09999999404,58510.59999999404,58957.5,59421.80000001192,59863.90000000596,60327.30000001192,60779,61227,61678,62164,62676.40000000596,63102.69999998808,63556.59999999404,64060.80000001192,65163.40000000596,65812,71485.90000000596,72010.90000000596,72458,73390.09999999404,74255.09999999404,74703,75607.40000000596,76857.40000000596,77707.30000001192,78427.69999998808,79390.80000001192,80149.19999998808,80792,81499.40000000596,82103.09999999404,82874.30000001192,83492,84093.5],"key_events":[],"mouse_events":[8191.9000000059605,8899.40000000596,9529.199999988079,13927.699999988079,14716.800000011921,15450.40000000596,16283.800000011921,16810.59999999404,17355.80000001192,17922,18443.09999999404,19009.5,19504.5,20010.90000000596,20505,21036.90000000596,21571,22456.69999998808,22980.40000000596,23569,24120.59999999404,24635,25184.09999999404,26016.5,27840.19999998808,28632.40000000596,30420.59999999404,31516.30000001192,32384,32924.5,33453.59999999404,34190.19999998808,34751.30000001192,35366.40000000596,35957.90000000596,36602.40000000596,37474.30000001192,38139.30000001192,39068.19999998808,39608.80000001192,40273.09999999404,40899.30000001192,41593.59999999404,42210,42790,43361.80000001192,43943.40000000596,44511.09999999404,45240,50408.30000001192,51131.5,52606.59999999404,53303.40000000596,53853.19999998808,55143.09999999404,55734.19999998808,56723.09999999404,58510.59999999404,58957.5,59421.80000001192,59863.90000000596,60327.30000001192,60779,61227,61678,62164,62676.40000000596,63102.69999998808,63556.59999999404,64060.80000001192,64511.40000000596,65163.40000000596,65812,69391.19999998808,70302.69999998808,71485.90000000596,72010.90000000596,72458,72899.30000001192,73390.09999999404,73831.19999998808,74255.09999999404,74703,75189.09999999404,75607.40000000596,76857.40000000596,77707.30000001192,78427.69999998808,79390.80000001192,80149.19999998808,80792,81499.40000000596,82103.09999999404,82874.30000001192,83492,84093.5,85120.40000000596],"honeypot":0,"survey":"mace","page":9,"trial_type":"survey-mace","trial_index":17,"time_elapsed":598189,"internal_node_id":"0.0-17.0","task_version":"prescreen-v0.3","browser_interactions":0},{"responses":{"01":"No","02":"No","03":"No","04":"No","05":"No","06":"Yes","06_ages_17":"17","07":"No","08":"No"},"rt":38090.5,"item_order":[0,1,2,3,4,5,6,7],"radio_events":[4516.300000011921,5425.5,6310.700000017881,7842.9000000059605,11761.5,22017.5,31847.59999999404,34671.90000000596,37411.20000001788],"checkbox_events":[23491.5],"key_events":[],"mouse_events":[4516.300000011921,5425.5,6310.700000017881,7842.9000000059605,11761.5,21208.09999999404,22017.5,23491.5,31847.59999999404,34671.90000000596,37411.20000001788,38083.30000001192],"honeypot":0,"survey":"mace","page":10,"trial_type":"survey-mace","trial_index":18,"time_elapsed":636290,"internal_node_id":"0.0-18.0","task_version":"prescreen-v0.3","browser_interactions":0,"instructed":0},{"rt":1777.0999999940395,"trial_type":"mental-health-alert","trial_index":19,"time_elapsed":638071,"internal_node_id":"0.0-19.0","task_version":"prescreen-v0.3","interactions":"[{\"event\":\"blur\",\"trial\":2,\"time\":23582},{\"event\":\"focus\",\"trial\":2,\"time\":41588},{\"event\":\"blur\",\"trial\":3,\"time\":201296},{\"event\":\"focus\",\"trial\":3,\"time\":209432},{\"event\":\"blur\",\"trial\":6,\"time\":278199},{\"event\":\"focus\",\"trial\":6,\"time\":281791}]"}]