[{"view_history":[{"page_index":0,"viewing_time":4232.5},{"page_index":1,"viewing_time":6990},{"page_index":2,"viewing_time":5544.20000000298},{"page_index":3,"viewing_time":1605.3999999910593}],"rt":18373.59999999404,"trial_type":"instructions","trial_index":0,"time_elapsed":18384,"internal_node_id":"0.0-0.0","task_version":"prescreen-v0.3"},{"rt":12702.20000000298,"responses":{"age":"21","gender-categorical":"Female","gender-free-response":"","ethnicity":"Not Hispanic or Latino","race":["American Indian/Alaska Native"],"education":"Some college"},"trial_type":"survey-demo","trial_index":1,"time_elapsed":31096,"internal_node_id":"0.0-1.0","task_version":"prescreen-v0.3"},{"responses":{"Q07":"1","Q21":"3","Q08":"2","Q15":"3","Q16":"2","Q18":"2","Q01":"2","Q10":"2","Q17":"1","Q11":"1","Q09":"1","Q06":"1","Q05":"1","Q03":"0","Q12":"2","Q13":"3","Q14":"2","Q20":"0","Q04":"1","Q19":"1","Q02":"1"},"rt":115534.5,"item_order":[6,20,7,14,15,17,0,9,16,10,8,5,4,2,11,12,13,19,3,18,1],"radio_events":[8776.20000000298,18300.5,22848.39999999106,28687.09999999404,34823.79999999702,38649.39999999106,41914.09999999404,49620,55050.70000000298,61566.29999999702,62571.09999999404,66379.79999999702,67669.20000000298,70992.29999999702,72199.79999999702,83698.5,88311.09999999404,92922.29999999702,95231.70000000298,102530.5,104912.79999999702,109880,114392.39999999106],"key_events":[],"mouse_events":[8776.20000000298,17028.20000000298,18300.5,22848.39999999106,28687.09999999404,34823.79999999702,38649.39999999106,41914.09999999404,49620,52367.39999999106,55050.70000000298,55845,59347.70000000298,60180.20000000298,61566.29999999702,62571.09999999404,64840.20000000298,66379.79999999702,67669.20000000298,70992.29999999702,72199.79999999702,83698.5,88311.09999999404,90880.09999999404,92922.29999999702,95231.70000000298,102530.5,104912.79999999702,109880,113623.59999999404,114392.39999999106,115527.29999999702],"straightlining":0.42857142857142855,"zigzagging":0.4,"honeypot":0,"survey":"sns","trial_type":"survey-template","trial_index":2,"time_elapsed":146644,"internal_node_id":"0.0-2.0","task_version":"prescreen-v0.3","browser_interactions":0,"infrequency":0},{"responses":{"Q09":"1","Q01":"3","Q05":"3","Q08":"3","Q06":"2","Q07":"1","Q04":"3","Q03":"3","Q11":"1","Q10":"1","Q02":"3","Q12":"1","Q13":"0"},"rt":88321.59999999404,"item_order":[8,0,4,7,5,6,3,2,10,9,1,11,12],"radio_events":[7893.899999991059,11369.199999988079,12431.59999999404,17658.69999998808,26549.39999999106,33626.59999999404,36698.19999998808,42038,46696.5,56310.79999999702,61623.59999999404,64217,69679.29999999702,73096.19999998808,81277,86453.09999999404],"key_events":[],"mouse_events":[7893.899999991059,11369.199999988079,12431.59999999404,17658.69999998808,26549.39999999106,32817.89999999106,33626.59999999404,36698.19999998808,41089.89999999106,42038,46696.5,56310.79999999702,61623.59999999404,64217,68242.79999999702,69679.29999999702,72188.69999998808,73096.19999998808,81277,85318.5,86453.09999999404,88317.09999999404],"straightlining":0.46153846153846156,"zigzagging":0.25,"honeypot":0,"survey":"bisbas","trial_type":"survey-template","trial_index":3,"time_elapsed":234974,"internal_node_id":"0.0-3.0","task_version":"prescreen-v0.3","browser_interactions":0,"infrequency":0},{"responses":{"Q01":"3","Q02":"2","Q03":"4"},"rt":24459.39999999106,"radio_events":[5823.399999991059,14394.39999999106,23233.19999998808],"key_events":[],"mouse_events":[5823.399999991059,14394.39999999106,21547.5,23233.19999998808,24456.39999999106],"survey":"map","page":1,"trial_type":"survey-map","trial_index":4,"time_elapsed":259439,"internal_node_id":"0.0-4.0","task_version":"prescreen-v0.3","browser_interactions":0},{"responses":{"Q04":"2","Q05":"1","Q06":"2"},"rt":15817.300000011921,"radio_events":[6789.9000000059605,10402.90000000596,14299.90000000596],"key_events":[],"mouse_events":[6789.9000000059605,10402.90000000596,14299.90000000596,15814.90000000596],"survey":"map","page":2,"trial_type":"survey-map","trial_index":5,"time_elapsed":275261,"internal_node_id":"0.0-5.0","task_version":"prescreen-v0.3","browser_interactions":0},{"responses":{"Q07":"1","Q08":"4","Q09":"4"},"rt":21305.70000000298,"radio_events":[7603.4000000059605,15639.800000011921,20209],"key_events":[],"mouse_events":[7603.4000000059605,14635.10000000894,15639.800000011921,18841.20000000298,20209,21303.20000000298],"survey":"map","page":3,"trial_type":"survey-map","trial_index":6,"time_elapsed":296571,"internal_node_id":"0.0-6.0","task_version":"prescreen-v0.3","browser_interactions":0},{"responses":{"Q10":"3","Q11":"4","Q12":"2","Q13":"3","Q16":"0","Q14":"4","Q15":"3"},"rt":47846.29999999702,"radio_events":[6651,15734.79999999702,21082.09999999404,27174.39999999106,30706.5,38144.69999998808,46593.79999999702],"key_events":[],"mouse_events":[6651,14470.5,15734.79999999702,21082.09999999404,27174.39999999106,30706.5,38144.69999998808,45711.59999999404,46593.79999999702,47842.19999998808],"survey":"map","page":4,"trial_type":"survey-map","trial_index":7,"time_elapsed":344425,"internal_node_id":"0.0-7.0","task_version":"prescreen-v0.3","browser_interactions":0,"infrequency":0},{"view_history":[{"page_index":0,"viewing_time":3791.2000000029802},{"page_index":1,"viewing_time":5443.5999999940395}],"rt":9237.59999999404,"trial_type":"instructions","trial_index":8,"time_elapsed":353665,"internal_node_id":"0.0-8.0","task_version":"prescreen-v0.3"},{"responses":{"01":"No","02":"Yes","02_ages_16":"16","02_ages_17":"17","02_ages_18":"18","03":"No","04":"No","05":"No","06":"No"},"rt":51838.90000000596,"item_order":[0,1,2,3,4,5],"radio_events":[12688.29999999702,16162.90000000596,43727.20000000298,46026.70000000298,48320.20000000298,50847.20000000298],"checkbox_events":[19673.59999999404,22840.79999999702,25117.70000000298,25862.5,26981.59999999404,27653.79999999702,28326.20000000298,28990.20000000298,31923.40000000596,32619.90000000596,33746.40000000596,35034.90000000596,35933.70000000298,36663.20000000298,37384.20000000298],"key_events":[],"mouse_events":[0.09999999403953552,12688.29999999702,16162.90000000596,19673.59999999404,22840.79999999702,25117.70000000298,25862.5,26981.59999999404,27653.79999999702,28326.20000000298,28990.20000000298,31923.40000000596,32619.90000000596,33746.40000000596,34403,35034.90000000596,35933.70000000298,36663.20000000298,37384.20000000298,43727.20000000298,46026.70000000298,48320.20000000298,50847.20000000298,51827.90000000596],"honeypot":0,"survey":"mace","page":1,"trial_type":"survey-mace","trial_index":9,"time_elapsed":405518,"internal_node_id":"0.0-9.0","task_version":"prescreen-v0.3","browser_interactions":0},{"responses":{"01":"No","02":"No","03":"No","04":"No","05":"No","06":"Yes","06_ages_6":"6","06_ages_7":"7","06_ages_8":"8","06_ages_9":"9","06_ages_10":"10","07":"No","08":"No"},"rt":47939.90000000596,"item_order":[0,1,2,3,4,5,6,7],"radio_events":[3855.1000000089407,6075.29999999702,9445,13057.40000000596,15228.40000000596,18023.20000000298,24949.90000000596,26699.90000000596,31406.60000000894],"checkbox_events":[35108.90000000596,37288.79999999702,39023.20000000298,40497.10000000894,41242.20000000298,42028.5,45099.40000000596],"key_events":[],"mouse_events":[3855.1000000089407,6075.29999999702,9445,11357,13057.40000000596,14030.10000000894,15228.40000000596,16937.90000000596,18023.20000000298,22681.20000000298,24949.90000000596,26699.90000000596,31406.60000000894,35108.90000000596,37288.79999999702,39023.20000000298,40497.10000000894,41242.20000000298,42028.5,45099.40000000596,47927.29999999702],"honeypot":0,"survey":"mace","page":2,"trial_type":"survey-mace","trial_index":10,"time_elapsed":453466,"internal_node_id":"0.0-10.0","task_version":"prescreen-v0.3","browser_interactions":0},{"responses":{"01":"No","02":"No","03":"No","04":"No"},"rt":10601.300000011921,"item_order":[0,1,2,3],"radio_events":[2840.9000000059605,4428.20000000298,7735,9256.90000000596],"checkbox_events":[],"key_events":[],"mouse_events":[2840.9000000059605,4428.20000000298,7735,9256.90000000596,10593.10000000894],"honeypot":0,"survey":"mace","page":3,"trial_type":"survey-mace","trial_index":11,"time_elapsed":464072,"internal_node_id":"0.0-11.0","task_version":"prescreen-v0.3","browser_interactions":0},{"responses":{"01":"No","02":"No"},"rt":6796.800000011921,"item_order":[0,1],"radio_events":[3835.7000000029802,6015.5],"checkbox_events":[],"key_events":[],"mouse_events":[3835.7000000029802,6015.5,6792.70000000298],"honeypot":0,"survey":"mace","page":4,"trial_type":"survey-mace","trial_index":12,"time_elapsed":470875,"internal_node_id":"0.0-12.0","task_version":"prescreen-v0.3","browser_interactions":0},{"responses":{"01":"No","02":"No","03":"No","04":"No","05":"No"},"rt":17540,"item_order":[0,1,2,3,4],"radio_events":[5070.399999991059,8570,10588.79999999702,15553.199999988079,16492.89999999106],"checkbox_events":[],"key_events":[],"mouse_events":[5070.399999991059,8570,10588.79999999702,14103.59999999404,15553.199999988079,16492.89999999106,17530.09999999404],"honeypot":0,"survey":"mace","page":5,"trial_type":"survey-mace","trial_index":13,"time_elapsed":488420,"internal_node_id":"0.0-13.0","task_version":"prescreen-v0.3","browser_interactions":0},{"responses":{"01":"Yes","01_ages_6":"6","01_ages_7":"7","01_ages_8":"8","01_ages_9":"9","01_ages_10":"10","01_ages_11":"11","01_ages_12":"12","01_ages_13":"13","01_ages_14":"14","01_ages_15":"15","01_ages_16":"16","01_ages_17":"17","01_ages_18":"18","02":"Yes","02_ages_5":"5","02_ages_6":"6","02_ages_7":"7","02_ages_8":"8","02_ages_9":"9","02_ages_10":"10","02_ages_11":"11","02_ages_12":"12","02_ages_13":"13","02_ages_14":"14","02_ages_15":"15","02_ages_16":"16","02_ages_17":"17","02_ages_18":"18","03":"Yes","03_ages_17":"17","03_ages_18":"18","04":"Yes","04_ages_15":"15","04_ages_16":"16","04_ages_17":"17","04_ages_18":"18","05":"No"},"rt":68444.79999999702,"item_order":[0,1,2,3,4],"radio_events":[8895.29999999702,28110.39999999106,50240.39999999106,57433.29999999702,67657],"checkbox_events":[14346.89999999106,14938.699999988079,16688.5,17854.69999998808,19029.5,19701.09999999404,20308.89999999106,21135.5,21742.5,23307.19999998808,23994.69999998808,24893.5,25745.29999999702,31755.39999999106,33115.69999998808,35084.09999999404,36956,39717.59999999404,41492.19999998808,42180.79999999702,42876.79999999702,43548.5,44367.59999999404,45176.89999999106,45914.59999999404,46708.19999998808,47494.29999999702,53812.39999999106,54534.09999999404,60471.69999998808,61117.69999998808,61953.39999999106,62642.69999998808],"key_events":[],"mouse_events":[8895.29999999702,14346.89999999106,14938.699999988079,15545.59999999404,16688.5,17854.69999998808,19029.5,19701.09999999404,20308.89999999106,21135.5,21742.5,22374.5,23307.19999998808,23994.69999998808,24893.5,25745.29999999702,28110.39999999106,31755.39999999106,32346.79999999702,33115.69999998808,34233.89999999106,35084.09999999404,35991.5,36956,37798,39717.59999999404,40665.69999998808,41492.19999998808,42180.79999999702,42876.79999999702,43548.5,44367.59999999404,45176.89999999106,45914.59999999404,46708.19999998808,47494.29999999702,50240.39999999106,53812.39999999106,54534.09999999404,57433.29999999702,60471.69999998808,61117.69999998808,61953.39999999106,62642.69999998808,67657,68435.69999998808],"honeypot":0,"survey":"mace","page":6,"trial_type":"survey-mace","trial_index":14,"time_elapsed":556872,"internal_node_id":"0.0-14.0","task_version":"prescreen-v0.3","browser_interactions":0},{"responses":{"01":"No","02":"No","03":"Yes","03_ages_6":"6","03_ages_7":"7","04":"No","05":"No","06":"No","07":"Yes","07_ages_18":"18"},"rt":45327.39999999106,"item_order":[0,1,2,3,4,5,6],"radio_events":[3320.8999999910593,9695.70000000298,15771.29999999702,19109.39999999106,27720.29999999702,28878.79999999702,38573.79999999702,41783.39999999106],"checkbox_events":[10877.89999999106,11655.89999999106,12919.59999999404,14605.09999999404,20535.09999999404,21410.09999999404,43403.20000000298],"key_events":[],"mouse_events":[3320.8999999910593,9695.70000000298,10877.89999999106,11655.89999999106,12919.59999999404,13891.89999999106,14605.09999999404,15771.29999999702,19109.39999999106,20535.09999999404,21410.09999999404,27720.29999999702,28878.79999999702,38573.79999999702,41783.39999999106,43403.20000000298,45314.79999999702],"honeypot":0,"survey":"mace","page":7,"trial_type":"survey-mace","trial_index":15,"time_elapsed":602206,"internal_node_id":"0.0-15.0","task_version":"prescreen-v0.3","browser_interactions":0},{"responses":{"01":"No","02":"Yes","02_ages_16":"16","02_ages_17":"17","02_ages_18":"18","03":"No","04":"No"},"rt":39656.89999999106,"item_order":[0,1,2,3],"radio_events":[17180.29999999702,20842.19999998808,32101.5,38807.29999999702],"checkbox_events":[23433.5,24163.09999999404,25054.39999999106],"key_events":[],"mouse_events":[17180.29999999702,20842.19999998808,23433.5,24163.09999999404,25054.39999999106,32101.5,38807.29999999702,39649.09999999404],"honeypot":0,"survey":"mace","page":8,"trial_type":"survey-mace","trial_index":16,"time_elapsed":641868,"internal_node_id":"0.0-16.0","task_version":"prescreen-v0.3","browser_interactions":0},{"responses":{"01":"Yes","01_ages_1":"1","01_ages_2":"2","01_ages_3":"3","01_ages_4":"4","01_ages_5":"5","01_ages_6":"6","01_ages_7":"7","01_ages_8":"8","01_ages_9":"9","01_ages_10":"10","01_ages_11":"11","01_ages_12":"12","01_ages_13":"13","01_ages_14":"14","01_ages_15":"15","01_ages_16":"16","01_ages_17":"17","01_ages_18":"18","02":"Yes","02_ages_1":"1","02_ages_2":"2","02_ages_3":"3","02_ages_4":"4","02_ages_5":"5","02_ages_6":"6","02_ages_7":"7","02_ages_8":"8","02_ages_9":"9","02_ages_10":"10","02_ages_11":"11","02_ages_12":"12","02_ages_13":"13","02_ages_14":"14","02_ages_15":"15","02_ages_16":"16","02_ages_17":"17","02_ages_18":"18","03":"Yes","03_ages_1":"1","03_ages_2":"2","03_ages_3":"3","03_ages_4":"4","03_ages_5":"5","03_ages_6":"6","03_ages_7":"7","03_ages_8":"8","03_ages_9":"9","03_ages_10":"10","03_ages_11":"11","03_ages_12":"12","03_ages_13":"13","03_ages_14":"14","03_ages_15":"15","03_ages_16":"16","03_ages_17":"17","03_ages_18":"18","04":"Yes","04_ages_1":"1","04_ages_2":"2","04_ages_3":"3","04_ages_4":"4","04_ages_5":"5","04_ages_6":"6","04_ages_7":"7","04_ages_8":"8","04_ages_9":"9","04_ages_10":"10","04_ages_11":"11","04_ages_12":"12","04_ages_13":"13","04_ages_14":"14","04_ages_15":"15","04_ages_16":"16","04_ages_17":"17","04_ages_18":"18"},"rt":78168.79999999702,"item_order":[0,1,2,3],"radio_events":[3973.1000000089407,21960.40000000596,41715.70000000298,52115.90000000596],"checkbox_events":[8498.29999999702,9113.60000000894,9697.20000000298,10328.60000000894,10912.60000000894,11543.90000000596,12103.20000000298,12709.5,13301.60000000894,14346.60000000894,15156.5,15877.40000000596,16541.10000000894,17181.60000000894,17950,18639.79999999702,19367.70000000298,20049,25986,26803.60000000894,27419.70000000298,28019.29999999702,28594.5,31129.79999999702,31720.79999999702,32968.10000000894,34013.40000000596,34685.20000000298,35965.20000000298,36580.40000000596,37253.10000000894,37884.5,38565.5,39197,39837.60000000894,40533.5,43587,44300.10000000894,46049.5,46689.40000000596,47360.90000000596,48074.79999999702,53573.10000000894,54139.79999999702,55484.20000000298,56099.5,56779.79999999702,57436.10000000894,58060.10000000894,58755.40000000596,60124.70000000298,60748.60000000894,61411.70000000298,62036.90000000596,63138.5,63793.60000000894,64482.10000000894,65130,65786.10000000894,66903.40000000596,68029,68677.10000000894,69317.10000000894,69972.60000000894,70605.10000000894,71373.40000000596,72629.29999999702,73576.29999999702,74483,75155.40000000596,75835.60000000894,76532],"key_events":[],"mouse_events":[3973.1000000089407,8498.29999999702,9113.60000000894,9697.20000000298,10328.60000000894,10912.60000000894,11543.90000000596,12103.20000000298,12709.5,13301.60000000894,14346.60000000894,15156.5,15877.40000000596,16541.10000000894,17181.60000000894,17950,18639.79999999702,19367.70000000298,20049,21960.40000000596,25986,26803.60000000894,27419.70000000298,28019.29999999702,28594.5,31129.79999999702,31720.79999999702,32304.5,32968.10000000894,34013.40000000596,34685.20000000298,35965.20000000298,36580.40000000596,37253.10000000894,37884.5,38565.5,39197,39837.60000000894,40533.5,41715.70000000298,43587,44300.10000000894,45004.40000000596,46049.5,46689.40000000596,47360.90000000596,48074.79999999702,52115.90000000596,53573.10000000894,54139.79999999702,54845,55484.20000000298,56099.5,56779.79999999702,57436.10000000894,58060.10000000894,58755.40000000596,59379.90000000596,60124.70000000298,60748.60000000894,61411.70000000298,62036.90000000596,63138.5,63793.60000000894,64482.10000000894,65130,65786.10000000894,66903.40000000596,68029,68677.10000000894,69317.10000000894,69972.60000000894,70605.10000000894,71373.40000000596,72629.29999999702,73576.29999999702,74483,75155.40000000596,75835.60000000894,76532,78160.20000000298],"honeypot":0,"survey":"mace","page":9,"trial_type":"survey-mace","trial_index":17,"time_elapsed":720044,"internal_node_id":"0.0-17.0","task_version":"prescreen-v0.3","browser_interactions":0},{"responses":{"01":"No","02":"No","03":"No","04":"Yes","04_ages_7":"7","04_ages_8":"8","04_ages_9":"9","04_ages_10":"10","04_ages_11":"11","04_ages_12":"12","04_ages_13":"13","04_ages_14":"14","04_ages_15":"15","04_ages_16":"16","04_ages_17":"17","04_ages_18":"18","05":"No","06":"Yes","06_ages_17":"17","07":"Yes","07_ages_5":"5","07_ages_6":"6","07_ages_7":"7","07_ages_8":"8","07_ages_9":"9","07_ages_10":"10","07_ages_11":"11","07_ages_12":"12","07_ages_13":"13","07_ages_14":"14","07_ages_15":"15","07_ages_16":"16","07_ages_17":"17","07_ages_18":"18","08":"Yes","08_ages_7":"7","08_ages_8":"8","08_ages_9":"9","08_ages_10":"10"},"rt":63666,"item_order":[0,1,2,3,4,5,6,7],"radio_events":[2786.9000000059605,3888.7000000029802,7783.5,9144.79999999702,11112.70000000298,26954.09999999404,29983.5,36195.70000000298,56428.5],"checkbox_events":[12408.79999999702,13032.59999999404,13639.20000000298,14264,14879.09999999404,15469.79999999702,16037.29999999702,16644.5,17308.40000000596,17867.90000000596,18508,19220.70000000298,32243,43087.79999999702,43614.29999999702,44861.5,45849.5,46457.70000000298,47461.59999999404,48109.5,48710,49341,50005.70000000298,50620.79999999702,51212.09999999404,51819.79999999702,53342.90000000596,59497.90000000596,60032.79999999702,60640.20000000298,62235.5],"key_events":[],"mouse_events":[2786.9000000059605,3888.7000000029802,7783.5,9144.79999999702,11112.70000000298,12408.79999999702,13032.59999999404,13639.20000000298,14264,14879.09999999404,15469.79999999702,16037.29999999702,16644.5,17308.40000000596,17867.90000000596,18508,19220.70000000298,26954.09999999404,29983.5,31295.59999999404,32243,36195.70000000298,40059.20000000298,43087.79999999702,43614.29999999702,44238.29999999702,44861.5,45849.5,46457.70000000298,47461.59999999404,48109.5,48710,49341,50005.70000000298,50620.79999999702,51212.09999999404,51819.79999999702,52492.20000000298,53342.90000000596,56428.5,59497.90000000596,60032.79999999702,60640.20000000298,61232.09999999404,62235.5,63653.20000000298],"honeypot":0,"survey":"mace","page":10,"trial_type":"survey-mace","trial_index":18,"time_elapsed":783719,"internal_node_id":"0.0-18.0","task_version":"prescreen-v0.3","browser_interactions":0,"instructed":0},{"rt":3669.5999999940395,"trial_type":"mental-health-alert","trial_index":19,"time_elapsed":787391,"internal_node_id":"0.0-19.0","task_version":"prescreen-v0.3","interactions":"[]"}]