[{"view_history":[{"page_index":0,"viewing_time":2098.6000000089407},{"page_index":1,"viewing_time":3225.8999999910593},{"page_index":2,"viewing_time":2096.2000000029802},{"page_index":3,"viewing_time":888.1000000089407}],"rt":8309.70000000298,"trial_type":"instructions","trial_index":0,"time_elapsed":8315,"internal_node_id":"0.0-0.0","task_version":"prescreen-v0.3"},{"rt":13795.5,"responses":{"age":"42","gender-categorical":"Male","gender-free-response":"","ethnicity":"Not Hispanic or Latino","race":["Asian"],"education":"Bachelor degree","siblings":"1"},"trial_type":"survey-demo","trial_index":1,"time_elapsed":22114,"internal_node_id":"0.0-1.0","task_version":"prescreen-v0.3"},{"responses":{"Q05":"2","Q21":"3","Q08":"1","Q03":"0","Q06":"1","Q07":"1","Q14":"1","Q02":"0","Q01":"0","Q19":"0","Q10":"0","Q13":"1","Q04":"0","Q15":"1","Q11":"1","Q12":"1","Q16":"0","Q17":"0","Q09":"1","Q18":"0","Q20":"0"},"rt":71745.20000000298,"item_order":[4,20,7,2,5,6,13,1,0,18,9,12,3,14,10,11,15,16,8,17,19],"radio_events":[12381.29999999702,15705.5,16443.29999999702,18234.5,21528.09999999404,25155.09999999404,33403.40000000596,35708.59999999404,36975.70000000298,40221.29999999702,41696.29999999702,44689.5,48194,49547.5,56376.29999999702,57227.20000000298,60681.5,63094.90000000596,64121.29999999702,66065.40000000596,68134.5,70711.59999999404],"key_events":[],"mouse_events":[12381.29999999702,14107.29999999702,15705.5,16443.29999999702,18234.5,21528.09999999404,25155.09999999404,33403.40000000596,35708.59999999404,36975.70000000298,40221.29999999702,41696.29999999702,44689.5,48194,48904.09999999404,49547.5,53485.70000000298,55710,56376.29999999702,57227.20000000298,60681.5,63094.90000000596,64121.29999999702,66065.40000000596,68134.5,69123.5,69888.59999999404,70711.59999999404,71743.40000000596],"straightlining":0.47619047619047616,"zigzagging":0.5,"honeypot":0,"survey":"sns","trial_type":"survey-template","trial_index":2,"time_elapsed":93868,"internal_node_id":"0.0-2.0","task_version":"prescreen-v0.3","browser_interactions":0,"infrequency":0},{"responses":{"Q08":"2","Q02":"2","Q05":"3","Q13":"0","Q11":"2","Q10":"2","Q04":"3","Q09":"2","Q07":"2","Q12":"1","Q01":"2","Q03":"3","Q06":"2"},"rt":570271.3999999911,"item_order":[7,1,4,12,10,9,3,8,6,11,0,2,5],"radio_events":[532885.3999999911,540032.1999999881,542088.5,543814.8999999911,546661,548099.1999999881,550833.299999997,554892.299999997,558430.1999999881,559907.6999999881,562817.8999999911,564671,566773.5,568471.5,569761.799999997],"key_events":[],"mouse_events":[532885.3999999911,540032.1999999881,542088.5,543814.8999999911,546661,548099.1999999881,550833.299999997,554892.299999997,557104.1999999881,558430.1999999881,558913.299999997,559469.3999999911,559907.6999999881,562817.8999999911,564671,566314.3999999911,566773.5,567990.599999994,568471.5,569761.799999997,570269.8999999911],"straightlining":0.6153846153846154,"zigzagging":0.6666666666666666,"honeypot":0,"survey":"bisbas","trial_type":"survey-template","trial_index":3,"time_elapsed":664146,"internal_node_id":"0.0-3.0","task_version":"prescreen-v0.3","browser_interactions":0,"infrequency":0},{"responses":{"Q01":"3","Q02":"3","Q03":"3"},"rt":14004.70000000298,"radio_events":[8515.60000000894,11575.800000011921,13304.20000000298],"key_events":[],"mouse_events":[8073.600000008941,8515.60000000894,9568.90000000596,11575.800000011921,12975.20000000298,13304.20000000298,14004.10000000894],"survey":"map","page":1,"trial_type":"survey-map","trial_index":4,"time_elapsed":678157,"internal_node_id":"0.0-4.0","task_version":"prescreen-v0.3","browser_interactions":0},{"responses":{"Q04":"3","Q05":"3","Q06":"3"},"rt":9765,"radio_events":[7679.5,8504.39999999106,9157.5],"key_events":[],"mouse_events":[7679.5,8504.39999999106,9157.5,9764.59999999404],"survey":"map","page":2,"trial_type":"survey-map","trial_index":5,"time_elapsed":687927,"internal_node_id":"0.0-5.0","task_version":"prescreen-v0.3","browser_interactions":2},{"responses":{"Q07":"4","Q08":"4","Q09":"3"},"rt":9592.60000000894,"radio_events":[3820.2999999970198,8370.70000000298,9006],"key_events":[],"mouse_events":[3820.2999999970198,5298.29999999702,8370.70000000298,9006,9592.10000000894],"survey":"map","page":3,"trial_type":"survey-map","trial_index":6,"time_elapsed":697524,"internal_node_id":"0.0-6.0","task_version":"prescreen-v0.3","browser_interactions":0},{"responses":{"Q10":"2","Q11":"1","Q12":"2","Q13":"2","Q16":"0","Q14":"2","Q15":"1"},"rt":27726.5,"radio_events":[3350.5999999940395,6238,12826.89999999106,14074.89999999106,17698.5,25190.39999999106,26953.79999999702],"key_events":[],"mouse_events":[3350.5999999940395,6238,12826.89999999106,14074.89999999106,17698.5,25190.39999999106,26953.79999999702,27725.69999998808],"survey":"map","page":4,"trial_type":"survey-map","trial_index":7,"time_elapsed":725256,"internal_node_id":"0.0-7.0","task_version":"prescreen-v0.3","browser_interactions":0,"infrequency":0},{"view_history":[{"page_index":0,"viewing_time":1413.3999999910593},{"page_index":1,"viewing_time":2138.2000000029802}],"rt":3552.2000000029802,"trial_type":"instructions","trial_index":8,"time_elapsed":728812,"internal_node_id":"0.0-8.0","task_version":"prescreen-v0.3"},{"responses":{"01":"No","02":"No","03":"No","04":"No","05":"No","06":"No"},"rt":12039.89999999106,"item_order":[0,1,2,3,4,5],"radio_events":[6083.399999991059,7674.5999999940395,8636.79999999702,10039.89999999106,10571,11640.09999999404],"checkbox_events":[],"key_events":[],"mouse_events":[0.09999999403953552,4502.199999988079,6083.399999991059,6523.29999999702,7674.5999999940395,8636.79999999702,9143.79999999702,10039.89999999106,10571,11640.09999999404,12037.39999999106],"honeypot":0,"survey":"mace","page":1,"trial_type":"survey-mace","trial_index":9,"time_elapsed":740858,"internal_node_id":"0.0-9.0","task_version":"prescreen-v0.3","browser_interactions":0},{"responses":{"01":"No","02":"No","03":"Yes","03_ages_3":"3","03_ages_4":"4","03_ages_5":"5","03_ages_6":"6","03_ages_7":"7","03_ages_8":"8","03_ages_9":"9","04":"Yes","04_ages_3":"3","04_ages_4":"4","04_ages_5":"5","04_ages_6":"6","04_ages_7":"7","04_ages_8":"8","04_ages_9":"9","05":"Yes","05_ages_3":"3","05_ages_4":"4","05_ages_5":"5","05_ages_6":"6","05_ages_7":"7","05_ages_8":"8","05_ages_9":"9","06":"No","07":"No","08":"No"},"rt":47280,"item_order":[0,1,2,3,4,5,6,7],"radio_events":[7883.100000008941,9052.10000000894,10404.40000000596,26161.20000000298,33276.90000000596,40326.90000000596,45608.20000000298,46536.40000000596],"checkbox_events":[15916.10000000894,16429.30000001192,17321.20000000298,18762.30000001192,20126.30000001192,20813.30000001192,21289.5,24528,27914.5,28371.20000000298,28739.30000001192,29102.30000001192,29495.40000000596,29829.30000001192,30188.5,34665.10000000894,35203.10000000894,35557.30000001192,35934.20000000298,36445.10000000894,36812.20000000298,37160.40000000596,42550.30000001192],"key_events":[],"mouse_events":[7883.100000008941,9052.10000000894,10404.40000000596,15916.10000000894,16429.30000001192,17321.20000000298,17827.10000000894,18762.30000001192,20126.30000001192,20813.30000001192,21289.5,24528,26161.20000000298,27914.5,28371.20000000298,28739.30000001192,29102.30000001192,29495.40000000596,29829.30000001192,30188.5,33276.90000000596,34665.10000000894,35203.10000000894,35557.30000001192,35934.20000000298,36445.10000000894,36812.20000000298,37160.40000000596,39346.80000001192,40326.90000000596,42550.30000001192,45608.20000000298,46536.40000000596,47276.60000000894],"honeypot":0,"survey":"mace","page":2,"trial_type":"survey-mace","trial_index":10,"time_elapsed":788145,"internal_node_id":"0.0-10.0","task_version":"prescreen-v0.3","browser_interactions":0},{"responses":{"01":"No","02":"No","03":"No","04":"No"},"rt":8049.5999999940395,"item_order":[0,1,2,3],"radio_events":[3741.2999999970198,5724.4000000059605,6509.20000000298,7327.29999999702],"checkbox_events":[],"key_events":[],"mouse_events":[3741.2999999970198,5724.4000000059605,6509.20000000298,7327.29999999702,8047.5],"honeypot":0,"survey":"mace","page":3,"trial_type":"survey-mace","trial_index":11,"time_elapsed":796201,"internal_node_id":"0.0-11.0","task_version":"prescreen-v0.3","browser_interactions":0},{"responses":{"01":"No","02":"No"},"rt":3969.9000000059605,"item_order":[0,1],"radio_events":[1879.6000000089407,2534.9000000059605],"checkbox_events":[],"key_events":[],"mouse_events":[1879.6000000089407,2534.9000000059605,3969],"honeypot":0,"survey":"mace","page":4,"trial_type":"survey-mace","trial_index":12,"time_elapsed":800176,"internal_node_id":"0.0-12.0","task_version":"prescreen-v0.3","browser_interactions":0},{"responses":{"01":"No","02":"No","03":"No","04":"No","05":"No"},"rt":41423.30000001192,"item_order":[0,1,2,3,4],"radio_events":[35731.30000001192,37506.5,37971.5,39471.60000000894,40350.80000001192],"checkbox_events":[],"key_events":[],"mouse_events":[35731.30000001192,36501.40000000596,37506.5,37971.5,39471.60000000894,40350.80000001192,41421],"honeypot":0,"survey":"mace","page":5,"trial_type":"survey-mace","trial_index":13,"time_elapsed":841606,"internal_node_id":"0.0-13.0","task_version":"prescreen-v0.3","browser_interactions":0},{"responses":{"01":"No","02":"No","03":"No","04":"No","05":"No"},"rt":7260.29999999702,"item_order":[0,1,2,3,4],"radio_events":[2042.5,4065.3999999910593,4810.399999991059,5277.5,6040.399999991059],"checkbox_events":[],"key_events":[],"mouse_events":[2042.5,2652.2999999970198,4065.3999999910593,4810.399999991059,5277.5,6040.399999991059,7257.79999999702],"honeypot":0,"survey":"mace","page":6,"trial_type":"survey-mace","trial_index":14,"time_elapsed":848873,"internal_node_id":"0.0-14.0","task_version":"prescreen-v0.3","browser_interactions":0},{"responses":{"01":"No","02":"No","03":"No","04":"No","05":"No","06":"No","07":"No"},"rt":12171.09999999404,"item_order":[0,1,2,3,4,5,6],"radio_events":[1723.0999999940395,6204.20000000298,7528.5999999940395,8387.79999999702,9993.89999999106,10466,11169.09999999404],"checkbox_events":[],"key_events":[],"mouse_events":[1723.0999999940395,2314.0999999940395,6204.20000000298,7528.5999999940395,8387.79999999702,9043.89999999106,9993.89999999106,10466,11169.09999999404,12167.29999999702],"honeypot":0,"survey":"mace","page":7,"trial_type":"survey-mace","trial_index":15,"time_elapsed":861051,"internal_node_id":"0.0-15.0","task_version":"prescreen-v0.3","browser_interactions":0},{"responses":{"01":"No","02":"No","03":"No","04":"No"},"rt":11738.5,"item_order":[0,1,2,3],"radio_events":[5507,6537.20000000298,9563.29999999702,11105.70000000298],"checkbox_events":[],"key_events":[],"mouse_events":[5507,6537.20000000298,9563.29999999702,11105.70000000298,11736.70000000298],"honeypot":0,"survey":"mace","page":8,"trial_type":"survey-mace","trial_index":16,"time_elapsed":872796,"internal_node_id":"0.0-16.0","task_version":"prescreen-v0.3","browser_interactions":0},{"responses":{"01":"Yes","01_ages_1":"1","01_ages_2":"2","01_ages_3":"3","01_ages_4":"4","01_ages_5":"5","01_ages_6":"6","01_ages_7":"7","01_ages_8":"8","01_ages_9":"9","01_ages_10":"10","01_ages_11":"11","01_ages_12":"12","01_ages_13":"13","01_ages_14":"14","01_ages_15":"15","01_ages_16":"16","01_ages_17":"17","01_ages_18":"18","02":"Yes","02_ages_1":"1","02_ages_2":"2","02_ages_3":"3","02_ages_4":"4","02_ages_5":"5","02_ages_6":"6","02_ages_7":"7","02_ages_8":"8","02_ages_9":"9","02_ages_10":"10","02_ages_11":"11","02_ages_12":"12","02_ages_13":"13","02_ages_14":"14","02_ages_15":"15","02_ages_16":"16","02_ages_17":"17","02_ages_18":"18","03":"Yes","03_ages_1":"1","03_ages_2":"2","03_ages_3":"3","03_ages_4":"4","03_ages_5":"5","03_ages_6":"6","03_ages_7":"7","03_ages_8":"8","03_ages_9":"9","03_ages_10":"10","03_ages_11":"11","03_ages_12":"12","03_ages_13":"13","03_ages_14":"14","03_ages_15":"15","03_ages_16":"16","03_ages_17":"17","03_ages_18":"18","04":"Yes","04_ages_1":"1","04_ages_2":"2","04_ages_3":"3","04_ages_4":"4","04_ages_5":"5","04_ages_6":"6","04_ages_7":"7","04_ages_8":"8","04_ages_9":"9","04_ages_10":"10","04_ages_11":"11","04_ages_12":"12","04_ages_13":"13","04_ages_14":"14","04_ages_15":"15","04_ages_16":"16","04_ages_17":"17","04_ages_18":"18"},"rt":79295.59999999404,"item_order":[0,1,2,3],"radio_events":[26480.59999999404,39748,55281.90000000596,68298.20000000298],"checkbox_events":[28638.70000000298,28970.90000000596,30082.09999999404,30528.90000000596,31118.90000000596,31458.20000000298,32248.20000000298,32539.20000000298,32915.40000000596,33277.29999999702,33620.29999999702,34463.09999999404,35216.5,35584.5,35968.5,36365.59999999404,37117.70000000298,37445.79999999702,40723.20000000298,42640.29999999702,43321.29999999702,43728.40000000596,44523.5,44918.59999999404,45957.59999999404,46536.90000000596,46853.79999999702,47474.09999999404,47817.20000000298,48135,49322.29999999702,50021.20000000298,50679.5,51504.29999999702,51900.5,52420.40000000596,57322.29999999702,58078.20000000298,58907.20000000298,59290.29999999702,59861.29999999702,60167.5,61120.5,61487.5,62063.70000000298,62408.70000000298,62925.79999999702,63250.70000000298,63853.70000000298,64479.90000000596,64897,65458.09999999404,65827.40000000596,66263.20000000298,66852.40000000596,67347.29999999702,69712.5,70088.59999999404,70487.59999999404,71158.70000000298,71606.70000000298,71969.79999999702,72866.90000000596,74347.40000000596,74712.09999999404,75081.29999999702,75618.29999999702,76034.5,76474.5,76839.59999999404,77408.09999999404,77760.40000000596,78471.5,78866.79999999702],"key_events":[],"mouse_events":[26480.59999999404,28638.70000000298,28970.90000000596,30082.09999999404,30528.90000000596,31118.90000000596,31458.20000000298,31847.5,32248.20000000298,32539.20000000298,32915.40000000596,33277.29999999702,33620.29999999702,34003,34463.09999999404,34846.40000000596,35216.5,35584.5,35968.5,36365.59999999404,36767.5,37117.70000000298,37445.79999999702,39271,39748,40723.20000000298,42640.29999999702,43321.29999999702,43728.40000000596,44088.59999999404,44523.5,44918.59999999404,45239.5,45623.40000000596,45957.59999999404,46536.90000000596,46853.79999999702,47227.90000000596,47474.09999999404,47817.20000000298,48135,48714.09999999404,49322.29999999702,49673.40000000596,50021.20000000298,50679.5,51080.20000000298,51504.29999999702,51900.5,52420.40000000596,55281.90000000596,57322.29999999702,58078.20000000298,58907.20000000298,59290.29999999702,59861.29999999702,60167.5,60534.29999999702,61120.5,61487.5,62063.70000000298,62408.70000000298,62925.79999999702,63250.70000000298,63853.70000000298,64479.90000000596,64897,65458.09999999404,65827.40000000596,66263.20000000298,66852.40000000596,67347.29999999702,68298.20000000298,69712.5,70088.59999999404,70487.59999999404,71158.70000000298,71606.70000000298,71969.79999999702,72334.79999999702,72866.90000000596,73192,73526.90000000596,74090.40000000596,74347.40000000596,74712.09999999404,75081.29999999702,75618.29999999702,76034.5,76474.5,76839.59999999404,77408.09999999404,77760.40000000596,78177.29999999702,78471.5,78866.79999999702,79293.79999999702],"honeypot":0,"survey":"mace","page":9,"trial_type":"survey-mace","trial_index":17,"time_elapsed":952098,"internal_node_id":"0.0-17.0","task_version":"prescreen-v0.3","browser_interactions":0},{"responses":{"01":"No","02":"No","03":"No","04":"No","05":"No","06":"Yes","06_ages_17":"17","07":"Yes","07_ages_1":"1","07_ages_2":"2","07_ages_3":"3","07_ages_4":"4","07_ages_5":"5","07_ages_6":"6","07_ages_7":"7","07_ages_8":"8","07_ages_9":"9","07_ages_10":"10","07_ages_11":"11","07_ages_12":"12","07_ages_13":"13","07_ages_14":"14","07_ages_15":"15","07_ages_16":"16","07_ages_17":"17","07_ages_18":"18","08":"Yes","08_ages_1":"1","08_ages_2":"2","08_ages_3":"3","08_ages_4":"4","08_ages_5":"5","08_ages_6":"6","08_ages_7":"7","08_ages_8":"8","08_ages_9":"9","08_ages_10":"10","08_ages_11":"11","08_ages_12":"12","08_ages_13":"13","08_ages_14":"14","08_ages_15":"15","08_ages_16":"16","08_ages_17":"17","08_ages_18":"18"},"rt":46952.20000000298,"item_order":[0,1,2,3,4,5,6,7],"radio_events":[2543.0999999940395,3337.8999999910593,4322.29999999702,5047.29999999702,8470.5,14457.09999999404,19433,20241.89999999106,24268.29999999702,35611.70000000298],"checkbox_events":[21511.39999999106,25572,26352.70000000298,26697.09999999404,27307.70000000298,27695.09999999404,28064,28382,28760,29759.20000000298,30094.20000000298,30710.20000000298,32329.20000000298,32717.39999999106,33066.39999999106,33586.5,34003.5,34336.5,34798.59999999404,37691.09999999404,38136,38484.09999999404,39220.39999999106,39918.29999999702,40579.29999999702,40887.29999999702,41262.79999999702,42095.29999999702,42626.5,42984.70000000298,44068.70000000298,44434.70000000298,44850.09999999404,45258.09999999404,45640,46026.09999999404,46438.09999999404],"key_events":[],"mouse_events":[2543.0999999940395,3337.8999999910593,4322.29999999702,5047.29999999702,7942.5999999940395,8470.5,14457.09999999404,18430.79999999702,19433,20241.89999999106,21511.39999999106,24268.29999999702,25572,25926.70000000298,26352.70000000298,26697.09999999404,27307.70000000298,27695.09999999404,28064,28382,28760,29094.20000000298,29759.20000000298,30094.20000000298,30710.20000000298,32329.20000000298,32717.39999999106,33066.39999999106,33586.5,34003.5,34336.5,34798.59999999404,35611.70000000298,36986.09999999404,37386,37691.09999999404,38136,38484.09999999404,38840.09999999404,39220.39999999106,39526.5,39918.29999999702,40579.29999999702,40887.29999999702,41262.79999999702,41755.5,42095.29999999702,42626.5,42984.70000000298,43575.79999999702,44068.70000000298,44434.70000000298,44850.09999999404,45258.09999999404,45640,46026.09999999404,46438.09999999404,46948.5],"honeypot":0,"survey":"mace","page":10,"trial_type":"survey-mace","trial_index":18,"time_elapsed":999056,"internal_node_id":"0.0-18.0","task_version":"prescreen-v0.3","browser_interactions":0,"instructed":0},{"rt":2916.5,"trial_type":"mental-health-alert","trial_index":19,"time_elapsed":1001978,"internal_node_id":"0.0-19.0","task_version":"prescreen-v0.3","interactions":"[{\"event\":\"blur\",\"trial\":5,\"time\":679977},{\"event\":\"focus\",\"trial\":5,\"time\":682373}]"}]