[{"view_history":[{"page_index":0,"viewing_time":2764},{"page_index":1,"viewing_time":5085},{"page_index":2,"viewing_time":3349},{"page_index":3,"viewing_time":1443}],"rt":12642,"trial_type":"instructions","trial_index":0,"time_elapsed":12653,"internal_node_id":"0.0-0.0","task_version":"prescreen-v0.3"},{"rt":15255,"responses":{"age":"22","gender-categorical":"Female","gender-free-response":"","ethnicity":"Not Hispanic or Latino","race":["White"],"education":"Bachelor degree"},"trial_type":"survey-demo","trial_index":1,"time_elapsed":27913,"internal_node_id":"0.0-1.0","task_version":"prescreen-v0.3"},{"responses":{"Q12":"2","Q08":"2","Q21":"3","Q18":"1","Q16":"2","Q04":"1","Q17":"1","Q19":"1","Q09":"3","Q10":"3","Q14":"3","Q13":"2","Q05":"2","Q03":"1","Q07":"0","Q06":"0","Q11":"3","Q01":"3","Q15":"3","Q20":"3","Q02":"2"},"rt":167274,"item_order":[11,7,20,17,15,3,16,18,8,9,13,12,4,2,6,5,10,0,14,19,1],"radio_events":[9581.999999999996,13952.999999999996,18337.999999999996,28231.999999999996,33077,56726.000000000015,61592.000000000015,67239,79535,84655,94769,97905,106578,110020,111696,130654,147002,149848,152564.00000000003,158612.00000000003,160112.00000000003,166072],"key_events":[],"mouse_events":[9581.999999999996,13952.999999999996,18337.999999999996,28231.999999999996,33077,56726.000000000015,61592.000000000015,67239,79535,84655,94769,97905,106578,110020,111696,130654,147002,149848,152564.00000000003,158612.00000000003,160112.00000000003,166072,167262],"straightlining":0.38095238095238093,"zigzagging":0.4,"honeypot":0,"survey":"sns","trial_type":"survey-template","trial_index":2,"time_elapsed":195186,"internal_node_id":"0.0-2.0","task_version":"prescreen-v0.3","browser_interactions":0,"infrequency":0},{"responses":{"Q06":"2","Q08":"2","Q09":"2","Q10":"1","Q07":"3","Q13":"0","Q12":"1","Q04":"3","Q01":"3","Q05":"3","Q02":"3","Q03":"3","Q11":"2"},"rt":120349,"item_order":[5,7,8,9,6,12,11,3,0,4,1,2,10],"radio_events":[9244,13324,18293,20683,23085,29648.00000000003,85248,98947,105102,107867,109986,114904,119092],"key_events":[],"mouse_events":[9244,13324,18293,20683,23085,26518,29648.00000000003,85248,98947,105102,107867,109986,114904,119092,120342],"straightlining":0.46153846153846156,"zigzagging":0.3333333333333333,"honeypot":0,"survey":"bisbas","trial_type":"survey-template","trial_index":3,"time_elapsed":315534,"internal_node_id":"0.0-3.0","task_version":"prescreen-v0.3","browser_interactions":0,"infrequency":0},{"responses":{"Q01":"3","Q02":"2","Q03":"2"},"rt":23725,"radio_events":[6870.000000000058,11425,16050,22873],"key_events":[],"mouse_events":[6870.000000000058,11425,16050,22873,23722],"survey":"map","page":1,"trial_type":"survey-map","trial_index":4,"time_elapsed":339262,"internal_node_id":"0.0-4.0","task_version":"prescreen-v0.3","browser_interactions":0},{"responses":{"Q04":"2","Q05":"2","Q06":"2"},"rt":15066.000000000058,"radio_events":[5970.000000000058,11061,13951],"key_events":[],"mouse_events":[5970.000000000058,11061,13951,15063],"survey":"map","page":2,"trial_type":"survey-map","trial_index":5,"time_elapsed":354329,"internal_node_id":"0.0-5.0","task_version":"prescreen-v0.3","browser_interactions":0},{"responses":{"Q07":"4","Q08":"1","Q09":"2"},"rt":22527,"radio_events":[6290,13763,16198,21354],"key_events":[],"mouse_events":[6290,13763,16198,21354,22524],"survey":"map","page":3,"trial_type":"survey-map","trial_index":6,"time_elapsed":376858,"internal_node_id":"0.0-6.0","task_version":"prescreen-v0.3","browser_interactions":0},{"responses":{"Q10":"2","Q11":"3","Q12":"3","Q13":"2","Q16":"0","Q14":"2","Q15":"2"},"rt":85731,"radio_events":[7137,12428,18947,31203,37819.00000000006,42204,76769,84415.00000000006],"key_events":[],"mouse_events":[7137,12428,18947,31203,37819.00000000006,42204,76769,84415.00000000006,85727],"survey":"map","page":4,"trial_type":"survey-map","trial_index":7,"time_elapsed":462588,"internal_node_id":"0.0-7.0","task_version":"prescreen-v0.3","browser_interactions":0,"infrequency":0},{"view_history":[{"page_index":0,"viewing_time":2477},{"page_index":1,"viewing_time":4895.000000000058}],"rt":7373,"trial_type":"instructions","trial_index":8,"time_elapsed":469962,"internal_node_id":"0.0-8.0","task_version":"prescreen-v0.3"},{"responses":{"01":"No","02":"Yes","02_ages_15":"15","02_ages_16":"16","02_ages_17":"17","02_ages_18":"18","03":"No","04":"No","05":"No","06":"No"},"rt":59431,"item_order":[0,1,2,3,4,5],"radio_events":[16004.000000000058,34321,48283.00000000006,50617,52523.00000000006,57590],"checkbox_events":[41433,42429.99999999994,43381,44364.00000000006],"key_events":[],"mouse_events":[0,16004.000000000058,34321,41433,42429.99999999994,43381,44364.00000000006,48283.00000000006,50617,52523.00000000006,57590,59424],"honeypot":0,"survey":"mace","page":1,"trial_type":"survey-mace","trial_index":9,"time_elapsed":529398,"internal_node_id":"0.0-9.0","task_version":"prescreen-v0.3","browser_interactions":0},{"responses":{"01":"No","02":"No","03":"Yes","03_ages_3":"3","03_ages_4":"4","03_ages_5":"5","03_ages_6":"6","03_ages_7":"7","03_ages_8":"8","04":"No","05":"No","06":"No","07":"No","08":"No"},"rt":32556,"item_order":[0,1,2,3,4,5,6,7],"radio_events":[3798,7753,9640,22606,25294,27295,29876,31355],"checkbox_events":[12249,13048,14029,14948,15982,18573],"key_events":[],"mouse_events":[3798,7753,9640,12249,13048,14029,14948,15982,18573,22606,25294,27295,29876,31355,32548],"honeypot":0,"survey":"mace","page":2,"trial_type":"survey-mace","trial_index":10,"time_elapsed":561959,"internal_node_id":"0.0-10.0","task_version":"prescreen-v0.3","browser_interactions":0},{"responses":{"01":"No","02":"No","03":"No","04":"No"},"rt":13596,"item_order":[0,1,2,3],"radio_events":[3814,6168,10798,12482],"checkbox_events":[],"key_events":[],"mouse_events":[3814,6168,10798,12482,13590],"honeypot":0,"survey":"mace","page":3,"trial_type":"survey-mace","trial_index":11,"time_elapsed":575558,"internal_node_id":"0.0-11.0","task_version":"prescreen-v0.3","browser_interactions":0},{"responses":{"01":"No","02":"No"},"rt":10997,"item_order":[0,1],"radio_events":[8455.000000000116,9905],"checkbox_events":[],"key_events":[],"mouse_events":[8455.000000000116,9905,10994],"honeypot":0,"survey":"mace","page":4,"trial_type":"survey-mace","trial_index":12,"time_elapsed":586558,"internal_node_id":"0.0-12.0","task_version":"prescreen-v0.3","browser_interactions":0},{"responses":{"01":"No","02":"No","03":"No","04":"No","05":"No"},"rt":36632,"item_order":[0,1,2,3,4],"radio_events":[21852,23905,26451,34260,35594],"checkbox_events":[],"key_events":[],"mouse_events":[21852,23905,26451,34260,35594,36627.00000000012],"honeypot":0,"survey":"mace","page":5,"trial_type":"survey-mace","trial_index":13,"time_elapsed":623193,"internal_node_id":"0.0-13.0","task_version":"prescreen-v0.3","browser_interactions":0},{"responses":{"01":"Yes","01_ages_9":"9","01_ages_10":"10","01_ages_11":"11","01_ages_12":"12","02":"Yes","02_ages_9":"9","02_ages_10":"10","02_ages_11":"11","02_ages_12":"12","02_ages_13":"13","02_ages_14":"14","02_ages_15":"15","02_ages_16":"16","03":"Yes","03_ages_12":"12","03_ages_13":"13","03_ages_14":"14","03_ages_15":"15","04":"Yes","04_ages_10":"10","04_ages_11":"11","04_ages_12":"12","04_ages_13":"13","04_ages_14":"14","04_ages_15":"15","04_ages_16":"16","04_ages_17":"17","04_ages_18":"18","05":"No"},"rt":60528,"item_order":[0,1,2,3,4],"radio_events":[5919,19871,33230,42332,57464],"checkbox_events":[8111,9079,9818,10601,21413.000000000116,22280,23180,24081,25053,26036,26804,27554,36888,37920,38771,39854,46025,47029,48090,48941,49726,50658.00000000012,51460,52392,53226],"key_events":[],"mouse_events":[5919,8111,9079,9818,10601,19871,21413.000000000116,22280,23180,24081,25053,26036,26804,27554,33230,36888,37920,38771,39854,42332,46025,47029,48090,48941,49726,50658.00000000012,51460,52392,53226,57464,58770,60521],"honeypot":0,"survey":"mace","page":6,"trial_type":"survey-mace","trial_index":14,"time_elapsed":683725,"internal_node_id":"0.0-14.0","task_version":"prescreen-v0.3","browser_interactions":0},{"responses":{"01":"No","02":"No","03":"Yes","03_ages_10":"10","04":"Yes","04_ages_10":"10","05":"No","06":"No","07":"No"},"rt":32404,"item_order":[0,1,2,3,4,5,6],"radio_events":[6252.000000000116,9560,12169,13845,22549,28095,30381,31480],"checkbox_events":[18312,23789],"key_events":[],"mouse_events":[6252.000000000116,8385,9560,12169,13845,18312,22549,23789,28095,30381,31480,32397],"honeypot":0,"survey":"mace","page":7,"trial_type":"survey-mace","trial_index":15,"time_elapsed":716134,"internal_node_id":"0.0-15.0","task_version":"prescreen-v0.3","browser_interactions":0},{"responses":{"01":"No","02":"Yes","02_ages_10":"10","02_ages_11":"11","02_ages_12":"12","02_ages_13":"13","02_ages_14":"14","02_ages_15":"15","02_ages_16":"16","02_ages_17":"17","02_ages_18":"18","03":"Yes","03_ages_10":"10","03_ages_11":"11","03_ages_12":"12","03_ages_13":"13","03_ages_14":"14","03_ages_15":"15","03_ages_16":"16","03_ages_17":"17","03_ages_18":"18","04":"No"},"rt":56322,"item_order":[0,1,2,3],"radio_events":[9336,10621,43009,55083],"checkbox_events":[18335,19183,19984,20785,21819,22789,24291.000000000116,24991,25892.000000000116,44425,45741,46542,48509,49811,50561,51493.00000000012,52549,53466],"key_events":[],"mouse_events":[9336,10621,18335,19183,19984,20785,21819,22789,24291.000000000116,24991,25892.000000000116,43009,44425,45741,46542,48509,49811,50561,51493.00000000012,52549,53466,55083,56318],"honeypot":0,"survey":"mace","page":8,"trial_type":"survey-mace","trial_index":16,"time_elapsed":772457,"internal_node_id":"0.0-16.0","task_version":"prescreen-v0.3","browser_interactions":0},{"responses":{"01":"Yes","01_ages_1":"1","01_ages_2":"2","01_ages_3":"3","01_ages_4":"4","01_ages_5":"5","01_ages_6":"6","01_ages_7":"7","01_ages_8":"8","01_ages_9":"9","01_ages_10":"10","01_ages_11":"11","01_ages_12":"12","01_ages_13":"13","01_ages_14":"14","01_ages_15":"15","01_ages_16":"16","01_ages_17":"17","01_ages_18":"18","02":"Yes","02_ages_1":"1","02_ages_2":"2","02_ages_3":"3","02_ages_4":"4","02_ages_5":"5","02_ages_6":"6","02_ages_7":"7","02_ages_8":"8","02_ages_9":"9","02_ages_10":"10","02_ages_11":"11","02_ages_12":"12","02_ages_13":"13","02_ages_14":"14","02_ages_15":"15","02_ages_16":"16","02_ages_17":"17","02_ages_18":"18","03":"Yes","03_ages_1":"1","03_ages_2":"2","03_ages_3":"3","03_ages_4":"4","03_ages_5":"5","03_ages_6":"6","03_ages_7":"7","03_ages_8":"8","03_ages_9":"9","03_ages_10":"10","03_ages_11":"11","03_ages_12":"12","03_ages_13":"13","03_ages_14":"14","03_ages_15":"15","03_ages_16":"16","03_ages_17":"17","03_ages_18":"18","04":"Yes","04_ages_3":"3","04_ages_5":"5"},"rt":82682,"item_order":[0,1,2,3],"radio_events":[4378,31048,51503,73295],"checkbox_events":[7831,10213,11302,12436.000000000116,13588,14654,15604,16527,17459,18359.000000000116,19276,20228,21044,22012,23014,24065,24915,25847,32603,33421,34354,35440,36242,37111,38027,38895,39661,40679,41667.00000000012,42501,43402,44384,45219,46018.00000000012,46922.00000000012,47940,52684,53451,54419,55502,56357,57223,58091,58974,59942,60809,61597,62397,63163,64180,65616,66454,67220.00000000012,68238,79312,80757],"key_events":[],"mouse_events":[4378,7831,10213,11302,12436.000000000116,13588,14654,15604,16527,17459,18359.000000000116,19276,20228,21044,22012,23014,24065,24915,25847,28951,31048,32603,33421,34354,35440,36242,37111,38027,38895,39661,40679,41667.00000000012,42501,43402,44384,45219,46018.00000000012,46922.00000000012,47940,51503,52684,53451,54419,55502,56357,57223,58091,58974,59942,60809,61597,62397,63163,64180,65616,66454,67220.00000000012,68238,73295,79312,80757,82676],"honeypot":0,"survey":"mace","page":9,"trial_type":"survey-mace","trial_index":17,"time_elapsed":855141,"internal_node_id":"0.0-17.0","task_version":"prescreen-v0.3","browser_interactions":0},{"responses":{"01":"No","02":"No","03":"No","04":"No","05":"Yes","05_ages_10":"10","05_ages_11":"11","05_ages_12":"12","05_ages_13":"13","05_ages_14":"14","05_ages_15":"15","06":"Yes","06_ages_17":"17","07":"Yes","07_ages_1":"1","07_ages_2":"2","07_ages_3":"3","07_ages_4":"4","07_ages_5":"5","07_ages_6":"6","07_ages_7":"7","07_ages_8":"8","07_ages_9":"9","07_ages_10":"10","07_ages_11":"11","07_ages_12":"12","07_ages_13":"13","07_ages_14":"14","07_ages_15":"15","07_ages_16":"16","07_ages_17":"17","07_ages_18":"18","08":"Yes","08_ages_1":"1","08_ages_2":"2","08_ages_3":"3","08_ages_4":"4","08_ages_5":"5","08_ages_6":"6","08_ages_7":"7","08_ages_8":"8","08_ages_9":"9","08_ages_10":"10","08_ages_11":"11","08_ages_12":"12","08_ages_13":"13","08_ages_14":"14","08_ages_15":"15","08_ages_16":"16","08_ages_17":"17","08_ages_18":"18"},"rt":72482,"item_order":[0,1,2,3,4,5,6,7],"radio_events":[3326.0000000001164,4801,7701.000000000116,11028.000000000116,13916,25772,34535,54983],"checkbox_events":[17499.000000000116,18428,19316,20432.000000000116,21267,22300,28157,36353,37184,38100.00000000012,39121,39955,40939,41739,43423,44496,45310,46044,47127,47960,48731,49681,50431,51382,52183,56869.00000000012,57666,58584,59440,60124.00000000012,60925,61710,62675,63477,64408.00000000012,65194,65993,66777,67561,68229,68912,69713,70913],"key_events":[],"mouse_events":[3326.0000000001164,4801,7701.000000000116,11028.000000000116,13916,17499.000000000116,18428,19316,20432.000000000116,21267,22300,25772,28157,34535,36353,37184,38100.00000000012,39121,39955,40939,41739,43423,44496,45310,46044,47127,47960,48731,49681,50431,51382,52183,54983,56869.00000000012,57666,58584,59440,60124.00000000012,60925,61710,62675,63477,64408.00000000012,65194,65993,66777,67561,68229,68912,69713,70913,72474],"honeypot":0,"survey":"mace","page":10,"trial_type":"survey-mace","trial_index":18,"time_elapsed":927625,"internal_node_id":"0.0-18.0","task_version":"prescreen-v0.3","browser_interactions":0,"instructed":0},{"rt":6164,"trial_type":"mental-health-alert","trial_index":19,"time_elapsed":933792,"internal_node_id":"0.0-19.0","task_version":"prescreen-v0.3","interactions":"[]"}]