[{"view_history":[{"page_index":0,"viewing_time":7614.5},{"page_index":1,"viewing_time":3189.5},{"page_index":2,"viewing_time":12705.79999999702},{"page_index":3,"viewing_time":1204.2999999970198}],"rt":24715.39999999851,"trial_type":"instructions","trial_index":0,"time_elapsed":24770,"internal_node_id":"0.0-0.0","task_version":"prescreen-v0.3"},{"rt":13538.10000000149,"responses":{"age":"21","gender-categorical":"Female","gender-free-response":"","ethnicity":"Not Hispanic or Latino","race":["White"],"education":"Some college"},"trial_type":"survey-demo","trial_index":1,"time_elapsed":38318,"internal_node_id":"0.0-1.0","task_version":"prescreen-v0.3"},{"responses":{"Q15":"3","Q03":"2","Q21":"3","Q17":"0","Q20":"2","Q19":"2","Q05":"0","Q02":"2","Q10":"1","Q04":"0","Q06":"0","Q14":"0","Q12":"2","Q16":"1","Q01":"2","Q11":"1","Q09":"0","Q08":"0","Q13":"2","Q18":"3","Q07":"3"},"rt":191592.69999999553,"item_order":[14,2,20,16,19,18,4,1,9,3,5,13,11,15,0,10,8,7,12,17,6],"radio_events":[6534.29999999702,14079,22760.39999999851,28340.89999999851,42156.79999999702,56811.89999999851,66216.19999999553,76190.29999999702,84383.5,89585.79999999702,105163.60000000149,119011.10000000149,131338.19999999553,137597.79999999702,144741.69999999553,148049.69999999553,152771.79999999702,167329.3999999985,172869,183580.5,190790.8999999985],"key_events":[],"mouse_events":[6534.29999999702,14079,22760.39999999851,28340.89999999851,40144.10000000149,40961.10000000149,42156.79999999702,56811.89999999851,66216.19999999553,76190.29999999702,84383.5,89585.79999999702,105163.60000000149,119011.10000000149,120634.69999999553,131338.19999999553,137597.79999999702,144741.69999999553,148049.69999999553,152771.79999999702,167329.3999999985,172869,183580.5,190790.8999999985,191588.8999999985],"straightlining":0.3333333333333333,"zigzagging":0.5,"honeypot":0,"survey":"sns","trial_type":"survey-template","trial_index":2,"time_elapsed":229922,"internal_node_id":"0.0-2.0","task_version":"prescreen-v0.3","browser_interactions":0,"infrequency":0},{"responses":{"Q01":"3","Q07":"2","Q08":"2","Q11":"1","Q12":"2","Q05":"2","Q10":"2","Q02":"3","Q09":"2","Q04":"3","Q13":"0","Q03":"3","Q06":"3"},"rt":111727.79999999702,"item_order":[0,6,7,10,11,4,9,1,8,3,12,2,5],"radio_events":[8034.19999999553,23258.29999999702,31198.39999999851,52327.29999999702,57120.89999999851,61903.59999999404,69114.79999999702,74878.5,82364,86482.69999999553,94502.09999999404,104116.89999999851,109858.79999999702],"key_events":[],"mouse_events":[8034.19999999553,23258.29999999702,31198.39999999851,52327.29999999702,57120.89999999851,61903.59999999404,69114.79999999702,74878.5,82364,86482.69999999553,89738.79999999702,94502.09999999404,104116.89999999851,104853.69999999553,109858.79999999702,111725.59999999404],"straightlining":0.46153846153846156,"zigzagging":0.6666666666666666,"honeypot":0,"survey":"bisbas","trial_type":"survey-template","trial_index":3,"time_elapsed":341659,"internal_node_id":"0.0-3.0","task_version":"prescreen-v0.3","browser_interactions":0,"infrequency":0},{"responses":{"Q01":"2","Q02":"2","Q03":"3"},"rt":34894.10000000149,"radio_events":[11400.79999999702,17933.20000000298,32218.5],"key_events":[],"mouse_events":[11400.79999999702,17933.20000000298,32218.5,34891.79999999702],"survey":"map","page":1,"trial_type":"survey-map","trial_index":4,"time_elapsed":376559,"internal_node_id":"0.0-4.0","task_version":"prescreen-v0.3","browser_interactions":0},{"responses":{"Q04":"1","Q05":"2","Q06":"1"},"rt":36638.20000000298,"radio_events":[8952,20225,26192.20000000298,35433.80000000447],"key_events":[],"mouse_events":[8952,20225,26192.20000000298,35433.80000000447,36637.10000000149],"survey":"map","page":2,"trial_type":"survey-map","trial_index":5,"time_elapsed":413202,"internal_node_id":"0.0-5.0","task_version":"prescreen-v0.3","browser_interactions":0},{"responses":{"Q07":"2","Q08":"3","Q09":"1"},"rt":43037.89999999851,"radio_events":[18012.20000000298,35711.29999999702,40073.29999999702,41473.79999999702],"key_events":[],"mouse_events":[18012.20000000298,35711.29999999702,40073.29999999702,41473.79999999702,43037],"survey":"map","page":3,"trial_type":"survey-map","trial_index":6,"time_elapsed":456243,"internal_node_id":"0.0-6.0","task_version":"prescreen-v0.3","browser_interactions":0},{"responses":{"Q10":"2","Q11":"2","Q12":"1","Q13":"1","Q16":"0","Q14":"2","Q15":"1"},"rt":65229.60000000149,"radio_events":[13909.5,15039.10000000149,24675.39999999851,30320.19999999553,41654.79999999702,61972.10000000149,63292.89999999851],"key_events":[],"mouse_events":[13909.5,15039.10000000149,24675.39999999851,30320.19999999553,41654.79999999702,61972.10000000149,63292.89999999851,65227.39999999851],"survey":"map","page":4,"trial_type":"survey-map","trial_index":7,"time_elapsed":521478,"internal_node_id":"0.0-7.0","task_version":"prescreen-v0.3","browser_interactions":0,"infrequency":0},{"view_history":[{"page_index":0,"viewing_time":2500.39999999851},{"page_index":1,"viewing_time":5674.39999999851}],"rt":8177.19999999553,"trial_type":"instructions","trial_index":8,"time_elapsed":529657,"internal_node_id":"0.0-8.0","task_version":"prescreen-v0.3"},{"responses":{"01":"Yes","01_ages_8":"8","01_ages_14":"14","01_ages_15":"15","01_ages_16":"16","02":"Yes","02_ages_7":"7","02_ages_8":"8","02_ages_9":"9","02_ages_10":"10","02_ages_11":"11","02_ages_12":"12","02_ages_13":"13","02_ages_14":"14","02_ages_15":"15","02_ages_16":"16","02_ages_17":"17","02_ages_18":"18","03":"Yes","03_ages_5":"5","03_ages_6":"6","03_ages_7":"7","03_ages_8":"8","04":"No","04_ages_6":"6","04_ages_7":"7","04_ages_8":"8","04_ages_9":"9","04_ages_10":"10","05":"No","06":"No"},"rt":182624.3999999985,"item_order":[0,1,2,3,4,5],"radio_events":[11599,53899.30000000447,74529.39999999851,101951.39999999851,126979,129710.20000000298,134539.6000000015],"checkbox_events":[30256.80000000447,31286.39999999851,32433.10000000149,33873.10000000149,37641.5,38771.5,40092,40587.89999999851,41071.80000000447,41539,61558,62178.5,63558.70000000298,64337.20000000298,64871,65629.30000000447,66280.60000000149,66785.39999999851,67466.39999999851,67983.10000000149,68456.70000000298,68952.5,80575.10000000149,81139.30000000447,81799.60000000149,84547.89999999851,90068.30000000447,95655.10000000149,106568.70000000298,107083.10000000149,107638.30000000447,109649,110164.5,160194.20000000298,160855.30000000447,161700.30000000447,163129.6000000015,163615.5,164384,165131.8999999985,165620.6000000015,166102.1000000015,166724,167161.1000000015,176875.5,177418.3999999985,177835.80000000447],"key_events":[],"mouse_events":[0.10000000149011612,11599,30256.80000000447,31286.39999999851,32433.10000000149,33873.10000000149,37641.5,38771.5,39420.10000000149,40092,40587.89999999851,41071.80000000447,41539,53899.30000000447,61558,62178.5,62665.20000000298,63558.70000000298,64337.20000000298,64871,65629.30000000447,66280.60000000149,66785.39999999851,67466.39999999851,67983.10000000149,68456.70000000298,68952.5,74529.39999999851,80575.10000000149,81139.30000000447,81799.60000000149,84547.89999999851,90068.30000000447,95655.10000000149,101951.39999999851,106568.70000000298,107083.10000000149,107638.30000000447,109649,110164.5,126522.5,126979,129710.20000000298,134539.6000000015,160194.20000000298,160855.30000000447,161700.30000000447,162399.20000000298,163129.6000000015,163615.5,164384,165131.8999999985,165620.6000000015,166102.1000000015,166724,167161.1000000015,176875.5,177418.3999999985,177835.80000000447,182619.1000000015],"honeypot":0,"survey":"mace","page":1,"trial_type":"survey-mace","trial_index":9,"time_elapsed":712295,"internal_node_id":"0.0-9.0","task_version":"prescreen-v0.3","browser_interactions":0},{"responses":{"01":"No","02":"No","03":"Yes","03_ages_3":"3","03_ages_4":"4","03_ages_5":"5","03_ages_6":"6","04":"No","05":"No","06":"No","07":"No","08":"No"},"rt":52156.09999999404,"item_order":[0,1,2,3,4,5,6,7],"radio_events":[5736.89999999851,8661.5,10692.69999999553,16261.69999999553,22238.59999999404,26367.59999999404,27972.29999999702,29652.69999999553],"checkbox_events":[40625.89999999851,41899.5,45569.69999999553,47494.59999999404],"key_events":[],"mouse_events":[5736.89999999851,8661.5,10692.69999999553,16261.69999999553,22238.59999999404,26367.59999999404,27972.29999999702,29652.69999999553,40625.89999999851,41265.59999999404,41899.5,45569.69999999553,47494.59999999404,49865,52148.29999999702],"honeypot":0,"survey":"mace","page":2,"trial_type":"survey-mace","trial_index":10,"time_elapsed":764460,"internal_node_id":"0.0-10.0","task_version":"prescreen-v0.3","browser_interactions":0},{"responses":{"01":"No","02":"No","03":"No","04":"No"},"rt":11688.79999999702,"item_order":[0,1,2,3],"radio_events":[5222.20000000298,7875.60000000149,8827.29999999702,10508.79999999702],"checkbox_events":[],"key_events":[],"mouse_events":[5222.20000000298,7875.60000000149,8827.29999999702,10508.79999999702,11685.29999999702],"honeypot":0,"survey":"mace","page":3,"trial_type":"survey-mace","trial_index":11,"time_elapsed":776155,"internal_node_id":"0.0-11.0","task_version":"prescreen-v0.3","browser_interactions":0},{"responses":{"01":"Yes","01_ages_6":"6","01_ages_17":"17","02":"Yes","02_ages_17":"17"},"rt":55282.79999999702,"item_order":[0,1],"radio_events":[28393.10000000149,33215],"checkbox_events":[30589.70000000298,35623.89999999851,53532.10000000149],"key_events":[],"mouse_events":[28393.10000000149,30589.70000000298,33215,35623.89999999851,38811.10000000149,53532.10000000149,55281],"honeypot":0,"survey":"mace","page":4,"trial_type":"survey-mace","trial_index":12,"time_elapsed":831443,"internal_node_id":"0.0-12.0","task_version":"prescreen-v0.3","browser_interactions":0},{"responses":{"01":"No","02":"No","03":"No","04":"Yes","04_ages_11":"11","04_ages_12":"12","04_ages_13":"13","05":"No"},"rt":49372.19999999553,"item_order":[0,1,2,3,4],"radio_events":[21088.29999999702,24779.89999999851,29638.5,34661.5,35527.89999999851],"checkbox_events":[42401.5,43043.19999999553,45043.69999999553],"key_events":[],"mouse_events":[21088.29999999702,24779.89999999851,29638.5,34661.5,35527.89999999851,42401.5,43043.19999999553,45043.69999999553,49367.79999999702],"honeypot":0,"survey":"mace","page":5,"trial_type":"survey-mace","trial_index":13,"time_elapsed":880822,"internal_node_id":"0.0-13.0","task_version":"prescreen-v0.3","browser_interactions":0},{"responses":{"01":"Yes","01_ages_9":"9","01_ages_10":"10","01_ages_11":"11","01_ages_12":"12","01_ages_13":"13","01_ages_14":"14","01_ages_15":"15","01_ages_16":"16","01_ages_17":"17","01_ages_18":"18","02":"Yes","02_ages_10":"10","02_ages_11":"11","02_ages_12":"12","02_ages_13":"13","02_ages_14":"14","02_ages_15":"15","02_ages_16":"16","02_ages_17":"17","02_ages_18":"18","03":"No","04":"Yes","04_ages_6":"6","04_ages_7":"7","04_ages_8":"8","04_ages_9":"9","04_ages_10":"10","04_ages_11":"11","04_ages_12":"12","04_ages_13":"13","04_ages_14":"14","04_ages_15":"15","04_ages_16":"16","04_ages_17":"17","04_ages_18":"18","05":"No"},"rt":104942.80000000447,"item_order":[0,1,2,3,4],"radio_events":[29708.60000000149,30971.70000000298,52015.30000000447,61804.20000000298,80836.30000000447],"checkbox_events":[37639.10000000149,38066.70000000298,38522.5,38938.30000000447,40298.80000000447,40765.39999999851,41435.30000000447,41980.70000000298,42543.20000000298,43622.80000000447,44088.5,44884.39999999851,45477.5,70023.10000000149,70674.70000000298,71315.5,72461.39999999851,73383.89999999851,73802.80000000447,74212,74628.60000000149,75512.5,76397.39999999851,76785.70000000298,77504.39999999851,93261.30000000447,94222.89999999851,94873.80000000447,96098.80000000447,96556.80000000447,97186.89999999851,97711,98363.20000000298,99481.20000000298],"key_events":[],"mouse_events":[29708.60000000149,30971.70000000298,37639.10000000149,38066.70000000298,38522.5,38938.30000000447,39533.20000000298,40298.80000000447,40765.39999999851,41435.30000000447,41980.70000000298,42543.20000000298,43622.80000000447,44088.5,44884.39999999851,45477.5,52015.30000000447,61804.20000000298,70023.10000000149,70674.70000000298,71315.5,72461.39999999851,73383.89999999851,73802.80000000447,74212,74628.60000000149,75512.5,75862.20000000298,76397.39999999851,76785.70000000298,77504.39999999851,80836.30000000447,93261.30000000447,94222.89999999851,94873.80000000447,95331.89999999851,96098.80000000447,96556.80000000447,97186.89999999851,97711,98363.20000000298,98790.10000000149,99481.20000000298,100703.39999999851,104938.60000000149],"honeypot":0,"survey":"mace","page":6,"trial_type":"survey-mace","trial_index":14,"time_elapsed":985772,"internal_node_id":"0.0-14.0","task_version":"prescreen-v0.3","browser_interactions":0},{"responses":{"01":"No","02":"Yes","02_ages_6":"6","02_ages_7":"7","03":"Yes","03_ages_6":"6","03_ages_7":"7","03_ages_8":"8","03_ages_9":"9","04":"No","05":"No","06":"Yes","06_ages_17":"17","07":"Yes","07_ages_6":"6","07_ages_17":"17"},"rt":92762.10000000149,"item_order":[0,1,2,3,4,5,6],"radio_events":[8624.60000000149,20223.60000000149,30930.60000000149,43385.89999999851,46891.29999999702,64669.89999999851,83398.79999999702],"checkbox_events":[23150,23703.5,24159,24878,32922.19999999553,33641.89999999851,34204.69999999553,36633.39999999851,59640,61395.5,67282.79999999702,84974.29999999702,87421.19999999553,91211.89999999851,91773.5],"key_events":[],"mouse_events":[8624.60000000149,20223.60000000149,23150,23703.5,24159,24878,26732.69999999553,30930.60000000149,32922.19999999553,33641.89999999851,34204.69999999553,36633.39999999851,43385.89999999851,46891.29999999702,59640,61395.5,64669.89999999851,67282.79999999702,83398.79999999702,84974.29999999702,87421.19999999553,90377,91211.89999999851,91773.5,92756],"honeypot":0,"survey":"mace","page":7,"trial_type":"survey-mace","trial_index":15,"time_elapsed":1078542,"internal_node_id":"0.0-15.0","task_version":"prescreen-v0.3","browser_interactions":0},{"responses":{"01":"No","02":"Yes","02_ages_1":"1","02_ages_2":"2","02_ages_3":"3","02_ages_4":"4","02_ages_5":"5","02_ages_6":"6","02_ages_7":"7","02_ages_8":"8","02_ages_9":"9","02_ages_10":"10","02_ages_11":"11","02_ages_12":"12","02_ages_13":"13","02_ages_14":"14","02_ages_15":"15","02_ages_16":"16","02_ages_17":"17","02_ages_18":"18","03":"Yes","03_ages_6":"6","03_ages_7":"7","03_ages_8":"8","03_ages_9":"9","03_ages_10":"10","03_ages_11":"11","03_ages_12":"12","03_ages_13":"13","03_ages_14":"14","03_ages_15":"15","03_ages_16":"16","03_ages_17":"17","03_ages_18":"18","04":"Yes","04_ages_5":"5","04_ages_6":"6","04_ages_7":"7","04_ages_8":"8","04_ages_9":"9","04_ages_10":"10","04_ages_11":"11","04_ages_12":"12","04_ages_13":"13","04_ages_14":"14","04_ages_15":"15","04_ages_16":"16","04_ages_17":"17","04_ages_18":"18"},"rt":116434.70000000298,"item_order":[0,1,2,3],"radio_events":[11761.39999999851,53754.5,60214.5,80316.60000000149],"checkbox_events":[19620.10000000149,20330,21087.10000000149,22262.10000000149,23108.10000000149,24263.79999999702,24953.60000000149,25497.10000000149,27548.39999999851,29782.60000000149,30287.60000000149,30900.79999999702,31462,32600.29999999702,33113.20000000298,44740.20000000298,45750.20000000298,46284,64033.5,65287,66588.5,67113.20000000298,67627.89999999851,68191.79999999702,68727.70000000298,69356.60000000149,70309.89999999851,75166.60000000149,75837.79999999702,76332.20000000298,77762.29999999702,86175.70000000298,87167.5,87789.29999999702,88545.89999999851,90285.70000000298,91723.79999999702,92266.70000000298,92735.39999999851,93179.70000000298,93860.29999999702,94385.20000000298,95161.5,96706.29999999702,110776,113146.10000000149,113846.89999999851],"key_events":[],"mouse_events":[11761.39999999851,19620.10000000149,20330,21087.10000000149,21602.10000000149,22262.10000000149,22641.20000000298,23108.10000000149,24263.79999999702,24953.60000000149,25497.10000000149,25934.20000000298,26915.29999999702,27548.39999999851,28294.79999999702,29782.60000000149,30287.60000000149,30900.79999999702,31462,32600.29999999702,33113.20000000298,44740.20000000298,45352.89999999851,45750.20000000298,46284,53754.5,60214.5,64033.5,64547.5,65287,65812,66588.5,67113.20000000298,67627.89999999851,68191.79999999702,68727.70000000298,69356.60000000149,69816.10000000149,70309.89999999851,75166.60000000149,75837.79999999702,76332.20000000298,77762.29999999702,80316.60000000149,86175.70000000298,86730,87167.5,87789.29999999702,88545.89999999851,89060.5,89800.89999999851,90285.70000000298,90849.10000000149,91723.79999999702,92266.70000000298,92735.39999999851,93179.70000000298,93860.29999999702,94385.20000000298,95161.5,96706.29999999702,110776,113146.10000000149,113846.89999999851,116430.5],"honeypot":0,"survey":"mace","page":8,"trial_type":"survey-mace","trial_index":16,"time_elapsed":1194982,"internal_node_id":"0.0-16.0","task_version":"prescreen-v0.3","browser_interactions":0},{"responses":{"01":"Yes","01_ages_1":"1","01_ages_2":"2","01_ages_3":"3","01_ages_4":"4","01_ages_17":"17","01_ages_18":"18","02":"No","03":"Yes","03_ages_1":"1","03_ages_2":"2","03_ages_3":"3","03_ages_4":"4","03_ages_5":"5","03_ages_6":"6","03_ages_7":"7","03_ages_8":"8","03_ages_9":"9","03_ages_10":"10","03_ages_11":"11","03_ages_12":"12","03_ages_13":"13","03_ages_14":"14","03_ages_15":"15","03_ages_16":"16","03_ages_17":"17","03_ages_18":"18","04":"Yes","04_ages_1":"1","04_ages_2":"2","04_ages_3":"3","04_ages_4":"4","04_ages_5":"5","04_ages_6":"6","04_ages_7":"7","04_ages_8":"8","04_ages_9":"9","04_ages_10":"10","04_ages_11":"11","04_ages_12":"12","04_ages_13":"13","04_ages_14":"14","04_ages_15":"15","04_ages_16":"16","04_ages_17":"17","04_ages_18":"18"},"rt":104655.5,"item_order":[0,1,2,3],"radio_events":[11950.60000000149,23134.70000000298,55908.60000000149,87548.30000000447],"checkbox_events":[24951.39999999851,25603.80000000447,26156,26758.39999999851,27273.30000000447,27798.80000000447,28206.39999999851,28624.5,29247.5,30647,31733,32181.20000000298,32724,33395.30000000447,33920.60000000149,34561.30000000447,35261.80000000447,35729.5,62263.89999999851,62955.5,63439.30000000447,63935.60000000149,64431.39999999851,64936.10000000149,65384.30000000447,65888.20000000298,66364.80000000447,67035.89999999851,67481,69550.70000000298,75003.70000000298,75751.70000000298,76451.30000000447,77143.89999999851,78258.70000000298,79482.80000000447,88735.30000000447,89513.20000000298,89999.20000000298,90852.80000000447,101677.80000000447,102348.70000000298],"key_events":[],"mouse_events":[6479.5,11950.60000000149,23134.70000000298,24951.39999999851,25603.80000000447,26156,26758.39999999851,27273.30000000447,27798.80000000447,28206.39999999851,28624.5,29247.5,29944.60000000149,30647,31111.39999999851,31733,32181.20000000298,32724,33395.30000000447,33920.60000000149,34561.30000000447,35261.80000000447,35729.5,55908.60000000149,62263.89999999851,62955.5,63439.30000000447,63935.60000000149,64431.39999999851,64936.10000000149,65384.30000000447,65888.20000000298,66364.80000000447,67035.89999999851,67481,68230.30000000447,69550.70000000298,75003.70000000298,75751.70000000298,76451.30000000447,77143.89999999851,77724.10000000149,78258.70000000298,78821.70000000298,79482.80000000447,87548.30000000447,88735.30000000447,89513.20000000298,89999.20000000298,90852.80000000447,93873.60000000149,95673.60000000149,101677.80000000447,102348.70000000298,104652.10000000149],"honeypot":0,"survey":"mace","page":9,"trial_type":"survey-mace","trial_index":17,"time_elapsed":1299643,"internal_node_id":"0.0-17.0","task_version":"prescreen-v0.3","browser_interactions":0},{"responses":{"01":"No","02":"No","03":"No","04":"No","05":"No","06":"Yes","06_ages_17":"17","07":"Yes","07_ages_1":"1","07_ages_2":"2","07_ages_3":"3","07_ages_4":"4","07_ages_5":"5","07_ages_6":"6","07_ages_7":"7","07_ages_8":"8","07_ages_9":"9","07_ages_10":"10","07_ages_11":"11","07_ages_12":"12","07_ages_13":"13","07_ages_14":"14","07_ages_15":"15","07_ages_16":"16","07_ages_17":"17","07_ages_18":"18","08":"No"},"rt":57770.19999999553,"item_order":[0,1,2,3,4,5,6,7],"radio_events":[4945,6985.79999999702,13166.19999999553,17014.69999999553,20085.19999999553,31960.10000000149,38150.19999999553,55265.39999999851],"checkbox_events":[21690.5,40541.69999999553,40970.79999999702,41435.69999999553,42271.79999999702,42767.89999999851,43253.10000000149,43875.89999999851,44293.60000000149,44710.79999999702,45343.5,46119.39999999851,46624.79999999702,47811.60000000149,48229.10000000149,48832.10000000149,49318.79999999702,49774.39999999851,50415.69999999553],"key_events":[],"mouse_events":[4945,6985.79999999702,13166.19999999553,17014.69999999553,20085.19999999553,21690.5,31960.10000000149,38150.19999999553,40541.69999999553,40970.79999999702,41435.69999999553,42271.79999999702,42767.89999999851,43253.10000000149,43875.89999999851,44293.60000000149,44710.79999999702,45343.5,45752.19999999553,46119.39999999851,46624.79999999702,47276,47811.60000000149,48229.10000000149,48832.10000000149,49318.79999999702,49774.39999999851,50415.69999999553,55265.39999999851,57763.5],"honeypot":0,"survey":"mace","page":10,"trial_type":"survey-mace","trial_index":18,"time_elapsed":1357423,"internal_node_id":"0.0-18.0","task_version":"prescreen-v0.3","browser_interactions":0,"instructed":0},{"rt":16720,"trial_type":"mental-health-alert","trial_index":19,"time_elapsed":1374146,"internal_node_id":"0.0-19.0","task_version":"prescreen-v0.3","interactions":"[]"}]