[{"view_history":[{"page_index":0,"viewing_time":1962},{"page_index":1,"viewing_time":2341.800000011921},{"page_index":2,"viewing_time":2947.7999999523163},{"page_index":3,"viewing_time":1666.1000000238419}],"rt":8919.800000011921,"trial_type":"instructions","trial_index":0,"time_elapsed":8926,"internal_node_id":"0.0-0.0","task_version":"prescreen-v0.3"},{"rt":17874.19999998808,"responses":{"age":"19","gender-categorical":"Other","gender-free-response":"Demigirl","ethnicity":"Not Hispanic or Latino","race":["White"],"education":"Some college"},"trial_type":"survey-demo","trial_index":1,"time_elapsed":26815,"internal_node_id":"0.0-1.0","task_version":"prescreen-v0.3"},{"responses":{"Q16":"2","Q11":"2","Q10":"3","Q02":"2","Q09":"0","Q05":"1","Q21":"3","Q12":"2","Q17":"1","Q03":"1","Q01":"3","Q14":"2","Q06":"0","Q20":"3","Q04":"2","Q07":"0","Q08":"2","Q19":"1","Q13":"3","Q15":"3","Q18":"2"},"rt":108855.09999996424,"item_order":[15,10,9,1,8,4,20,11,16,2,0,13,5,19,3,6,7,18,12,14,17],"radio_events":[15274.699999988079,21032,23527.599999964237,27288.19999998808,29480.80000001192,38767.39999997616,43427,52337.19999998808,53331.09999996424,56173.69999998808,57833,65704.30000001192,66792.80000001192,69934,76659.5,80531.59999996424,87792.39999997616,88729,91866.5,102616.80000001192,106397.19999998808,108097.09999996424],"key_events":[],"mouse_events":[15274.699999988079,21032,23527.599999964237,27288.19999998808,29480.80000001192,38767.39999997616,43427,49035.89999997616,52337.19999998808,53331.09999996424,56173.69999998808,57833,63536.89999997616,65704.30000001192,66792.80000001192,69934,76659.5,80531.59999996424,84019.30000001192,87125.80000001192,87792.39999997616,88729,91866.5,102616.80000001192,106397.19999998808,108097.09999996424,108848.69999998808],"straightlining":0.38095238095238093,"zigzagging":0.5,"honeypot":0,"survey":"sns","trial_type":"survey-template","trial_index":2,"time_elapsed":135687,"internal_node_id":"0.0-2.0","task_version":"prescreen-v0.3","browser_interactions":0,"infrequency":0},{"responses":{"Q09":"1","Q06":"2","Q05":"2","Q03":"3","Q01":"3","Q04":"3","Q13":"0","Q07":"3","Q12":"1","Q10":"1","Q02":"3","Q08":"2","Q11":"1"},"rt":53594.5,"item_order":[8,5,4,2,0,3,12,6,11,9,1,7,10],"radio_events":[6822.199999988079,14084.199999988079,17707.899999976158,22172.19999998808,23380,25983.399999976158,28199.599999964237,31672,37709.59999996424,41983,43822.5,47587.69999998808,52508.09999996424],"key_events":[],"mouse_events":[6822.199999988079,14084.199999988079,17707.899999976158,22172.19999998808,23380,25983.399999976158,28199.599999964237,31672,37709.59999996424,41983,43822.5,47587.69999998808,52508.09999996424,53591.09999996424],"straightlining":0.38461538461538464,"zigzagging":0.5,"honeypot":0,"survey":"bisbas","trial_type":"survey-template","trial_index":3,"time_elapsed":189291,"internal_node_id":"0.0-3.0","task_version":"prescreen-v0.3","browser_interactions":0,"infrequency":0},{"responses":{"Q01":"2","Q02":"2","Q03":"2"},"rt":28462.30000001192,"radio_events":[12631.800000011921,15038.599999964237,24860.80000001192,27656.30000001192],"key_events":[],"mouse_events":[12631.800000011921,15038.599999964237,24860.80000001192,27656.30000001192,28460.69999998808],"survey":"map","page":1,"trial_type":"survey-map","trial_index":4,"time_elapsed":217764,"internal_node_id":"0.0-4.0","task_version":"prescreen-v0.3","browser_interactions":0},{"responses":{"Q04":"3","Q05":"1","Q06":"2"},"rt":15313,"radio_events":[4452.399999976158,6878.199999988079,13746.699999988079],"key_events":[],"mouse_events":[4452.399999976158,6878.199999988079,13746.699999988079,15311.599999964237],"survey":"map","page":2,"trial_type":"survey-map","trial_index":5,"time_elapsed":233083,"internal_node_id":"0.0-5.0","task_version":"prescreen-v0.3","browser_interactions":0},{"responses":{"Q07":"1","Q08":"0","Q09":"3"},"rt":11318.600000023842,"radio_events":[5193.899999976158,7407.399999976158,10472.899999976158],"key_events":[],"mouse_events":[5193.899999976158,7407.399999976158,10472.899999976158,11317.199999988079],"survey":"map","page":3,"trial_type":"survey-map","trial_index":6,"time_elapsed":244408,"internal_node_id":"0.0-6.0","task_version":"prescreen-v0.3","browser_interactions":0},{"responses":{"Q10":"0","Q11":"1","Q12":"1","Q13":"1","Q16":"0","Q14":"2","Q15":"2"},"rt":38210.30000001192,"radio_events":[10052.600000023842,13866.699999988079,17523.69999998808,25718.30000001192,28974.80000001192,32358.5,36920.19999998808],"key_events":[],"mouse_events":[10052.600000023842,13199.600000023842,13866.699999988079,17523.69999998808,23117.5,25718.30000001192,28974.80000001192,32358.5,36286.19999998808,36920.19999998808,38207.10000002384],"survey":"map","page":4,"trial_type":"survey-map","trial_index":7,"time_elapsed":282625,"internal_node_id":"0.0-7.0","task_version":"prescreen-v0.3","browser_interactions":0,"infrequency":0},{"view_history":[{"page_index":0,"viewing_time":1843.699999988079},{"page_index":1,"viewing_time":16936.600000023842}],"rt":18782.19999998808,"trial_type":"instructions","trial_index":8,"time_elapsed":301411,"internal_node_id":"0.0-8.0","task_version":"prescreen-v0.3"},{"responses":{"01":"Yes","01_ages_5":"5","01_ages_6":"6","01_ages_7":"7","01_ages_8":"8","01_ages_9":"9","01_ages_10":"10","01_ages_11":"11","01_ages_12":"12","01_ages_13":"13","01_ages_14":"14","01_ages_15":"15","01_ages_16":"16","01_ages_17":"17","01_ages_18":"18","02":"Yes","02_ages_5":"5","02_ages_6":"6","02_ages_7":"7","02_ages_8":"8","02_ages_9":"9","02_ages_10":"10","02_ages_11":"11","02_ages_12":"12","02_ages_13":"13","02_ages_14":"14","02_ages_15":"15","02_ages_16":"16","02_ages_18":"18","03":"Yes","03_ages_10":"10","03_ages_11":"11","03_ages_12":"12","03_ages_13":"13","04":"Yes","04_ages_17":"17","04_ages_18":"18","05":"No","06":"No"},"rt":63509.89999997616,"item_order":[0,1,2,3,4,5],"radio_events":[4284.300000011921,22608,43660.60000002384,51035.39999997616,55315.80000001192,57436.5],"checkbox_events":[8879.100000023842,9987.800000011921,10663.100000023842,11189.600000023842,11860.699999988079,12572,13225.100000023842,13856.5,14445.699999988079,15303.199999988079,15925.300000011921,16531.5,17283.100000023842,17895.80000001192,30270.19999998808,31688,32337,32910.89999997616,33560.5,34281.5,35691.10000002384,37077.30000001192,38013.10000002384,38710.60000002384,39467.19999998808,40075.89999997616,41010.69999998808,45094.69999998808,47524.60000002384,48355.5,48860.19999998808,52416.19999998808,53091.89999997616],"key_events":[],"mouse_events":[0.30000001192092896,4284.300000011921,8879.100000023842,9987.800000011921,10663.100000023842,11189.600000023842,11860.699999988079,12572,13225.100000023842,13856.5,14445.699999988079,15303.199999988079,15925.300000011921,16531.5,17283.100000023842,17895.80000001192,22608,26329.5,30270.19999998808,31211.100000023842,31688,32337,32910.89999997616,33560.5,34281.5,35017.60000002384,35691.10000002384,36218.5,37077.30000001192,38013.10000002384,38710.60000002384,39467.19999998808,40075.89999997616,41010.69999998808,43660.60000002384,45094.69999998808,47524.60000002384,48355.5,48860.19999998808,51035.39999997616,52416.19999998808,53091.89999997616,55315.80000001192,57436.5,63499.5],"honeypot":0,"survey":"mace","page":1,"trial_type":"survey-mace","trial_index":9,"time_elapsed":364942,"internal_node_id":"0.0-9.0","task_version":"prescreen-v0.3","browser_interactions":0},{"responses":{"01":"No","02":"No","03":"Yes","03_ages_6":"6","04":"No","05":"No","06":"Yes","06_ages_10":"10","06_ages_11":"11","06_ages_12":"12","06_ages_13":"13","06_ages_14":"14","06_ages_17":"17","06_ages_18":"18","07":"No","08":"No"},"rt":59266.60000002384,"item_order":[0,1,2,3,4,5,6,7],"radio_events":[7675.700000047684,13268.300000011921,14237.600000023842,18597.600000023842,21213.200000047684,26443.5,27392.600000023842,32212.30000001192,44387.90000003576,53018.5],"checkbox_events":[15552,36772.90000003576,37387.10000002384,38134.80000001192,38995.200000047684,40183,55608.40000003576,56625.90000003576],"key_events":[],"mouse_events":[7675.700000047684,11999.400000035763,13268.300000011921,14237.600000023842,15552,18597.600000023842,21213.200000047684,26443.5,27392.600000023842,32212.30000001192,36772.90000003576,37387.10000002384,38134.80000001192,38995.200000047684,40183,44387.90000003576,53018.5,55608.40000003576,56625.90000003576,59256.40000003576],"honeypot":0,"survey":"mace","page":2,"trial_type":"survey-mace","trial_index":10,"time_elapsed":424220,"internal_node_id":"0.0-10.0","task_version":"prescreen-v0.3","browser_interactions":0},{"responses":{"01":"No","02":"No","03":"No","04":"No"},"rt":14472.600000023842,"item_order":[0,1,2,3],"radio_events":[6255.600000023842,9772,11919.900000035763,13027.100000023842],"checkbox_events":[],"key_events":[],"mouse_events":[6255.600000023842,9772,11919.900000035763,13027.100000023842,14466.900000035763],"honeypot":0,"survey":"mace","page":3,"trial_type":"survey-mace","trial_index":11,"time_elapsed":438701,"internal_node_id":"0.0-11.0","task_version":"prescreen-v0.3","browser_interactions":0},{"responses":{"01":"Yes","01_ages_4":"4","01_ages_5":"5","01_ages_6":"6","02":"Yes","02_ages_4":"4","02_ages_5":"5","02_ages_6":"6"},"rt":17531.200000047684,"item_order":[0,1],"radio_events":[5754.600000023842,12812.900000035763],"checkbox_events":[7937.700000047684,8674,9335.800000011921,13875.5,14927,15642.400000035763],"key_events":[],"mouse_events":[5754.600000023842,7937.700000047684,8674,9335.800000011921,12812.900000035763,13875.5,14445.200000047684,14927,15642.400000035763,17528.30000001192],"honeypot":0,"survey":"mace","page":4,"trial_type":"survey-mace","trial_index":12,"time_elapsed":456238,"internal_node_id":"0.0-12.0","task_version":"prescreen-v0.3","browser_interactions":0},{"responses":{"01":"No","02":"No","03":"No","04":"No","05":"No"},"rt":28054.19999998808,"item_order":[0,1,2,3,4],"radio_events":[12311.800000011921,15388.400000035763,16871.5,21879.900000035763,26778.19999998808],"checkbox_events":[],"key_events":[],"mouse_events":[12311.800000011921,15388.400000035763,16871.5,21879.900000035763,26778.19999998808,28046.900000035763],"honeypot":0,"survey":"mace","page":5,"trial_type":"survey-mace","trial_index":13,"time_elapsed":484302,"internal_node_id":"0.0-13.0","task_version":"prescreen-v0.3","browser_interactions":0},{"responses":{"01":"Yes","01_ages_4":"4","01_ages_5":"5","02":"Yes","02_ages_4":"4","02_ages_5":"5","02_ages_9":"9","02_ages_10":"10","03":"Yes","03_ages_9":"9","03_ages_10":"10","03_ages_11":"11","04":"Yes","04_ages_4":"4","04_ages_5":"5","05":"No"},"rt":34266.19999998808,"item_order":[0,1,2,3,4],"radio_events":[6219.099999964237,17428.399999976158,23712.099999964237,28854.599999964237,33372.39999997616],"checkbox_events":[12928.799999952316,14272.399999976158,18605.19999998808,19296.099999964237,20406.19999998808,21100,25198.5,26090.299999952316,26703.299999952316,30198.5,30969.69999998808],"key_events":[],"mouse_events":[6219.099999964237,12928.799999952316,13837.699999988079,14272.399999976158,17428.399999976158,18605.19999998808,19296.099999964237,20406.19999998808,21100,23712.099999964237,25198.5,26090.299999952316,26703.299999952316,28854.599999964237,30198.5,30969.69999998808,33372.39999997616,34259.69999998808],"honeypot":0,"survey":"mace","page":6,"trial_type":"survey-mace","trial_index":14,"time_elapsed":518577,"internal_node_id":"0.0-14.0","task_version":"prescreen-v0.3","browser_interactions":0},{"responses":{"01":"No","02":"No","03":"Yes","03_ages_5":"5","04":"No","05":"No","06":"Yes","06_ages_4":"4","06_ages_5":"5","06_ages_6":"6","07":"Yes","07_ages_4":"4","07_ages_5":"5","07_ages_6":"6"},"rt":35876.30000001192,"item_order":[0,1,2,3,4,5,6],"radio_events":[4490.300000011921,7851.400000035763,10538.600000023842,14746,16197.800000011921,24753.600000023842,30003.5],"checkbox_events":[12050.900000035763,26412.100000023842,27165.80000001192,27962.700000047684,33458.90000003576,34080.5,34826.700000047684],"key_events":[],"mouse_events":[4490.300000011921,7851.400000035763,10538.600000023842,12050.900000035763,14746,16197.800000011921,24753.600000023842,26412.100000023842,27165.80000001192,27962.700000047684,30003.5,32787.200000047684,33458.90000003576,34080.5,34826.700000047684,35865.80000001192],"honeypot":0,"survey":"mace","page":7,"trial_type":"survey-mace","trial_index":15,"time_elapsed":554464,"internal_node_id":"0.0-15.0","task_version":"prescreen-v0.3","browser_interactions":0},{"responses":{"01":"Yes","01_ages_1":"1","01_ages_2":"2","01_ages_3":"3","01_ages_4":"4","01_ages_5":"5","01_ages_6":"6","01_ages_7":"7","01_ages_8":"8","01_ages_9":"9","01_ages_10":"10","01_ages_11":"11","01_ages_12":"12","02":"No","03":"Yes","03_ages_15":"15","03_ages_16":"16","03_ages_17":"17","03_ages_18":"18","04":"Yes","04_ages_5":"5","04_ages_6":"6","04_ages_7":"7","04_ages_8":"8","04_ages_9":"9","04_ages_10":"10","04_ages_11":"11","04_ages_12":"12"},"rt":59627.30000001192,"item_order":[0,1,2,3],"radio_events":[8682,36232.90000003576,39189.5,50713.90000003576],"checkbox_events":[21394.900000035763,22306.900000035763,22901.600000023842,23581.200000047684,24398.5,25026.700000047684,25601.5,26475.900000035763,27108.600000023842,27903.80000001192,28569.200000047684,29481.700000047684,44723.90000003576,45420.40000003576,46603.200000047684,47197.200000047684,52017.700000047684,52599.200000047684,53149.40000003576,53889.30000001192,55525.90000003576,55981.10000002384,56559.90000003576,58232.200000047684],"key_events":[],"mouse_events":[7162.300000011921,8682,21394.900000035763,22306.900000035763,22901.600000023842,23581.200000047684,24398.5,25026.700000047684,25601.5,26475.900000035763,27108.600000023842,27903.80000001192,28569.200000047684,29481.700000047684,36232.90000003576,39189.5,44723.90000003576,45420.40000003576,46004,46603.200000047684,47197.200000047684,50713.90000003576,52017.700000047684,52599.200000047684,53149.40000003576,53889.30000001192,54633.60000002384,55525.90000003576,55981.10000002384,56559.90000003576,58232.200000047684,59622.10000002384],"honeypot":0,"survey":"mace","page":8,"trial_type":"survey-mace","trial_index":16,"time_elapsed":614100,"internal_node_id":"0.0-16.0","task_version":"prescreen-v0.3","browser_interactions":0},{"responses":{"01":"Yes","01_ages_8":"8","01_ages_9":"9","01_ages_10":"10","01_ages_11":"11","01_ages_16":"16","01_ages_17":"17","01_ages_18":"18","02":"Yes","02_ages_16":"16","02_ages_17":"17","02_ages_18":"18","03":"Yes","03_ages_10":"10","03_ages_11":"11","03_ages_12":"12","03_ages_13":"13","03_ages_14":"14","03_ages_15":"15","03_ages_16":"16","03_ages_17":"17","04":"Yes","04_ages_12":"12"},"rt":43742.5,"item_order":[0,1,2,3],"radio_events":[5641.800000011921,21705.899999976158,27133.69999998808,38776],"checkbox_events":[10982.899999976158,11766.300000011921,12383.899999976158,12968,14256.699999988079,14991,16530.30000001192,22942,23548.30000001192,24155.899999976158,28264.899999976158,28878.600000023842,29605.5,30603.80000001192,31223.600000023842,32644.100000023842,33984.60000002384,34578.5,41585.5],"key_events":[],"mouse_events":[5641.800000011921,10982.899999976158,11766.300000011921,12383.899999976158,12968,14256.699999988079,14991,15601.600000023842,16530.30000001192,21705.899999976158,22942,23548.30000001192,24155.899999976158,27133.69999998808,28264.899999976158,28878.600000023842,29605.5,30603.80000001192,31223.600000023842,32644.100000023842,33420.5,33984.60000002384,34578.5,38776,41585.5,43737.30000001192],"honeypot":0,"survey":"mace","page":9,"trial_type":"survey-mace","trial_index":17,"time_elapsed":657851,"internal_node_id":"0.0-17.0","task_version":"prescreen-v0.3","browser_interactions":0},{"responses":{"01":"No","02":"No","03":"No","04":"No","05":"Yes","05_ages_6":"6","05_ages_7":"7","05_ages_8":"8","05_ages_9":"9","05_ages_10":"10","05_ages_11":"11","05_ages_12":"12","05_ages_13":"13","05_ages_14":"14","05_ages_15":"15","05_ages_16":"16","05_ages_17":"17","05_ages_18":"18","06":"Yes","06_ages_17":"17","07":"Yes","07_ages_16":"16","07_ages_17":"17","07_ages_18":"18","08":"No"},"rt":46166.40000003576,"item_order":[0,1,2,3,4,5,6,7],"radio_events":[3320.800000011921,4363.300000011921,10638.800000011921,13111.300000011921,15570.300000011921,31440.19999998808,39086.80000001192,45221.19999998808],"checkbox_events":[17106.600000023842,17693.100000023842,18468.5,20172.900000035763,20889.30000001192,22557.900000035763,23736.400000035763,24619.19999998808,25610.5,26420.5,26994.900000035763,28462.100000023842,29118.900000035763,32913.5,41349.90000003576,42339.90000003576,42882.90000003576],"key_events":[],"mouse_events":[3320.800000011921,4363.300000011921,10638.800000011921,13111.300000011921,15570.300000011921,17106.600000023842,17693.100000023842,18468.5,19081.19999998808,19533.100000023842,20172.900000035763,20889.30000001192,22557.900000035763,23736.400000035763,24619.19999998808,25190.100000023842,25610.5,26420.5,26994.900000035763,27744.80000001192,28462.100000023842,29118.900000035763,31440.19999998808,32913.5,39086.80000001192,41349.90000003576,41909.40000003576,42339.90000003576,42882.90000003576,45221.19999998808,46155.90000003576],"honeypot":0,"survey":"mace","page":10,"trial_type":"survey-mace","trial_index":18,"time_elapsed":704027,"internal_node_id":"0.0-18.0","task_version":"prescreen-v0.3","browser_interactions":0,"instructed":0},{"rt":7182.800000011921,"trial_type":"mental-health-alert","trial_index":19,"time_elapsed":711215,"internal_node_id":"0.0-19.0","task_version":"prescreen-v0.3","interactions":"[]"}]