[{"view_history":[{"page_index":0,"viewing_time":26056.5},{"page_index":1,"viewing_time":97214.5},{"page_index":2,"viewing_time":9983.800000000047},{"page_index":3,"viewing_time":4584}],"rt":137839.5,"trial_type":"instructions","trial_index":0,"time_elapsed":137852,"internal_node_id":"0.0-0.0","task_version":"prescreen-v0.3"},{"rt":34323,"responses":{"age":"34","gender-categorical":"Male","gender-free-response":"","ethnicity":"Not Hispanic or Latino","race":["White"],"education":"Bachelor degree","siblings":"2"},"trial_type":"survey-demo","trial_index":1,"time_elapsed":172181,"internal_node_id":"0.0-1.0","task_version":"prescreen-v0.3"},{"responses":{"Q20":"0","Q12":"0","Q03":"0","Q17":"0","Q14":"0","Q15":"0","Q18":"0","Q05":"0","Q09":"0","Q06":"0","Q16":"0","Q02":"0","Q19":"0","Q04":"0","Q21":"0","Q10":"0","Q11":"0","Q13":"0","Q07":"0","Q08":"0","Q01":"0"},"rt":273130.1000000001,"item_order":[19,11,2,16,13,14,17,4,8,5,15,1,18,3,20,9,10,12,6,7,0],"radio_events":[7051.40000000014,48186.5,50474.40000000014,50970.40000000014,53114.60000000009,55890.40000000014,58514.40000000014,65866.5,80154.1000000001,92858.1000000001,100818,103786.70000000019,124273.80000000005,188809,211713.6000000001,212352.6000000001,230576.40000000014,255752.1000000001,256560.1000000001,259240,260400.1000000001,265880.1000000001],"key_events":[],"mouse_events":[7051.40000000014,48186.5,49058.700000000186,49594.5,49986.5,50474.40000000014,50970.40000000014,51818.5,52570.40000000014,53114.60000000009,55890.40000000014,57082.60000000009,58122.30000000005,58514.40000000014,65866.5,80154.1000000001,92858.1000000001,99522.1000000001,100818,103786.70000000019,124273.80000000005,188809,211713.6000000001,212352.6000000001,230008.5,230576.40000000014,245216.2000000002,251672,254200.1000000001,255072.1000000001,255456,255752.1000000001,256560.1000000001,257232.2000000002,258104.1000000001,259240,260400.1000000001,265880.1000000001,273128],"straightlining":1,"zigzagging":0,"honeypot":0,"survey":"sns","trial_type":"survey-template","trial_index":2,"time_elapsed":445316,"internal_node_id":"0.0-2.0","task_version":"prescreen-v0.3","browser_interactions":2,"infrequency":1},{"responses":{"Q09":"2","Q03":"2","Q08":"3","Q06":"2","Q12":"1","Q07":"2","Q05":"2","Q02":"0","Q10":"2","Q13":"0","Q04":"2","Q01":"1","Q11":"3"},"rt":94192.59999999986,"item_order":[8,2,7,5,11,6,4,1,9,12,3,0,10],"radio_events":[10448.399999999907,15360.199999999953,20784.300000000047,32952.19999999995,35120.19999999995,38096.09999999986,39111.99999999977,42767.90000000014,48432.69999999995,56600.09999999986,58000.09999999986,60671.80000000005,61215.99999999977,68647.69999999995,76231.59999999986,78975.59999999986,80975.59999999986,84191.49999999977,92175.40000000014,92615.40000000014],"key_events":[],"mouse_events":[9680.59999999986,10448.399999999907,15360.199999999953,20784.300000000047,32952.19999999995,35120.19999999995,37352.59999999986,37767.99999999977,38096.09999999986,39111.99999999977,42767.90000000014,44727.99999999977,45959.90000000014,48432.69999999995,56600.09999999986,58000.09999999986,60671.80000000005,61215.99999999977,68647.69999999995,76231.59999999986,78528.19999999995,78975.59999999986,80975.59999999986,82183.99999999977,82799.40000000014,83367.49999999977,84191.49999999977,91855.49999999977,92175.40000000014,92615.40000000014,94191.49999999977],"straightlining":0.5384615384615384,"zigzagging":0.4166666666666667,"honeypot":0,"survey":"bisbas","trial_type":"survey-template","trial_index":3,"time_elapsed":539513,"internal_node_id":"0.0-3.0","task_version":"prescreen-v0.3","browser_interactions":2,"infrequency":0},{"responses":{"Q01":"3","Q02":"3","Q03":"3"},"rt":14372.80000000028,"radio_events":[4572,6579.800000000279,8523.80000000028,9307.80000000028,13307.700000000186],"key_events":[],"mouse_events":[4572,5492.200000000186,5827.700000000186,6579.800000000279,8523.80000000028,9307.80000000028,12259.700000000186,12915.600000000093,13307.700000000186,14371.700000000186],"survey":"map","page":1,"trial_type":"survey-map","trial_index":4,"time_elapsed":553888,"internal_node_id":"0.0-4.0","task_version":"prescreen-v0.3","browser_interactions":0},{"responses":{"Q04":"3","Q05":"3","Q06":"3"},"rt":8100.9000000003725,"radio_events":[4661.300000000279,5668.600000000093,6988.5],"key_events":[],"mouse_events":[4661.300000000279,5668.600000000093,6988.5,8100.4000000003725],"survey":"map","page":2,"trial_type":"survey-map","trial_index":5,"time_elapsed":561991,"internal_node_id":"0.0-5.0","task_version":"prescreen-v0.3","browser_interactions":0},{"responses":{"Q07":"3","Q08":"3","Q09":"3"},"rt":11510.399999999907,"radio_events":[7054.600000000093,8909.899999999907,10470.399999999907],"key_events":[],"mouse_events":[7054.600000000093,8174,8597.700000000186,8909.899999999907,9557.899999999907,10021.80000000028,10470.399999999907,11509.899999999907],"survey":"map","page":3,"trial_type":"survey-map","trial_index":6,"time_elapsed":573503,"internal_node_id":"0.0-6.0","task_version":"prescreen-v0.3","browser_interactions":0},{"responses":{"Q10":"3","Q11":"4","Q12":"3","Q13":"4","Q16":"0","Q14":"4","Q15":"3"},"rt":139644.8999999999,"radio_events":[104523.3999999999,108164.3999999999,110299.3999999999,116643.5,118483.3999999999,120036.20000000019,122035.30000000028,130491.1000000001,130851.1000000001],"key_events":[],"mouse_events":[104035.6000000001,104523.3999999999,107259.6000000001,107851.3999999999,108164.3999999999,110299.3999999999,116643.5,118483.3999999999,119675.8999999999,120036.20000000019,122035.30000000028,129107.30000000028,129587.20000000019,130035.6000000001,130491.1000000001,130851.1000000001,139643.8999999999],"survey":"map","page":4,"trial_type":"survey-map","trial_index":7,"time_elapsed":713151,"internal_node_id":"0.0-7.0","task_version":"prescreen-v0.3","browser_interactions":2,"infrequency":0},{"view_history":[{"page_index":0,"viewing_time":3348.600000000093},{"page_index":1,"viewing_time":8191.699999999721}],"rt":11541.100000000093,"trial_type":"instructions","trial_index":8,"time_elapsed":724693,"internal_node_id":"0.0-8.0","task_version":"prescreen-v0.3"},{"responses":{"01":"No","02":"No","03":"No","04":"No","05":"No","06":"No"},"rt":46173,"item_order":[0,1,2,3,4,5],"radio_events":[13426.100000000093,16937.700000000186,18017.799999999814,21649.799999999814,28001.700000000186,40625.60000000009],"checkbox_events":[],"key_events":[],"mouse_events":[0.10000000009313226,13426.100000000093,16130.700000000186,16937.700000000186,18017.799999999814,19065.700000000186,20569.600000000093,21313.600000000093,21649.799999999814,28001.700000000186,39881.299999999814,40625.60000000009,46170.200000000186],"honeypot":0,"survey":"mace","page":1,"trial_type":"survey-mace","trial_index":9,"time_elapsed":770872,"internal_node_id":"0.0-9.0","task_version":"prescreen-v0.3","browser_interactions":0},{"responses":{"01":"No","02":"No","03":"No","04":"No","05":"No","06":"No","07":"No","08":"No"},"rt":26948.399999999907,"item_order":[0,1,2,3,4,5,6,7],"radio_events":[21096.600000000093,21912.799999999814,22624.700000000186,23353.399999999907,24120.700000000186,24720.600000000093,25240.799999999814,25880.700000000186],"checkbox_events":[],"key_events":[],"mouse_events":[21096.600000000093,21912.799999999814,22624.700000000186,23353.399999999907,24120.700000000186,24720.600000000093,25240.799999999814,25880.700000000186,26944.700000000186],"honeypot":0,"survey":"mace","page":2,"trial_type":"survey-mace","trial_index":10,"time_elapsed":797824,"internal_node_id":"0.0-10.0","task_version":"prescreen-v0.3","browser_interactions":0},{"responses":{"01":"No","02":"No","03":"No","04":"No"},"rt":84058.20000000019,"item_order":[0,1,2,3],"radio_events":[81049,81888.20000000019,82576.1000000001,83224.40000000037],"checkbox_events":[],"key_events":[],"mouse_events":[81049,81888.20000000019,82576.1000000001,83224.40000000037,84056.30000000028],"honeypot":0,"survey":"mace","page":3,"trial_type":"survey-mace","trial_index":11,"time_elapsed":881885,"internal_node_id":"0.0-11.0","task_version":"prescreen-v0.3","browser_interactions":0},{"responses":{"01":"No","02":"No"},"rt":4148.700000000186,"item_order":[0,1],"radio_events":[1820.1000000000931,2507.899999999907],"checkbox_events":[],"key_events":[],"mouse_events":[1820.1000000000931,2507.899999999907,4147.700000000186],"honeypot":0,"survey":"mace","page":4,"trial_type":"survey-mace","trial_index":12,"time_elapsed":886035,"internal_node_id":"0.0-12.0","task_version":"prescreen-v0.3","browser_interactions":0},{"responses":{"01":"No","02":"No","03":"No","04":"No","05":"No"},"rt":7295.299999999814,"item_order":[0,1,2,3,4],"radio_events":[1213.1000000000931,2060.7999999998137,4541.100000000093,5125,6044.799999999814],"checkbox_events":[],"key_events":[],"mouse_events":[1213.1000000000931,2060.7999999998137,2725.2999999998137,4541.100000000093,5125,6044.799999999814,7293],"honeypot":0,"survey":"mace","page":5,"trial_type":"survey-mace","trial_index":13,"time_elapsed":893333,"internal_node_id":"0.0-13.0","task_version":"prescreen-v0.3","browser_interactions":0},{"responses":{"01":"No","02":"No","03":"No","04":"No","05":"No"},"rt":8077.100000000093,"item_order":[0,1,2,3,4],"radio_events":[2306.7999999998137,2803.2999999998137,3234.899999999907,3698.899999999907,4243.399999999907],"checkbox_events":[],"key_events":[],"mouse_events":[1794.6999999997206,2306.7999999998137,2803.2999999998137,3234.899999999907,3698.899999999907,4243.399999999907,8074.799999999814],"honeypot":0,"survey":"mace","page":6,"trial_type":"survey-mace","trial_index":14,"time_elapsed":901413,"internal_node_id":"0.0-14.0","task_version":"prescreen-v0.3","browser_interactions":0},{"responses":{"01":"No","02":"No","03":"No","04":"No","05":"No","06":"No","07":"No"},"rt":10997.30000000028,"item_order":[0,1,2,3,4,5,6],"radio_events":[1738.4000000003725,3802.5,5738.5,6818.600000000093,8658.200000000186,9410.30000000028,10250.5],"checkbox_events":[],"key_events":[],"mouse_events":[1738.4000000003725,2842.4000000003725,3802.5,4538.200000000186,5738.5,6818.600000000093,7554.5,8266.100000000093,8658.200000000186,9410.30000000028,10250.5,10994.100000000093],"honeypot":0,"survey":"mace","page":7,"trial_type":"survey-mace","trial_index":15,"time_elapsed":912414,"internal_node_id":"0.0-15.0","task_version":"prescreen-v0.3","browser_interactions":0},{"responses":{"01":"No","02":"No","03":"No","04":"No"},"rt":13579.80000000028,"item_order":[0,1,2,3],"radio_events":[9929.700000000186,10498.200000000186,11282.200000000186,12578.200000000186],"checkbox_events":[],"key_events":[],"mouse_events":[9417.899999999907,9929.700000000186,10498.200000000186,11282.200000000186,11994.100000000093,12314,12578.200000000186,13577.899999999907],"honeypot":0,"survey":"mace","page":8,"trial_type":"survey-mace","trial_index":16,"time_elapsed":925996,"internal_node_id":"0.0-16.0","task_version":"prescreen-v0.3","browser_interactions":0},{"responses":{"01":"Yes","01_ages_1":"1","01_ages_2":"2","01_ages_3":"3","01_ages_4":"4","01_ages_5":"5","01_ages_6":"6","01_ages_7":"7","01_ages_8":"8","01_ages_9":"9","01_ages_10":"10","01_ages_11":"11","01_ages_12":"12","01_ages_13":"13","01_ages_14":"14","01_ages_15":"15","01_ages_16":"16","01_ages_17":"17","01_ages_18":"18","02":"Yes","02_ages_1":"1","02_ages_2":"2","02_ages_3":"3","02_ages_4":"4","02_ages_5":"5","02_ages_6":"6","02_ages_7":"7","02_ages_8":"8","02_ages_9":"9","02_ages_10":"10","02_ages_11":"11","02_ages_12":"12","02_ages_13":"13","02_ages_14":"14","02_ages_15":"15","02_ages_16":"16","02_ages_17":"17","02_ages_18":"18","03":"Yes","03_ages_1":"1","03_ages_2":"2","03_ages_3":"3","03_ages_4":"4","03_ages_5":"5","03_ages_6":"6","03_ages_7":"7","03_ages_8":"8","03_ages_9":"9","03_ages_10":"10","03_ages_11":"11","03_ages_12":"12","03_ages_13":"13","03_ages_14":"14","03_ages_15":"15","03_ages_16":"16","03_ages_17":"17","03_ages_18":"18","04":"Yes","04_ages_1":"1","04_ages_2":"2","04_ages_3":"3","04_ages_4":"4","04_ages_5":"5","04_ages_6":"6","04_ages_7":"7","04_ages_8":"8","04_ages_9":"9","04_ages_10":"10","04_ages_11":"11","04_ages_12":"12","04_ages_13":"13","04_ages_14":"14","04_ages_15":"15","04_ages_16":"16","04_ages_17":"17","04_ages_18":"18"},"rt":107972.79999999981,"item_order":[0,1,2,3],"radio_events":[2028.1999999997206,4635.799999999814,45515.39999999991,46467.19999999972,47515.299999999814],"checkbox_events":[29651.5,33499.5,34300.39999999991,34771.39999999991,35667.5,36348.5,36732,37499.5,38483.799999999814,38923.5,39459.799999999814,40259.5,40955.5,41475.5,41963.89999999991,42331.799999999814,42763.60000000009,43123.5,54363,54859.89999999991,55323.19999999972,58635.19999999972,62227.19999999972,64555.19999999972,65082.89999999991,65387.10000000009,65931.1000000001,66435.1000000001,67099.69999999972,67747,68251.5,68675.19999999972,69211,69706.79999999981,70739.1000000001,72115.5,73187.5,73643,74555.1000000001,75963.29999999981,77154.8999999999,77627,78147.29999999981,78571.6000000001,79018.69999999972,79690.8999999999,79995,80627,81746.79999999981,82098.8999999999,82906.8999999999,85274.8999999999,85827.8999999999,86331.19999999972,86818.79999999981,87258.69999999972,89210.79999999981,89722.69999999972,90114.69999999972,90491.29999999981,90819.3999999999,91131.1000000001,91466.6000000001,91938.79999999981,92394.6000000001,93106.79999999981,93634.79999999981,94818.79999999981,96122.79999999981,96658.8999999999,97178.79999999981,98114.6000000001,98610.69999999972,99130.5],"key_events":[],"mouse_events":[2028.1999999997206,4635.799999999814,29651.5,30332.299999999814,30883.5,31643.299999999814,33499.5,34300.39999999991,34771.39999999991,35347.299999999814,35667.5,36091.89999999991,36348.5,36732,37107.5,37499.5,37884.10000000009,38483.799999999814,38923.5,39459.799999999814,39972,40259.5,40955.5,41475.5,41963.89999999991,42331.799999999814,42763.60000000009,43123.5,44987.799999999814,45515.39999999991,46467.19999999972,47515.299999999814,54363,54859.89999999991,55323.19999999972,55826.89999999991,58635.19999999972,59395.10000000009,61699,62227.19999999972,63106.89999999991,64555.19999999972,65082.89999999991,65387.10000000009,65931.1000000001,66435.1000000001,67099.69999999972,67747,68251.5,68675.19999999972,69211,69706.79999999981,70355.69999999972,70739.1000000001,71283.3999999999,71658.79999999981,72115.5,73187.5,73643,74555.1000000001,75963.29999999981,76418.79999999981,77154.8999999999,77627,78147.29999999981,78571.6000000001,79018.69999999972,79394.69999999972,79690.8999999999,79995,80299.6000000001,80627,81035.29999999981,81266.69999999972,81746.79999999981,82098.8999999999,82906.8999999999,84226.69999999972,84530.69999999972,84931.29999999981,85274.8999999999,85827.8999999999,86331.19999999972,86818.79999999981,87258.69999999972,88338.69999999972,88698.5,89210.79999999981,89722.69999999972,90114.69999999972,90491.29999999981,90819.3999999999,91131.1000000001,91466.6000000001,91938.79999999981,92394.6000000001,93106.79999999981,93634.79999999981,94818.79999999981,96122.79999999981,96658.8999999999,97178.79999999981,97834.5,98114.6000000001,98610.69999999972,99130.5,107970.8999999999],"honeypot":0,"survey":"mace","page":9,"trial_type":"survey-mace","trial_index":17,"time_elapsed":1033972,"internal_node_id":"0.0-17.0","task_version":"prescreen-v0.3","browser_interactions":0},{"responses":{"01":"No","02":"No","03":"No","04":"No","05":"Yes","05_ages_1":"1","05_ages_2":"2","05_ages_3":"3","05_ages_4":"4","05_ages_5":"5","05_ages_6":"6","05_ages_7":"7","05_ages_8":"8","05_ages_9":"9","05_ages_10":"10","05_ages_11":"11","05_ages_12":"12","05_ages_13":"13","05_ages_14":"14","05_ages_15":"15","05_ages_16":"16","05_ages_17":"17","05_ages_18":"18","06":"Yes","06_ages_17":"17","07":"Yes","07_ages_1":"1","07_ages_2":"2","07_ages_3":"3","07_ages_4":"4","07_ages_5":"5","07_ages_6":"6","07_ages_7":"7","07_ages_8":"8","07_ages_9":"9","07_ages_10":"10","07_ages_11":"11","07_ages_12":"12","07_ages_13":"13","07_ages_14":"14","07_ages_15":"15","07_ages_16":"16","07_ages_17":"17","07_ages_18":"18","08":"Yes","08_ages_1":"1","08_ages_2":"2","08_ages_3":"3","08_ages_4":"4","08_ages_5":"5","08_ages_6":"6","08_ages_7":"7","08_ages_8":"8","08_ages_9":"9","08_ages_10":"10","08_ages_11":"11","08_ages_12":"12","08_ages_13":"13","08_ages_14":"14","08_ages_15":"15","08_ages_16":"16","08_ages_17":"17","08_ages_18":"18"},"rt":78205.30000000028,"item_order":[0,1,2,3,4,5,6,7],"radio_events":[4090.3000000002794,18450.200000000186,21330.399999999907,24698.200000000186,27746.100000000093,29178.700000000186,35113.89999999991,37673.80000000028],"checkbox_events":[5818,40306.5,41209.89999999991,41578.10000000009,42345.80000000028,43034.30000000028,43497.80000000028,44049.89999999991,44937.5,45481.5,46025.80000000028,46441.80000000028,47026.39999999991,47609.80000000028,48017.80000000028,49633.80000000028,50369.60000000009,50850.39999999991,51441.80000000028,53762.39999999991,54721.80000000028,55665.60000000009,56449.5,56921.60000000009,57570.30000000028,58033.700000000186,58617.89999999991,59073.5,59817.60000000009,60225.5,60850.200000000186,61641.39999999991,62481.5,63281.30000000028,63793.60000000009,64729.5,65345.5,67010.5,67689.6000000001,68185.5,68714,69065.3999999999,69554.1000000001,69945.5,70369.30000000028,70881.5,71330.30000000028,71977.30000000028,73241.20000000019,73794.3999999999,74369.3999999999,74961.3999999999,75409.3999999999,75681.80000000028,76273.30000000028,76857.3999999999,77554.20000000019],"key_events":[],"mouse_events":[3426.100000000093,4090.3000000002794,5818,18450.200000000186,21330.399999999907,24698.200000000186,25706.5,27289.80000000028,27746.100000000093,28617.80000000028,29178.700000000186,35113.89999999991,37673.80000000028,39594.10000000009,40306.5,40634.200000000186,41209.89999999991,41578.10000000009,42033.60000000009,42345.80000000028,42753.5,43034.30000000028,43497.80000000028,44049.89999999991,44666.10000000009,44937.5,45481.5,46025.80000000028,46441.80000000028,47026.39999999991,47609.80000000028,48017.80000000028,48802,49146.60000000009,49633.80000000028,50065.700000000186,50369.60000000009,50850.39999999991,51441.80000000028,53762.39999999991,54466.10000000009,54721.80000000028,55377.39999999991,55665.60000000009,56001.700000000186,56449.5,56921.60000000009,57570.30000000028,58033.700000000186,58617.89999999991,59073.5,59817.60000000009,60225.5,60850.200000000186,61641.39999999991,62481.5,63281.30000000028,63793.60000000009,64409.30000000028,64729.5,65345.5,66673.5,67010.5,67689.6000000001,68185.5,68714,69065.3999999999,69554.1000000001,69945.5,70369.30000000028,70881.5,71330.30000000028,71977.30000000028,73241.20000000019,73794.3999999999,74369.3999999999,74961.3999999999,75409.3999999999,75681.80000000028,76273.30000000028,76857.3999999999,77554.20000000019,78201.70000000019],"honeypot":0,"survey":"mace","page":10,"trial_type":"survey-mace","trial_index":18,"time_elapsed":1112181,"internal_node_id":"0.0-18.0","task_version":"prescreen-v0.3","browser_interactions":0,"instructed":0},{"rt":2761.5999999996275,"trial_type":"mental-health-alert","trial_index":19,"time_elapsed":1114944,"internal_node_id":"0.0-19.0","task_version":"prescreen-v0.3","interactions":"[{\"event\":\"focus\",\"trial\":0,\"time\":15716},{\"event\":\"blur\",\"trial\":0,\"time\":42656},{\"event\":\"focus\",\"trial\":0,\"time\":123159},{\"event\":\"blur\",\"trial\":1,\"time\":145069},{\"event\":\"focus\",\"trial\":1,\"time\":148832},{\"event\":\"blur\",\"trial\":2,\"time\":405308},{\"event\":\"focus\",\"trial\":2,\"time\":417268},{\"event\":\"blur\",\"trial\":3,\"time\":496736},{\"event\":\"focus\",\"trial\":3,\"time\":498524},{\"event\":\"blur\",\"trial\":7,\"time\":658360},{\"event\":\"focus\",\"trial\":7,\"time\":677408}]"}]