[{"view_history":[{"page_index":0,"viewing_time":1581},{"page_index":1,"viewing_time":2676},{"page_index":2,"viewing_time":3873},{"page_index":3,"viewing_time":1032}],"rt":9163,"trial_type":"instructions","trial_index":0,"time_elapsed":9167,"internal_node_id":"0.0-0.0","task_version":"prescreen-v0.3"},{"rt":14230,"responses":{"age":"24","gender-categorical":"Male","gender-free-response":"","ethnicity":"Not Hispanic or Latino","race":["White"],"education":"Bachelor degree","siblings":"2"},"trial_type":"survey-demo","trial_index":1,"time_elapsed":23419,"internal_node_id":"0.0-1.0","task_version":"prescreen-v0.3"},{"responses":{"Q13":"1","Q15":"2","Q21":"3","Q03":"0","Q11":"1","Q07":"1","Q20":"0","Q10":"0","Q16":"1","Q08":"1","Q12":"2","Q01":"1","Q09":"1","Q06":"0","Q02":"1","Q05":"1","Q04":"0","Q18":"0","Q17":"1","Q19":"0","Q14":"1"},"rt":131820,"item_order":[12,14,20,2,10,6,19,9,15,7,11,0,8,5,1,4,3,17,16,18,13],"radio_events":[6252,15610,20570,23107,24613,28289,40288.99999999999,41533,45797,51740,55800,62323,63241.000000000015,68176,76666,80062,90769,100280,104864.99999999999,110512,118427,124575,130035],"key_events":[],"mouse_events":[5548,6252,15019,15610,18114,18997,19906,20570,23107,24613,28289,38005.00000000001,38905,39618,40288.99999999999,41533,45797,51740,55800,60671,62323,63241.000000000015,66098.00000000001,66842.00000000001,67465,68176,76027,76666,80062,90769,99716,100280,104864.99999999999,109604,110512,116856,118427,124575,130035,131810],"straightlining":0.5238095238095238,"zigzagging":0.7,"honeypot":0,"survey":"sns","trial_type":"survey-template","trial_index":2,"time_elapsed":155248,"internal_node_id":"0.0-2.0","task_version":"prescreen-v0.3","browser_interactions":0,"infrequency":0},{"responses":{"Q05":"3","Q11":"3","Q03":"2","Q10":"2","Q01":"2","Q13":"0","Q12":"1","Q04":"2","Q07":"3","Q08":"3","Q09":"2","Q06":"3","Q02":"1"},"rt":81013.00000000003,"item_order":[4,10,2,9,0,12,11,3,6,7,8,5,1],"radio_events":[4461,8643,9397,14791,23304,28241,31326,39554,47494,48583,55287.00000000003,61107,63095,65682,78098,80203],"key_events":[],"mouse_events":[4461,8643,9397,11828,12490,14071,14791,23304,28241,31326,39554,44228,44989.00000000003,47494,48583,55287.00000000003,58930.00000000003,59527,60517,61107,63095,65682,78098,80203,81005],"straightlining":0.38461538461538464,"zigzagging":0.5,"honeypot":0,"survey":"bisbas","trial_type":"survey-template","trial_index":3,"time_elapsed":236269,"internal_node_id":"0.0-3.0","task_version":"prescreen-v0.3","browser_interactions":0,"infrequency":0},{"responses":{"Q01":"3","Q02":"2","Q03":"3"},"rt":17956,"radio_events":[4963,11413,17241],"key_events":[],"mouse_events":[4137,4963,10726,11413,15285,16626.00000000003,17241,17953.00000000003],"survey":"map","page":1,"trial_type":"survey-map","trial_index":4,"time_elapsed":254231,"internal_node_id":"0.0-4.0","task_version":"prescreen-v0.3","browser_interactions":0},{"responses":{"Q04":"3","Q05":"3","Q06":"3"},"rt":14685,"radio_events":[7267,11826,13979],"key_events":[],"mouse_events":[580,7267,10623,11310,11826,12989,13979,14683],"survey":"map","page":2,"trial_type":"survey-map","trial_index":5,"time_elapsed":268922,"internal_node_id":"0.0-5.0","task_version":"prescreen-v0.3","browser_interactions":0},{"responses":{"Q07":"3","Q08":"4","Q09":"4"},"rt":19910,"radio_events":[10183,15028,18991],"key_events":[],"mouse_events":[9365,10183,15028,17959,18991,19907],"survey":"map","page":3,"trial_type":"survey-map","trial_index":6,"time_elapsed":288836,"internal_node_id":"0.0-6.0","task_version":"prescreen-v0.3","browser_interactions":0},{"responses":{"Q10":"3","Q11":"2","Q12":"4","Q13":"4","Q16":"0","Q14":"2","Q15":"2"},"rt":43456,"radio_events":[8042,8836.000000000058,11684,16367,21376,24494,26167,32041,37493,41381,42157,42772],"key_events":[],"mouse_events":[7239,8042,8836.000000000058,11684,15187.000000000058,16367,19501,20500,21376,23193,23758,24494,26167,31058,32041,37493,40783.00000000006,41381,42157,42772,43452],"survey":"map","page":4,"trial_type":"survey-map","trial_index":7,"time_elapsed":332299,"internal_node_id":"0.0-7.0","task_version":"prescreen-v0.3","browser_interactions":0,"infrequency":0},{"view_history":[{"page_index":0,"viewing_time":1698},{"page_index":1,"viewing_time":3446}],"rt":5144,"trial_type":"instructions","trial_index":8,"time_elapsed":337449,"internal_node_id":"0.0-8.0","task_version":"prescreen-v0.3"},{"responses":{"01":"Yes","01_ages_5":"5","01_ages_6":"6","01_ages_7":"7","01_ages_8":"8","01_ages_9":"9","01_ages_10":"10","01_ages_11":"11","01_ages_12":"12","02":"Yes","02_ages_5":"5","02_ages_6":"6","02_ages_7":"7","02_ages_8":"8","02_ages_9":"9","02_ages_10":"10","02_ages_11":"11","02_ages_12":"12","03":"No","04":"No","05":"No","06":"No"},"rt":46464,"item_order":[0,1,2,3,4,5],"radio_events":[7976,23847,33801.00000000006,37148,38753,41225],"checkbox_events":[10801.000000000058,11471,12077,14361.000000000058,15138,16202,16685,17962.00000000006,18813.00000000006,19337.00000000006,19960,20492,25394,26246,26843,27620,28292,28824,30346,30961],"key_events":[],"mouse_events":[0,2296.000000000058,7976,10801.000000000058,11471,12077,14361.000000000058,15138,15694,16202,16685,17209,17962.00000000006,18813.00000000006,19337.00000000006,19960,20492,23847,25394,26246,26843,27620,28292,28824,29323,29757,30346,30961,33097,33801.00000000006,37148,38753,41225,46455],"honeypot":0,"survey":"mace","page":1,"trial_type":"survey-mace","trial_index":9,"time_elapsed":383920,"internal_node_id":"0.0-9.0","task_version":"prescreen-v0.3","browser_interactions":0},{"responses":{"01":"No","02":"No","03":"No","04":"No","05":"No","06":"No","07":"No","08":"No"},"rt":20896,"item_order":[0,1,2,3,4,5,6,7],"radio_events":[3863,10133,11295,12539.000000000058,13342.000000000058,15240,18416,19521],"checkbox_events":[],"key_events":[],"mouse_events":[3863,8823,10133,11295,12539.000000000058,13342.000000000058,15240,16296,17842.00000000006,18416,19521,20888],"honeypot":0,"survey":"mace","page":2,"trial_type":"survey-mace","trial_index":10,"time_elapsed":404823,"internal_node_id":"0.0-10.0","task_version":"prescreen-v0.3","browser_interactions":0},{"responses":{"01":"No","02":"No","03":"No","04":"No"},"rt":154818,"item_order":[0,1,2,3],"radio_events":[76730,77721,78743.00000000006,80683.00000000006],"checkbox_events":[],"key_events":[],"mouse_events":[75805,76730,77721,78743.00000000006,80683.00000000006,154814],"honeypot":0,"survey":"mace","page":3,"trial_type":"survey-mace","trial_index":11,"time_elapsed":559655,"internal_node_id":"0.0-11.0","task_version":"prescreen-v0.3","browser_interactions":0},{"responses":{"01":"No","02":"No"},"rt":8090,"item_order":[0,1],"radio_events":[4362,5991],"checkbox_events":[],"key_events":[],"mouse_events":[3772.0000000001164,4362,5435,5991,8086],"honeypot":0,"survey":"mace","page":4,"trial_type":"survey-mace","trial_index":12,"time_elapsed":567750,"internal_node_id":"0.0-12.0","task_version":"prescreen-v0.3","browser_interactions":0},{"responses":{"01":"No","02":"No","03":"No","04":"No","05":"No"},"rt":13590,"item_order":[0,1,2,3,4],"radio_events":[2944,7536,8943,10392,12430.000000000116],"checkbox_events":[],"key_events":[],"mouse_events":[2412,2944,5849,7536,8943,10392,12430.000000000116,13584],"honeypot":0,"survey":"mace","page":5,"trial_type":"survey-mace","trial_index":13,"time_elapsed":581347,"internal_node_id":"0.0-13.0","task_version":"prescreen-v0.3","browser_interactions":0},{"responses":{"01":"Yes","01_ages_5":"5","01_ages_6":"6","01_ages_7":"7","01_ages_8":"8","01_ages_9":"9","01_ages_10":"10","01_ages_11":"11","02":"Yes","02_ages_5":"5","02_ages_6":"6","02_ages_7":"7","02_ages_8":"8","02_ages_9":"9","02_ages_10":"10","02_ages_11":"11","03":"No","04":"Yes","04_ages_8":"8","04_ages_9":"9","04_ages_10":"10","04_ages_11":"11","05":"No"},"rt":35794,"item_order":[0,1,2,3,4],"radio_events":[5806,15080,23870,27217,34780.00000000012],"checkbox_events":[7967,9375,9891,11225,12158,12690,13885,16094,16857.000000000116,17585,18165,18706,19271,19802,28862,29658,30123,31718],"key_events":[],"mouse_events":[5135,5806,7476,7967,9375,9891,10595,11225,12158,12690,13885,15080,16094,16857.000000000116,17585,18165,18706,19271,19802,23870,26578.000000000116,27217,28355,28862,29658,30123,30794,31718,34780.00000000012,35786],"honeypot":0,"survey":"mace","page":6,"trial_type":"survey-mace","trial_index":14,"time_elapsed":617149,"internal_node_id":"0.0-14.0","task_version":"prescreen-v0.3","browser_interactions":0},{"responses":{"01":"No","02":"No","03":"No","04":"No","05":"No","06":"No","07":"No"},"rt":447045.9999999999,"item_order":[0,1,2,3,4,5,6],"radio_events":[2322.9999999998836,5768.999999999884,176771.99999999988,434319.9999999999,442326.9999999999,445215.9999999999,446091.9999999999],"checkbox_events":[],"key_events":[],"mouse_events":[2322.9999999998836,5768.999999999884,176771.99999999988,434319.9999999999,435409.9999999999,440664.9999999999,440952.9999999999,442326.9999999999,443316.9999999999,445215.9999999999,446091.9999999999,447041.0000000001],"honeypot":0,"survey":"mace","page":7,"trial_type":"survey-mace","trial_index":15,"time_elapsed":1064208,"internal_node_id":"0.0-15.0","task_version":"prescreen-v0.3","browser_interactions":0},{"responses":{"01":"No","02":"No","03":"No","04":"No"},"rt":11568,"item_order":[0,1,2,3],"radio_events":[6149.000000000233,7386,8876,10406],"checkbox_events":[],"key_events":[],"mouse_events":[5446,6149.000000000233,7386,8876,10406,11561],"honeypot":0,"survey":"mace","page":8,"trial_type":"survey-mace","trial_index":16,"time_elapsed":1075784,"internal_node_id":"0.0-16.0","task_version":"prescreen-v0.3","browser_interactions":0},{"responses":{"01":"Yes","01_ages_1":"1","01_ages_2":"2","01_ages_3":"3","01_ages_4":"4","01_ages_5":"5","01_ages_6":"6","01_ages_7":"7","01_ages_8":"8","01_ages_9":"9","01_ages_10":"10","01_ages_11":"11","01_ages_12":"12","01_ages_13":"13","01_ages_14":"14","01_ages_15":"15","01_ages_16":"16","01_ages_17":"17","01_ages_18":"18","02":"Yes","02_ages_1":"1","02_ages_2":"2","02_ages_3":"3","02_ages_4":"4","02_ages_5":"5","02_ages_6":"6","02_ages_7":"7","02_ages_8":"8","02_ages_9":"9","02_ages_10":"10","02_ages_11":"11","02_ages_12":"12","02_ages_13":"13","02_ages_14":"14","02_ages_15":"15","02_ages_16":"16","02_ages_17":"17","02_ages_18":"18","03":"Yes","03_ages_1":"1","03_ages_2":"2","03_ages_3":"3","03_ages_4":"4","03_ages_5":"5","03_ages_6":"6","03_ages_7":"7","03_ages_8":"8","03_ages_9":"9","03_ages_10":"10","03_ages_11":"11","03_ages_12":"12","03_ages_13":"13","03_ages_14":"14","03_ages_15":"15","03_ages_16":"16","03_ages_17":"17","03_ages_18":"18","04":"Yes","04_ages_1":"1","04_ages_2":"2","04_ages_3":"3","04_ages_4":"4","04_ages_5":"5","04_ages_6":"6","04_ages_7":"7","04_ages_8":"8","04_ages_9":"9","04_ages_10":"10","04_ages_11":"11","04_ages_12":"12","04_ages_13":"13","04_ages_14":"14","04_ages_15":"15","04_ages_16":"16","04_ages_17":"17","04_ages_18":"18"},"rt":71646,"item_order":[0,1,2,3],"radio_events":[4044.000000000233,21223,22001,56290],"checkbox_events":[5656,6319,7039,7719,8463,9846,10452,11074,11704,12286,12867,13489,14086,14642,15183,15755,16402,16975,23082,23818,24587,25119,25602.000000000233,26257,26846,27403,28000,28549,29424,30030,30537,31013,31486,32027,33165,34113,37330,37977.00000000023,38428,38853,40687,41251,41906,42478,43051,43616,44147,44729,45245,45875,46596,47201,47775.00000000023,48454,49583.00000000023,50246.00000000023,58434,59105,60120,60637,61176,61716,62657,63747,64278,65056,65776,66422,67135,67700,68739,69361,70409,70908],"key_events":[],"mouse_events":[1825,4044.000000000233,5656,6319,7039,7719,8463,9118,9846,10452,11074,11704,12286,12867,13489,14086,14642,15183,15755,16402,16975,18424,19218,19865,20462,21223,22001,23082,23818,24587,25119,25602.000000000233,26257,26846,27403,28000,28549,29424,30030,30537,31013,31486,32027,32559,33165,34113,36480,37330,37977.00000000023,38428,38853,39663,40687,41251,41906,42478,43051,43616,44147,44729,45245,45875,46596,47201,47775.00000000023,48454,49036,49583.00000000023,50246.00000000023,56290,58434,59105,60120,60637,61176,61716,62199,62657,63747,64278,65056,65776,66422,67135,67700,68256.00000000023,68739,69361,69983,70409,70908,71637],"honeypot":0,"survey":"mace","page":9,"trial_type":"survey-mace","trial_index":17,"time_elapsed":1147439,"internal_node_id":"0.0-17.0","task_version":"prescreen-v0.3","browser_interactions":0},{"responses":{"01":"No","02":"No","03":"No","04":"No","05":"No","06":"Yes","06_ages_17":"17","07":"Yes","07_ages_1":"1","07_ages_2":"2","07_ages_3":"3","07_ages_4":"4","07_ages_5":"5","07_ages_6":"6","07_ages_7":"7","07_ages_8":"8","07_ages_9":"9","07_ages_10":"10","07_ages_11":"11","07_ages_12":"12","07_ages_13":"13","07_ages_14":"14","07_ages_15":"15","07_ages_16":"16","07_ages_17":"17","07_ages_18":"18","08":"Yes","08_ages_1":"1","08_ages_2":"2","08_ages_3":"3","08_ages_4":"4","08_ages_5":"5","08_ages_6":"6","08_ages_7":"7","08_ages_8":"8","08_ages_9":"9","08_ages_10":"10","08_ages_11":"11","08_ages_12":"12","08_ages_13":"13","08_ages_14":"14","08_ages_15":"15","08_ages_16":"16","08_ages_17":"17","08_ages_18":"18"},"rt":65524.00000000023,"item_order":[0,1,2,3,4,5,6,7],"radio_events":[2330,3264.000000000233,7086,8314,10049,12210,19035,49054],"checkbox_events":[14836,27252,27784,28430,29004,29568,30206,34421,35027,35787,36384,36982,37686,38741,39453,40230,40796,41368,43013,50266,50822.00000000023,51387,52459,52983,53475,54514.00000000023,55152,55905,56388,57067,57616,58532,59039,59548,60513,61053.00000000023,62354],"key_events":[],"mouse_events":[2330,3264.000000000233,4663,7086,7749,8314,10049,11399.000000000233,12210,14836,19035,27252,27784,28430,29004,29568,30206,33929,34421,35027,35787,36384,36982,37686,38258,38741,39453,40230,40796,41368,41900,42416,43013,49054,50266,50822.00000000023,51387,51944,52459,52983,53475,54038,54514.00000000023,55152,55905,56388,57067,57616,58532,59039,59548,60513,61053.00000000023,61683,62354,65514.00000000023],"honeypot":0,"survey":"mace","page":10,"trial_type":"survey-mace","trial_index":18,"time_elapsed":1212974,"internal_node_id":"0.0-18.0","task_version":"prescreen-v0.3","browser_interactions":0,"instructed":0},{"rt":3347,"trial_type":"mental-health-alert","trial_index":19,"time_elapsed":1216327,"internal_node_id":"0.0-19.0","task_version":"prescreen-v0.3","interactions":"[]"}]