[{"view_history":[{"page_index":0,"viewing_time":2287.5},{"page_index":1,"viewing_time":2537.600000023842},{"page_index":2,"viewing_time":3194.800000011921},{"page_index":3,"viewing_time":779.3999999761581}],"rt":8800.699999988079,"trial_type":"instructions","trial_index":0,"time_elapsed":8819,"internal_node_id":"0.0-0.0","task_version":"prescreen-v0.3"},{"rt":8090.199999988079,"responses":{"age":"22","gender-categorical":"Male","gender-free-response":"","ethnicity":"Not Hispanic or Latino","race":["Asian"],"education":"Bachelor degree"},"trial_type":"survey-demo","trial_index":1,"time_elapsed":16916,"internal_node_id":"0.0-1.0","task_version":"prescreen-v0.3"},{"responses":{"Q11":"2","Q20":"0","Q02":"0","Q14":"2","Q10":"1","Q16":"0","Q13":"2","Q01":"1","Q21":"3","Q06":"0","Q04":"1","Q09":"2","Q15":"2","Q08":"2","Q19":"1","Q18":"1","Q17":"2","Q05":"0","Q03":"1","Q07":"1","Q12":"2"},"rt":80050.30000001192,"item_order":[10,19,1,13,9,15,12,0,20,5,3,8,14,7,18,17,16,4,2,6,11],"radio_events":[5673.199999988079,9166.699999988079,10654.800000011921,14596.800000011921,17898.900000035763,23243.19999998808,24901.80000001192,26436.900000035763,28202.600000023842,32072.5,34511.19999998808,39854.69999998808,41190.60000002384,43295,45903.30000001192,52960.60000002384,53630.60000002384,57556.80000001192,65154.69999998808,67792.69999998808,69897.10000002384,74293.19999998808,77910.60000002384,79328.80000001192],"key_events":[],"mouse_events":[5673.199999988079,7471.300000011921,8552.400000035763,9166.699999988079,10093.100000023842,10654.800000011921,14596.800000011921,17898.900000035763,23243.19999998808,24901.80000001192,26436.900000035763,28202.600000023842,32072.5,34511.19999998808,37071.10000002384,39854.69999998808,41190.60000002384,43295,44577,45903.30000001192,51812.19999998808,52960.60000002384,53630.60000002384,57016.90000003576,57556.80000001192,64731.19999998808,65154.69999998808,67792.69999998808,69897.10000002384,74293.19999998808,77910.60000002384,79328.80000001192,79770,80047.19999998808],"straightlining":0.38095238095238093,"zigzagging":0.5,"honeypot":0,"survey":"sns","trial_type":"survey-template","trial_index":2,"time_elapsed":96979,"internal_node_id":"0.0-2.0","task_version":"prescreen-v0.3","browser_interactions":0,"infrequency":0},{"responses":{"Q11":"2","Q03":"3","Q06":"3","Q04":"3","Q13":"0","Q12":"2","Q01":"3","Q08":"3","Q02":"2","Q07":"3","Q10":"2","Q09":"2","Q05":"3"},"rt":39180.69999998808,"item_order":[10,2,5,3,12,11,0,7,1,6,9,8,4],"radio_events":[5415.199999988079,8625.300000011921,10931,13590.900000035763,16863.400000035763,25990.900000035763,26824.80000001192,30296.5,32006.69999998808,33410.30000001192,36605,37650.5,38622.90000003576],"key_events":[],"mouse_events":[5415.199999988079,8625.300000011921,10931,13590.900000035763,16444.5,16863.400000035763,25367.600000023842,25990.900000035763,26824.80000001192,30296.5,32006.69999998808,33410.30000001192,35137.19999998808,36605,37258.60000002384,37650.5,38622.90000003576,39178.90000003576],"straightlining":0.5384615384615384,"zigzagging":0.5833333333333334,"honeypot":0,"survey":"bisbas","trial_type":"survey-template","trial_index":3,"time_elapsed":136169,"internal_node_id":"0.0-3.0","task_version":"prescreen-v0.3","browser_interactions":0,"infrequency":0},{"responses":{"Q01":"3","Q02":"4","Q03":"4"},"rt":14185.899999976158,"radio_events":[6249.899999976158,12551.199999988079,13205.599999964237],"key_events":[],"mouse_events":[6249.899999976158,10693.599999964237,12551.199999988079,13205.599999964237,14185.099999964237],"survey":"map","page":1,"trial_type":"survey-map","trial_index":4,"time_elapsed":150363,"internal_node_id":"0.0-4.0","task_version":"prescreen-v0.3","browser_interactions":0},{"responses":{"Q04":"1","Q05":"1","Q06":"4"},"rt":17227.30000001192,"radio_events":[5174.100000023842,8211.899999976158,11474.199999988079,15508.199999988079],"key_events":[],"mouse_events":[5174.100000023842,8211.899999976158,10603.800000011921,11474.199999988079,13240.300000011921,13981.600000023842,14674,15508.199999988079,17226.600000023842],"survey":"map","page":2,"trial_type":"survey-map","trial_index":5,"time_elapsed":167597,"internal_node_id":"0.0-5.0","task_version":"prescreen-v0.3","browser_interactions":0},{"responses":{"Q07":"4","Q08":"4","Q09":"4"},"rt":8453,"radio_events":[3732.699999988079,5314.299999952316,6710.399999976158],"key_events":[],"mouse_events":[3732.699999988079,5314.299999952316,6710.399999976158,8452.299999952316],"survey":"map","page":3,"trial_type":"survey-map","trial_index":6,"time_elapsed":176057,"internal_node_id":"0.0-6.0","task_version":"prescreen-v0.3","browser_interactions":0},{"responses":{"Q10":"0","Q11":"1","Q12":"2","Q13":"2","Q16":"0","Q14":"3","Q15":"3"},"rt":27863.80000001192,"radio_events":[4264.5,5205.099999964237,10071.099999964237,14969.300000011921,16433,25262.69999998808,27153],"key_events":[],"mouse_events":[3593.199999988079,4264.5,5205.099999964237,10071.099999964237,14969.300000011921,16433,25262.69999998808,27153,27862.5],"survey":"map","page":4,"trial_type":"survey-map","trial_index":7,"time_elapsed":203928,"internal_node_id":"0.0-7.0","task_version":"prescreen-v0.3","browser_interactions":0,"infrequency":0},{"view_history":[{"page_index":0,"viewing_time":1496.6000000238419},{"page_index":1,"viewing_time":2851.399999976158}],"rt":4348.600000023842,"trial_type":"instructions","trial_index":8,"time_elapsed":208282,"internal_node_id":"0.0-8.0","task_version":"prescreen-v0.3"},{"responses":{"01":"No","02":"No","03":"No","04":"No","05":"No","06":"No"},"rt":13415.5,"item_order":[0,1,2,3,4,5],"radio_events":[6085.199999988079,8215,9116.699999988079,11361,12139.199999988079,12925.100000023842],"checkbox_events":[],"key_events":[],"mouse_events":[0.10000002384185791,5045.300000011921,6085.199999988079,8215,9116.699999988079,11361,12139.199999988079,12925.100000023842,13411.5],"honeypot":0,"survey":"mace","page":1,"trial_type":"survey-mace","trial_index":9,"time_elapsed":221706,"internal_node_id":"0.0-9.0","task_version":"prescreen-v0.3","browser_interactions":0},{"responses":{"01":"No","02":"No","03":"No","04":"No","05":"No","06":"No","07":"No","08":"No"},"rt":10417.099999964237,"item_order":[0,1,2,3,4,5,6,7],"radio_events":[1622,2399.599999964237,3255.7999999523163,4081.399999976158,4968,6117.899999976158,8037.899999976158,9795.699999988079],"checkbox_events":[],"key_events":[],"mouse_events":[1622,2399.599999964237,3255.7999999523163,4081.399999976158,4968,5862.5,6117.899999976158,6610,7111.699999988079,7697.5,8037.899999976158,8537.299999952316,9795.699999988079,10411.899999976158],"honeypot":0,"survey":"mace","page":2,"trial_type":"survey-mace","trial_index":10,"time_elapsed":232134,"internal_node_id":"0.0-10.0","task_version":"prescreen-v0.3","browser_interactions":0},{"responses":{"01":"No","02":"No","03":"No","04":"No"},"rt":6429.5,"item_order":[0,1,2,3],"radio_events":[1860.4000000357628,3272.800000011921,4800.900000035763,5733.300000011921],"checkbox_events":[],"key_events":[],"mouse_events":[1860.4000000357628,2693.900000035763,3272.800000011921,4029.300000011921,4800.900000035763,5733.300000011921,6426.700000047684],"honeypot":0,"survey":"mace","page":3,"trial_type":"survey-mace","trial_index":11,"time_elapsed":238571,"internal_node_id":"0.0-11.0","task_version":"prescreen-v0.3","browser_interactions":0},{"responses":{"01":"No","02":"No"},"rt":3060.399999976158,"item_order":[0,1],"radio_events":[1362.199999988079,2242.699999988079],"checkbox_events":[],"key_events":[],"mouse_events":[1362.199999988079,2242.699999988079,3058.899999976158],"honeypot":0,"survey":"mace","page":4,"trial_type":"survey-mace","trial_index":12,"time_elapsed":241638,"internal_node_id":"0.0-12.0","task_version":"prescreen-v0.3","browser_interactions":0},{"responses":{"01":"No","02":"No","03":"No","04":"No","05":"No"},"rt":82064.10000002384,"item_order":[0,1,2,3,4],"radio_events":[72699.5,78698.39999997616,79609.19999998808,80232.69999998808,81560.60000002384],"checkbox_events":[],"key_events":[],"mouse_events":[72699.5,78698.39999997616,79609.19999998808,80232.69999998808,80981,81560.60000002384,82060.69999998808],"honeypot":0,"survey":"mace","page":5,"trial_type":"survey-mace","trial_index":13,"time_elapsed":323710,"internal_node_id":"0.0-13.0","task_version":"prescreen-v0.3","browser_interactions":4},{"responses":{"01":"No","02":"No","03":"No","04":"No","05":"No"},"rt":13562.599999964237,"item_order":[0,1,2,3,4],"radio_events":[5148.799999952316,6218.699999988079,6828.799999952316,9304.599999964237,11848.799999952316,12905.699999988079],"checkbox_events":[],"key_events":[],"mouse_events":[5148.799999952316,5735.299999952316,6218.699999988079,6828.799999952316,9304.599999964237,11848.799999952316,12905.699999988079,13560.199999988079],"honeypot":0,"survey":"mace","page":6,"trial_type":"survey-mace","trial_index":14,"time_elapsed":337280,"internal_node_id":"0.0-14.0","task_version":"prescreen-v0.3","browser_interactions":0},{"responses":{"01":"No","02":"No","03":"No","04":"No","05":"No","06":"No","07":"No"},"rt":8117.399999976158,"item_order":[0,1,2,3,4,5,6],"radio_events":[1750.699999988079,2198.399999976158,3424.599999964237,5414.699999988079,6076.399999976158,6616.699999988079,7396.699999988079],"checkbox_events":[],"key_events":[],"mouse_events":[1750.699999988079,2198.399999976158,3424.599999964237,5414.699999988079,5792.300000011921,6076.399999976158,6616.699999988079,7396.699999988079,8112.599999964237],"honeypot":0,"survey":"mace","page":7,"trial_type":"survey-mace","trial_index":15,"time_elapsed":345404,"internal_node_id":"0.0-15.0","task_version":"prescreen-v0.3","browser_interactions":0},{"responses":{"01":"No","02":"No","03":"No","04":"No"},"rt":154850.20000004768,"item_order":[0,1,2,3],"radio_events":[151801.30000001192,152419,153097.40000003576,153805.5],"checkbox_events":[],"key_events":[],"mouse_events":[151801.30000001192,152419,153097.40000003576,153583.5,153805.5,154847.5],"honeypot":0,"survey":"mace","page":8,"trial_type":"survey-mace","trial_index":16,"time_elapsed":500263,"internal_node_id":"0.0-16.0","task_version":"prescreen-v0.3","browser_interactions":2},{"responses":{"01":"Yes","01_ages_1":"1","01_ages_2":"2","01_ages_3":"3","01_ages_4":"4","01_ages_5":"5","01_ages_6":"6","01_ages_7":"7","01_ages_8":"8","01_ages_9":"9","01_ages_10":"10","01_ages_11":"11","01_ages_12":"12","01_ages_13":"13","01_ages_14":"14","01_ages_15":"15","01_ages_16":"16","01_ages_17":"17","01_ages_18":"18","02":"Yes","02_ages_1":"1","02_ages_2":"2","02_ages_3":"3","02_ages_4":"4","02_ages_5":"5","02_ages_6":"6","02_ages_7":"7","02_ages_8":"8","02_ages_9":"9","02_ages_10":"10","02_ages_11":"11","02_ages_12":"12","02_ages_13":"13","02_ages_14":"14","02_ages_15":"15","02_ages_16":"16","02_ages_17":"17","02_ages_18":"18","03":"Yes","03_ages_1":"1","03_ages_2":"2","03_ages_3":"3","03_ages_4":"4","03_ages_5":"5","03_ages_6":"6","03_ages_7":"7","03_ages_8":"8","03_ages_9":"9","03_ages_10":"10","03_ages_11":"11","03_ages_12":"12","03_ages_13":"13","03_ages_14":"14","03_ages_15":"15","03_ages_16":"16","03_ages_17":"17","03_ages_18":"18","04":"Yes","04_ages_1":"1","04_ages_2":"2","04_ages_3":"3","04_ages_4":"4","04_ages_5":"5","04_ages_6":"6","04_ages_7":"7","04_ages_8":"8","04_ages_9":"9","04_ages_10":"10","04_ages_11":"11","04_ages_12":"12","04_ages_13":"13","04_ages_14":"14","04_ages_15":"15","04_ages_16":"16","04_ages_17":"17","04_ages_18":"18"},"rt":58571.39999997616,"item_order":[0,1,2,3],"radio_events":[4598.600000023842,21777.600000023842,34340.30000001192,35443.89999997616],"checkbox_events":[6726.699999988079,8477.199999988079,8770.600000023842,9270.300000011921,9842.399999976158,10450.800000011921,11353.699999988079,11722.699999988079,12194.5,12748.399999976158,13189.100000023842,13558.5,13958.399999976158,14660.199999988079,15030.600000023842,15507.600000023842,15948.899999976158,16396.30000001192,23251.30000001192,23660.399999976158,23971.600000023842,24276.5,24638.30000001192,25000.600000023842,25818,26188.899999976158,26558.5,27076,27884.399999976158,28271.100000023842,28640.600000023842,28950.600000023842,30392.80000001192,30832.19999998808,31626.19999998808,32034.69999998808,36500.5,36876.10000002384,37346.10000002384,37656.19999998808,38066.69999998808,38364.80000001192,38668.30000001192,40362.39999997616,40979.19999998808,41442.19999998808,42360.39999997616,43168.19999998808,43862.60000002384,45012.30000001192,45374.80000001192,45744.69999998808,46062.39999997616,46400.80000001192,47211.60000002384,47710.19999998808,48174.10000002384,48674.60000002384,49230.10000002384,49568.10000002384,50070.69999998808,50695.69999998808,51380.69999998808,52020.19999998808,52398.69999998808,52746.80000001192,53254.60000002384,53848.60000002384,54481,55389.89999997616,55868.19999998808,56686.39999997616],"key_events":[],"mouse_events":[4598.600000023842,5076.699999988079,6726.699999988079,6988.600000023842,7574.300000011921,8477.199999988079,8770.600000023842,9270.300000011921,9842.399999976158,10450.800000011921,11353.699999988079,11722.699999988079,12194.5,12578.199999988079,12748.399999976158,13189.100000023842,13558.5,13958.399999976158,14306.899999976158,14660.199999988079,15030.600000023842,15507.600000023842,15948.899999976158,16396.30000001192,21777.600000023842,23251.30000001192,23660.399999976158,23971.600000023842,24276.5,24638.30000001192,25000.600000023842,25310.80000001192,25818,26188.899999976158,26558.5,27076,27476,27884.399999976158,28271.100000023842,28640.600000023842,28950.600000023842,29308,30114.19999998808,30392.80000001192,30832.19999998808,31626.19999998808,32034.69999998808,33870.69999998808,34340.30000001192,35011.10000002384,35443.89999997616,36500.5,36876.10000002384,37346.10000002384,37656.19999998808,38066.69999998808,38364.80000001192,38668.30000001192,39074.89999997616,39539.19999998808,40362.39999997616,40979.19999998808,41442.19999998808,42144.39999997616,42360.39999997616,42922.19999998808,43168.19999998808,43862.60000002384,44210.39999997616,44556.5,45012.30000001192,45374.80000001192,45744.69999998808,46062.39999997616,46400.80000001192,47211.60000002384,47710.19999998808,48174.10000002384,48674.60000002384,49230.10000002384,49568.10000002384,50070.69999998808,50695.69999998808,51034.30000001192,51380.69999998808,52020.19999998808,52398.69999998808,52746.80000001192,53254.60000002384,53848.60000002384,54481,54858.19999998808,55389.89999997616,55868.19999998808,56686.39999997616,58568.69999998808],"honeypot":0,"survey":"mace","page":9,"trial_type":"survey-mace","trial_index":17,"time_elapsed":558844,"internal_node_id":"0.0-17.0","task_version":"prescreen-v0.3","browser_interactions":0},{"responses":{"01":"No","02":"No","03":"No","04":"No","05":"No","06":"Yes","06_ages_17":"17","07":"Yes","07_ages_1":"1","07_ages_2":"2","07_ages_3":"3","07_ages_4":"4","07_ages_5":"5","07_ages_6":"6","07_ages_7":"7","07_ages_8":"8","07_ages_9":"9","07_ages_10":"10","07_ages_11":"11","07_ages_12":"12","07_ages_13":"13","07_ages_14":"14","07_ages_15":"15","07_ages_16":"16","07_ages_17":"17","07_ages_18":"18","08":"Yes","08_ages_1":"1","08_ages_2":"2","08_ages_3":"3","08_ages_4":"4","08_ages_5":"5","08_ages_6":"6","08_ages_7":"7","08_ages_8":"8","08_ages_9":"9","08_ages_10":"10","08_ages_11":"11","08_ages_12":"12","08_ages_13":"13","08_ages_14":"14","08_ages_15":"15","08_ages_16":"16","08_ages_17":"17","08_ages_18":"18"},"rt":55281,"item_order":[0,1,2,3,4,5,6,7],"radio_events":[4552.300000011921,5006.399999976158,6272.800000011921,10650.599999964237,16474.899999976158,19888.80000001192,24678.399999976158,43692.5],"checkbox_events":[11946.5,33538.89999997616,33977,34362.89999997616,34724.5,35087.30000001192,35450.69999998808,36182.69999998808,36522.80000001192,37014.89999997616,37632.5,38410.30000001192,39029,39329.09999996424,39652.89999997616,40114.80000001192,41133,41735,42358.89999997616,45127.39999997616,45458.80000001192,45804.5,46268.19999998808,46800.19999998808,47154.59999996424,47540.30000001192,48635.19999998808,49490.39999997616,50131.19999998808,50516.69999998808,50918.69999998808,51304.09999996424,51834.69999998808,52536,53200.59999996424,53678.5,54256.69999998808],"key_events":[],"mouse_events":[4174.300000011921,4552.300000011921,5006.399999976158,6272.800000011921,10180.5,10650.599999964237,11946.5,16474.899999976158,19888.80000001192,24678.399999976158,33538.89999997616,33977,34362.89999997616,34724.5,35087.30000001192,35450.69999998808,36182.69999998808,36522.80000001192,37014.89999997616,37632.5,38410.30000001192,39029,39329.09999996424,39652.89999997616,40114.80000001192,40578.19999998808,41133,41735,42358.89999997616,43692.5,45127.39999997616,45458.80000001192,45804.5,46268.19999998808,46800.19999998808,47154.59999996424,47540.30000001192,47972.39999997616,48635.19999998808,49013.09999996424,49490.39999997616,50131.19999998808,50516.69999998808,50918.69999998808,51304.09999996424,51834.69999998808,52236.39999997616,52536,52984.80000001192,53200.59999996424,53678.5,54256.69999998808,54760.89999997616,55275.69999998808],"honeypot":0,"survey":"mace","page":10,"trial_type":"survey-mace","trial_index":18,"time_elapsed":614134,"internal_node_id":"0.0-18.0","task_version":"prescreen-v0.3","browser_interactions":0,"instructed":0},{"rt":4166,"trial_type":"mental-health-alert","trial_index":19,"time_elapsed":618306,"internal_node_id":"0.0-19.0","task_version":"prescreen-v0.3","interactions":"[{\"event\":\"blur\",\"trial\":13,\"time\":244373},{\"event\":\"focus\",\"trial\":13,\"time\":289446},{\"event\":\"blur\",\"trial\":13,\"time\":295434},{\"event\":\"focus\",\"trial\":13,\"time\":312719},{\"event\":\"blur\",\"trial\":16,\"time\":346320},{\"event\":\"focus\",\"trial\":16,\"time\":472165}]"}]