[{"view_history":[{"page_index":0,"viewing_time":30728},{"page_index":1,"viewing_time":2632},{"page_index":2,"viewing_time":3873},{"page_index":3,"viewing_time":2625}],"rt":39858,"trial_type":"instructions","trial_index":0,"time_elapsed":39866,"internal_node_id":"0.0-0.0","task_version":"prescreen-v0.3"},{"rt":14745,"responses":{"age":"29","gender-categorical":"Female","gender-free-response":"","ethnicity":"Not Hispanic or Latino","race":["White"],"education":"Bachelor degree"},"trial_type":"survey-demo","trial_index":1,"time_elapsed":54629,"internal_node_id":"0.0-1.0","task_version":"prescreen-v0.3"},{"responses":{"Q09":"2","Q15":"2","Q19":"2","Q20":"1","Q16":"2","Q11":"2","Q08":"3","Q21":"3","Q18":"3","Q14":"3","Q10":"2","Q07":"0","Q17":"1","Q02":"3","Q01":"1","Q12":"2","Q06":"0","Q13":"3","Q05":"0","Q03":"0","Q04":"1"},"rt":116703,"item_order":[8,14,18,19,15,10,7,20,17,13,9,6,16,1,0,11,5,12,4,2,3],"radio_events":[12005,17117,23645,29001,38361,43325,47498,51120,55058,58326,67504,74528,77850,82464,86628,87865,92648,97402,101221,108206,112208,115654],"key_events":[],"mouse_events":[8704,9989,12005,17117,22612,23645,29001,34928,38361,43325,47498,51120,55058,58326,62222,64054,65877,67504,73405,74528,77850,82464,85541,86628,87865,92648,97402,101221,108206,110678,112208,115654,116702],"straightlining":0.3333333333333333,"zigzagging":0.45,"honeypot":0,"survey":"sns","trial_type":"survey-template","trial_index":2,"time_elapsed":171343,"internal_node_id":"0.0-2.0","task_version":"prescreen-v0.3","browser_interactions":0,"infrequency":0},{"responses":{"Q09":"0","Q03":"3","Q06":"2","Q01":"3","Q02":"3","Q07":"3","Q08":"2","Q13":"0","Q05":"2","Q11":"1","Q04":"3","Q12":"0","Q10":"0"},"rt":62648,"item_order":[8,2,5,0,1,6,7,12,4,10,3,11,9],"radio_events":[5958,9966,16573,18051,20111,25899,28520,32987,36128,39176,41966,44771,53748,60350],"key_events":[],"mouse_events":[5958,9016,9966,13941,14662,15611,16573,18051,20111,22007,24221,25899,28520,32035,32987,36128,39176,41966,43730,44771,45976,46966,52217,53748,56481,60350,62648],"straightlining":0.38461538461538464,"zigzagging":0.5,"honeypot":0,"survey":"bisbas","trial_type":"survey-template","trial_index":3,"time_elapsed":233999,"internal_node_id":"0.0-3.0","task_version":"prescreen-v0.3","browser_interactions":0,"infrequency":0},{"responses":{"Q01":"2","Q02":"2","Q03":"2"},"rt":20278,"radio_events":[8770,14316,19153],"key_events":[],"mouse_events":[8770,14316,19153,20278],"survey":"map","page":1,"trial_type":"survey-map","trial_index":4,"time_elapsed":254281,"internal_node_id":"0.0-4.0","task_version":"prescreen-v0.3","browser_interactions":0},{"responses":{"Q04":"2","Q05":"3","Q06":"2"},"rt":11173,"radio_events":[4885,7428,9926],"key_events":[],"mouse_events":[4885,7428,9926,11173],"survey":"map","page":2,"trial_type":"survey-map","trial_index":5,"time_elapsed":265461,"internal_node_id":"0.0-5.0","task_version":"prescreen-v0.3","browser_interactions":0},{"responses":{"Q07":"2","Q08":"4","Q09":"4"},"rt":14598,"radio_events":[6826,11308,13236],"key_events":[],"mouse_events":[6826,11308,13236,14598],"survey":"map","page":3,"trial_type":"survey-map","trial_index":6,"time_elapsed":280065,"internal_node_id":"0.0-6.0","task_version":"prescreen-v0.3","browser_interactions":0},{"responses":{"Q10":"1","Q11":"2","Q12":"1","Q13":"3","Q16":"0","Q14":"1","Q15":"2"},"rt":43073,"radio_events":[9760,12247,17793,19368,24143,28582,33618,42159],"key_events":[],"mouse_events":[9760,12247,16905,17793,19368,24143,28582,33618,42159,43073],"survey":"map","page":4,"trial_type":"survey-map","trial_index":7,"time_elapsed":323144,"internal_node_id":"0.0-7.0","task_version":"prescreen-v0.3","browser_interactions":0,"infrequency":0},{"view_history":[{"page_index":0,"viewing_time":2395},{"page_index":1,"viewing_time":6289}],"rt":8684,"trial_type":"instructions","trial_index":8,"time_elapsed":331829,"internal_node_id":"0.0-8.0","task_version":"prescreen-v0.3"},{"responses":{"01":"Yes","01_ages_6":"6","01_ages_7":"7","01_ages_8":"8","01_ages_9":"9","01_ages_10":"10","01_ages_11":"11","01_ages_12":"12","02":"Yes","02_ages_6":"6","02_ages_7":"7","02_ages_8":"8","02_ages_9":"9","02_ages_10":"10","02_ages_11":"11","02_ages_12":"12","02_ages_13":"13","02_ages_14":"14","02_ages_15":"15","02_ages_16":"16","02_ages_17":"17","02_ages_18":"18","03":"Yes","03_ages_5":"5","03_ages_6":"6","03_ages_7":"7","03_ages_8":"8","03_ages_9":"9","03_ages_10":"10","03_ages_11":"11","03_ages_12":"12","04":"Yes","04_ages_9":"9","04_ages_10":"10","04_ages_11":"11","04_ages_12":"12","05":"No","06":"Yes","06_ages_7":"7","06_ages_8":"8","06_ages_9":"9","06_ages_10":"10","06_ages_11":"11","06_ages_12":"12"},"rt":114380,"item_order":[0,1,2,3,4,5],"radio_events":[8391,33000,57859,76507,88637,92699],"checkbox_events":[14986,16772,17855,18873,19830,24489,26014,35151,36067,37980,43338,44969,46134,48110,49140,50078,50915,51754,52867,54037,60754,61586,62456,63318,64216,65080,66188,67231,83680,85568,86638,97743,106033,107039,108367,109199,111135,112252],"key_events":[],"mouse_events":[0,8391,14986,15982,16772,17855,18873,19830,24489,26014,33000,35151,36067,37001,37980,43338,44969,46134,48110,49140,50078,50915,51754,52867,54037,57859,60754,61586,62456,63318,64216,65080,66188,67231,76507,83680,85568,86638,88637,92699,97743,106033,107039,108367,109199,111135,112252,114380],"honeypot":0,"survey":"mace","page":1,"trial_type":"survey-mace","trial_index":9,"time_elapsed":446323,"internal_node_id":"0.0-9.0","task_version":"prescreen-v0.3","browser_interactions":0},{"responses":{"01":"Yes","01_ages_6":"6","01_ages_7":"7","01_ages_8":"8","02":"No","03":"Yes","03_ages_6":"6","03_ages_7":"7","04":"No","05":"No","06":"No","07":"No","08":"No"},"rt":72683,"item_order":[0,1,2,3,4,5,6,7],"radio_events":[11647,50328,54233,60171,64160,67316,68964,71875],"checkbox_events":[39822,44707,46339,56270,57263],"key_events":[],"mouse_events":[11647,39822,44707,46339,50328,54233,56270,57263,60171,64160,67316,68964,71875,72683],"honeypot":0,"survey":"mace","page":2,"trial_type":"survey-mace","trial_index":10,"time_elapsed":519116,"internal_node_id":"0.0-10.0","task_version":"prescreen-v0.3","browser_interactions":0},{"responses":{"01":"Yes","01_ages_6":"6","01_ages_7":"7","01_ages_8":"8","02":"No","03":"No","04":"No"},"rt":37502,"item_order":[0,1,2,3],"radio_events":[12996,30353,33908,35147],"checkbox_events":[21892,23921,24878],"key_events":[],"mouse_events":[12996,21892,23921,24878,30353,33908,35147,37502],"honeypot":0,"survey":"mace","page":3,"trial_type":"survey-mace","trial_index":11,"time_elapsed":556691,"internal_node_id":"0.0-11.0","task_version":"prescreen-v0.3","browser_interactions":0},{"responses":{"01":"No","02":"No"},"rt":7238,"item_order":[0,1],"radio_events":[3976,6205],"checkbox_events":[],"key_events":[],"mouse_events":[3976,6205,7238],"honeypot":0,"survey":"mace","page":4,"trial_type":"survey-mace","trial_index":12,"time_elapsed":563971,"internal_node_id":"0.0-12.0","task_version":"prescreen-v0.3","browser_interactions":0},{"responses":{"01":"Yes","01_ages_6":"6","01_ages_7":"7","01_ages_8":"8","01_ages_9":"9","01_ages_10":"10","01_ages_11":"11","01_ages_12":"12","01_ages_15":"15","01_ages_16":"16","02":"Yes","02_ages_9":"9","02_ages_10":"10","03":"Yes","03_ages_9":"9","03_ages_10":"10","04":"No","05":"No"},"rt":62471,"item_order":[0,1,2,3,4],"radio_events":[4985,32040,47825,57322,61331],"checkbox_events":[10657,13647,15470,17020,18044,18802,20455,23898,25660,36306,37049,49398,51106],"key_events":[],"mouse_events":[4985,10657,13647,15470,17020,18044,18802,19568,20455,23898,25660,32040,36306,37049,47825,49398,51106,57322,61331,62470],"honeypot":0,"survey":"mace","page":5,"trial_type":"survey-mace","trial_index":13,"time_elapsed":626527,"internal_node_id":"0.0-13.0","task_version":"prescreen-v0.3","browser_interactions":0},{"responses":{"01":"Yes","01_ages_6":"6","01_ages_7":"7","01_ages_8":"8","01_ages_9":"9","01_ages_10":"10","01_ages_11":"11","01_ages_12":"12","01_ages_15":"15","01_ages_16":"16","01_ages_17":"17","02":"Yes","02_ages_6":"6","02_ages_7":"7","02_ages_8":"8","02_ages_9":"9","02_ages_10":"10","02_ages_11":"11","02_ages_12":"12","03":"Yes","03_ages_7":"7","03_ages_8":"8","04":"Yes","04_ages_7":"7","04_ages_8":"8","04_ages_9":"9","04_ages_10":"10","04_ages_11":"11","05":"Yes","05_ages_6":"6","05_ages_7":"7","05_ages_8":"8","05_ages_9":"9","05_ages_10":"10","05_ages_11":"11"},"rt":133289,"item_order":[0,1,2,3,4],"radio_events":[8348,57650,87359,99878,113487],"checkbox_events":[10080,12015,14450,15254,16106,16926,17807,22184,52253,53401,56467,63496,64936,65934,66798,68984,72147,73635,78721,92681,93075,93722,93940,94615,94835,95667,96943,103145,104496,105604,107894,109932,122078,122888,123866,125976,128045,131167],"key_events":[],"mouse_events":[8348,10080,12015,14450,15254,16106,16926,17807,22184,46059,52253,53401,56467,57650,61808,62602,63496,64936,65934,66798,67838,68984,72147,73635,78721,87359,92681,93075,93722,93940,94615,94835,95667,96943,99878,103145,104496,105604,107894,109932,113487,122078,122888,123866,125976,128045,131167,133289],"honeypot":0,"survey":"mace","page":6,"trial_type":"survey-mace","trial_index":14,"time_elapsed":759907,"internal_node_id":"0.0-14.0","task_version":"prescreen-v0.3","browser_interactions":0},{"responses":{"01":"No","02":"Yes","02_ages_7":"7","02_ages_8":"8","02_ages_9":"9","03":"Yes","03_ages_6":"6","03_ages_7":"7","03_ages_8":"8","03_ages_9":"9","03_ages_10":"10","03_ages_11":"11","04":"No","05":"No","06":"No","07":"No"},"rt":68684,"item_order":[0,1,2,3,4,5,6],"radio_events":[11658,19182,39532,58727,60342,65909,68010],"checkbox_events":[26151,26914,28346,44310,45051,45806,48175,49450,55243],"key_events":[],"mouse_events":[11658,19182,26151,26914,28346,39532,44310,45051,45806,48175,49450,55243,58727,60342,65909,68010,68683],"honeypot":0,"survey":"mace","page":7,"trial_type":"survey-mace","trial_index":15,"time_elapsed":828685,"internal_node_id":"0.0-15.0","task_version":"prescreen-v0.3","browser_interactions":0},{"responses":{"01":"Yes","01_ages_1":"1","01_ages_2":"2","01_ages_3":"3","01_ages_4":"4","01_ages_5":"5","01_ages_6":"6","01_ages_7":"7","01_ages_8":"8","01_ages_9":"9","01_ages_10":"10","01_ages_11":"11","01_ages_12":"12","01_ages_13":"13","01_ages_14":"14","01_ages_15":"15","01_ages_16":"16","01_ages_17":"17","01_ages_18":"18","02":"Yes","02_ages_7":"7","02_ages_8":"8","02_ages_9":"9","02_ages_10":"10","02_ages_11":"11","02_ages_12":"12","02_ages_13":"13","02_ages_14":"14","02_ages_15":"15","02_ages_16":"16","02_ages_17":"17","02_ages_18":"18","03":"Yes","03_ages_7":"7","03_ages_8":"8","03_ages_9":"9","03_ages_10":"10","03_ages_11":"11","03_ages_12":"12","03_ages_13":"13","03_ages_14":"14","03_ages_15":"15","03_ages_16":"16","03_ages_17":"17","03_ages_18":"18","04":"No"},"rt":97997,"item_order":[0,1,2,3],"radio_events":[5056,41536,75254,97014],"checkbox_events":[9027,10275,11097,11861,12505,13892,15172,16015,17708,19362,20577,23846,25074,25976,26893,28234,29294,30480,45093,46349,47354,48504,50141,50985,51853,53662,54774,55586,56398,57111,78765,79543,81874,83540,86674,87528,88449,89278,90368,91053,92000,92933],"key_events":[],"mouse_events":[5056,9027,10275,11097,11861,12505,13187,13892,15172,16015,17708,19362,20577,23846,25074,25976,26893,28234,29294,30480,41536,45093,46349,47354,48504,50141,50985,51853,53662,54774,55586,56398,57111,75254,78765,79543,81874,83540,86674,87528,88449,89278,90368,91053,92000,92933,97014,97997],"honeypot":0,"survey":"mace","page":8,"trial_type":"survey-mace","trial_index":16,"time_elapsed":926753,"internal_node_id":"0.0-16.0","task_version":"prescreen-v0.3","browser_interactions":0},{"responses":{"01":"Yes","01_ages_1":"1","01_ages_2":"2","01_ages_3":"3","01_ages_4":"4","01_ages_5":"5","01_ages_6":"6","01_ages_7":"7","01_ages_8":"8","01_ages_9":"9","01_ages_10":"10","01_ages_11":"11","01_ages_12":"12","01_ages_13":"13","01_ages_14":"14","01_ages_15":"15","02":"Yes","02_ages_1":"1","02_ages_2":"2","02_ages_3":"3","02_ages_4":"4","02_ages_5":"5","02_ages_6":"6","02_ages_7":"7","02_ages_8":"8","02_ages_9":"9","02_ages_10":"10","02_ages_11":"11","02_ages_12":"12","02_ages_13":"13","02_ages_14":"14","02_ages_15":"15","03":"Yes","03_ages_1":"1","03_ages_2":"2","03_ages_3":"3","03_ages_4":"4","03_ages_5":"5","03_ages_6":"6","03_ages_7":"7","03_ages_8":"8","03_ages_9":"9","03_ages_10":"10","03_ages_11":"11","03_ages_12":"12","03_ages_13":"13","03_ages_14":"14","03_ages_15":"15","04":"Yes","04_ages_1":"1","04_ages_2":"2","04_ages_3":"3","04_ages_4":"4","04_ages_5":"5","04_ages_6":"6","04_ages_7":"7","04_ages_8":"8","04_ages_9":"9","04_ages_10":"10","04_ages_11":"11","04_ages_12":"12","04_ages_13":"13","04_ages_14":"14","04_ages_15":"15"},"rt":125246,"item_order":[0,1,2,3],"radio_events":[9587,44361,66445,104104],"checkbox_events":[11864,13373,17027,18215,19235,20182,21035,22002,22827,23797,24833,27591,28547,29475,30860,35013,37959,46195,47750,48654,49446,50300,51190,52083,52854,53633,54479,55278,56790,57671,58400,59313,70663,71591,72777,75647,77937,82049,83876,85614,86459,87325,91223,91990,93872,94694,95744,106172,107132,107988,108786,109608,112561,113337,114183,115068,117084,117937,119438,119665,120772,121662,122481,123720],"key_events":[],"mouse_events":[9587,10849,11864,12589,13373,16210,17027,18215,19235,20182,21035,22002,22827,23797,24833,27591,28547,29475,30860,35013,36861,37959,44361,46195,47750,48654,49446,50300,51190,52083,52854,53633,54479,55278,56790,57671,58400,59313,66445,70663,71591,72777,75647,77937,82049,83010,83876,85614,86459,87325,91223,91990,92712,93872,94694,95744,104104,106172,107132,107988,108786,109608,111798,112561,113337,114183,115068,117084,117937,119438,119665,120772,121662,122481,123720,125246],"honeypot":0,"survey":"mace","page":9,"trial_type":"survey-mace","trial_index":17,"time_elapsed":1052080,"internal_node_id":"0.0-17.0","task_version":"prescreen-v0.3","browser_interactions":0},{"responses":{"01":"Yes","01_ages_6":"6","01_ages_7":"7","01_ages_8":"8","01_ages_14":"14","01_ages_15":"15","01_ages_16":"16","01_ages_17":"17","01_ages_18":"18","02":"No","03":"Yes","03_ages_9":"9","03_ages_10":"10","03_ages_11":"11","03_ages_12":"12","03_ages_13":"13","03_ages_14":"14","03_ages_15":"15","03_ages_16":"16","03_ages_17":"17","03_ages_18":"18","04":"Yes","04_ages_6":"6","04_ages_7":"7","04_ages_8":"8","04_ages_9":"9","04_ages_14":"14","04_ages_15":"15","04_ages_16":"16","04_ages_17":"17","04_ages_18":"18","05":"No","06":"Yes","06_ages_17":"17","07":"Yes","07_ages_7":"7","07_ages_8":"8","07_ages_9":"9","07_ages_10":"10","07_ages_11":"11","07_ages_12":"12","07_ages_13":"13","07_ages_14":"14","08":"No"},"rt":134319,"item_order":[0,1,2,3,4,5,6,7],"radio_events":[10773,37241,41074,56740,91185,94261,115682,133343],"checkbox_events":[19436,20136,20905,29360,32796,33533,34260,35021,43413,44193,44950,45821,47943,48997,50751,51669,52407,53824,59889,60926,61651,62485,65118,71569,73483,75597,76631,77858,78663,96207,120654,121636,122431,123681,126252,127044,128410,131377],"key_events":[],"mouse_events":[10773,19436,20136,20905,29360,32796,33533,34260,35021,37241,39766,41074,43413,44193,44950,45821,46885,47943,48997,50751,51669,52407,53824,56740,59889,60926,61651,62485,65118,71569,73483,75597,76631,77858,78663,91185,94261,96207,115682,120654,121636,122431,123681,126252,127044,128410,131377,133343,134318],"honeypot":0,"survey":"mace","page":10,"trial_type":"survey-mace","trial_index":18,"time_elapsed":1186526,"internal_node_id":"0.0-18.0","task_version":"prescreen-v0.3","browser_interactions":0,"instructed":0},{"rt":5589,"trial_type":"mental-health-alert","trial_index":19,"time_elapsed":1192121,"internal_node_id":"0.0-19.0","task_version":"prescreen-v0.3","interactions":"[{\"event\":\"focus\",\"trial\":0,\"time\":3},{\"event\":\"blur\",\"trial\":0,\"time\":5922},{\"event\":\"focus\",\"trial\":0,\"time\":29222}]"}]