[{"view_history":[{"page_index":0,"viewing_time":17681.39999999106},{"page_index":1,"viewing_time":3001.6000000089407},{"page_index":2,"viewing_time":1646.0999999940395},{"page_index":3,"viewing_time":1116.4000000059605}],"rt":23448.20000000298,"trial_type":"instructions","trial_index":0,"time_elapsed":23461,"internal_node_id":"0.0-0.0","task_version":"prescreen-v0.3"},{"rt":24515.90000000596,"responses":{"age":"21","gender-categorical":"Female","gender-free-response":"","ethnicity":"Not Hispanic or Latino","race":["White"],"education":"Some college"},"trial_type":"survey-demo","trial_index":1,"time_elapsed":47996,"internal_node_id":"0.0-1.0","task_version":"prescreen-v0.3"},{"responses":{"Q18":"0","Q07":"0","Q01":"2","Q16":"2","Q20":"1","Q09":"1","Q12":"3","Q08":"2","Q17":"1","Q11":"1","Q19":"1","Q14":"2","Q13":"2","Q10":"1","Q21":"3","Q02":"1","Q04":"2","Q06":"0","Q03":"1","Q05":"1","Q15":"2"},"rt":95046.70000000298,"item_order":[17,6,0,15,19,8,11,7,16,10,18,13,12,9,20,1,3,5,2,4,14],"radio_events":[6619.9000000059605,11634,15885.40000000596,19233.70000000298,23543.5,29249.70000000298,33350,36964.79999999702,40200.40000000596,44160,45758.29999999702,50127.40000000596,51906.90000000596,57264.59999999404,58025.09999999404,62004.20000000298,63817.09999999404,66428.40000000596,69650.29999999702,73760,78892.09999999404,83876.5,89678.29999999702,93967.59999999404],"key_events":[],"mouse_events":[6619.9000000059605,11046.59999999404,11634,14323.20000000298,15885.40000000596,19233.70000000298,22578.70000000298,23543.5,29249.70000000298,33350,36113.29999999702,36964.79999999702,40200.40000000596,44160,45758.29999999702,50127.40000000596,51370.79999999702,51906.90000000596,55190.20000000298,57264.59999999404,58025.09999999404,62004.20000000298,63817.09999999404,66428.40000000596,69650.29999999702,72717,73760,78083.29999999702,78892.09999999404,82948.90000000596,83876.5,89678.29999999702,93967.59999999404,95040.09999999404],"straightlining":0.42857142857142855,"zigzagging":0.4,"honeypot":0,"survey":"sns","trial_type":"survey-template","trial_index":2,"time_elapsed":143065,"internal_node_id":"0.0-2.0","task_version":"prescreen-v0.3","browser_interactions":0,"infrequency":0},{"responses":{"Q10":"1","Q08":"1","Q12":"1","Q05":"2","Q03":"2","Q11":"1","Q06":"2","Q07":"3","Q13":"0","Q09":"1","Q01":"3","Q02":"2","Q04":"2"},"rt":56404.09999999404,"item_order":[9,7,11,4,2,10,5,6,12,8,0,1,3],"radio_events":[9500.90000000596,14383.5,20093.90000000596,23836.59999999404,28533.90000000596,33678.90000000596,37546.09999999404,40970.79999999702,43051.70000000298,47040.59999999404,49987.20000000298,51847.5,55428.90000000596],"key_events":[],"mouse_events":[9500.90000000596,13344.40000000596,14383.5,18926.79999999702,20093.90000000596,23836.59999999404,28533.90000000596,33678.90000000596,37546.09999999404,39959.59999999404,40970.79999999702,43051.70000000298,47040.59999999404,49186.20000000298,49987.20000000298,51847.5,55428.90000000596,56399.90000000596],"straightlining":0.38461538461538464,"zigzagging":0.5833333333333334,"honeypot":0,"survey":"bisbas","trial_type":"survey-template","trial_index":3,"time_elapsed":199480,"internal_node_id":"0.0-3.0","task_version":"prescreen-v0.3","browser_interactions":0,"infrequency":0},{"responses":{"Q01":"4","Q02":"3","Q03":"2"},"rt":22240.20000000298,"radio_events":[5816.70000000298,9676.79999999702,17298.90000000596,21452.40000000596],"key_events":[],"mouse_events":[5816.70000000298,9676.79999999702,16406.20000000298,17298.90000000596,21452.40000000596,22238.29999999702],"survey":"map","page":1,"trial_type":"survey-map","trial_index":4,"time_elapsed":221732,"internal_node_id":"0.0-4.0","task_version":"prescreen-v0.3","browser_interactions":0},{"responses":{"Q04":"2","Q05":"2","Q06":"1"},"rt":16302.79999999702,"radio_events":[4388.29999999702,7562.70000000298,12080.90000000596,15282.09999999404],"key_events":[],"mouse_events":[4388.29999999702,7562.70000000298,11112.29999999702,12080.90000000596,15282.09999999404,16301.09999999404],"survey":"map","page":2,"trial_type":"survey-map","trial_index":5,"time_elapsed":238042,"internal_node_id":"0.0-5.0","task_version":"prescreen-v0.3","browser_interactions":0},{"responses":{"Q07":"2","Q08":"3","Q09":"3"},"rt":26086,"radio_events":[11385.09999999404,22782.29999999702,25323.79999999702],"key_events":[],"mouse_events":[11385.09999999404,22782.29999999702,25323.79999999702,26084.20000000298],"survey":"map","page":3,"trial_type":"survey-map","trial_index":6,"time_elapsed":264135,"internal_node_id":"0.0-6.0","task_version":"prescreen-v0.3","browser_interactions":0},{"responses":{"Q10":"3","Q11":"2","Q12":"1","Q13":"1","Q16":"0","Q14":"3","Q15":"2"},"rt":44320.40000000596,"radio_events":[5193.20000000298,10076.40000000596,19314.29999999702,24025.70000000298,31970.40000000596,40174.90000000596,43418.20000000298],"key_events":[],"mouse_events":[4318.20000000298,5193.20000000298,8916.20000000298,10076.40000000596,18444.20000000298,19314.29999999702,24025.70000000298,31970.40000000596,39380.59999999404,40174.90000000596,43418.20000000298,44317.20000000298],"survey":"map","page":4,"trial_type":"survey-map","trial_index":7,"time_elapsed":308465,"internal_node_id":"0.0-7.0","task_version":"prescreen-v0.3","browser_interactions":0,"infrequency":0},{"view_history":[{"page_index":0,"viewing_time":2175.2000000029802},{"page_index":1,"viewing_time":3904.8999999910593}],"rt":6082.5999999940395,"trial_type":"instructions","trial_index":8,"time_elapsed":314552,"internal_node_id":"0.0-8.0","task_version":"prescreen-v0.3"},{"responses":{"01":"No","02":"No","03":"No","04":"No","05":"No","06":"No"},"rt":24179.80000001192,"item_order":[0,1,2,3,4,5],"radio_events":[10054.90000000596,14306.300000011921,17182,19213.40000000596,20419,23457.30000001192],"checkbox_events":[],"key_events":[],"mouse_events":[0.20000000298023224,9099.70000000298,10054.90000000596,14306.300000011921,17182,19213.40000000596,20419,22308.60000000894,23457.30000001192,24175.60000000894],"honeypot":0,"survey":"mace","page":1,"trial_type":"survey-mace","trial_index":9,"time_elapsed":338749,"internal_node_id":"0.0-9.0","task_version":"prescreen-v0.3","browser_interactions":0},{"responses":{"01":"No","02":"No","03":"No","04":"No","05":"No","06":"No","07":"No","08":"No"},"rt":22861.09999999404,"item_order":[0,1,2,3,4,5,6,7],"radio_events":[4029.0999999940395,7620.699999988079,8723.59999999404,11572.39999999106,14082.09999999404,15606.79999999702,19635.59999999404,21613.39999999106],"checkbox_events":[],"key_events":[],"mouse_events":[4029.0999999940395,5783.0999999940395,6901.699999988079,7620.699999988079,8723.59999999404,11572.39999999106,14082.09999999404,14776.79999999702,15606.79999999702,19635.59999999404,20286.29999999702,21613.39999999106,22849.59999999404],"honeypot":0,"survey":"mace","page":2,"trial_type":"survey-mace","trial_index":10,"time_elapsed":361620,"internal_node_id":"0.0-10.0","task_version":"prescreen-v0.3","browser_interactions":0},{"responses":{"01":"No","02":"No","03":"No","04":"No"},"rt":10047,"item_order":[0,1,2,3],"radio_events":[4630.29999999702,5571.899999991059,7320,8431.70000000298],"checkbox_events":[],"key_events":[],"mouse_events":[3073.2999999970198,3731.5,4630.29999999702,5571.899999991059,6363.29999999702,7320,8431.70000000298,10039.5],"honeypot":0,"survey":"mace","page":3,"trial_type":"survey-mace","trial_index":11,"time_elapsed":371677,"internal_node_id":"0.0-11.0","task_version":"prescreen-v0.3","browser_interactions":0},{"responses":{"01":"No","02":"No"},"rt":7189.4000000059605,"item_order":[0,1],"radio_events":[4191.5999999940395,6477.5],"checkbox_events":[],"key_events":[],"mouse_events":[3100.9000000059605,4191.5999999940395,5830.20000000298,6477.5,7185.79999999702],"honeypot":0,"survey":"mace","page":4,"trial_type":"survey-mace","trial_index":12,"time_elapsed":378873,"internal_node_id":"0.0-12.0","task_version":"prescreen-v0.3","browser_interactions":0},{"responses":{"01":"No","02":"No","03":"No","04":"No","05":"No"},"rt":11535.90000000596,"item_order":[0,1,2,3,4],"radio_events":[4131,6393.9000000059605,8406.79999999702,9195,10018.79999999702],"checkbox_events":[],"key_events":[],"mouse_events":[4131,6393.9000000059605,8406.79999999702,9195,10018.79999999702,10868.79999999702,11528.29999999702],"honeypot":0,"survey":"mace","page":5,"trial_type":"survey-mace","trial_index":13,"time_elapsed":390421,"internal_node_id":"0.0-13.0","task_version":"prescreen-v0.3","browser_interactions":0},{"responses":{"01":"No","02":"No","03":"No","04":"No","05":"No"},"rt":30206.29999999702,"item_order":[0,1,2,3,4],"radio_events":[11674.29999999702,12591.5,15172.10000000894,18129.20000000298,22295.20000000298,25131.10000000894,28149.40000000596],"checkbox_events":[],"key_events":[],"mouse_events":[10306.29999999702,11674.29999999702,12591.5,15172.10000000894,16321.60000000894,18129.20000000298,22295.20000000298,24296.79999999702,25131.10000000894,28149.40000000596,30198.10000000894],"honeypot":0,"survey":"mace","page":6,"trial_type":"survey-mace","trial_index":14,"time_elapsed":420640,"internal_node_id":"0.0-14.0","task_version":"prescreen-v0.3","browser_interactions":0},{"responses":{"01":"No","02":"No","03":"No","04":"No","05":"No","06":"No","07":"No"},"rt":18158.70000000298,"item_order":[0,1,2,3,4,5,6],"radio_events":[4070.6000000089407,4951.70000000298,8976.90000000596,9944.300000011921,10751.60000000894,16136.90000000596,17394],"checkbox_events":[],"key_events":[],"mouse_events":[2746.300000011921,4070.6000000089407,4951.70000000298,6083.100000008941,7949.20000000298,8976.90000000596,9944.300000011921,10751.60000000894,13346.300000011921,14577.800000011921,15288.5,16136.90000000596,17394,18146.40000000596],"honeypot":0,"survey":"mace","page":7,"trial_type":"survey-mace","trial_index":15,"time_elapsed":438814,"internal_node_id":"0.0-15.0","task_version":"prescreen-v0.3","browser_interactions":0},{"responses":{"01":"Yes","01_ages_12":"12","01_ages_13":"13","01_ages_14":"14","01_ages_15":"15","01_ages_16":"16","01_ages_17":"17","02":"No","03":"No","04":"No"},"rt":42922.29999999702,"item_order":[0,1,2,3],"radio_events":[9494.60000000894,27995.5,35053.40000000596,36302.10000000894],"checkbox_events":[12932.10000000894,13555.29999999702,14743.70000000298,17252,19102.40000000596,19907.20000000298,21068.60000000894,21674.40000000596],"key_events":[],"mouse_events":[9494.60000000894,12932.10000000894,13555.29999999702,14743.70000000298,15386,15995.20000000298,17252,18261.40000000596,19102.40000000596,19907.20000000298,20460.90000000596,21068.60000000894,21674.40000000596,23754.29999999702,27995.5,35053.40000000596,36302.10000000894,42916.10000000894],"honeypot":0,"survey":"mace","page":8,"trial_type":"survey-mace","trial_index":16,"time_elapsed":481744,"internal_node_id":"0.0-16.0","task_version":"prescreen-v0.3","browser_interactions":0},{"responses":{"01":"Yes","01_ages_1":"1","01_ages_2":"2","01_ages_3":"3","01_ages_4":"4","01_ages_5":"5","01_ages_6":"6","01_ages_7":"7","01_ages_8":"8","01_ages_9":"9","01_ages_10":"10","01_ages_11":"11","01_ages_12":"12","01_ages_13":"13","01_ages_14":"14","01_ages_15":"15","01_ages_16":"16","01_ages_17":"17","01_ages_18":"18","02":"Yes","02_ages_1":"1","02_ages_2":"2","02_ages_3":"3","02_ages_4":"4","02_ages_5":"5","02_ages_6":"6","02_ages_7":"7","02_ages_8":"8","02_ages_9":"9","02_ages_10":"10","02_ages_11":"11","02_ages_12":"12","02_ages_13":"13","02_ages_14":"14","02_ages_15":"15","02_ages_16":"16","02_ages_17":"17","03":"Yes","03_ages_1":"1","03_ages_2":"2","03_ages_3":"3","03_ages_4":"4","03_ages_5":"5","03_ages_6":"6","03_ages_7":"7","03_ages_8":"8","03_ages_9":"9","03_ages_10":"10","03_ages_11":"11","03_ages_12":"12","03_ages_13":"13","03_ages_14":"14","03_ages_15":"15","03_ages_16":"16","03_ages_17":"17","03_ages_18":"18","04":"Yes","04_ages_1":"1","04_ages_2":"2","04_ages_3":"3","04_ages_4":"4","04_ages_5":"5","04_ages_6":"6","04_ages_7":"7","04_ages_8":"8","04_ages_9":"9","04_ages_10":"10","04_ages_11":"11","04_ages_12":"12","04_ages_13":"13","04_ages_14":"14","04_ages_15":"15","04_ages_16":"16","04_ages_17":"17","04_ages_18":"18"},"rt":63318.29999999702,"item_order":[0,1,2,3],"radio_events":[3315.5,21916.89999999106,38586.59999999404,52417.29999999702],"checkbox_events":[7395.5999999940395,8959.89999999106,9555.79999999702,10073.79999999702,10574.59999999404,11131.699999988079,12150.699999988079,12678.09999999404,13590.79999999702,14986.699999988079,15851.09999999404,16285.09999999404,16694.89999999106,17101.89999999106,17550.59999999404,17965.5,18354.79999999702,18710.29999999702,24050.79999999702,25251.19999998808,26320.39999999106,26634.59999999404,27043.59999999404,27293.5,27684.59999999404,27981.59999999404,29115.29999999702,29515.79999999702,29935.09999999404,30223,31236.29999999702,31552.29999999702,33363,33772.79999999702,34098.5,39424.79999999702,39786.09999999404,40766.19999998808,41156.19999998808,41554.29999999702,41852.39999999106,42243.89999999106,42523.79999999702,42874.19999998808,43283.79999999702,43565.29999999702,43840,44036.29999999702,44265.79999999702,44505.09999999404,44730.39999999106,44979.19999998808,45370.79999999702,45608.19999998808,46085.29999999702,53946.5,54207.59999999404,54764.5,55102.79999999702,55381,55718.79999999702,57600,57964.59999999404,58261,58548.79999999702,59890.29999999702,60245.5,60516.79999999702,61547.79999999702,61966.19999998808,62267.39999999106,62514.79999999702,62759.5],"key_events":[],"mouse_events":[3315.5,7395.5999999940395,7898.899999991059,8959.89999999106,9555.79999999702,10073.79999999702,10574.59999999404,11131.699999988079,11667,12150.699999988079,12678.09999999404,13590.79999999702,14594.89999999106,14986.699999988079,15851.09999999404,16285.09999999404,16694.89999999106,17101.89999999106,17550.59999999404,17965.5,18354.79999999702,18710.29999999702,21916.89999999106,23261.19999998808,24050.79999999702,25251.19999998808,26320.39999999106,26634.59999999404,27043.59999999404,27293.5,27684.59999999404,27981.59999999404,29115.29999999702,29515.79999999702,29935.09999999404,30223,31236.29999999702,31552.29999999702,33363,33772.79999999702,34098.5,38586.59999999404,39424.79999999702,39786.09999999404,40766.19999998808,41156.19999998808,41554.29999999702,41852.39999999106,42243.89999999106,42523.79999999702,42874.19999998808,43283.79999999702,43565.29999999702,43840,44036.29999999702,44265.79999999702,44505.09999999404,44730.39999999106,44979.19999998808,45370.79999999702,45608.19999998808,46085.29999999702,52417.29999999702,53946.5,54207.59999999404,54764.5,55102.79999999702,55381,55718.79999999702,57600,57964.59999999404,58261,58548.79999999702,59890.29999999702,60245.5,60516.79999999702,61547.79999999702,61966.19999998808,62267.39999999106,62514.79999999702,62759.5,63316],"honeypot":0,"survey":"mace","page":9,"trial_type":"survey-mace","trial_index":17,"time_elapsed":545070,"internal_node_id":"0.0-17.0","task_version":"prescreen-v0.3","browser_interactions":0},{"responses":{"01":"No","02":"No","03":"No","04":"No","05":"No","06":"Yes","06_ages_17":"17","07":"Yes","07_ages_1":"1","07_ages_2":"2","07_ages_3":"3","07_ages_4":"4","07_ages_5":"5","07_ages_6":"6","07_ages_7":"7","07_ages_8":"8","07_ages_9":"9","07_ages_10":"10","07_ages_11":"11","07_ages_12":"12","07_ages_13":"13","07_ages_14":"14","07_ages_15":"15","07_ages_16":"16","07_ages_17":"17","07_ages_18":"18","08":"Yes","08_ages_1":"1","08_ages_2":"2","08_ages_3":"3","08_ages_4":"4","08_ages_5":"5","08_ages_6":"6","08_ages_7":"7","08_ages_8":"8","08_ages_9":"9","08_ages_10":"10","08_ages_11":"11","08_ages_12":"12","08_ages_13":"13"},"rt":60490.09999999404,"item_order":[0,1,2,3,4,5,6,7],"radio_events":[3237.3999999910593,4357.5999999940395,6045.5,11406.70000000298,15715,23031.20000000298,36989.89999999106,58106.70000000298],"checkbox_events":[17703.79999999702,27969.20000000298,28866.70000000298,29279.89999999106,29600.39999999106,29949.70000000298,30902.20000000298,31174.79999999702,31438.79999999702,31729.89999999106,32062.29999999702,32321,32620.09999999404,32841.09999999404,33094.89999999106,33531.29999999702,33752.79999999702,34244.89999999106,34515.70000000298,34744.29999999702,35725.39999999106,38686.89999999106,38949.79999999702,39220.39999999106,39704.20000000298,41851.29999999702,42234,42531.29999999702,42800.79999999702,43141.20000000298,43590.20000000298,43939.70000000298,44237,44552.39999999106,44850.5,45224.09999999404,46133.89999999106,49021],"key_events":[],"mouse_events":[2505.8999999910593,3237.3999999910593,4357.5999999940395,6045.5,7396.0999999940395,8378.20000000298,10355.79999999702,11406.70000000298,12763.70000000298,15715,17703.79999999702,23031.20000000298,27969.20000000298,28866.70000000298,29279.89999999106,29600.39999999106,29949.70000000298,30902.20000000298,31174.79999999702,31438.79999999702,31729.89999999106,32062.29999999702,32321,32620.09999999404,32841.09999999404,33094.89999999106,33531.29999999702,33752.79999999702,34244.89999999106,34515.70000000298,34744.29999999702,35725.39999999106,36989.89999999106,38686.89999999106,38949.79999999702,39220.39999999106,39704.20000000298,41851.29999999702,42234,42531.29999999702,42800.79999999702,43141.20000000298,43590.20000000298,43939.70000000298,44237,44552.39999999106,44850.5,45224.09999999404,46133.89999999106,49021,57375.59999999404,58106.70000000298,60480.59999999404],"honeypot":0,"survey":"mace","page":10,"trial_type":"survey-mace","trial_index":18,"time_elapsed":605569,"internal_node_id":"0.0-18.0","task_version":"prescreen-v0.3","browser_interactions":0,"instructed":0},{"rt":4323.9000000059605,"trial_type":"mental-health-alert","trial_index":19,"time_elapsed":609898,"internal_node_id":"0.0-19.0","task_version":"prescreen-v0.3","interactions":"[]"}]