[{"view_history":[{"page_index":0,"viewing_time":2149.3000000715256},{"page_index":1,"viewing_time":919.2999999523163},{"page_index":2,"viewing_time":4335.700000047684},{"page_index":3,"viewing_time":1090.1000000238419}],"rt":8497.5,"trial_type":"instructions","trial_index":0,"time_elapsed":8620,"internal_node_id":"0.0-0.0","task_version":"prescreen-v0.3"},{"rt":11171.400000095367,"responses":{"age":"29","gender-categorical":"Male","gender-free-response":"","ethnicity":"Hispanic or Latino","race":["White"],"education":"High school"},"trial_type":"survey-demo","trial_index":1,"time_elapsed":19817,"internal_node_id":"0.0-1.0","task_version":"prescreen-v0.3"},{"responses":{"Q15":"2","Q18":"2","Q14":"3","Q09":"3","Q07":"3","Q21":"3","Q20":"0","Q06":"2","Q13":"2","Q16":"2","Q01":"2","Q03":"2","Q05":"2","Q04":"3","Q08":"2","Q17":"2","Q02":"2","Q19":"1","Q11":"3","Q10":"2","Q12":"3"},"rt":147171.10000002384,"item_order":[14,17,13,8,6,20,19,5,12,15,0,2,4,3,7,16,1,18,10,9,11],"radio_events":[7679.700000047684,14030.700000047684,24414.400000095367,28439.100000023842,33015.5,53879.300000071526,57600.90000009537,58991.40000009537,66920.80000007153,69615.60000002384,74608.30000007153,86911.90000009537,88560.70000004768,93088.90000009537,104298.10000002384,104969,111441.20000004768,112865.80000007153,120314.20000004768,121985.20000004768,134330.40000009537,137202.10000002384,140506.10000002384,146682.30000007153],"key_events":[],"mouse_events":[4519,7173.600000023842,7679.700000047684,14030.700000047684,24414.400000095367,27838,28439.100000023842,31511.900000095367,33015.5,53311.300000071526,53879.300000071526,55520,57600.90000009537,58991.40000009537,66920.80000007153,69615.60000002384,74608.30000007153,85640.60000002384,86911.90000009537,88560.70000004768,93088.90000009537,102433.60000002384,104298.10000002384,104969,109098.60000002384,111441.20000004768,112452.40000009537,112865.80000007153,117089.90000009537,120314.20000004768,121985.20000004768,134330.40000009537,137202.10000002384,140506.10000002384,146682.30000007153,147162.90000009537],"straightlining":0.5714285714285714,"zigzagging":0.35,"honeypot":0,"survey":"sns","trial_type":"survey-template","trial_index":2,"time_elapsed":167011,"internal_node_id":"0.0-2.0","task_version":"prescreen-v0.3","browser_interactions":0,"infrequency":0},{"responses":{"Q08":"2","Q03":"2","Q06":"2","Q01":"3","Q13":"0","Q04":"2","Q07":"2","Q02":"2","Q09":"2","Q10":"1","Q12":"1","Q11":"2","Q05":"2"},"rt":111465.60000002384,"item_order":[7,2,5,0,12,3,6,1,8,9,11,10,4],"radio_events":[32209.100000023842,37761.800000071526,41321.700000047684,46922.10000002384,51482.10000002384,53882.800000071526,73411.40000009537,78322.90000009537,79323,91019.40000009537,92077.5,98762.70000004768,99483.60000002384,106955.60000002384,110483.80000007153],"key_events":[],"mouse_events":[32209.100000023842,37761.800000071526,41321.700000047684,46922.10000002384,51482.10000002384,53882.800000071526,73411.40000009537,78322.90000009537,79323,87339.40000009537,90579.30000007153,91019.40000009537,92077.5,95779.70000004768,98762.70000004768,99483.60000002384,106955.60000002384,110483.80000007153,111460.10000002384],"straightlining":0.6923076923076923,"zigzagging":0.3333333333333333,"honeypot":0,"survey":"bisbas","trial_type":"survey-template","trial_index":3,"time_elapsed":278490,"internal_node_id":"0.0-3.0","task_version":"prescreen-v0.3","browser_interactions":0,"infrequency":0},{"responses":{"Q01":"3","Q02":"2","Q03":"3"},"rt":22533.700000047684,"radio_events":[5411.700000047684,9379.5,21811.899999976158],"key_events":[],"mouse_events":[5411.700000047684,9379.5,13235.700000047684,21283.899999976158,21811.899999976158,22531.600000023842],"survey":"map","page":1,"trial_type":"survey-map","trial_index":4,"time_elapsed":301036,"internal_node_id":"0.0-4.0","task_version":"prescreen-v0.3","browser_interactions":0},{"responses":{"Q04":"1","Q05":"2","Q06":"2"},"rt":18608.800000071526,"radio_events":[7621.700000047684,11278,17966],"key_events":[],"mouse_events":[453.60000002384186,7621.700000047684,11278,17966,18605.5],"survey":"map","page":2,"trial_type":"survey-map","trial_index":5,"time_elapsed":319653,"internal_node_id":"0.0-5.0","task_version":"prescreen-v0.3","browser_interactions":0},{"responses":{"Q07":"2","Q08":"0","Q09":"2"},"rt":36171.10000002384,"radio_events":[27829.600000023842,31726.200000047684,34990.300000071526],"key_events":[],"mouse_events":[26606.300000071526,27829.600000023842,29254.400000095367,31726.200000047684,34990.300000071526,36166.200000047684],"survey":"map","page":3,"trial_type":"survey-map","trial_index":6,"time_elapsed":355832,"internal_node_id":"0.0-6.0","task_version":"prescreen-v0.3","browser_interactions":2},{"responses":{"Q10":"1","Q11":"1","Q12":"1","Q13":"2","Q16":"0","Q14":"1","Q15":"0"},"rt":169340.30000007153,"radio_events":[11098.800000071526,16987.600000023842,17955.399999976158,20987.5,28099.200000047684,112190,156943.20000004768,165127.20000004768,167687.5],"key_events":[],"mouse_events":[11098.800000071526,16987.600000023842,17955.399999976158,20987.5,28099.200000047684,112190,113742.10000002384,113925.70000004768,114374.60000002384,156943.20000004768,165127.20000004768,167687.5,169335.89999997616],"survey":"map","page":4,"trial_type":"survey-map","trial_index":7,"time_elapsed":525184,"internal_node_id":"0.0-7.0","task_version":"prescreen-v0.3","browser_interactions":2,"infrequency":0},{"view_history":[{"page_index":0,"viewing_time":2754.2999999523163},{"page_index":1,"viewing_time":274888.10000002384}],"rt":277644.7999999523,"trial_type":"instructions","trial_index":8,"time_elapsed":802834,"internal_node_id":"0.0-8.0","task_version":"prescreen-v0.3"},{"responses":{"01":"No","02":"No","03":"No","04":"No","05":"No","06":"Yes","06_ages_6":"6","06_ages_7":"7","06_ages_8":"8","06_ages_9":"9","06_ages_10":"10","06_ages_11":"11","06_ages_12":"12","06_ages_13":"13","06_ages_14":"14","06_ages_15":"15","06_ages_16":"16"},"rt":119445.59999990463,"item_order":[0,1,2,3,4,5],"radio_events":[72293.59999990463,88989.5,90869.5,95198.79999995232,98053.29999995232,99350.09999990463,104501.69999992847],"checkbox_events":[107838.89999997616,108414.39999997616,110311.5,110822.19999992847,111525.5,112462.89999997616,112974.19999992847,113518.09999990463,114222.19999992847,115446.5,117494.79999995232],"key_events":[],"mouse_events":[0.2999999523162842,72293.59999990463,88285.69999992847,88989.5,90869.5,95198.79999995232,96430.59999990463,98053.29999995232,98541.79999995232,99350.09999990463,104501.69999992847,107838.89999997616,108414.39999997616,109571.29999995232,109864.39999997616,110311.5,110822.19999992847,111525.5,111950.19999992847,112462.89999997616,112974.19999992847,113518.09999990463,114222.19999992847,115446.5,117494.79999995232,119431.79999995232],"honeypot":0,"survey":"mace","page":1,"trial_type":"survey-mace","trial_index":9,"time_elapsed":922312,"internal_node_id":"0.0-9.0","task_version":"prescreen-v0.3","browser_interactions":2},{"responses":{"01":"Yes","01_ages_11":"11","02":"No","03":"Yes","03_ages_5":"5","03_ages_6":"6","03_ages_7":"7","03_ages_8":"8","03_ages_9":"9","03_ages_10":"10","03_ages_11":"11","03_ages_12":"12","03_ages_13":"13","03_ages_14":"14","04":"No","05":"Yes","05_ages_7":"7","05_ages_8":"8","05_ages_9":"9","05_ages_10":"10","05_ages_11":"11","05_ages_12":"12","06":"No","07":"No","08":"No"},"rt":123615.39999997616,"item_order":[0,1,2,3,4,5,6,7],"radio_events":[8945,18225.100000023842,20562.600000023842,108116.79999995232,109948.69999992847,117892.19999992847,120220.39999997616,122756.5],"checkbox_events":[10664.699999928474,22233.5,22656.600000023842,24089.299999952316,24849.199999928474,25305.199999928474,26264.799999952316,26961.399999976158,39394.299999952316,39921.10000002384,74483.89999997616,75874.79999995232,76346.89999997616,77178.79999995232,77708.10000002384,112644.10000002384,113564.69999992847,113970.69999992847,114397.19999992847,114748.29999995232,115092.10000002384],"key_events":[],"mouse_events":[8945,10664.699999928474,18225.100000023842,19953.299999952316,20562.600000023842,22233.5,22656.600000023842,24089.299999952316,24515.199999928474,24849.199999928474,25305.199999928474,26264.799999952316,26688.600000023842,26961.399999976158,39394.299999952316,39921.10000002384,73930.79999995232,74483.89999997616,74995.5,75874.79999995232,76346.89999997616,76858,77178.79999995232,77708.10000002384,108116.79999995232,109948.69999992847,112644.10000002384,113564.69999992847,113970.69999992847,114397.19999992847,114748.29999995232,115092.10000002384,117181.29999995232,117892.19999992847,120220.39999997616,122756.5,123597.5],"honeypot":0,"survey":"mace","page":2,"trial_type":"survey-mace","trial_index":10,"time_elapsed":1045944,"internal_node_id":"0.0-10.0","task_version":"prescreen-v0.3","browser_interactions":0},{"responses":{"01":"No","02":"No","03":"No","04":"No"},"rt":21266,"item_order":[0,1,2,3],"radio_events":[7406.899999976158,9727.899999976158,19407.300000071526,20471.700000047684],"checkbox_events":[],"key_events":[],"mouse_events":[7406.899999976158,8208.300000071526,9727.899999976158,10864.399999976158,17152.300000071526,19407.300000071526,20471.700000047684,21255.899999976158],"honeypot":0,"survey":"mace","page":3,"trial_type":"survey-mace","trial_index":11,"time_elapsed":1067222,"internal_node_id":"0.0-11.0","task_version":"prescreen-v0.3","browser_interactions":0},{"responses":{"01":"No","02":"No"},"rt":99864.80000007153,"item_order":[0,1],"radio_events":[85174.60000002384,86149.5],"checkbox_events":[],"key_events":[],"mouse_events":[83943.30000007153,85174.60000002384,86149.5,99861.89999997616],"honeypot":0,"survey":"mace","page":4,"trial_type":"survey-mace","trial_index":12,"time_elapsed":1167096,"internal_node_id":"0.0-12.0","task_version":"prescreen-v0.3","browser_interactions":0},{"responses":{"01":"No","02":"No","03":"No","04":"No","05":"No"},"rt":241894.69999992847,"item_order":[0,1,2,3,4],"radio_events":[229145.79999995232,233890.59999990463,235665.89999997616,240793.5,241226.29999995232],"checkbox_events":[],"key_events":[],"mouse_events":[229145.79999995232,231033.59999990463,233890.59999990463,234697.39999997616,235665.89999997616,239617.89999997616,240793.5,241226.29999995232,241882.09999990463],"honeypot":0,"survey":"mace","page":5,"trial_type":"survey-mace","trial_index":13,"time_elapsed":1409004,"internal_node_id":"0.0-13.0","task_version":"prescreen-v0.3","browser_interactions":0},{"responses":{"01":"Yes","01_ages_11":"11","01_ages_12":"12","01_ages_13":"13","01_ages_14":"14","01_ages_15":"15","02":"Yes","02_ages_11":"11","02_ages_12":"12","02_ages_13":"13","02_ages_14":"14","02_ages_15":"15","03":"No","04":"No","05":"No"},"rt":43763.39999997616,"item_order":[0,1,2,3,4],"radio_events":[9902.600000023842,30487.100000023842,38296,42784.10000002384,43200.200000047684],"checkbox_events":[13703.100000023842,15190.899999976158,18112,18607.100000023842,21486.100000023842,22064.100000023842,22512,23087.600000023842,23559,33167.89999997616,33583.300000071526,34967.60000002384,35343.39999997616,35871.300000071526],"key_events":[],"mouse_events":[9902.600000023842,13703.100000023842,14168,15190.899999976158,15630.399999976158,18112,18607.100000023842,21047,21486.100000023842,22064.100000023842,22512,23087.600000023842,23559,29262.700000047684,29862.700000047684,30487.100000023842,33167.89999997616,33583.300000071526,34399.39999997616,34967.60000002384,35343.39999997616,35871.300000071526,38296,40008,42784.10000002384,43200.200000047684,43752.10000002384],"honeypot":0,"survey":"mace","page":6,"trial_type":"survey-mace","trial_index":14,"time_elapsed":1452781,"internal_node_id":"0.0-14.0","task_version":"prescreen-v0.3","browser_interactions":0},{"responses":{"01":"No","02":"No","03":"No","04":"No","05":"No","06":"No","07":"No"},"rt":30992,"item_order":[0,1,2,3,4,5,6],"radio_events":[9404.599999904633,11509.599999904633,16268.799999952316,24484.899999976158,27396.799999952316,28413,29004.699999928474],"checkbox_events":[],"key_events":[],"mouse_events":[9404.599999904633,11509.599999904633,15180.599999904633,16268.799999952316,24484.899999976158,27396.799999952316,28413,29004.699999928474,29395.899999976158,30980.799999952316],"honeypot":0,"survey":"mace","page":7,"trial_type":"survey-mace","trial_index":15,"time_elapsed":1483788,"internal_node_id":"0.0-15.0","task_version":"prescreen-v0.3","browser_interactions":0},{"responses":{"01":"Yes","01_ages_9":"9","01_ages_10":"10","01_ages_11":"11","01_ages_12":"12","01_ages_13":"13","01_ages_14":"14","01_ages_15":"15","01_ages_16":"16","01_ages_17":"17","01_ages_18":"18","02":"Yes","02_ages_8":"8","02_ages_9":"9","02_ages_10":"10","02_ages_11":"11","02_ages_12":"12","02_ages_13":"13","02_ages_14":"14","02_ages_15":"15","02_ages_16":"16","02_ages_17":"17","02_ages_18":"18","03":"Yes","03_ages_8":"8","03_ages_9":"9","03_ages_10":"10","03_ages_11":"11","03_ages_12":"12","03_ages_13":"13","03_ages_14":"14","03_ages_15":"15","03_ages_16":"16","03_ages_17":"17","03_ages_18":"18","04":"Yes","04_ages_8":"8","04_ages_9":"9","04_ages_10":"10","04_ages_11":"11","04_ages_12":"12","04_ages_13":"13","04_ages_14":"14","04_ages_15":"15","04_ages_16":"16","04_ages_17":"17","04_ages_18":"18"},"rt":185050,"item_order":[0,1,2,3],"radio_events":[56099.700000047684,74884.80000007153,142199.40000009537,158615.60000002384,170895.40000009537],"checkbox_events":[59684.5,60773,62691.60000002384,64468.200000047684,65036.40000009537,65428.300000071526,65845.30000007153,67124,67836.90000009537,68524.10000002384,68876.90000009537,69813.10000002384,70380.90000009537,70764.30000007153,145486.90000009537,146278.90000009537,147559.60000002384,147887.20000004768,148959.30000007153,149447.80000007153,150319,151152.20000004768,151496,152007.30000007153,152519.10000002384,161207.30000007153,161712.80000007153,162727.5,163119.40000009537,163583.20000004768,164103.5,165128.30000007153,165567.60000002384,166031.10000002384,166519.80000007153,167312.30000007153,172336.10000002384,173431.80000007153,174335.80000007153,177735.90000009537,179863.5,180967.90000009537,182079.90000009537,182504,182994.70000004768,183464.20000004768,183840.80000007153],"key_events":[],"mouse_events":[3465.600000023842,56099.700000047684,59684.5,60773,62339.60000002384,62691.60000002384,63861.40000009537,64468.200000047684,65036.40000009537,65428.300000071526,65845.30000007153,66477.20000004768,66845.60000002384,67124,67836.90000009537,68524.10000002384,68876.90000009537,69262.10000002384,69813.10000002384,70380.90000009537,70764.30000007153,73484.5,74884.80000007153,142199.40000009537,145486.90000009537,146278.90000009537,147086.80000007153,147559.60000002384,147887.20000004768,148959.30000007153,149447.80000007153,150054.70000004768,150319,150767.20000004768,151152.20000004768,151496,152007.30000007153,152519.10000002384,158615.60000002384,160767.40000009537,161207.30000007153,161712.80000007153,162255,162727.5,163119.40000009537,163583.20000004768,164103.5,164558.70000004768,165128.30000007153,165567.60000002384,166031.10000002384,166519.80000007153,166967.90000009537,167312.30000007153,170895.40000009537,171777.30000007153,172336.10000002384,172831.10000002384,173431.80000007153,173936.30000007153,174335.80000007153,175751.10000002384,177103.60000002384,177735.90000009537,179863.5,180967.90000009537,181639.90000009537,182079.90000009537,182504,182994.70000004768,183464.20000004768,183840.80000007153,185041.5],"honeypot":0,"survey":"mace","page":8,"trial_type":"survey-mace","trial_index":16,"time_elapsed":1668848,"internal_node_id":"0.0-16.0","task_version":"prescreen-v0.3","browser_interactions":4},{"responses":{"01":"Yes","01_ages_1":"1","01_ages_2":"2","01_ages_3":"3","01_ages_4":"4","01_ages_5":"5","01_ages_6":"6","01_ages_7":"7","01_ages_8":"8","01_ages_9":"9","01_ages_10":"10","01_ages_11":"11","01_ages_12":"12","01_ages_13":"13","01_ages_14":"14","01_ages_15":"15","01_ages_16":"16","01_ages_17":"17","01_ages_18":"18","02":"No","03":"Yes","03_ages_1":"1","03_ages_2":"2","03_ages_3":"3","03_ages_4":"4","03_ages_5":"5","03_ages_6":"6","03_ages_7":"7","03_ages_8":"8","03_ages_9":"9","03_ages_10":"10","03_ages_11":"11","03_ages_12":"12","03_ages_13":"13","03_ages_14":"14","03_ages_15":"15","03_ages_16":"16","03_ages_17":"17","03_ages_18":"18","04":"Yes","04_ages_1":"1","04_ages_2":"2","04_ages_3":"3","04_ages_4":"4","04_ages_5":"5","04_ages_6":"6","04_ages_7":"7","04_ages_8":"8","04_ages_9":"9","04_ages_10":"10","04_ages_11":"11","04_ages_12":"12","04_ages_13":"13","04_ages_14":"14","04_ages_15":"15","04_ages_16":"16","04_ages_17":"17","04_ages_18":"18"},"rt":60485,"item_order":[0,1,2,3],"radio_events":[3739.399999976158,21651.899999976158,25435.899999976158,45204.5],"checkbox_events":[4883.699999928474,5827.5,6219.099999904633,6803.599999904633,7219,8011.699999928474,8435.5,8874.899999976158,10843.599999904633,11267.299999952316,12203.799999952316,12580.099999904633,13763.799999952316,14340,15347.699999928474,15923.799999952316,16460.699999928474,18628.799999952316,26684.199999928474,27139.799999952316,28414,29932.5,30548.5,31140.399999976158,32324.699999928474,32812.59999990463,33460,34019.799999952316,35109,35612.199999928474,36115.89999997616,36845,37364.59999990463,37916.299999952316,38563.89999997616,39604.5,47997,48389.59999990463,49077.09999990463,49676.699999928474,50828.799999952316,51205.5,51732.799999952316,52612.89999997616,53012.299999952316,54092.89999997616,54828.799999952316,55364.5,56357.89999997616,56997,57757.89999997616,58340.699999928474,59101.09999990463,59454.09999990463],"key_events":[],"mouse_events":[3739.399999976158,4883.699999928474,5267.399999976158,5827.5,6219.099999904633,6803.599999904633,7219,7643.299999952316,8011.699999928474,8435.5,8874.899999976158,10299.099999904633,10843.599999904633,11267.299999952316,11883.199999928474,12203.799999952316,12580.099999904633,13356.699999928474,13763.799999952316,14340,15347.699999928474,15923.799999952316,16460.699999928474,16963.5,18628.799999952316,21651.899999976158,25435.899999976158,26684.199999928474,27139.799999952316,27595.799999952316,28069.5,28414,29219.5,29932.5,30548.5,31140.399999976158,31980.399999976158,32324.699999928474,32812.59999990463,33460,34019.799999952316,34555.39999997616,35109,35612.199999928474,36115.89999997616,36845,37364.59999990463,37916.299999952316,38563.89999997616,39068.799999952316,39604.5,45204.5,46564.699999928474,47260.5,47997,48389.59999990463,49077.09999990463,49676.699999928474,50356.699999928474,50828.799999952316,51205.5,51732.799999952316,52198,52612.89999997616,53012.299999952316,53455.199999928474,54092.89999997616,54828.799999952316,55364.5,55730,56357.89999997616,56997,57757.89999997616,58340.699999928474,59101.09999990463,59454.09999990463,60476.799999952316],"honeypot":0,"survey":"mace","page":9,"trial_type":"survey-mace","trial_index":17,"time_elapsed":1729347,"internal_node_id":"0.0-17.0","task_version":"prescreen-v0.3","browser_interactions":0},{"responses":{"01":"No","02":"No","03":"No","04":"Yes","04_ages_9":"9","04_ages_10":"10","04_ages_11":"11","04_ages_12":"12","04_ages_13":"13","04_ages_14":"14","04_ages_15":"15","04_ages_16":"16","04_ages_17":"17","04_ages_18":"18","05":"No","06":"Yes","06_ages_17":"17","07":"No","08":"No"},"rt":38422.299999952316,"item_order":[0,1,2,3,4,5,6,7],"radio_events":[3834.1999999284744,4907.299999952316,6849.100000023842,9625.600000023842,23618.799999952316,25641.199999928474,29706.399999976158,34986.199999928474,37626.5],"checkbox_events":[11962,12657.799999952316,13081.299999952316,13537.600000023842,14865.899999976158,15329.299999952316,15922,16410,16881.299999952316,17513.899999976158,27274.699999928474],"key_events":[],"mouse_events":[3024.600000023842,3834.1999999284744,4907.299999952316,6849.100000023842,9625.600000023842,11962,12657.799999952316,13081.299999952316,13537.600000023842,14298,14865.899999976158,15329.299999952316,15922,16410,16881.299999952316,17513.899999976158,23618.799999952316,25641.199999928474,27274.699999928474,29706.399999976158,34986.199999928474,37626.5,38410.5],"honeypot":0,"survey":"mace","page":10,"trial_type":"survey-mace","trial_index":18,"time_elapsed":1767783,"internal_node_id":"0.0-18.0","task_version":"prescreen-v0.3","browser_interactions":0,"instructed":0},{"rt":6354.5,"trial_type":"mental-health-alert","trial_index":19,"time_elapsed":1774144,"internal_node_id":"0.0-19.0","task_version":"prescreen-v0.3","interactions":"[{\"event\":\"blur\",\"trial\":6,\"time\":320974},{\"event\":\"focus\",\"trial\":6,\"time\":336893},{\"event\":\"blur\",\"trial\":7,\"time\":357432},{\"event\":\"focus\",\"trial\":7,\"time\":359635},{\"event\":\"blur\",\"trial\":9,\"time\":804916},{\"event\":\"focus\",\"trial\":9,\"time\":859922},{\"event\":\"blur\",\"trial\":16,\"time\":1490904},{\"event\":\"focus\",\"trial\":16,\"time\":1526100},{\"event\":\"blur\",\"trial\":16,\"time\":1526551},{\"event\":\"focus\",\"trial\":16,\"time\":1526974}]"}]