[{"view_history":[{"page_index":0,"viewing_time":4647.399999976158},{"page_index":1,"viewing_time":3633.2999999523163},{"page_index":2,"viewing_time":3822.899999976158},{"page_index":3,"viewing_time":2162}],"rt":14267.299999952316,"trial_type":"instructions","trial_index":0,"time_elapsed":14390,"internal_node_id":"0.0-0.0","task_version":"prescreen-v0.3"},{"rt":25405.200000047684,"responses":{"age":"24","gender-categorical":"Male","gender-free-response":"","ethnicity":"Not Hispanic or Latino","race":["White"],"education":"Some college"},"trial_type":"survey-demo","trial_index":1,"time_elapsed":39813,"internal_node_id":"0.0-1.0","task_version":"prescreen-v0.3"},{"responses":{"Q06":"1","Q05":"0","Q20":"0","Q11":"1","Q10":"1","Q03":"0","Q01":"0","Q07":"0","Q08":"1","Q17":"1","Q18":"0","Q09":"1","Q02":"0","Q21":"3","Q15":"2","Q14":"1","Q12":"2","Q13":"1","Q16":"1","Q04":"1","Q19":"0"},"rt":278836.7000000477,"item_order":[5,4,19,10,9,2,0,6,7,16,17,8,1,20,14,13,11,12,15,3,18],"radio_events":[24051.899999976158,29060.100000023842,31882.899999976158,39165.39999997616,45886.700000047684,51069.10000002384,54717.10000002384,76053.39999997616,80524.70000004768,90669,155018.70000004768,161327.5,166087.30000007153,171571.80000007153,234840.89999997616,240737.5,247959.10000002384,252382.70000004768,258815.39999997616,268684.89999997616,276243.89999997616],"key_events":[],"mouse_events":[24051.899999976158,29060.100000023842,31882.899999976158,39165.39999997616,44536.800000071526,45886.700000047684,49807.300000071526,51069.10000002384,52981.5,54717.10000002384,75003.70000004768,76053.39999997616,80524.70000004768,83160.5,89806.5,90669,155018.70000004768,160078.39999997616,161327.5,166087.30000007153,170622,171571.80000007153,234840.89999997616,240737.5,245772.80000007153,247959.10000002384,250720.20000004768,252382.70000004768,258815.39999997616,267211.3000000715,268684.89999997616,276243.89999997616,278829.60000002384],"straightlining":0.47619047619047616,"zigzagging":0.65,"honeypot":0,"survey":"sns","trial_type":"survey-template","trial_index":2,"time_elapsed":318670,"internal_node_id":"0.0-2.0","task_version":"prescreen-v0.3","browser_interactions":0,"infrequency":0},{"responses":{"Q12":"1","Q13":"0","Q04":"2","Q06":"3","Q10":"2","Q01":"3","Q07":"3","Q09":"2","Q03":"2","Q08":"3","Q02":"2","Q05":"2","Q11":"3"},"rt":105479.59999990463,"item_order":[11,12,3,5,9,0,6,8,2,7,1,4,10],"radio_events":[10138.299999952316,19545.199999928474,26092.599999904633,27705,29529,46409.199999928474,51019.89999997616,60953.59999990463,68187.89999997616,71786.59999990463,78821.69999992847,96678.29999995232,102462.79999995232],"key_events":[],"mouse_events":[10138.299999952316,19545.199999928474,24544.399999976158,26092.599999904633,27705,29529,46409.199999928474,50208.299999952316,51019.89999997616,60953.59999990463,68187.89999997616,71786.59999990463,77660,78821.69999992847,96678.29999995232,102462.79999995232,105474.5],"straightlining":0.46153846153846156,"zigzagging":0.6666666666666666,"honeypot":0,"survey":"bisbas","trial_type":"survey-template","trial_index":3,"time_elapsed":424161,"internal_node_id":"0.0-3.0","task_version":"prescreen-v0.3","browser_interactions":0,"infrequency":0},{"responses":{"Q01":"4","Q02":"3","Q03":"4"},"rt":36084.5,"radio_events":[22362.300000071526,28810.100000023842,34321.300000071526],"key_events":[],"mouse_events":[22362.300000071526,28810.100000023842,34321.300000071526,36082.5],"survey":"map","page":1,"trial_type":"survey-map","trial_index":4,"time_elapsed":460257,"internal_node_id":"0.0-4.0","task_version":"prescreen-v0.3","browser_interactions":0},{"responses":{"Q04":"3","Q05":"4","Q06":"4"},"rt":46505.39999997616,"radio_events":[29295.799999952316,33794.699999928474,41130.59999990463],"key_events":[],"mouse_events":[29295.799999952316,33794.699999928474,41130.59999990463,46503.799999952316],"survey":"map","page":2,"trial_type":"survey-map","trial_index":5,"time_elapsed":506769,"internal_node_id":"0.0-5.0","task_version":"prescreen-v0.3","browser_interactions":0},{"responses":{"Q07":"3","Q08":"4","Q09":"3"},"rt":39283.89999997616,"radio_events":[26759.799999952316,31557.699999928474,35770.89999997616],"key_events":[],"mouse_events":[26759.799999952316,31557.699999928474,34983.199999928474,35770.89999997616,39282.299999952316],"survey":"map","page":3,"trial_type":"survey-map","trial_index":6,"time_elapsed":546061,"internal_node_id":"0.0-6.0","task_version":"prescreen-v0.3","browser_interactions":0},{"responses":{"Q10":"4","Q11":"2","Q12":"2","Q13":"1","Q16":"0","Q14":"3","Q15":"2"},"rt":67363.79999995232,"radio_events":[12199.100000023842,23745.799999952316,36555.10000002384,43330.299999952316,52814,62849.299999952316,65634.89999997616,65836.29999995232],"key_events":[],"mouse_events":[11100.600000023842,12199.100000023842,23745.799999952316,36555.10000002384,43330.299999952316,52814,62849.299999952316,65634.89999997616,65836.29999995232,67360.29999995232],"survey":"map","page":4,"trial_type":"survey-map","trial_index":7,"time_elapsed":613434,"internal_node_id":"0.0-7.0","task_version":"prescreen-v0.3","browser_interactions":0,"infrequency":0},{"view_history":[{"page_index":0,"viewing_time":3876.5},{"page_index":1,"viewing_time":5374}],"rt":9251.799999952316,"trial_type":"instructions","trial_index":8,"time_elapsed":622690,"internal_node_id":"0.0-8.0","task_version":"prescreen-v0.3"},{"responses":{"01":"No","02":"Yes","02_ages_8":"8","02_ages_9":"9","02_ages_10":"10","02_ages_11":"11","03":"Yes","03_ages_2":"2","03_ages_3":"3","03_ages_4":"4","04":"No","05":"No","06":"No"},"rt":77287,"item_order":[0,1,2,3,4,5],"radio_events":[19090.099999904633,22863.099999904633,53993.89999997616,69765.89999997616,74777.69999992847,75763.89999997616],"checkbox_events":[35448.699999928474,36948.09999990463,40422.09999990463,45433,55756.199999928474,56805.799999952316,57880.699999928474],"key_events":[],"mouse_events":[0.2999999523162842,19090.099999904633,21738,22863.099999904633,35448.699999928474,36948.09999990463,40422.09999990463,45433,46557.59999990463,46681.799999952316,53993.89999997616,55756.199999928474,56805.799999952316,57880.699999928474,69765.89999997616,71216,73840,74777.69999992847,75763.89999997616,77277.5],"honeypot":0,"survey":"mace","page":1,"trial_type":"survey-mace","trial_index":9,"time_elapsed":700003,"internal_node_id":"0.0-9.0","task_version":"prescreen-v0.3","browser_interactions":0},{"responses":{"01":"Yes","01_ages_3":"3","02":"No","03":"Yes","03_ages_2":"2","03_ages_3":"3","03_ages_4":"4","03_ages_5":"5","03_ages_6":"6","04":"No","05":"Yes","05_ages_2":"2","05_ages_3":"3","05_ages_4":"4","05_ages_5":"5","05_ages_6":"6","06":"No","07":"No","08":"No"},"rt":51660.5,"item_order":[0,1,2,3,4,5,6,7],"radio_events":[5255.600000023842,14604.300000071526,16566.800000071526,33687.5,37387.200000047684,46685.89999997616,48161.800000071526,49597.700000047684],"checkbox_events":[9580.300000071526,20889.700000047684,21277.399999976158,22251.300000071526,23127.100000023842,23963.700000047684,25426.700000047684,27015,38699,39874.200000047684,41124.200000047684,42161.700000047684,42985.300000071526],"key_events":[],"mouse_events":[5255.600000023842,9580.300000071526,14604.300000071526,16566.800000071526,20889.700000047684,21277.399999976158,22251.300000071526,23127.100000023842,23963.700000047684,25426.700000047684,27015,33687.5,37387.200000047684,38699,39261.5,39874.200000047684,40448.800000071526,41124.200000047684,42161.700000047684,42985.300000071526,46685.89999997616,48161.800000071526,49597.700000047684,50634.200000047684,51648.300000071526],"honeypot":0,"survey":"mace","page":2,"trial_type":"survey-mace","trial_index":10,"time_elapsed":751685,"internal_node_id":"0.0-10.0","task_version":"prescreen-v0.3","browser_interactions":0},{"responses":{"01":"No","02":"No","03":"No","04":"No"},"rt":15248.100000023842,"item_order":[0,1,2,3],"radio_events":[8231,11505.100000023842,12930.600000023842,14280.200000047684],"checkbox_events":[],"key_events":[],"mouse_events":[8231,11505.100000023842,12930.600000023842,14280.200000047684,15241.900000095367],"honeypot":0,"survey":"mace","page":3,"trial_type":"survey-mace","trial_index":11,"time_elapsed":766945,"internal_node_id":"0.0-11.0","task_version":"prescreen-v0.3","browser_interactions":0},{"responses":{"01":"No","02":"No"},"rt":15460.600000023842,"item_order":[0,1],"radio_events":[12183.100000023842,14482.5],"checkbox_events":[],"key_events":[],"mouse_events":[12183.100000023842,14482.5,15457.299999952316],"honeypot":0,"survey":"mace","page":4,"trial_type":"survey-mace","trial_index":12,"time_elapsed":782414,"internal_node_id":"0.0-12.0","task_version":"prescreen-v0.3","browser_interactions":0},{"responses":{"01":"No","02":"No","03":"No","04":"No","05":"No"},"rt":27201.200000047684,"item_order":[0,1,2,3,4],"radio_events":[17032.200000047684,18695.300000071526,20644.600000023842,22907.300000071526,25968.400000095367],"checkbox_events":[],"key_events":[],"mouse_events":[17032.200000047684,18695.300000071526,20644.600000023842,22907.300000071526,25968.400000095367,27193.400000095367],"honeypot":0,"survey":"mace","page":5,"trial_type":"survey-mace","trial_index":13,"time_elapsed":809630,"internal_node_id":"0.0-13.0","task_version":"prescreen-v0.3","browser_interactions":0},{"responses":{"01":"No","02":"No","03":"No","04":"Yes","04_ages_6":"6","04_ages_7":"7","04_ages_8":"8","04_ages_9":"9","05":"No"},"rt":97051.69999992847,"item_order":[0,1,2,3,4],"radio_events":[61313.59999990463,66751.09999990463,70312.59999990463,92744.69999992847,96006.19999992847],"checkbox_events":[83883.89999997616,84546.29999995232,85696.39999997616,87246.39999997616],"key_events":[],"mouse_events":[61313.59999990463,66751.09999990463,70312.59999990463,82896.79999995232,83883.89999997616,84546.29999995232,85696.39999997616,87246.39999997616,92744.69999992847,96006.19999992847,97044],"honeypot":0,"survey":"mace","page":6,"trial_type":"survey-mace","trial_index":14,"time_elapsed":906697,"internal_node_id":"0.0-14.0","task_version":"prescreen-v0.3","browser_interactions":0},{"responses":{"01":"No","02":"No","03":"No","04":"No","05":"No","06":"No","07":"No"},"rt":26642.399999976158,"item_order":[0,1,2,3,4,5,6],"radio_events":[8598.100000023842,11960,14084.5,18093.899999976158,20031.899999976158,21543.5,25393],"checkbox_events":[],"key_events":[],"mouse_events":[8598.100000023842,11960,14084.5,18093.899999976158,20031.899999976158,21543.5,24519,25393,26630.100000023842],"honeypot":0,"survey":"mace","page":7,"trial_type":"survey-mace","trial_index":15,"time_elapsed":933356,"internal_node_id":"0.0-15.0","task_version":"prescreen-v0.3","browser_interactions":0},{"responses":{"01":"No","02":"Yes","02_ages_3":"3","02_ages_4":"4","02_ages_5":"5","02_ages_6":"6","02_ages_7":"7","02_ages_8":"8","02_ages_9":"9","02_ages_10":"10","02_ages_11":"11","02_ages_12":"12","02_ages_13":"13","02_ages_14":"14","03":"No","04":"No"},"rt":49591.60000002384,"item_order":[0,1,2,3],"radio_events":[12182.800000071526,15945.200000047684,46075.200000047684,48411.40000009537],"checkbox_events":[21143,22268.100000023842,22818.700000047684,23431,24680.600000023842,25256.100000023842,26391.600000023842,26954.900000095367,27641.600000023842,27829.300000071526,28767.100000023842,29555.900000095367,30903.100000023842,31766],"key_events":[],"mouse_events":[12182.800000071526,15945.200000047684,19894.200000047684,21143,22268.100000023842,22818.700000047684,23431,24080,24680.600000023842,25256.100000023842,26004.900000095367,26391.600000023842,26954.900000095367,27641.600000023842,27829.300000071526,28767.100000023842,29555.900000095367,30903.100000023842,31766,44401.200000047684,46075.200000047684,47362.10000002384,48411.40000009537,49586.10000002384],"honeypot":0,"survey":"mace","page":8,"trial_type":"survey-mace","trial_index":16,"time_elapsed":982959,"internal_node_id":"0.0-16.0","task_version":"prescreen-v0.3","browser_interactions":0},{"responses":{"01":"Yes","01_ages_1":"1","01_ages_2":"2","01_ages_3":"3","01_ages_4":"4","01_ages_5":"5","01_ages_6":"6","01_ages_7":"7","01_ages_8":"8","01_ages_9":"9","01_ages_10":"10","01_ages_11":"11","01_ages_12":"12","01_ages_13":"13","01_ages_14":"14","01_ages_15":"15","01_ages_16":"16","01_ages_17":"17","01_ages_18":"18","02":"Yes","02_ages_1":"1","02_ages_2":"2","02_ages_3":"3","02_ages_4":"4","02_ages_5":"5","02_ages_6":"6","02_ages_7":"7","02_ages_8":"8","02_ages_9":"9","02_ages_10":"10","02_ages_11":"11","02_ages_12":"12","02_ages_13":"13","02_ages_14":"14","02_ages_15":"15","02_ages_16":"16","02_ages_17":"17","02_ages_18":"18","03":"Yes","03_ages_1":"1","03_ages_2":"2","03_ages_3":"3","03_ages_4":"4","03_ages_5":"5","03_ages_6":"6","03_ages_7":"7","03_ages_8":"8","03_ages_9":"9","03_ages_10":"10","03_ages_11":"11","03_ages_12":"12","03_ages_13":"13","03_ages_14":"14","03_ages_15":"15","03_ages_16":"16","03_ages_17":"17","03_ages_18":"18","04":"Yes","04_ages_1":"1","04_ages_2":"2","04_ages_3":"3","04_ages_4":"4","04_ages_5":"5","04_ages_6":"6","04_ages_7":"7","04_ages_8":"8","04_ages_9":"9","04_ages_10":"10","04_ages_11":"11","04_ages_12":"12","04_ages_13":"13","04_ages_14":"14","04_ages_15":"15","04_ages_16":"16","04_ages_17":"17","04_ages_18":"18"},"rt":171185.79999995232,"item_order":[0,1,2,3],"radio_events":[8343.899999976158,84383.70000004768,106653,145375.70000004768],"checkbox_events":[14827,16202.399999976158,16764.700000047684,17564,18201.299999952316,18875.600000023842,20663.299999952316,20863.399999976158,22151,23062.799999952316,23988.399999976158,24749.899999976158,25350.200000047684,25886.700000047684,26586.799999952316,27024.799999952316,27474.100000023842,28586.700000047684,28999.299999952316,30473.5,85920.70000004768,86570.79999995232,88557.20000004768,89244.60000002384,89944.10000002384,90821,91831.20000004768,92406.5,93081.89999997616,93706.60000002384,95106,95743.70000004768,97080,98291.89999997616,98854.10000002384,99429.5,100204,100391.89999997616,100953.39999997616,101966.10000002384,107988.70000004768,108613.20000004768,109251.10000002384,110012.5,110912.29999995232,111663,113961.89999997616,114761.70000004768,115411.70000004768,118023.39999997616,118860.5,120446.89999997616,121022.29999995232,122220.79999995232,123633.39999997616,124471.29999995232,125295.60000002384,127407.20000004768,150324.10000002384,150986.39999997616,151648.70000004768,152536.39999997616,153810.79999995232,155934.10000002384,156996.39999997616,158171.20000004768,158933.79999995232,159584.10000002384,160220.39999997616,160845.89999997616,161608.29999995232,162320.60000002384,166456.39999997616,167131.10000002384,168016.89999997616,169953.70000004768],"key_events":[],"mouse_events":[8343.899999976158,10378.399999976158,10741,13152.700000047684,14827,15626.799999952316,16202.399999976158,16764.700000047684,17564,18201.299999952316,18875.600000023842,19464,19651,20201.600000023842,20663.299999952316,20863.399999976158,22151,23062.799999952316,23988.399999976158,24749.899999976158,25350.200000047684,25886.700000047684,26586.799999952316,27024.799999952316,27474.100000023842,28586.700000047684,28999.299999952316,29385.899999976158,30473.5,84383.70000004768,85920.70000004768,86570.79999995232,87233.29999995232,88557.20000004768,89244.60000002384,89944.10000002384,90821,91831.20000004768,92406.5,93081.89999997616,93706.60000002384,94331.70000004768,95106,95743.70000004768,96367.89999997616,97080,98291.89999997616,98854.10000002384,99429.5,100204,100391.89999997616,100953.39999997616,101966.10000002384,106653,107988.70000004768,108613.20000004768,109251.10000002384,110012.5,110912.29999995232,111663,112348.79999995232,113961.89999997616,114761.70000004768,115411.70000004768,116473.70000004768,118023.39999997616,118860.5,119472.39999997616,120446.89999997616,121022.29999995232,122220.79999995232,122810.10000002384,123633.39999997616,124471.29999995232,125295.60000002384,125907.79999995232,127407.20000004768,145375.70000004768,150324.10000002384,150986.39999997616,151648.70000004768,152536.39999997616,153810.79999995232,155171.79999995232,155934.10000002384,156996.39999997616,158171.20000004768,158933.79999995232,159584.10000002384,160220.39999997616,160845.89999997616,161608.29999995232,162320.60000002384,166456.39999997616,167131.10000002384,168016.89999997616,168979.39999997616,169953.70000004768,171178.79999995232],"honeypot":0,"survey":"mace","page":9,"trial_type":"survey-mace","trial_index":17,"time_elapsed":1154159,"internal_node_id":"0.0-17.0","task_version":"prescreen-v0.3","browser_interactions":0},{"responses":{"01":"No","02":"No","03":"No","04":"Yes","04_ages_7":"7","04_ages_8":"8","04_ages_9":"9","04_ages_10":"10","04_ages_11":"11","04_ages_12":"12","04_ages_13":"13","04_ages_14":"14","05":"No","06":"Yes","06_ages_17":"17","07":"Yes","07_ages_1":"1","07_ages_2":"2","07_ages_3":"3","07_ages_4":"4","07_ages_5":"5","07_ages_6":"6","07_ages_7":"7","07_ages_8":"8","07_ages_9":"9","07_ages_10":"10","07_ages_11":"11","07_ages_12":"12","07_ages_13":"13","07_ages_14":"14","07_ages_15":"15","07_ages_16":"16","07_ages_17":"17","07_ages_18":"18","08":"Yes","08_ages_1":"1","08_ages_2":"2","08_ages_3":"3","08_ages_4":"4","08_ages_5":"5","08_ages_6":"6","08_ages_7":"7","08_ages_8":"8","08_ages_9":"9","08_ages_10":"10","08_ages_11":"11","08_ages_12":"12","08_ages_13":"13","08_ages_14":"14","08_ages_15":"15","08_ages_16":"16","08_ages_17":"17","08_ages_18":"18"},"rt":141363.40000009537,"item_order":[0,1,2,3,4,5,6,7],"radio_events":[4936.400000095367,6087.400000095367,13783.600000023842,20344.300000071526,37862.700000047684,53268.800000071526,56505.10000002384,114514.80000007153],"checkbox_events":[22118.400000095367,40361,41549.60000002384,43310.700000047684,43947,44635.5,45634.90000009537,46322,46996.5,57693,58304,61203.60000002384,62303.10000002384,63953.10000002384,65102.300000071526,66376.60000002384,68188.70000004768,69613.30000007153,71649.80000007153,72837.40000009537,74861.60000002384,76698.40000009537,79296.90000009537,80009.90000009537,80921.80000007153,82258.70000004768,83033.10000002384,119015.20000004768,122327.10000002384,122928.70000004768,123540.40000009537,125390.80000007153,126777.90000009537,127827.70000004768,128740.40000009537,129401.90000009537,130090.40000009537,130752,131439.30000007153,132364.90000009537,133252,133865.40000009537,135027.5,135927,136677.80000007153],"key_events":[],"mouse_events":[3587.5,4936.400000095367,6087.400000095367,13783.600000023842,20344.300000071526,22118.400000095367,37862.700000047684,40361,41549.60000002384,42648.200000047684,43310.700000047684,43947,44635.5,45634.90000009537,46322,46996.5,52432.40000009537,53268.800000071526,56505.10000002384,57693,58304,61203.60000002384,62303.10000002384,63953.10000002384,65102.300000071526,66376.60000002384,68188.70000004768,69613.30000007153,71649.80000007153,72837.40000009537,74861.60000002384,76698.40000009537,79296.90000009537,80009.90000009537,80921.80000007153,81583.60000002384,82258.70000004768,83033.10000002384,113378.20000004768,114514.80000007153,116390.30000007153,119015.20000004768,120527.30000007153,121691.20000004768,122327.10000002384,122928.70000004768,123540.40000009537,124241.40000009537,125027.20000004768,125390.80000007153,126414.20000004768,126777.90000009537,127827.70000004768,128740.40000009537,129401.90000009537,130090.40000009537,130752,131439.30000007153,132364.90000009537,133252,133865.40000009537,135027.5,135927,136677.80000007153,141352.5],"honeypot":0,"survey":"mace","page":10,"trial_type":"survey-mace","trial_index":18,"time_elapsed":1295542,"internal_node_id":"0.0-18.0","task_version":"prescreen-v0.3","browser_interactions":0,"instructed":0},{"rt":17982.5,"trial_type":"mental-health-alert","trial_index":19,"time_elapsed":1313531,"internal_node_id":"0.0-19.0","task_version":"prescreen-v0.3","interactions":"[]"}]