[{"view_history":[{"page_index":0,"viewing_time":5438},{"page_index":1,"viewing_time":4817},{"page_index":2,"viewing_time":6331},{"page_index":3,"viewing_time":1916}],"rt":18502,"trial_type":"instructions","trial_index":0,"time_elapsed":18511,"internal_node_id":"0.0-0.0","task_version":"prescreen-v0.3"},{"rt":25192,"responses":{"age":"22","gender-categorical":"Female","gender-free-response":"","ethnicity":"Not Hispanic or Latino","race":["American Indian/Alaska Native","White"],"education":"Bachelor degree"},"trial_type":"survey-demo","trial_index":1,"time_elapsed":43712,"internal_node_id":"0.0-1.0","task_version":"prescreen-v0.3"},{"responses":{"Q07":"2","Q02":"2","Q20":"2","Q09":"3","Q17":"2","Q06":"1","Q04":"3","Q03":"2","Q16":"2","Q21":"3","Q18":"1","Q01":"1","Q15":"2","Q08":"1","Q11":"2","Q10":"3","Q05":"2","Q12":"1","Q14":"2","Q19":"1","Q13":"2"},"rt":180662,"item_order":[6,1,19,8,16,5,3,2,15,20,17,0,14,7,10,9,4,11,13,18,12],"radio_events":[17899,23107,26226,29968,33764,40242,46744,51284.000000000015,65617,72117,76356,86998,100538,103992,108035,112811,121164,125731,134248,147049,153166,163594,176775,179036],"key_events":[],"mouse_events":[17899,23107,26226,29968,33764,40242,46744,51284.000000000015,65617,72117,76356,86001,86998,91261,100538,103992,108035,112811,121164,125731,134248,140166,147049,148682,152194,153166,155118,163594,176775,179036,180646.00000000003],"straightlining":0.5238095238095238,"zigzagging":0.7,"honeypot":0,"survey":"sns","trial_type":"survey-template","trial_index":2,"time_elapsed":224385,"internal_node_id":"0.0-2.0","task_version":"prescreen-v0.3","browser_interactions":0,"infrequency":0},{"responses":{"Q12":"1","Q06":"3","Q11":"2","Q13":"0","Q09":"2","Q08":"2","Q04":"3","Q07":"3","Q05":"3","Q02":"3","Q03":"3","Q01":"3","Q10":"2"},"rt":79192,"item_order":[11,5,10,12,8,7,3,6,4,1,2,0,9],"radio_events":[12738,13921,16225,20430,24423,38556,42211,43137,47882,55115,56104,60334,65413,66785,69447,77294],"key_events":[],"mouse_events":[9026,12738,13921,16225,20430,24423,38556,42211,43137,47882,53042.00000000006,55115,56104,60334,65413,66785,69447,76380,77294,79180],"straightlining":0.5384615384615384,"zigzagging":0.25,"honeypot":0,"survey":"bisbas","trial_type":"survey-template","trial_index":3,"time_elapsed":303583,"internal_node_id":"0.0-3.0","task_version":"prescreen-v0.3","browser_interactions":0,"infrequency":0},{"responses":{"Q01":"2","Q02":"2","Q03":"3"},"rt":25371.00000000006,"radio_events":[12681,13855,18470,24283],"key_events":[],"mouse_events":[12681,13855,18470,24283,25368],"survey":"map","page":1,"trial_type":"survey-map","trial_index":4,"time_elapsed":328958,"internal_node_id":"0.0-4.0","task_version":"prescreen-v0.3","browser_interactions":0},{"responses":{"Q04":"1","Q05":"2","Q06":"3"},"rt":23898,"radio_events":[10356,14692,20392],"key_events":[],"mouse_events":[10356,14692,20392,23895],"survey":"map","page":2,"trial_type":"survey-map","trial_index":5,"time_elapsed":352859,"internal_node_id":"0.0-5.0","task_version":"prescreen-v0.3","browser_interactions":0},{"responses":{"Q07":"3","Q08":"2","Q09":"1"},"rt":25914,"radio_events":[6719,20024,24507],"key_events":[],"mouse_events":[6719,20024,24507,25911],"survey":"map","page":3,"trial_type":"survey-map","trial_index":6,"time_elapsed":378776,"internal_node_id":"0.0-6.0","task_version":"prescreen-v0.3","browser_interactions":0},{"responses":{"Q10":"2","Q11":"1","Q12":"0","Q13":"1","Q16":"0","Q14":"2","Q15":"2"},"rt":58111,"radio_events":[4322.000000000058,7326,8355,10170,15744,17410,25070,33146,51216.00000000006,56498],"key_events":[],"mouse_events":[4322.000000000058,7326,8355,10170,15744,17410,25070,33146,50309,51216.00000000006,56498,58107],"survey":"map","page":4,"trial_type":"survey-map","trial_index":7,"time_elapsed":436893,"internal_node_id":"0.0-7.0","task_version":"prescreen-v0.3","browser_interactions":0,"infrequency":0},{"view_history":[{"page_index":0,"viewing_time":2117},{"page_index":1,"viewing_time":5058}],"rt":7175,"trial_type":"instructions","trial_index":8,"time_elapsed":444069,"internal_node_id":"0.0-8.0","task_version":"prescreen-v0.3"},{"responses":{"01":"No","02":"Yes","02_ages_12":"12","02_ages_13":"13","02_ages_14":"14","02_ages_15":"15","02_ages_16":"16","02_ages_17":"17","02_ages_18":"18","03":"No","04":"No","05":"No","06":"No","06_ages_12":"12"},"rt":68408.00000000006,"item_order":[0,1,2,3,4,5],"radio_events":[14246,18256,41072,42746,44910,49498,66946],"checkbox_events":[31591,32619,33413.00000000006,34065,34620,35421,36067,58375],"key_events":[],"mouse_events":[0,14246,18256,31591,32619,33413.00000000006,34065,34620,35421,36067,41072,42746,44910,49498,58375,66946,68400],"honeypot":0,"survey":"mace","page":1,"trial_type":"survey-mace","trial_index":9,"time_elapsed":512489,"internal_node_id":"0.0-9.0","task_version":"prescreen-v0.3","browser_interactions":0},{"responses":{"01":"No","02":"No","03":"Yes","03_ages_3":"3","03_ages_4":"4","03_ages_5":"5","03_ages_6":"6","04":"No","05":"No","06":"No","07":"No","08":"No"},"rt":32139.99999999994,"item_order":[0,1,2,3,4,5,6,7],"radio_events":[4082.999999999942,8173,10077,20812.99999999994,22985.00000000006,25140.99999999994,26796.99999999994,29223.99999999994],"checkbox_events":[12875.999999999942,13667.999999999942,14377.999999999942,15660.999999999942],"key_events":[],"mouse_events":[4082.999999999942,8173,10077,12875.999999999942,13667.999999999942,14377.999999999942,15660.999999999942,17390.99999999994,20812.99999999994,22985.00000000006,25140.99999999994,26796.99999999994,29223.99999999994,32129.99999999994],"honeypot":0,"survey":"mace","page":2,"trial_type":"survey-mace","trial_index":10,"time_elapsed":544638,"internal_node_id":"0.0-10.0","task_version":"prescreen-v0.3","browser_interactions":0},{"responses":{"01":"No","02":"No","03":"No","04":"No"},"rt":11142,"item_order":[0,1,2,3],"radio_events":[5235,7007,8281,9685],"checkbox_events":[],"key_events":[],"mouse_events":[5235,7007,8281,9685,11139],"honeypot":0,"survey":"mace","page":3,"trial_type":"survey-mace","trial_index":11,"time_elapsed":555785,"internal_node_id":"0.0-11.0","task_version":"prescreen-v0.3","browser_interactions":0},{"responses":{"01":"No","02":"No"},"rt":11296,"item_order":[0,1],"radio_events":[7798,9423],"checkbox_events":[],"key_events":[],"mouse_events":[7798,9423,11293],"honeypot":0,"survey":"mace","page":4,"trial_type":"survey-mace","trial_index":12,"time_elapsed":567085,"internal_node_id":"0.0-12.0","task_version":"prescreen-v0.3","browser_interactions":0},{"responses":{"01":"No","02":"No","03":"No","04":"No","05":"No"},"rt":25081,"item_order":[0,1,2,3,4],"radio_events":[5389,8826,13496,20837,23703],"checkbox_events":[],"key_events":[],"mouse_events":[5389,8826,13496,16206,19342,20837,23703,25075],"honeypot":0,"survey":"mace","page":5,"trial_type":"survey-mace","trial_index":13,"time_elapsed":592174,"internal_node_id":"0.0-13.0","task_version":"prescreen-v0.3","browser_interactions":0},{"responses":{"01":"Yes","01_ages_12":"12","01_ages_13":"13","01_ages_18":"18","02":"Yes","02_ages_12":"12","02_ages_13":"13","02_ages_18":"18","03":"Yes","03_ages_18":"18","04":"Yes","04_ages_18":"18","05":"No"},"rt":65646,"item_order":[0,1,2,3,4],"radio_events":[6447,22492,36306,50229,63726],"checkbox_events":[14554,18402,24264,24892,26387,27835,28627.000000000116,31491,38013,39623,40415,41272,43093,44350,45208,47339,51610,52386,53757.00000000012,54712,57113,58248],"key_events":[],"mouse_events":[6447,14554,18402,21570,22492,24264,24892,25530,26387,27835,28627.000000000116,31491,35539,36306,38013,39623,40415,41272,43093,44350,45208,47339,50229,51610,52386,53757.00000000012,54712,57113,58248,63726,65637],"honeypot":0,"survey":"mace","page":6,"trial_type":"survey-mace","trial_index":14,"time_elapsed":657827,"internal_node_id":"0.0-14.0","task_version":"prescreen-v0.3","browser_interactions":0},{"responses":{"01":"No","02":"No","03":"No","04":"No","05":"No","06":"Yes","06_ages_16":"16","06_ages_17":"17","07":"Yes","07_ages_16":"16","07_ages_17":"17"},"rt":34129,"item_order":[0,1,2,3,4,5,6],"radio_events":[7182,11575,14450,15984,20785.000000000116,23822,28875],"checkbox_events":[25856,30844,31581,32640],"key_events":[],"mouse_events":[7182,11575,14450,15984,20785.000000000116,23822,25856,28875,30844,31581,32640,34118],"honeypot":0,"survey":"mace","page":7,"trial_type":"survey-mace","trial_index":15,"time_elapsed":691961,"internal_node_id":"0.0-15.0","task_version":"prescreen-v0.3","browser_interactions":0},{"responses":{"01":"No","02":"No","03":"No","04":"No"},"rt":24934,"item_order":[0,1,2,3],"radio_events":[12273,15203,20755,23826],"checkbox_events":[],"key_events":[],"mouse_events":[12273,15203,20755,23826,24928],"honeypot":0,"survey":"mace","page":8,"trial_type":"survey-mace","trial_index":16,"time_elapsed":716900,"internal_node_id":"0.0-16.0","task_version":"prescreen-v0.3","browser_interactions":0},{"responses":{"01":"Yes","01_ages_1":"1","01_ages_2":"2","01_ages_3":"3","01_ages_4":"4","01_ages_5":"5","01_ages_6":"6","01_ages_7":"7","01_ages_8":"8","01_ages_9":"9","01_ages_10":"10","01_ages_11":"11","01_ages_12":"12","01_ages_13":"13","01_ages_14":"14","01_ages_15":"15","01_ages_16":"16","01_ages_17":"17","01_ages_18":"18","02":"Yes","02_ages_1":"1","02_ages_2":"2","02_ages_3":"3","02_ages_4":"4","02_ages_5":"5","02_ages_6":"6","02_ages_7":"7","02_ages_8":"8","02_ages_9":"9","02_ages_10":"10","02_ages_11":"11","02_ages_12":"12","02_ages_13":"13","02_ages_14":"14","02_ages_15":"15","02_ages_16":"16","02_ages_17":"17","02_ages_18":"18","03":"Yes","03_ages_1":"1","03_ages_2":"2","03_ages_3":"3","03_ages_4":"4","03_ages_5":"5","03_ages_6":"6","03_ages_7":"7","03_ages_8":"8","03_ages_9":"9","03_ages_10":"10","03_ages_11":"11","03_ages_12":"12","03_ages_13":"13","03_ages_14":"14","03_ages_15":"15","03_ages_16":"16","03_ages_17":"17","03_ages_18":"18","04":"Yes","04_ages_1":"1","04_ages_2":"2","04_ages_3":"3","04_ages_4":"4","04_ages_5":"5","04_ages_6":"6","04_ages_7":"7","04_ages_8":"8","04_ages_9":"9","04_ages_10":"10","04_ages_11":"11","04_ages_12":"12","04_ages_13":"13","04_ages_14":"14","04_ages_15":"15","04_ages_16":"16","04_ages_17":"17","04_ages_18":"18"},"rt":79704,"item_order":[0,1,2,3],"radio_events":[6580,31490,48973,64901],"checkbox_events":[12645,13634,14506.000000000116,15202,16133,16680,17487.000000000116,18165,20018,20624,21684.000000000116,22264,22885,24117,25089,25978,26689,27441,33204,33834,34421,35043,36316,36961,37556,38087,39353,40112.00000000012,40733,41557,42124,42742,43313,43966,44636.00000000012,45347,50129,50703.00000000012,51282,51855,53348,54130,54744,55511.00000000012,56066,56572,57054.00000000012,57560,58059.00000000012,58753,59308,59896,60435,62998,66794,67358,67938,69058,69581,70103,70771,71996,72690,73263,73842,75002,75599,76170,76724,77296,77949,78765],"key_events":[],"mouse_events":[6580,12645,13634,14506.000000000116,15202,16133,16680,17487.000000000116,18165,19022,20018,20624,21684.000000000116,22264,22885,23489,24117,25089,25978,26689,27441,31490,33204,33834,34421,35043,35634,36316,36961,37556,38087,39353,40112.00000000012,40733,41557,42124,42742,43313,43966,44636.00000000012,45347,48973,50129,50703.00000000012,51282,51855,53348,54130,54744,55511.00000000012,56066,56572,57054.00000000012,57560,58059.00000000012,58753,59308,59896,60435,61007,62998,64901,66794,67358,67938,68479,69058,69581,70103,70771,71351,71996,72690,73263,73842,75002,75599,76170,76724,77296,77949,78765,79696],"honeypot":0,"survey":"mace","page":9,"trial_type":"survey-mace","trial_index":17,"time_elapsed":796611,"internal_node_id":"0.0-17.0","task_version":"prescreen-v0.3","browser_interactions":0},{"responses":{"01":"No","02":"No","03":"No","04":"No","05":"No","06":"Yes","06_ages_17":"17","07":"Yes","07_ages_1":"1","07_ages_2":"2","07_ages_3":"3","07_ages_4":"4","07_ages_5":"5","07_ages_6":"6","07_ages_7":"7","07_ages_8":"8","07_ages_9":"9","07_ages_10":"10","07_ages_11":"11","07_ages_12":"12","07_ages_13":"13","07_ages_14":"14","07_ages_15":"15","07_ages_16":"16","07_ages_17":"17","07_ages_18":"18","08":"Yes","08_ages_1":"1","08_ages_2":"2","08_ages_3":"3","08_ages_4":"4","08_ages_5":"5","08_ages_6":"6","08_ages_7":"7","08_ages_8":"8","08_ages_9":"9","08_ages_10":"10","08_ages_11":"11","08_ages_12":"12","08_ages_13":"13","08_ages_14":"14","08_ages_15":"15","08_ages_16":"16","08_ages_17":"17","08_ages_18":"18"},"rt":62606,"item_order":[0,1,2,3,4,5,6,7],"radio_events":[6536,7531,11231,14668,17673,20114.000000000116,28483,45776],"checkbox_events":[21836,30646,31479,32689,33227,34150,34918,35513.00000000012,36070,36828,37523.00000000012,38077,38657,39295,40053,40780,41417.00000000012,42242,42886,47843,48823,49443,50007,50603,51435,51990,52839,53435,54242,55346,56017,56539,57290,58253,59183,61209,61960],"key_events":[],"mouse_events":[5279,6536,7531,11231,14668,17673,20114.000000000116,21836,28483,30646,31479,32125,32689,33227,34150,34918,35513.00000000012,36070,36828,37523.00000000012,38077,38657,39295,40053,40780,41417.00000000012,42242,42886,45776,47843,48823,49443,50007,50603,51435,51990,52839,53435,54242,55346,56017,56539,57290,58253,59183,60115,61209,61960,62598],"honeypot":0,"survey":"mace","page":10,"trial_type":"survey-mace","trial_index":18,"time_elapsed":859225,"internal_node_id":"0.0-18.0","task_version":"prescreen-v0.3","browser_interactions":0,"instructed":0},{"rt":4307.000000000116,"trial_type":"mental-health-alert","trial_index":19,"time_elapsed":863534,"internal_node_id":"0.0-19.0","task_version":"prescreen-v0.3","interactions":"[]"}]