[{"view_history":[{"page_index":0,"viewing_time":4191.699999988079},{"page_index":1,"viewing_time":3673.600000023842},{"page_index":2,"viewing_time":2667.899999976158},{"page_index":3,"viewing_time":1317.1000000238419}],"rt":11851.5,"trial_type":"instructions","trial_index":0,"time_elapsed":11858,"internal_node_id":"0.0-0.0","task_version":"prescreen-v0.3"},{"rt":16992.69999998808,"responses":{"age":"18","gender-categorical":"Female","gender-free-response":"","ethnicity":"Not Hispanic or Latino","race":["Asian"],"education":"High school"},"trial_type":"survey-demo","trial_index":1,"time_elapsed":28855,"internal_node_id":"0.0-1.0","task_version":"prescreen-v0.3"},{"responses":{"Q12":"2","Q04":"1","Q16":"2","Q17":"0","Q05":"1","Q13":"1","Q20":"0","Q10":"1","Q19":"1","Q01":"0","Q11":"0","Q09":"2","Q14":"2","Q08":"2","Q03":"0","Q18":"1","Q07":"1","Q21":"3","Q15":"2","Q06":"1","Q02":"1"},"rt":105136.19999998808,"item_order":[11,3,15,16,4,12,19,9,18,0,10,8,13,7,2,17,6,20,14,5,1],"radio_events":[8358.599999964237,13442.899999976158,16206,19756.80000001192,27313.69999998808,29138.399999976158,30599.80000001192,35306.30000001192,40800.5,42969.39999997616,47548.09999996424,53853.30000001192,56351.30000001192,57949.69999998808,60551.19999998808,62889.19999998808,70960.19999998808,77120.69999998808,82804.19999998808,92104.30000001192,99180.89999997616,101742.5,103291],"key_events":[],"mouse_events":[8358.599999964237,13442.899999976158,16206,19756.80000001192,26110.19999998808,27313.69999998808,28294.899999976158,29138.399999976158,30599.80000001192,35306.30000001192,40800.5,42969.39999997616,45981,47548.09999996424,53853.30000001192,56351.30000001192,57949.69999998808,60551.19999998808,62889.19999998808,70960.19999998808,77120.69999998808,80694.69999998808,82804.19999998808,92104.30000001192,99180.89999997616,101742.5,102537.89999997616,103291,105131.39999997616],"straightlining":0.42857142857142855,"zigzagging":0.45,"honeypot":0,"survey":"sns","trial_type":"survey-template","trial_index":2,"time_elapsed":133999,"internal_node_id":"0.0-2.0","task_version":"prescreen-v0.3","browser_interactions":0,"infrequency":0},{"responses":{"Q11":"2","Q13":"0","Q12":"2","Q08":"2","Q07":"2","Q03":"3","Q09":"2","Q06":"3","Q10":"2","Q04":"2","Q05":"3","Q02":"3","Q01":"3"},"rt":47182.89999997616,"item_order":[10,12,11,7,6,2,8,5,9,3,4,1,0],"radio_events":[10732.599999964237,13929.399999976158,17471.099999964237,20104.899999976158,21318,29583.5,30435.099999964237,35856.19999998808,38497,40369.09999996424,41244.299999952316,42770,45798.89999997616,46473.59999996424],"key_events":[],"mouse_events":[10732.599999964237,13929.399999976158,17471.099999964237,18451.599999964237,20104.899999976158,21318,24177.299999952316,29583.5,30435.099999964237,35221.799999952316,35856.19999998808,37044,38497,40369.09999996424,41244.299999952316,42770,44552.89999997616,45798.89999997616,46473.59999996424,47180.09999996424],"straightlining":0.5384615384615384,"zigzagging":0.4166666666666667,"honeypot":0,"survey":"bisbas","trial_type":"survey-template","trial_index":3,"time_elapsed":181191,"internal_node_id":"0.0-3.0","task_version":"prescreen-v0.3","browser_interactions":0,"infrequency":0},{"responses":{"Q01":"4","Q02":"4","Q03":"4"},"rt":15053.399999976158,"radio_events":[6972.599999964237,10217.5,13863.799999952316],"key_events":[],"mouse_events":[6972.599999964237,10217.5,13036.399999976158,13863.799999952316,15052],"survey":"map","page":1,"trial_type":"survey-map","trial_index":4,"time_elapsed":196255,"internal_node_id":"0.0-4.0","task_version":"prescreen-v0.3","browser_interactions":0},{"responses":{"Q04":"3","Q05":"3","Q06":"3"},"rt":19505.80000001192,"radio_events":[9581.699999988079,11673.199999988079,16572.099999964237,17728.399999976158,18716.5],"key_events":[],"mouse_events":[9581.699999988079,10670.800000011921,11673.199999988079,12613.899999976158,15859.199999988079,16572.099999964237,17728.399999976158,18716.5,19503.899999976158],"survey":"map","page":2,"trial_type":"survey-map","trial_index":5,"time_elapsed":215769,"internal_node_id":"0.0-5.0","task_version":"prescreen-v0.3","browser_interactions":0},{"responses":{"Q07":"2","Q08":"3","Q09":"4"},"rt":17136.5,"radio_events":[4572.700000047684,9295.200000047684,15816.700000047684],"key_events":[],"mouse_events":[4572.700000047684,9295.200000047684,12042.100000023842,13575.900000035763,15310.5,15816.700000047684,17135.100000023842],"survey":"map","page":3,"trial_type":"survey-map","trial_index":6,"time_elapsed":232915,"internal_node_id":"0.0-6.0","task_version":"prescreen-v0.3","browser_interactions":0},{"responses":{"Q10":"3","Q11":"3","Q12":"1","Q13":"3","Q16":"0","Q14":"3","Q15":"3"},"rt":59023.19999998808,"radio_events":[7684.300000011921,13705.399999976158,14821.699999988079,18082.399999976158,20050.30000001192,32066.100000023842,36370.69999998808,47371,58208.19999998808],"key_events":[],"mouse_events":[7684.300000011921,11932.899999976158,13705.399999976158,14821.699999988079,18082.399999976158,20050.30000001192,29744.600000023842,32066.100000023842,36370.69999998808,45148.69999998808,46889,47371,58208.19999998808,59020.19999998808],"survey":"map","page":4,"trial_type":"survey-map","trial_index":7,"time_elapsed":291945,"internal_node_id":"0.0-7.0","task_version":"prescreen-v0.3","browser_interactions":0,"infrequency":0},{"view_history":[{"page_index":0,"viewing_time":2445.5},{"page_index":1,"viewing_time":2231.800000011921}],"rt":4678.5,"trial_type":"instructions","trial_index":8,"time_elapsed":296632,"internal_node_id":"0.0-8.0","task_version":"prescreen-v0.3"},{"responses":{"01":"Yes","01_ages_7":"7","01_ages_8":"8","01_ages_9":"9","01_ages_10":"10","01_ages_11":"11","01_ages_12":"12","01_ages_13":"13","01_ages_14":"14","01_ages_15":"15","01_ages_16":"16","01_ages_17":"17","01_ages_18":"18","02":"Yes","02_ages_7":"7","02_ages_8":"8","02_ages_9":"9","02_ages_10":"10","02_ages_11":"11","02_ages_12":"12","02_ages_13":"13","02_ages_14":"14","02_ages_15":"15","02_ages_16":"16","02_ages_17":"17","02_ages_18":"18","03":"Yes","03_ages_7":"7","03_ages_8":"8","03_ages_9":"9","03_ages_10":"10","03_ages_11":"11","03_ages_12":"12","03_ages_13":"13","03_ages_14":"14","03_ages_15":"15","03_ages_16":"16","03_ages_17":"17","03_ages_18":"18","04":"Yes","04_ages_7":"7","04_ages_8":"8","04_ages_9":"9","04_ages_10":"10","04_ages_11":"11","04_ages_12":"12","04_ages_13":"13","04_ages_14":"14","04_ages_15":"15","04_ages_16":"16","04_ages_17":"17","04_ages_18":"18","05":"No","06":"Yes","06_ages_7":"7","06_ages_8":"8","06_ages_9":"9","06_ages_10":"10","06_ages_11":"11","06_ages_12":"12","06_ages_13":"13","06_ages_14":"14","06_ages_15":"15","06_ages_16":"16","06_ages_17":"17","06_ages_18":"18"},"rt":83727.59999996424,"item_order":[0,1,2,3,4,5],"radio_events":[7751.099999964237,31142.5,43588.59999996424,56567.19999998808,70024.79999995232,72473.69999998808],"checkbox_events":[14919.199999988079,16341,17104.399999976158,18075.099999964237,19207.799999952316,20297.899999976158,20838.5,21569.399999976158,22236.19999998808,23151.399999976158,25978.5,26475.899999976158,26995.299999952316,27656.899999976158,32482.399999976158,34265.09999996424,34899.89999997616,35520.299999952316,36121.09999996424,36650.89999997616,37316.69999998808,37839.19999998808,38410.09999996424,39758.69999998808,40665.299999952316,41364.09999996424,44969.59999996424,46094,47104.299999952316,47844.39999997616,48936,49643.19999998808,50157.69999998808,50944.09999996424,51627.19999998808,52188.5,53126.69999998808,53955.39999997616,60155.299999952316,61063,61608.39999997616,62306.59999996424,63142.5,63728.69999998808,64227,64868.89999997616,65824.79999995232,66346.39999997616,67061.09999996424,67856.5,74056.69999998808,74665.89999997616,75372.5,76722.19999998808,77243.69999998808,78015,78753.09999996424,79524.89999997616,80215.59999996424,80922.09999996424,81476.29999995232,82383.5],"key_events":[],"mouse_events":[0.2999999523162842,7751.099999964237,14919.199999988079,15883.199999988079,16341,17104.399999976158,17593.899999976158,18075.099999964237,19207.799999952316,20297.899999976158,20838.5,21569.399999976158,22236.19999998808,22749.899999976158,23151.399999976158,25978.5,26475.899999976158,26995.299999952316,27656.899999976158,31142.5,32482.399999976158,34265.09999996424,34899.89999997616,35520.299999952316,36121.09999996424,36650.89999997616,37316.69999998808,37839.19999998808,38410.09999996424,39236.59999996424,39758.69999998808,40665.299999952316,41364.09999996424,43588.59999996424,44969.59999996424,45611.39999997616,46094,47104.299999952316,47844.39999997616,48936,49643.19999998808,50157.69999998808,50944.09999996424,51627.19999998808,52188.5,53126.69999998808,53955.39999997616,55314,56567.19999998808,60155.299999952316,61063,61608.39999997616,62306.59999996424,63142.5,63728.69999998808,64227,64868.89999997616,65824.79999995232,66346.39999997616,67061.09999996424,67856.5,70024.79999995232,71487.29999995232,72473.69999998808,74056.69999998808,74665.89999997616,75372.5,75902.69999998808,76722.19999998808,77243.69999998808,78015,78753.09999996424,79524.89999997616,80215.59999996424,80922.09999996424,81476.29999995232,82383.5,83719],"honeypot":0,"survey":"mace","page":1,"trial_type":"survey-mace","trial_index":9,"time_elapsed":380367,"internal_node_id":"0.0-9.0","task_version":"prescreen-v0.3","browser_interactions":0},{"responses":{"01":"Yes","01_ages_7":"7","01_ages_8":"8","01_ages_9":"9","01_ages_10":"10","01_ages_11":"11","01_ages_12":"12","01_ages_13":"13","01_ages_14":"14","01_ages_15":"15","01_ages_16":"16","01_ages_17":"17","01_ages_18":"18","02":"No","03":"Yes","03_ages_7":"7","03_ages_8":"8","03_ages_9":"9","03_ages_10":"10","03_ages_11":"11","03_ages_12":"12","03_ages_13":"13","03_ages_14":"14","03_ages_15":"15","03_ages_16":"16","03_ages_17":"17","03_ages_18":"18","04":"No","05":"Yes","05_ages_7":"7","05_ages_8":"8","05_ages_9":"9","05_ages_10":"10","05_ages_11":"11","05_ages_12":"12","05_ages_13":"13","05_ages_14":"14","05_ages_15":"15","05_ages_16":"16","05_ages_17":"17","05_ages_18":"18","06":"No","07":"No","08":"No"},"rt":52950.30000001192,"item_order":[0,1,2,3,4,5,6,7],"radio_events":[3936.300000011921,19481.599999964237,22855.599999964237,35191.09999996424,36973.19999998808,50681.69999998808,51524.39999997616,52288.59999996424],"checkbox_events":[6030.699999988079,6528.099999964237,7242.800000011921,7725.300000011921,8287.399999976158,9466.899999976158,9942.599999964237,11122.399999976158,12102.399999976158,13129.899999976158,13820.399999976158,14695.5,24365.19999998808,24855.5,25433.19999998808,25971.30000001192,27248.69999998808,27899.19999998808,28532.69999998808,29689.30000001192,30364,30982.099999964237,32058.5,32693.30000001192,38322.09999996424,38884.89999997616,39606.39999997616,40490.89999997616,41020.69999998808,42771.80000001192,43262.39999997616,44578.30000001192,45341.39999997616,46031.30000001192,46634.19999998808,47581.59999996424],"key_events":[],"mouse_events":[3936.300000011921,6030.699999988079,6528.099999964237,7242.800000011921,7725.300000011921,8287.399999976158,8729,9466.899999976158,9942.599999964237,10447.5,11122.399999976158,12102.399999976158,13129.899999976158,13820.399999976158,14695.5,19481.599999964237,22855.599999964237,24365.19999998808,24855.5,25433.19999998808,25971.30000001192,27248.69999998808,27899.19999998808,28532.69999998808,29047.399999976158,29689.30000001192,30364,30982.099999964237,32058.5,32693.30000001192,35191.09999996424,36973.19999998808,38322.09999996424,38884.89999997616,39606.39999997616,40081.19999998808,40490.89999997616,41020.69999998808,41784.19999998808,42313.59999996424,42771.80000001192,43262.39999997616,43968,44578.30000001192,45341.39999997616,46031.30000001192,46634.19999998808,47581.59999996424,49413.59999996424,50681.69999998808,51524.39999997616,52288.59999996424,52939.39999997616],"honeypot":0,"survey":"mace","page":2,"trial_type":"survey-mace","trial_index":10,"time_elapsed":433328,"internal_node_id":"0.0-10.0","task_version":"prescreen-v0.3","browser_interactions":0},{"responses":{"01":"Yes","01_ages_7":"7","01_ages_8":"8","01_ages_9":"9","01_ages_10":"10","01_ages_11":"11","01_ages_12":"12","01_ages_13":"13","01_ages_14":"14","01_ages_15":"15","01_ages_16":"16","01_ages_17":"17","01_ages_18":"18","02":"Yes","02_ages_8":"8","02_ages_9":"9","02_ages_10":"10","02_ages_11":"11","02_ages_12":"12","02_ages_13":"13","02_ages_14":"14","02_ages_15":"15","02_ages_16":"16","02_ages_17":"17","02_ages_18":"18","03":"No","04":"No"},"rt":36380.90000003576,"item_order":[0,1,2,3],"radio_events":[5350.400000035763,21717.400000035763,33481.5,34992.30000001192],"checkbox_events":[9261.900000035763,10008.5,10658.800000011921,11686.600000023842,12385.699999988079,13084.199999988079,13694.699999988079,14385.400000035763,15212.699999988079,15702.800000011921,17380.600000023842,17998.600000023842,24022.80000001192,25178.600000023842,25805.19999998808,26351.400000035763,26994.100000023842,28134.30000001192,28849.400000035763,29812.80000001192,30583.400000035763,31226.5,32157.80000001192],"key_events":[],"mouse_events":[4396.199999988079,5350.400000035763,9261.900000035763,10008.5,10658.800000011921,11686.600000023842,12385.699999988079,13084.199999988079,13694.699999988079,14385.400000035763,15212.699999988079,15702.800000011921,16401.100000023842,16890.80000001192,17380.600000023842,17998.600000023842,21717.400000035763,24022.80000001192,24649,25178.600000023842,25805.19999998808,26351.400000035763,26994.100000023842,28134.30000001192,28849.400000035763,29386.900000035763,29812.80000001192,30583.400000035763,31226.5,32157.80000001192,33481.5,34992.30000001192,36374.19999998808],"honeypot":0,"survey":"mace","page":3,"trial_type":"survey-mace","trial_index":11,"time_elapsed":469718,"internal_node_id":"0.0-11.0","task_version":"prescreen-v0.3","browser_interactions":0},{"responses":{"01":"No","02":"No"},"rt":12410.099999964237,"item_order":[0,1],"radio_events":[6335.5,11218],"checkbox_events":[],"key_events":[],"mouse_events":[6335.5,7965.699999988079,9812.599999964237,11218,12406.5],"honeypot":0,"survey":"mace","page":4,"trial_type":"survey-mace","trial_index":12,"time_elapsed":482137,"internal_node_id":"0.0-12.0","task_version":"prescreen-v0.3","browser_interactions":0},{"responses":{"01":"Yes","01_ages_6":"6","01_ages_7":"7","01_ages_8":"8","01_ages_9":"9","01_ages_10":"10","01_ages_11":"11","01_ages_12":"12","01_ages_13":"13","01_ages_14":"14","01_ages_15":"15","01_ages_16":"16","01_ages_17":"17","01_ages_18":"18","02":"Yes","02_ages_7":"7","02_ages_8":"8","02_ages_9":"9","02_ages_10":"10","02_ages_11":"11","02_ages_12":"12","02_ages_13":"13","02_ages_14":"14","02_ages_15":"15","03":"No","04":"No","05":"No"},"rt":57357,"item_order":[0,1,2,3,4],"radio_events":[8880.799999952316,22613,40817.799999952316,51484.09999996424,56225.299999952316],"checkbox_events":[10567.399999976158,11410.099999964237,12101,13000.599999964237,13763.099999964237,15063.899999976158,15762.599999964237,16373.099999964237,16902.69999998808,17401.19999998808,17995.69999998808,18645.299999952316,19200,24290.899999976158,24799.399999976158,25269.19999998808,25769.799999952316,26636,27174.799999952316,28419.69999998808,29093.399999976158,30563.899999976158,34065.59999996424,35752.19999998808],"key_events":[],"mouse_events":[8880.799999952316,10567.399999976158,11410.099999964237,12101,13000.599999964237,13763.099999964237,14558.199999988079,15063.899999976158,15762.599999964237,16373.099999964237,16902.69999998808,17401.19999998808,17995.69999998808,18645.299999952316,19200,22613,24290.899999976158,24799.399999976158,25269.19999998808,25769.799999952316,26636,27174.799999952316,28419.69999998808,29093.399999976158,29704.299999952316,30563.899999976158,34065.59999996424,35752.19999998808,40817.799999952316,51484.09999996424,56225.299999952316,57348.799999952316],"honeypot":0,"survey":"mace","page":5,"trial_type":"survey-mace","trial_index":13,"time_elapsed":539503,"internal_node_id":"0.0-13.0","task_version":"prescreen-v0.3","browser_interactions":0},{"responses":{"01":"Yes","01_ages_7":"7","01_ages_8":"8","01_ages_9":"9","01_ages_10":"10","01_ages_11":"11","01_ages_12":"12","01_ages_13":"13","01_ages_14":"14","01_ages_15":"15","01_ages_16":"16","01_ages_17":"17","01_ages_18":"18","02":"Yes","02_ages_7":"7","02_ages_8":"8","02_ages_9":"9","02_ages_10":"10","02_ages_11":"11","02_ages_12":"12","02_ages_13":"13","02_ages_14":"14","02_ages_15":"15","02_ages_16":"16","02_ages_17":"17","02_ages_18":"18","03":"Yes","03_ages_7":"7","03_ages_8":"8","03_ages_9":"9","03_ages_10":"10","03_ages_11":"11","03_ages_12":"12","03_ages_13":"13","03_ages_14":"14","03_ages_15":"15","03_ages_16":"16","03_ages_17":"17","03_ages_18":"18","04":"Yes","04_ages_7":"7","04_ages_8":"8","04_ages_9":"9","04_ages_10":"10","04_ages_11":"11","04_ages_12":"12","04_ages_13":"13","04_ages_14":"14","04_ages_15":"15","04_ages_16":"16","04_ages_17":"17","04_ages_18":"18","05":"No"},"rt":54809.09999996424,"item_order":[0,1,2,3,4],"radio_events":[5427.099999964237,17353.099999964237,18950.80000001192,22220,54134.80000001192],"checkbox_events":[7531.899999976158,8204.899999976158,9072.599999964237,9594.699999988079,10229.099999964237,10855.199999988079,11474,12831.099999964237,14051.5,14534,15200.5,15939.199999988079,26580.599999964237,27164.69999998808,27769.099999964237,28371.30000001192,28878.19999998808,29656.5,30323,31037.80000001192,31608.399999976158,32234.399999976158,32965.5,33647.89999997616,34475.30000001192,35029.59999996424,35680,36274,36876.39999997616,37382.5,38008.80000001192,38571.30000001192,39173.30000001192,39800.30000001192,40394.39999997616,41133.80000001192,41855.59999996424,43220.69999998808,43767.09999996424,44409.09999996424,44987.30000001192,46489.19999998808,47477.09999996424,49211.80000001192,49878.39999997616,50448.30000001192,51380.19999998808,51942.39999997616],"key_events":[],"mouse_events":[5427.099999964237,7531.899999976158,8204.899999976158,9072.599999964237,9594.699999988079,10229.099999964237,10855.199999988079,11474,12220.300000011921,12831.099999964237,13569.399999976158,14051.5,14534,15200.5,15939.199999988079,17353.099999964237,18950.80000001192,22220,25527.5,26066.599999964237,26580.599999964237,27164.69999998808,27769.099999964237,28371.30000001192,28878.19999998808,29656.5,30323,31037.80000001192,31608.399999976158,32234.399999976158,32965.5,33647.89999997616,34475.30000001192,35029.59999996424,35680,36274,36876.39999997616,37382.5,38008.80000001192,38571.30000001192,39173.30000001192,39800.30000001192,40394.39999997616,41133.80000001192,41855.59999996424,42434.39999997616,43220.69999998808,43767.09999996424,44409.09999996424,44987.30000001192,45582,46023.30000001192,46489.19999998808,47059.69999998808,47477.09999996424,48473.69999998808,49211.80000001192,49878.39999997616,50448.30000001192,51380.19999998808,51942.39999997616,54134.80000001192,54801.30000001192],"honeypot":0,"survey":"mace","page":6,"trial_type":"survey-mace","trial_index":14,"time_elapsed":594320,"internal_node_id":"0.0-14.0","task_version":"prescreen-v0.3","browser_interactions":0},{"responses":{"01":"No","02":"No","03":"No","04":"No","05":"No","06":"No","07":"No"},"rt":17065.69999998808,"item_order":[0,1,2,3,4,5,6],"radio_events":[5740.099999964237,6775.800000011921,9642.099999964237,10453.5,11947.199999988079,14742.099999964237,15850.399999976158],"checkbox_events":[],"key_events":[],"mouse_events":[5740.099999964237,6775.800000011921,8116.800000011921,9642.099999964237,10453.5,11947.199999988079,14742.099999964237,15850.399999976158,17055.69999998808],"honeypot":0,"survey":"mace","page":7,"trial_type":"survey-mace","trial_index":15,"time_elapsed":611397,"internal_node_id":"0.0-15.0","task_version":"prescreen-v0.3","browser_interactions":0},{"responses":{"01":"Yes","01_ages_7":"7","01_ages_8":"8","01_ages_9":"9","01_ages_10":"10","01_ages_11":"11","01_ages_12":"12","01_ages_13":"13","01_ages_14":"14","01_ages_15":"15","01_ages_16":"16","01_ages_17":"17","02":"Yes","02_ages_7":"7","02_ages_8":"8","02_ages_9":"9","02_ages_10":"10","02_ages_11":"11","02_ages_12":"12","02_ages_13":"13","02_ages_14":"14","02_ages_15":"15","02_ages_16":"16","02_ages_17":"17","02_ages_18":"18","03":"Yes","03_ages_4":"4","03_ages_5":"5","03_ages_6":"6","03_ages_7":"7","03_ages_8":"8","03_ages_9":"9","03_ages_10":"10","03_ages_11":"11","03_ages_12":"12","03_ages_13":"13","03_ages_14":"14","03_ages_15":"15","03_ages_16":"16","03_ages_17":"17","03_ages_18":"18","04":"No"},"rt":59204.69999998808,"item_order":[0,1,2,3],"radio_events":[8774.100000023842,22072.69999998808,38053.39999997616,58515.80000001192],"checkbox_events":[10581.100000023842,11352,12307.699999988079,12933.300000011921,13455.199999988079,14330,15229.800000011921,16081.300000011921,16635.80000001192,17214.100000023842,17896.600000023842,26770.19999998808,28199.5,29058.899999976158,29589,30215.30000001192,30857.69999998808,31387.899999976158,32054.100000023842,32632.5,33314.89999997616,33941.89999997616,35017.5,42799.5,44004.10000002384,44565.30000001192,45745.5,46532.39999997616,47240.80000001192,47899,48525.60000002384,50155.60000002384,50774.30000001192,51352.30000001192,52548.69999998808,53151.19999998808,53826.19999998808,54885.89999997616],"key_events":[],"mouse_events":[8774.100000023842,10581.100000023842,11352,12307.699999988079,12933.300000011921,13455.199999988079,13969.399999976158,14330,15229.800000011921,16081.300000011921,16635.80000001192,17214.100000023842,17896.600000023842,18586.80000001192,22072.69999998808,26770.19999998808,27291.5,27717.30000001192,28199.5,29058.899999976158,29589,30215.30000001192,30857.69999998808,31387.899999976158,32054.100000023842,32632.5,33314.89999997616,33941.89999997616,34560.19999998808,35017.5,38053.39999997616,42799.5,43337.39999997616,44004.10000002384,44565.30000001192,45745.5,46532.39999997616,47240.80000001192,47899,48525.60000002384,49208.30000001192,49634.30000001192,50155.60000002384,50774.30000001192,51352.30000001192,52083.10000002384,52548.69999998808,53151.19999998808,53826.19999998808,54412.30000001192,54885.89999997616,58515.80000001192,59199.10000002384],"honeypot":0,"survey":"mace","page":8,"trial_type":"survey-mace","trial_index":16,"time_elapsed":670609,"internal_node_id":"0.0-16.0","task_version":"prescreen-v0.3","browser_interactions":0},{"responses":{"01":"No","02":"No","03":"Yes","03_ages_7":"7","03_ages_8":"8","03_ages_9":"9","03_ages_10":"10","03_ages_11":"11","03_ages_12":"12","03_ages_13":"13","03_ages_14":"14","03_ages_15":"15","03_ages_16":"16","03_ages_17":"17","03_ages_18":"18","04":"Yes","04_ages_7":"7","04_ages_8":"8","04_ages_9":"9","04_ages_10":"10","04_ages_11":"11","04_ages_12":"12","04_ages_13":"13","04_ages_14":"14","04_ages_15":"15","04_ages_16":"16","04_ages_17":"17","04_ages_18":"18"},"rt":35933.60000002384,"item_order":[0,1,2,3],"radio_events":[8471.899999976158,9555.199999988079,12141.199999988079,26387.399999976158],"checkbox_events":[13818.600000023842,14277.300000011921,14807.5,15521.800000011921,16101.100000023842,16638.399999976158,17128.399999976158,17859,19247,19810.600000023842,20934.69999998808,21512.899999976158,27535.69999998808,28009.80000001192,29094.30000001192,29584.19999998808,30242.600000023842,30788.5,31406.899999976158,32193.69999998808,32851.80000001192,33495,34137.30000001192,35116.60000002384],"key_events":[],"mouse_events":[8471.899999976158,9555.199999988079,12141.199999988079,13818.600000023842,14277.300000011921,14807.5,15521.800000011921,16101.100000023842,16638.399999976158,17128.399999976158,17859,18493.600000023842,19247,19810.600000023842,20477.30000001192,20934.69999998808,21512.899999976158,26387.399999976158,27535.69999998808,28009.80000001192,28590.69999998808,29094.30000001192,29584.19999998808,30242.600000023842,30788.5,31406.899999976158,32193.69999998808,32851.80000001192,33495,34137.30000001192,34667.30000001192,35116.60000002384,35927.5],"honeypot":0,"survey":"mace","page":9,"trial_type":"survey-mace","trial_index":17,"time_elapsed":706551,"internal_node_id":"0.0-17.0","task_version":"prescreen-v0.3","browser_interactions":0},{"responses":{"01":"No","02":"No","03":"Yes","03_ages_10":"10","03_ages_11":"11","03_ages_12":"12","03_ages_13":"13","03_ages_14":"14","03_ages_15":"15","03_ages_16":"16","03_ages_17":"17","03_ages_18":"18","04":"No","05":"No","06":"Yes","06_ages_17":"17","07":"No","08":"No"},"rt":32162,"item_order":[0,1,2,3,4,5,6,7],"radio_events":[3493.800000011921,4938.800000011921,9067,18663.600000023842,21385.400000035763,23900,30281.80000001192,31326.30000001192],"checkbox_events":[11163.800000011921,11996.699999988079,12527,13072.5,13707.5,14213.5,15402.699999988079,15900.199999988079,16822.5,25505.600000023842],"key_events":[],"mouse_events":[3493.800000011921,4415.400000035763,4938.800000011921,9067,11163.800000011921,11996.699999988079,12527,13072.5,13707.5,14213.5,14863.699999988079,15402.699999988079,15900.199999988079,16822.5,18663.600000023842,21385.400000035763,23900,25505.600000023842,30281.80000001192,31326.30000001192,32153.600000023842],"honeypot":0,"survey":"mace","page":10,"trial_type":"survey-mace","trial_index":18,"time_elapsed":738723,"internal_node_id":"0.0-18.0","task_version":"prescreen-v0.3","browser_interactions":0,"instructed":0},{"rt":5402.5,"trial_type":"mental-health-alert","trial_index":19,"time_elapsed":744133,"internal_node_id":"0.0-19.0","task_version":"prescreen-v0.3","interactions":"[]"}]