[{"view_history":[{"page_index":0,"viewing_time":4081.100000023842},{"page_index":1,"viewing_time":1750.2999999821186},{"page_index":2,"viewing_time":2401.800000011921},{"page_index":3,"viewing_time":1107.0999999940395}],"rt":9341,"trial_type":"instructions","trial_index":0,"time_elapsed":9356,"internal_node_id":"0.0-0.0","task_version":"prescreen-v0.3"},{"rt":17476.20000001788,"responses":{"age":"19","gender-categorical":"Female","gender-free-response":"","ethnicity":"Not Hispanic or Latino","race":["White"],"education":"High school"},"trial_type":"survey-demo","trial_index":1,"time_elapsed":26836,"internal_node_id":"0.0-1.0","task_version":"prescreen-v0.3"},{"responses":{"Q02":"2","Q13":"3","Q14":"3","Q15":"3","Q03":"1","Q11":"1","Q18":"2","Q10":"2","Q16":"1","Q12":"2","Q09":"3","Q21":"3","Q20":"0","Q17":"2","Q19":"1","Q06":"0","Q04":"1","Q01":"2","Q07":"0","Q05":"0","Q08":"2"},"rt":546798.900000006,"item_order":[1,12,13,14,2,10,17,9,15,11,8,20,19,16,18,5,3,0,6,4,7],"radio_events":[3136.5,5292.699999988079,7786.5,11512.199999988079,14749.699999988079,17119.59999999404,19752.40000000596,107773.09999999404,115377.90000000596,117450.29999998212,119354.59999999404,121806.90000000596,124873.40000000596,131305.69999998808,514300.09999999404,518222.1999999881,523212.59999999404,527211.6999999881,529727.5,534461.2999999821,537243,544257.7999999821],"key_events":[],"mouse_events":[3136.5,5292.699999988079,7786.5,11512.199999988079,14749.699999988079,17119.59999999404,19752.40000000596,107773.09999999404,112022.29999998212,115377.90000000596,117450.29999998212,119354.59999999404,121806.90000000596,124873.40000000596,131305.69999998808,514300.09999999404,518222.1999999881,523212.59999999404,527211.6999999881,529727.5,534461.2999999821,537243,538730.5,544257.7999999821,546797.099999994],"straightlining":0.3333333333333333,"zigzagging":0.5,"honeypot":0,"survey":"sns","trial_type":"survey-template","trial_index":2,"time_elapsed":573640,"internal_node_id":"0.0-2.0","task_version":"prescreen-v0.3","browser_interactions":4,"infrequency":0},{"responses":{"Q10":"2","Q07":"3","Q03":"3","Q09":"2","Q01":"3","Q04":"3","Q05":"3","Q11":"2","Q08":"3","Q02":"3","Q12":"1","Q13":"0","Q06":"2"},"rt":152431.59999999404,"item_order":[9,6,2,8,0,3,4,10,7,1,11,12,5],"radio_events":[66324.59999999404,67723.19999998808,70633.59999999404,72482.09999999404,74059,78185.5,78663.59999999404,132396.80000001192,134756.59999999404,141391.19999998808,144340.59999999404,145773.19999998808,148632.90000000596,150014.30000001192],"key_events":[],"mouse_events":[66324.59999999404,67723.19999998808,70633.59999999404,72482.09999999404,74059,75818.59999999404,78185.5,78663.59999999404,132396.80000001192,134756.59999999404,141391.19999998808,144340.59999999404,145773.19999998808,148632.90000000596,150014.30000001192,152430.69999998808],"straightlining":0.5384615384615384,"zigzagging":0.5,"honeypot":0,"survey":"bisbas","trial_type":"survey-template","trial_index":3,"time_elapsed":726074,"internal_node_id":"0.0-3.0","task_version":"prescreen-v0.3","browser_interactions":2,"infrequency":0},{"responses":{"Q01":"3","Q02":"2","Q03":"4"},"rt":150893.40000000596,"radio_events":[141362.40000000596,144042.90000000596,149755.90000000596],"key_events":[],"mouse_events":[141362.40000000596,144042.90000000596,149755.90000000596,150892.80000001192],"survey":"map","page":1,"trial_type":"survey-map","trial_index":4,"time_elapsed":876970,"internal_node_id":"0.0-4.0","task_version":"prescreen-v0.3","browser_interactions":0},{"responses":{"Q04":"2","Q05":"1","Q06":"2"},"rt":27722.40000000596,"radio_events":[22174.40000000596,23614.09999999404,24779.40000000596,27133.19999998808],"key_events":[],"mouse_events":[22174.40000000596,23614.09999999404,24779.40000000596,27133.19999998808,27722.09999999404],"survey":"map","page":2,"trial_type":"survey-map","trial_index":5,"time_elapsed":904694,"internal_node_id":"0.0-5.0","task_version":"prescreen-v0.3","browser_interactions":0},{"responses":{"Q07":"4","Q08":"4","Q09":"4"},"rt":10222.59999999404,"radio_events":[6594.700000017881,7937.800000011921,9314.300000011921],"key_events":[],"mouse_events":[5825.200000017881,6594.700000017881,7937.800000011921,9314.300000011921,10222.200000017881],"survey":"map","page":3,"trial_type":"survey-map","trial_index":6,"time_elapsed":914918,"internal_node_id":"0.0-6.0","task_version":"prescreen-v0.3","browser_interactions":0},{"responses":{"Q10":"2","Q11":"1","Q12":"2","Q13":"2","Q16":"0","Q14":"2","Q15":"1"},"rt":45557.79999998212,"radio_events":[4268.0999999940395,6697.5999999940395,22825.5,25523,29316.59999999404,30765.79999998212,33157.09999999404,41063.5,43147.90000000596,44955.19999998808],"key_events":[],"mouse_events":[4268.0999999940395,6697.5999999940395,22825.5,25523,29316.59999999404,30765.79999998212,33157.09999999404,34106.69999998808,41063.5,43147.90000000596,44955.19999998808,45557],"survey":"map","page":4,"trial_type":"survey-map","trial_index":7,"time_elapsed":960478,"internal_node_id":"0.0-7.0","task_version":"prescreen-v0.3","browser_interactions":0,"infrequency":0},{"view_history":[{"page_index":0,"viewing_time":1857.9000000059605},{"page_index":1,"viewing_time":90693.29999998212}],"rt":92551.90000000596,"trial_type":"instructions","trial_index":8,"time_elapsed":1053031,"internal_node_id":"0.0-8.0","task_version":"prescreen-v0.3"},{"responses":{"01":"No","02":"Yes","02_ages_13":"13","02_ages_14":"14","02_ages_15":"15","02_ages_16":"16","02_ages_17":"17","02_ages_18":"18","03":"No","04":"Yes","04_ages_14":"14","05":"No","06":"No"},"rt":38932.80000001192,"item_order":[0,1,2,3,4,5],"radio_events":[6779,9684.300000011921,25502.40000000596,27966.40000000596,34461.5,35766],"checkbox_events":[16387.30000001192,16913,17335.70000001788,17765.70000001788,19149.40000000596,19794.20000001788,30928.09999999404],"key_events":[],"mouse_events":[0.09999999403953552,6779,9684.300000011921,16387.30000001192,16913,17335.70000001788,17765.70000001788,19149.40000000596,19794.20000001788,20596.70000001788,25502.40000000596,27966.40000000596,30928.09999999404,34461.5,35766,38930.70000001788],"honeypot":0,"survey":"mace","page":1,"trial_type":"survey-mace","trial_index":9,"time_elapsed":1091970,"internal_node_id":"0.0-9.0","task_version":"prescreen-v0.3","browser_interactions":0},{"responses":{"01":"No","02":"No","03":"No","04":"No","05":"No","06":"No","07":"No","08":"No"},"rt":15011.40000000596,"item_order":[0,1,2,3,4,5,6,7],"radio_events":[2095.5999999940395,3985.5999999940395,5831.700000017881,6860.0999999940395,10134.800000011921,10736.59999999404,11591,12414.800000011921],"checkbox_events":[],"key_events":[],"mouse_events":[2095.5999999940395,3985.5999999940395,5831.700000017881,6860.0999999940395,10134.800000011921,10736.59999999404,11591,12414.800000011921,15008.5],"honeypot":0,"survey":"mace","page":2,"trial_type":"survey-mace","trial_index":10,"time_elapsed":1106985,"internal_node_id":"0.0-10.0","task_version":"prescreen-v0.3","browser_interactions":0},{"responses":{"01":"No","02":"No","03":"No","04":"No"},"rt":17044.59999999404,"item_order":[0,1,2,3],"radio_events":[13831.5,14385,15555,16551.79999998212],"checkbox_events":[],"key_events":[],"mouse_events":[13831.5,14385,15555,16551.79999998212,17043],"honeypot":0,"survey":"mace","page":3,"trial_type":"survey-mace","trial_index":11,"time_elapsed":1124032,"internal_node_id":"0.0-11.0","task_version":"prescreen-v0.3","browser_interactions":0},{"responses":{"01":"No","02":"No"},"rt":7134.800000011921,"item_order":[0,1],"radio_events":[5159.9000000059605,6635.9000000059605],"checkbox_events":[],"key_events":[],"mouse_events":[5159.9000000059605,6635.9000000059605,7134],"honeypot":0,"survey":"mace","page":4,"trial_type":"survey-mace","trial_index":12,"time_elapsed":1131168,"internal_node_id":"0.0-12.0","task_version":"prescreen-v0.3","browser_interactions":0},{"responses":{"01":"No","02":"No","03":"No","04":"No","05":"No"},"rt":19192.59999999404,"item_order":[0,1,2,3,4],"radio_events":[9138.40000000596,11080.40000000596,12208.800000011921,15302.40000000596,16421.70000001788],"checkbox_events":[],"key_events":[],"mouse_events":[9138.40000000596,11080.40000000596,12208.800000011921,15302.40000000596,16421.70000001788,19190.90000000596],"honeypot":0,"survey":"mace","page":5,"trial_type":"survey-mace","trial_index":13,"time_elapsed":1150364,"internal_node_id":"0.0-13.0","task_version":"prescreen-v0.3","browser_interactions":0},{"responses":{"01":"Yes","01_ages_9":"9","01_ages_10":"10","01_ages_11":"11","02":"Yes","02_ages_8":"8","02_ages_9":"9","02_ages_10":"10","02_ages_11":"11","02_ages_12":"12","02_ages_13":"13","02_ages_14":"14","03":"Yes","03_ages_12":"12","03_ages_13":"13","03_ages_14":"14","04":"Yes","04_ages_11":"11","04_ages_12":"12","04_ages_13":"13","04_ages_14":"14","05":"No"},"rt":42628.39999997616,"item_order":[0,1,2,3,4],"radio_events":[4931.699999988079,15499.799999982119,26480.899999976158,27928.09999999404,36256.29999998212,42078.69999998808],"checkbox_events":[7744.5999999940395,8617.199999988079,9393.59999999404,16795.09999999404,17244.399999976158,17784.19999998808,18318.399999976158,18818,19294.19999998808,19758.69999998808,30654.899999976158,31085.5,31723.19999998808,37632.79999998212,38193.79999998212,38885.89999997616,39357.59999999404],"key_events":[],"mouse_events":[4931.699999988079,7744.5999999940395,8187.399999976158,8617.199999988079,9004.799999982119,9393.59999999404,15499.799999982119,16795.09999999404,17244.399999976158,17784.19999998808,18318.399999976158,18818,19294.19999998808,19758.69999998808,21754.5,22115.29999998212,26480.899999976158,27928.09999999404,29562.09999999404,30067.19999998808,30654.899999976158,31085.5,31723.19999998808,36256.29999998212,37632.79999998212,38193.79999998212,38885.89999997616,39357.59999999404,42078.69999998808,42626.79999998212],"honeypot":0,"survey":"mace","page":6,"trial_type":"survey-mace","trial_index":14,"time_elapsed":1192995,"internal_node_id":"0.0-14.0","task_version":"prescreen-v0.3","browser_interactions":0},{"responses":{"01":"No","02":"No","03":"No","04":"No","05":"No","06":"No","07":"No"},"rt":12444.09999999404,"item_order":[0,1,2,3,4,5,6],"radio_events":[2322.9000000059605,3403.300000011921,4433.5999999940395,5441.9000000059605,9802.09999999404,10648,11575.5],"checkbox_events":[],"key_events":[],"mouse_events":[2322.9000000059605,3403.300000011921,4433.5999999940395,5441.9000000059605,6863.5999999940395,7231.300000011921,9802.09999999404,10648,11575.5,12441.59999999404],"honeypot":0,"survey":"mace","page":7,"trial_type":"survey-mace","trial_index":15,"time_elapsed":1205443,"internal_node_id":"0.0-15.0","task_version":"prescreen-v0.3","browser_interactions":0},{"responses":{"01":"No","02":"No","03":"No","04":"No"},"rt":18583.70000001788,"item_order":[0,1,2,3],"radio_events":[8345.90000000596,9999.300000011921,12277.200000017881,15388.200000017881,17903.90000000596],"checkbox_events":[],"key_events":[],"mouse_events":[8345.90000000596,9999.300000011921,12277.200000017881,15388.200000017881,17903.90000000596,18582.30000001192],"honeypot":0,"survey":"mace","page":8,"trial_type":"survey-mace","trial_index":16,"time_elapsed":1224029,"internal_node_id":"0.0-16.0","task_version":"prescreen-v0.3","browser_interactions":0},{"responses":{"01":"Yes","01_ages_1":"1","01_ages_2":"2","01_ages_3":"3","01_ages_4":"4","01_ages_5":"5","01_ages_6":"6","01_ages_7":"7","01_ages_8":"8","01_ages_9":"9","01_ages_10":"10","01_ages_11":"11","01_ages_12":"12","01_ages_13":"13","01_ages_14":"14","01_ages_15":"15","01_ages_16":"16","01_ages_17":"17","01_ages_18":"18","02":"Yes","02_ages_1":"1","02_ages_2":"2","02_ages_3":"3","02_ages_4":"4","02_ages_5":"5","02_ages_6":"6","02_ages_7":"7","02_ages_8":"8","02_ages_9":"9","02_ages_10":"10","02_ages_11":"11","02_ages_12":"12","02_ages_13":"13","02_ages_14":"14","02_ages_15":"15","02_ages_16":"16","02_ages_17":"17","02_ages_18":"18","03":"Yes","03_ages_1":"1","03_ages_2":"2","03_ages_3":"3","03_ages_4":"4","03_ages_5":"5","03_ages_6":"6","03_ages_7":"7","03_ages_8":"8","03_ages_9":"9","03_ages_10":"10","03_ages_11":"11","03_ages_12":"12","03_ages_13":"13","03_ages_14":"14","03_ages_15":"15","03_ages_16":"16","03_ages_17":"17","03_ages_18":"18","04":"Yes","04_ages_1":"1","04_ages_2":"2","04_ages_3":"3","04_ages_4":"4","04_ages_5":"5","04_ages_6":"6","04_ages_7":"7","04_ages_8":"8","04_ages_9":"9","04_ages_10":"10","04_ages_11":"11","04_ages_12":"12","04_ages_13":"13","04_ages_14":"14","04_ages_15":"15","04_ages_16":"16","04_ages_17":"17","04_ages_18":"18"},"rt":46275.19999998808,"item_order":[0,1,2,3],"radio_events":[2664.5,19617,29023.79999998212,39028.89999997616],"checkbox_events":[4947.399999976158,5522.5999999940395,6367.299999982119,6845,7781.0999999940395,8367.399999976158,9012.59999999404,9505,9975.399999976158,10467.299999982119,14312.199999988079,16149.799999982119,16500.59999999404,16842.59999999404,17223,17590,17855.09999999404,18034.899999976158,20796.09999999404,21119.399999976158,21460.19999998808,21824,22153.899999976158,22517.399999976158,22849.19999998808,23264.399999976158,23591.19999998808,23922.59999999404,24362.399999976158,24753.399999976158,25157.5,26036.79999998212,26684.19999998808,27039.5,27296.69999998808,27512.29999998212,29757.69999998808,30047.79999998212,30434.59999999404,30723.69999998808,31073.29999998212,31409.19999998808,31701.69999998808,32016.69999998808,32332.79999998212,32672.29999998212,32973.89999997616,33272.59999999404,33586.39999997616,33908.19999998808,34247.5,34598.69999998808,34827.89999997616,35067.59999999404,39713.59999999404,40005.5,40422.59999999404,40723.79999998212,41077.19999998808,41433.5,41738.19999998808,42071.39999997616,42411.5,42755.09999999404,43071.09999999404,43387.69999998808,43727.19999998808,44079.59999999404,44443.89999997616,44754.89999997616,44996.89999997616,45273.19999998808],"key_events":[],"mouse_events":[2664.5,4047.899999976158,4947.399999976158,5522.5999999940395,6367.299999982119,6845,7309.0999999940395,7781.0999999940395,8367.399999976158,9012.59999999404,9505,9975.399999976158,10467.299999982119,11818.799999982119,12275.899999976158,14312.199999988079,16149.799999982119,16500.59999999404,16842.59999999404,17223,17590,17855.09999999404,18034.899999976158,19617,20796.09999999404,21119.399999976158,21460.19999998808,21824,22153.899999976158,22517.399999976158,22849.19999998808,23264.399999976158,23591.19999998808,23922.59999999404,24362.399999976158,24753.399999976158,25157.5,26036.79999998212,26684.19999998808,27039.5,27296.69999998808,27512.29999998212,29023.79999998212,29757.69999998808,30047.79999998212,30434.59999999404,30723.69999998808,31073.29999998212,31409.19999998808,31701.69999998808,32016.69999998808,32332.79999998212,32672.29999998212,32973.89999997616,33272.59999999404,33586.39999997616,33908.19999998808,34247.5,34598.69999998808,34827.89999997616,35067.59999999404,39028.89999997616,39713.59999999404,40005.5,40422.59999999404,40723.79999998212,41077.19999998808,41433.5,41738.19999998808,42071.39999997616,42411.5,42755.09999999404,43071.09999999404,43387.69999998808,43727.19999998808,44079.59999999404,44443.89999997616,44754.89999997616,44996.89999997616,45273.19999998808,46273.89999997616],"honeypot":0,"survey":"mace","page":9,"trial_type":"survey-mace","trial_index":17,"time_elapsed":1270306,"internal_node_id":"0.0-17.0","task_version":"prescreen-v0.3","browser_interactions":0},{"responses":{"01":"No","02":"No","03":"No","04":"No","05":"No","06":"Yes","06_ages_17":"17","07":"Yes","07_ages_1":"1","07_ages_2":"2","07_ages_3":"3","07_ages_4":"4","07_ages_5":"5","07_ages_6":"6","07_ages_7":"7","07_ages_8":"8","07_ages_9":"9","07_ages_10":"10","07_ages_11":"11","07_ages_12":"12","07_ages_13":"13","07_ages_14":"14","07_ages_15":"15","07_ages_16":"16","07_ages_17":"17","07_ages_18":"18","08":"Yes","08_ages_1":"1","08_ages_2":"2","08_ages_3":"3","08_ages_4":"4","08_ages_5":"5","08_ages_6":"6","08_ages_7":"7","08_ages_8":"8","08_ages_9":"9","08_ages_10":"10","08_ages_11":"11","08_ages_12":"12","08_ages_13":"13","08_ages_14":"14","08_ages_15":"15","08_ages_16":"16","08_ages_17":"17","08_ages_18":"18"},"rt":37721.90000000596,"item_order":[0,1,2,3,4,5,6,7],"radio_events":[6933.9000000059605,7591.300000011921,8123.800000011921,9919,15166.5,16172.5,20520.40000000596,30827.5],"checkbox_events":[17418.09999999404,21524.30000001192,21987.40000000596,22382.19999998808,25632.80000001192,25984.59999999404,26288.09999999404,26628.5,26933,27261.69999998808,27588.90000000596,27881,28210.19999998808,28575.30000001192,28869.09999999404,29151,29456.40000000596,29758.69999998808,30016.09999999404,31403.90000000596,31620.5,31912,32341.40000000596,32653.69999998808,32934.90000000596,33239.30000001192,33569.40000000596,33872.80000001192,34190.30000001192,34494.80000001192,34834.90000000596,35191.30000001192,35485.59999999404,35801.90000000596,36144.40000000596,36450.80000001192,36756],"key_events":[],"mouse_events":[6933.9000000059605,7591.300000011921,8123.800000011921,9919,15166.5,16172.5,17418.09999999404,20520.40000000596,21524.30000001192,21987.40000000596,22382.19999998808,22928.09999999404,25632.80000001192,25984.59999999404,26288.09999999404,26628.5,26933,27261.69999998808,27588.90000000596,27881,28210.19999998808,28575.30000001192,28869.09999999404,29151,29456.40000000596,29758.69999998808,30016.09999999404,30827.5,31403.90000000596,31620.5,31912,32341.40000000596,32653.69999998808,32934.90000000596,33239.30000001192,33569.40000000596,33872.80000001192,34190.30000001192,34494.80000001192,34834.90000000596,35191.30000001192,35485.59999999404,35801.90000000596,36144.40000000596,36450.80000001192,36756,37719.5],"honeypot":0,"survey":"mace","page":10,"trial_type":"survey-mace","trial_index":18,"time_elapsed":1308031,"internal_node_id":"0.0-18.0","task_version":"prescreen-v0.3","browser_interactions":0,"instructed":0},{"rt":3617.199999988079,"trial_type":"mental-health-alert","trial_index":19,"time_elapsed":1311649,"internal_node_id":"0.0-19.0","task_version":"prescreen-v0.3","interactions":"[{\"event\":\"blur\",\"trial\":2,\"time\":245239},{\"event\":\"focus\",\"trial\":2,\"time\":247449},{\"event\":\"blur\",\"trial\":2,\"time\":248895},{\"event\":\"focus\",\"trial\":2,\"time\":533207},{\"event\":\"blur\",\"trial\":3,\"time\":576381},{\"event\":\"focus\",\"trial\":3,\"time\":636277}]"}]