[{"view_history":[{"page_index":0,"viewing_time":4701.200000017881},{"page_index":1,"viewing_time":584903.7999999821},{"page_index":2,"viewing_time":1543.7000000178814},{"page_index":3,"viewing_time":863.7999999821186}],"rt":592012.8000000119,"trial_type":"instructions","trial_index":0,"time_elapsed":592019,"internal_node_id":"0.0-0.0","task_version":"prescreen-v0.3"},{"rt":15539.199999988079,"responses":{"age":"30","gender-categorical":"Male","gender-free-response":"","ethnicity":"Not Hispanic or Latino","race":["White"],"education":"Some college","siblings":"1"},"trial_type":"survey-demo","trial_index":1,"time_elapsed":607564,"internal_node_id":"0.0-1.0","task_version":"prescreen-v0.3"},{"responses":{"Q13":"2","Q07":"0","Q08":"0","Q19":"0","Q02":"2","Q01":"1","Q16":"1","Q10":"0","Q03":"0","Q09":"0","Q17":"0","Q11":"0","Q15":"1","Q20":"0","Q12":"0","Q18":"0","Q14":"0","Q06":"0","Q21":"3","Q05":"0","Q04":"0"},"rt":63605.09999999404,"item_order":[12,6,7,18,1,0,15,9,2,8,16,10,14,19,11,17,13,5,20,4,3],"radio_events":[5770.9000000059605,7851,13171,14115.09999999404,14771.09999999404,17010.80000001192,22570.90000000596,26683,29243.09999999404,29747.19999998808,33308.09999999404,33755,37427,39074.90000000596,42211,45106.90000000596,46018.80000001192,49130.90000000596,51730.90000000596,53506.80000001192,57666.90000000596,58579,59843,62506.80000001192],"key_events":[],"mouse_events":[5770.9000000059605,7851,8810.90000000596,10363.09999999404,13171,14115.09999999404,14771.09999999404,17010.80000001192,22570.90000000596,26683,27915.09999999404,29243.09999999404,29747.19999998808,31362.90000000596,31947.09999999404,33308.09999999404,33755,37427,39074.90000000596,42211,43611.09999999404,45106.90000000596,46018.80000001192,47378.90000000596,49130.90000000596,51730.90000000596,53506.80000001192,57666.90000000596,58579,59466.90000000596,59843,61219.09999999404,61627.19999998808,61931,62506.80000001192,63603.19999998808],"straightlining":0.7142857142857143,"zigzagging":0.3,"honeypot":0,"survey":"sns","trial_type":"survey-template","trial_index":2,"time_elapsed":671168,"internal_node_id":"0.0-2.0","task_version":"prescreen-v0.3","browser_interactions":0,"infrequency":0},{"responses":{"Q01":"3","Q08":"3","Q06":"3","Q13":"0","Q03":"3","Q10":"2","Q07":"2","Q05":"3","Q02":"3","Q11":"3","Q12":"2","Q09":"2","Q04":"3"},"rt":37451.5,"item_order":[0,7,5,12,2,9,6,4,1,10,11,8,3],"radio_events":[5457.799999982119,5954.299999982119,6754.199999988079,8922.199999988079,13393.899999976158,17378.09999999404,18458.19999998808,24218.19999998808,25162.19999998808,27938.09999999404,32570,35626.29999998212,36658.09999999404],"key_events":[],"mouse_events":[2226.199999988079,3618.2999999821186,5457.799999982119,5954.299999982119,6754.199999988079,8922.199999988079,13393.899999976158,16218.299999982119,17378.09999999404,18458.19999998808,21490.29999998212,22436.5,23178,24218.19999998808,25162.19999998808,27938.09999999404,29602.29999998212,32570,33834.29999998212,35218.19999998808,35626.29999998212,36658.09999999404,37450.19999998808],"straightlining":0.6153846153846154,"zigzagging":0.5,"honeypot":0,"survey":"bisbas","trial_type":"survey-template","trial_index":3,"time_elapsed":708622,"internal_node_id":"0.0-3.0","task_version":"prescreen-v0.3","browser_interactions":0,"infrequency":0},{"responses":{"Q01":"4","Q02":"4","Q03":"4"},"rt":9724,"radio_events":[4419.4000000059605,7692.0999999940395,9187.5],"key_events":[],"mouse_events":[4419.4000000059605,5579.5,7692.0999999940395,9187.5,9723.5],"survey":"map","page":1,"trial_type":"survey-map","trial_index":4,"time_elapsed":718354,"internal_node_id":"0.0-4.0","task_version":"prescreen-v0.3","browser_interactions":0},{"responses":{"Q04":"4","Q05":"4","Q06":"4"},"rt":10638,"radio_events":[5782.300000011921,6797.4000000059605,9997.40000000596],"key_events":[],"mouse_events":[4661.5,5782.300000011921,6797.4000000059605,8750.59999999404,9997.40000000596,10637.40000000596],"survey":"map","page":2,"trial_type":"survey-map","trial_index":5,"time_elapsed":728994,"internal_node_id":"0.0-5.0","task_version":"prescreen-v0.3","browser_interactions":0},{"responses":{"Q07":"4","Q08":"4","Q09":"4"},"rt":8942.300000011921,"radio_events":[3109.7000000178814,6893.5,7797.800000011921],"key_events":[],"mouse_events":[3109.7000000178814,5037.700000017881,6893.5,7797.800000011921,8941.700000017881],"survey":"map","page":3,"trial_type":"survey-map","trial_index":6,"time_elapsed":737938,"internal_node_id":"0.0-6.0","task_version":"prescreen-v0.3","browser_interactions":0},{"responses":{"Q10":"3","Q11":"2","Q12":"3","Q13":"2","Q16":"0","Q14":"4","Q15":"3"},"rt":26326.5,"radio_events":[7061.5,7973.5,11621.40000000596,13389.59999999404,19669.5,22253.5,23941.5],"key_events":[],"mouse_events":[5621.4000000059605,7061.5,7973.5,11621.40000000596,13389.59999999404,18989.69999998808,19669.5,22253.5,23941.5,26325.59999999404],"survey":"map","page":4,"trial_type":"survey-map","trial_index":7,"time_elapsed":764267,"internal_node_id":"0.0-7.0","task_version":"prescreen-v0.3","browser_interactions":0,"infrequency":0},{"view_history":[{"page_index":0,"viewing_time":382045.10000002384},{"page_index":1,"viewing_time":3024.0999999940395}],"rt":385069.8000000119,"trial_type":"instructions","trial_index":8,"time_elapsed":1149338,"internal_node_id":"0.0-8.0","task_version":"prescreen-v0.3"},{"responses":{"01":"Yes","01_ages_6":"6","01_ages_7":"7","01_ages_8":"8","01_ages_9":"9","01_ages_10":"10","01_ages_11":"11","01_ages_12":"12","01_ages_13":"13","01_ages_14":"14","01_ages_15":"15","01_ages_16":"16","01_ages_17":"17","01_ages_18":"18","02":"Yes","02_ages_6":"6","02_ages_7":"7","02_ages_8":"8","02_ages_9":"9","02_ages_10":"10","02_ages_11":"11","02_ages_12":"12","02_ages_13":"13","02_ages_14":"14","02_ages_15":"15","02_ages_16":"16","02_ages_17":"17","02_ages_18":"18","03":"Yes","03_ages_6":"6","03_ages_7":"7","03_ages_8":"8","03_ages_9":"9","03_ages_10":"10","03_ages_11":"11","03_ages_12":"12","03_ages_13":"13","03_ages_14":"14","03_ages_15":"15","03_ages_16":"16","03_ages_17":"17","04":"Yes","04_ages_7":"7","05":"No","06":"Yes","06_ages_9":"9","06_ages_11":"11"},"rt":78500.69999998808,"item_order":[0,1,2,3,4,5],"radio_events":[5769.5,17721.19999998808,38081.59999999404,54265.59999999404,64585.5,67145.40000000596],"checkbox_events":[12817.699999988079,13513.59999999404,13905.59999999404,14689.90000000596,15097.799999982119,15505.699999988079,16929.59999999404,21777.69999998808,22449.59999999404,23385.59999999404,23817.59999999404,28081.69999998808,28609.59999999404,29201.40000000596,30033.59999999404,31041.59999999404,32033.40000000596,32875.69999998808,33482.29999998212,34201.40000000596,34873.59999999404,40193.59999999404,40610.29999998212,41113.59999999404,41601.59999999404,42025.5,42769.40000000596,43513.29999998212,45009.59999999404,45754.19999998808,46641.29999998212,47105.59999999404,47673.59999999404,48065.5,48329.5,49065.40000000596,49753.5,50770.19999998808,51161.5,51593.5,56361.59999999404,56865.59999999404,57289.59999999404,59313.69999998808,61033.5,70937.5,73625.59999999404,74337.5,75585.59999999404],"key_events":[],"mouse_events":[0,4665.9000000059605,5769.5,11961.799999982119,12817.699999988079,13513.59999999404,13905.59999999404,14689.90000000596,15097.799999982119,15505.699999988079,16929.59999999404,17721.19999998808,19729.5,21777.69999998808,22449.59999999404,23121.59999999404,23385.59999999404,23817.59999999404,28081.69999998808,28609.59999999404,29201.40000000596,30033.59999999404,31041.59999999404,32033.40000000596,32875.69999998808,33482.29999998212,34201.40000000596,34873.59999999404,36457.5,38081.59999999404,40193.59999999404,40610.29999998212,41113.59999999404,41601.59999999404,42025.5,42473.5,42769.40000000596,43513.29999998212,44049.5,44513.59999999404,45009.59999999404,45754.19999998808,46641.29999998212,47105.59999999404,47673.59999999404,48065.5,48329.5,49065.40000000596,49753.5,50770.19999998808,51161.5,51593.5,54265.59999999404,56361.59999999404,56865.59999999404,57289.59999999404,58353.69999998808,59313.69999998808,61033.5,64585.5,67145.40000000596,70937.5,73297.5,73625.59999999404,74337.5,75585.59999999404,78498.09999999404],"honeypot":0,"survey":"mace","page":1,"trial_type":"survey-mace","trial_index":9,"time_elapsed":1227843,"internal_node_id":"0.0-9.0","task_version":"prescreen-v0.3","browser_interactions":0},{"responses":{"01":"Yes","01_ages_7":"7","02":"No","03":"Yes","03_ages_7":"7","03_ages_8":"8","03_ages_9":"9","03_ages_10":"10","04":"No","05":"No","06":"No","07":"No","08":"No"},"rt":29388.29999998212,"item_order":[0,1,2,3,4,5,6,7],"radio_events":[5224.799999982119,10601.299999982119,12233,20241.09999999404,21889.19999998808,24178.40000000596,25465,28553.09999999404],"checkbox_events":[6609.0999999940395,13521.90000000596,14369.90000000596,14857.09999999404,15353.09999999404],"key_events":[],"mouse_events":[5224.799999982119,6609.0999999940395,10601.299999982119,12233,13521.90000000596,13808.799999982119,14369.90000000596,14857.09999999404,15353.09999999404,20241.09999999404,21889.19999998808,23625.09999999404,24178.40000000596,25465,26593.19999998808,28553.09999999404,29385.09999999404],"honeypot":0,"survey":"mace","page":2,"trial_type":"survey-mace","trial_index":10,"time_elapsed":1257235,"internal_node_id":"0.0-10.0","task_version":"prescreen-v0.3","browser_interactions":0},{"responses":{"01":"No","02":"No","03":"No","04":"No"},"rt":5955.299999982119,"item_order":[0,1,2,3],"radio_events":[2537.699999988079,3713.5,4706.399999976158,5209.299999982119],"checkbox_events":[],"key_events":[],"mouse_events":[2537.699999988079,3713.5,4706.399999976158,5209.299999982119,5953.5],"honeypot":0,"survey":"mace","page":3,"trial_type":"survey-mace","trial_index":11,"time_elapsed":1263193,"internal_node_id":"0.0-11.0","task_version":"prescreen-v0.3","browser_interactions":0},{"responses":{"01":"No","02":"No"},"rt":4885.200000017881,"item_order":[0,1],"radio_events":[1716,3836.4000000059605],"checkbox_events":[],"key_events":[],"mouse_events":[1716,3836.4000000059605,4884.0999999940395],"honeypot":0,"survey":"mace","page":4,"trial_type":"survey-mace","trial_index":12,"time_elapsed":1268082,"internal_node_id":"0.0-12.0","task_version":"prescreen-v0.3","browser_interactions":0},{"responses":{"01":"Yes","01_ages_12":"12","02":"No","03":"No","04":"No","05":"No"},"rt":17231,"item_order":[0,1,2,3,4],"radio_events":[5972.4000000059605,11156.700000017881,12532.800000011921,13772.800000011921,16452.70000001788],"checkbox_events":[7604.800000011921],"key_events":[],"mouse_events":[4436.9000000059605,4988.4000000059605,5972.4000000059605,7604.800000011921,11156.700000017881,12532.800000011921,13772.800000011921,15116.90000000596,15972.300000011921,16452.70000001788,17228.70000001788],"honeypot":0,"survey":"mace","page":5,"trial_type":"survey-mace","trial_index":13,"time_elapsed":1285316,"internal_node_id":"0.0-13.0","task_version":"prescreen-v0.3","browser_interactions":0},{"responses":{"01":"Yes","01_ages_6":"6","01_ages_7":"7","01_ages_8":"8","01_ages_9":"9","01_ages_10":"10","01_ages_11":"11","01_ages_12":"12","01_ages_13":"13","01_ages_14":"14","01_ages_15":"15","01_ages_16":"16","01_ages_17":"17","01_ages_18":"18","02":"Yes","02_ages_6":"6","02_ages_7":"7","02_ages_8":"8","02_ages_9":"9","02_ages_10":"10","02_ages_11":"11","02_ages_12":"12","02_ages_13":"13","02_ages_14":"14","02_ages_15":"15","02_ages_16":"16","02_ages_17":"17","02_ages_18":"18","03":"Yes","03_ages_6":"6","03_ages_7":"7","03_ages_8":"8","03_ages_9":"9","03_ages_10":"10","03_ages_11":"11","03_ages_12":"12","03_ages_13":"13","03_ages_14":"14","03_ages_15":"15","03_ages_16":"16","03_ages_17":"17","03_ages_18":"18","04":"No","05":"No"},"rt":48243.90000000596,"item_order":[0,1,2,3,4],"radio_events":[3922,13265.800000011921,28761.80000001192,35162,47690.90000000596],"checkbox_events":[4993.800000011921,5346,6458,7177.800000011921,7633.800000011921,8353.800000011921,8945.90000000596,9265.800000011921,9666,10290.90000000596,11657.90000000596,14946.90000000596,15346.800000011921,15721.800000011921,16066,16505.90000000596,17473.69999998808,18129.80000001192,18889.80000001192,19553.59999999404,19897.90000000596,20650,21146,21657.90000000596,30481.69999998808,31233.90000000596,32650,33842,36377.69999998808,37218,37977.90000000596,38609.69999998808,39113.90000000596,39466,40241.80000001192,40801.90000000596,41345.80000001192,42898,43937.90000000596],"key_events":[],"mouse_events":[3922,4993.800000011921,5346,6458,7177.800000011921,7633.800000011921,8353.800000011921,8945.90000000596,9265.800000011921,9666,10290.90000000596,11657.90000000596,13265.800000011921,14946.90000000596,15346.800000011921,15721.800000011921,16066,16505.90000000596,17178.90000000596,17473.69999998808,18129.80000001192,18889.80000001192,19553.59999999404,19897.90000000596,20266,20650,21146,21657.90000000596,28761.80000001192,30137.90000000596,30481.69999998808,31233.90000000596,32650,33842,34538,35162,35785.80000001192,36377.69999998808,36753.80000001192,37218,37977.90000000596,38609.69999998808,39113.90000000596,39466,39825.90000000596,40241.80000001192,40801.90000000596,41345.80000001192,42898,43937.90000000596,46538,47690.90000000596,48241.80000001192],"honeypot":0,"survey":"mace","page":6,"trial_type":"survey-mace","trial_index":14,"time_elapsed":1333562,"internal_node_id":"0.0-14.0","task_version":"prescreen-v0.3","browser_interactions":0},{"responses":{"01":"No","02":"No","03":"No","04":"No","05":"No","06":"No","07":"No"},"rt":12477.40000000596,"item_order":[0,1,2,3,4,5,6],"radio_events":[2474.4000000059605,5066.800000011921,6530.9000000059605,8698.90000000596,9394.600000023842,11106.600000023842,11658.700000017881],"checkbox_events":[],"key_events":[],"mouse_events":[2474.4000000059605,5066.800000011921,6530.9000000059605,7562.800000011921,8698.90000000596,9394.600000023842,10722.800000011921,11106.600000023842,11658.700000017881,12474.300000011921],"honeypot":0,"survey":"mace","page":7,"trial_type":"survey-mace","trial_index":15,"time_elapsed":1346043,"internal_node_id":"0.0-15.0","task_version":"prescreen-v0.3","browser_interactions":0},{"responses":{"01":"No","02":"No","03":"Yes","03_ages_6":"6","03_ages_7":"7","03_ages_8":"8","03_ages_9":"9","03_ages_10":"10","03_ages_11":"11","03_ages_12":"12","03_ages_13":"13","03_ages_14":"14","03_ages_15":"15","03_ages_16":"16","03_ages_17":"17","03_ages_18":"18","04":"No"},"rt":27155.80000001192,"item_order":[0,1,2,3],"radio_events":[6241.200000017881,12969.200000017881,15641.300000011921,23329.30000001192],"checkbox_events":[17633.09999999404,18217.40000000596,18705.40000000596,19121.20000001788,20057.30000001192,20545.30000001192,21217.30000001192,24137.30000001192,24601.30000001192,25161.30000001192,25520.90000000596,25977.30000001192,26481.20000001788],"key_events":[],"mouse_events":[6241.200000017881,12969.200000017881,14465.300000011921,15641.300000011921,17633.09999999404,18016.80000001192,18217.40000000596,18705.40000000596,19121.20000001788,19466.20000001788,20057.30000001192,20545.30000001192,21217.30000001192,23329.30000001192,24137.30000001192,24601.30000001192,25161.30000001192,25520.90000000596,25977.30000001192,26481.20000001788,27154.09999999404],"honeypot":0,"survey":"mace","page":8,"trial_type":"survey-mace","trial_index":16,"time_elapsed":1373203,"internal_node_id":"0.0-16.0","task_version":"prescreen-v0.3","browser_interactions":0},{"responses":{"01":"Yes","01_ages_1":"1","01_ages_2":"2","01_ages_3":"3","01_ages_4":"4","01_ages_5":"5","01_ages_6":"6","01_ages_7":"7","01_ages_8":"8","01_ages_9":"9","01_ages_10":"10","01_ages_11":"11","01_ages_12":"12","01_ages_13":"13","01_ages_14":"14","01_ages_15":"15","01_ages_16":"16","01_ages_17":"17","01_ages_18":"18","02":"Yes","02_ages_1":"1","02_ages_2":"2","02_ages_3":"3","02_ages_4":"4","02_ages_5":"5","02_ages_6":"6","02_ages_7":"7","02_ages_8":"8","02_ages_9":"9","02_ages_10":"10","02_ages_11":"11","02_ages_12":"12","02_ages_13":"13","02_ages_14":"14","02_ages_15":"15","02_ages_16":"16","02_ages_17":"17","02_ages_18":"18","03":"Yes","03_ages_1":"1","03_ages_2":"2","03_ages_3":"3","03_ages_4":"4","03_ages_5":"5","03_ages_6":"6","03_ages_7":"7","03_ages_8":"8","03_ages_9":"9","03_ages_10":"10","03_ages_11":"11","03_ages_12":"12","03_ages_13":"13","03_ages_14":"14","03_ages_15":"15","03_ages_16":"16","03_ages_17":"17","03_ages_18":"18","04":"Yes","04_ages_1":"1","04_ages_2":"2","04_ages_3":"3","04_ages_4":"4","04_ages_5":"5","04_ages_6":"6","04_ages_7":"7","04_ages_8":"8","04_ages_9":"9","04_ages_10":"10","04_ages_11":"11","04_ages_12":"12","04_ages_13":"13","04_ages_14":"14","04_ages_15":"15","04_ages_16":"16","04_ages_17":"17","04_ages_18":"18"},"rt":84453.09999999404,"item_order":[0,1,2,3],"radio_events":[4114.9000000059605,31011.40000000596,48611.30000001192,50083.19999998808],"checkbox_events":[5458.9000000059605,5795.300000011921,6282.9000000059605,6643.800000011921,7426.9000000059605,8730.90000000596,9026.90000000596,9378.800000011921,10090.800000011921,10442.90000000596,10866.699999988079,11714.699999988079,12138.90000000596,19547,19986.90000000596,20938.90000000596,22275.90000000596,22771.90000000596,35035.5,35507.30000001192,38299.19999998808,38643.30000001192,39099.09999999404,39491.5,40403.30000001192,40923.30000001192,41675.19999998808,42139.30000001192,42755.19999998808,43115.19999998808,43627,44227.09999999404,45307.09999999404,46123.30000001192,46819.30000001192,47460.19999998808,52931.19999998808,53275.19999998808,53651.19999998808,54403.30000001192,55164,55507.19999998808,55915.19999998808,56187.40000000596,56787.30000001192,57187.30000001192,57795.30000001192,58619.80000001192,59339.09999999404,60035.30000001192,60700.30000001192,67747.09999999404,69147.30000001192,69771.30000001192,70299.09999999404,71523,72379.19999998808,72931.30000001192,73395.30000001192,73827.30000001192,74259.30000001192,75827.19999998808,76283.30000001192,76827.40000000596,77764.09999999404,78163.30000001192,78995.30000001192,79667.09999999404,80443.30000001192,81563.19999998808,82083.19999998808,82739.09999999404,83211.30000001192,83667.5],"key_events":[],"mouse_events":[3162.9000000059605,4114.9000000059605,5458.9000000059605,5795.300000011921,6282.9000000059605,6643.800000011921,6994.9000000059605,7426.9000000059605,7962.5999999940395,8730.90000000596,9026.90000000596,9378.800000011921,10090.800000011921,10442.90000000596,10866.699999988079,11234.90000000596,11714.699999988079,12138.90000000596,19146.90000000596,19547,19986.90000000596,20938.90000000596,21595,22275.90000000596,22771.90000000596,31011.40000000596,35035.5,35507.30000001192,38299.19999998808,38643.30000001192,39099.09999999404,39491.5,40403.30000001192,40923.30000001192,41275.40000000596,41675.19999998808,42139.30000001192,42755.19999998808,43115.19999998808,43627,44227.09999999404,45307.09999999404,45867,46123.30000001192,46595.09999999404,46819.30000001192,47460.19999998808,48611.30000001192,50083.19999998808,52092.09999999404,52931.19999998808,53275.19999998808,53651.19999998808,54403.30000001192,54821.69999998808,55164,55507.19999998808,55915.19999998808,56187.40000000596,56787.30000001192,57187.30000001192,57795.30000001192,58171.30000001192,58619.80000001192,59339.09999999404,60035.30000001192,60700.30000001192,67747.09999999404,68395.30000001192,69147.30000001192,69771.30000001192,70299.09999999404,70939.30000001192,71523,72379.19999998808,72931.30000001192,73395.30000001192,73827.30000001192,74259.30000001192,75827.19999998808,76283.30000001192,76827.40000000596,77764.09999999404,78163.30000001192,78995.30000001192,79667.09999999404,80147.30000001192,80443.30000001192,81563.19999998808,82083.19999998808,82739.09999999404,83211.30000001192,83667.5,84451.5],"honeypot":0,"survey":"mace","page":9,"trial_type":"survey-mace","trial_index":17,"time_elapsed":1457658,"internal_node_id":"0.0-17.0","task_version":"prescreen-v0.3","browser_interactions":6},{"responses":{"01":"No","02":"No","03":"No","04":"No","05":"Yes","05_ages_1":"1","05_ages_2":"2","05_ages_3":"3","05_ages_4":"4","05_ages_5":"5","05_ages_6":"6","06":"Yes","06_ages_17":"17","07":"No","08":"No"},"rt":58669.69999998808,"item_order":[0,1,2,3,4,5,6,7],"radio_events":[16475.59999999404,19242.5,20186.5,21602.5,39050.39999997616,46490.39999997616,46954.39999997616,49994.59999999404],"checkbox_events":[40474.39999997616,53730.19999998808,55218.59999999404,55642.5,56026.5,56802.59999999404,57146.79999998212],"key_events":[],"mouse_events":[16475.59999999404,17283.5,19242.5,20186.5,21602.5,24218.59999999404,39050.39999997616,40474.39999997616,45882.59999999404,46490.39999997616,46954.39999997616,47858.59999999404,49994.59999999404,53730.19999998808,54178.59999999404,55218.59999999404,55642.5,56026.5,56458.59999999404,56802.59999999404,57146.79999998212,58666.59999999404],"honeypot":0,"survey":"mace","page":10,"trial_type":"survey-mace","trial_index":18,"time_elapsed":1516333,"internal_node_id":"0.0-18.0","task_version":"prescreen-v0.3","browser_interactions":7,"instructed":0},{"rt":5914.300000011921,"trial_type":"mental-health-alert","trial_index":19,"time_elapsed":1522249,"internal_node_id":"0.0-19.0","task_version":"prescreen-v0.3","interactions":"[{\"event\":\"blur\",\"trial\":0,\"time\":11887},{\"event\":\"focus\",\"trial\":0,\"time\":588695},{\"event\":\"blur\",\"trial\":8,\"time\":769203},{\"event\":\"focus\",\"trial\":8,\"time\":1145179},{\"event\":\"blur\",\"trial\":17,\"time\":1386475},{\"event\":\"focus\",\"trial\":17,\"time\":1391083},{\"event\":\"blur\",\"trial\":17,\"time\":1397978},{\"event\":\"focus\",\"trial\":17,\"time\":1402903},{\"event\":\"blur\",\"trial\":17,\"time\":1434659},{\"event\":\"focus\",\"trial\":17,\"time\":1439690},{\"event\":\"blur\",\"trial\":18,\"time\":1461867},{\"event\":\"focus\",\"trial\":18,\"time\":1461875},{\"event\":\"blur\",\"trial\":18,\"time\":1486063},{\"event\":\"focus\",\"trial\":18,\"time\":1486068},{\"event\":\"blur\",\"trial\":18,\"time\":1486697},{\"event\":\"focus\",\"trial\":18,\"time\":1493645},{\"event\":\"focus\",\"trial\":18,\"time\":1493645}]"}]