[{"view_history":[{"page_index":0,"viewing_time":6098.699999809265},{"page_index":1,"viewing_time":4392.39999961853},{"page_index":2,"viewing_time":2180.9000005722046},{"page_index":3,"viewing_time":951.0999994277954}],"rt":13623.79999923706,"trial_type":"instructions","trial_index":0,"time_elapsed":13635,"internal_node_id":"0.0-0.0","task_version":"prescreen-v0.3"},{"rt":9580,"responses":{"age":"29","gender-categorical":"Male","gender-free-response":"","ethnicity":"Not Hispanic or Latino","race":["Asian"],"education":"Bachelor degree","siblings":"0"},"trial_type":"survey-demo","trial_index":1,"time_elapsed":23219,"internal_node_id":"0.0-1.0","task_version":"prescreen-v0.3"},{"responses":{"Q02":"0","Q16":"2","Q19":"2","Q17":"1","Q11":"1","Q12":"1","Q07":"1","Q05":"2","Q08":"3","Q15":"3","Q20":"0","Q01":"0","Q13":"2","Q03":"1","Q18":"1","Q06":"0","Q10":"2","Q21":"3","Q14":"2","Q09":"1","Q04":"1"},"rt":121448.4000005722,"item_order":[1,15,18,16,10,11,6,4,7,14,19,0,12,2,17,5,9,20,13,8,3],"radio_events":[8929.400000572205,10557.300000190735,16525.300000190735,63052.5,68525.60000038147,69487.30000019073,69815.4000005722,72590.70000076294,76960.20000076294,81693.30000019073,84256.30000019073,84586.70000076294,88609.60000038147,90313.5,92776.30000019073,93887.20000076294,95678.10000038147,98691.20000076294,103307.4000005722,103622.30000019073,105408.4000005722,107243.60000038147,111187.30000019073,114261.4000005722,119973.20000076294],"key_events":[],"mouse_events":[5985.300000190735,6361.60000038147,6809.10000038147,7256.200000762939,7532.400000572205,7950.300000190735,8458.400000572205,8929.400000572205,10557.300000190735,16525.300000190735,63052.5,66355.4000005722,66794.10000038147,67173,68525.60000038147,68946.4000005722,69223,69487.30000019073,69815.4000005722,72127.4000005722,72590.70000076294,76616.4000005722,76960.20000076294,81693.30000019073,83854.30000019073,84256.30000019073,84586.70000076294,88255.5,88609.60000038147,90051.5,90313.5,91996.5,92529.30000019073,92776.30000019073,93887.20000076294,95678.10000038147,98691.20000076294,103307.4000005722,103622.30000019073,105408.4000005722,107243.60000038147,111187.30000019073,114261.4000005722,119973.20000076294,121446.60000038147],"straightlining":0.38095238095238093,"zigzagging":0.45,"honeypot":0,"survey":"sns","trial_type":"survey-template","trial_index":2,"time_elapsed":144672,"internal_node_id":"0.0-2.0","task_version":"prescreen-v0.3","browser_interactions":2,"infrequency":0},{"responses":{"Q04":"2","Q09":"1","Q13":"0","Q11":"1","Q12":"1","Q06":"2","Q10":"1","Q07":"3","Q02":"2","Q05":"3","Q03":"2","Q08":"2","Q01":"3"},"rt":466212.9000005722,"item_order":[3,8,12,10,11,5,9,6,1,4,2,7,0],"radio_events":[437856.4000005722,440174.60000038147,441699.70000076294,447548.60000038147,448618.80000019073,451128.80000019073,452268.4000005722,455084.70000076294,455350.4000005722,456517.5,456832.60000038147,459676.4000005722,459910.60000038147,460210.5,461796.80000019073,463985.4000005722,465639.60000038147],"key_events":[],"mouse_events":[437856.4000005722,439763.5,440174.60000038147,441317.70000076294,441699.70000076294,447548.60000038147,448618.80000019073,450469.60000038147,450876.4000005722,451128.80000019073,451869.60000038147,452268.4000005722,454210.5,454573.4000005722,454853.60000038147,455084.70000076294,455350.4000005722,456206.60000038147,456517.5,456832.60000038147,459231.4000005722,459676.4000005722,459910.60000038147,460210.5,461796.80000019073,463492.5,463985.4000005722,465639.60000038147,466211.9000005722],"straightlining":0.38461538461538464,"zigzagging":0.75,"honeypot":0,"survey":"bisbas","trial_type":"survey-template","trial_index":3,"time_elapsed":610888,"internal_node_id":"0.0-3.0","task_version":"prescreen-v0.3","browser_interactions":0,"infrequency":0},{"responses":{"Q01":"2","Q02":"1","Q03":"2"},"rt":11059.89999961853,"radio_events":[4714.599999427795,7427.299999237061,10177.5],"key_events":[],"mouse_events":[4714.599999427795,7427.299999237061,9903.199999809265,10177.5,10710.39999961853,11059.39999961853],"survey":"map","page":1,"trial_type":"survey-map","trial_index":4,"time_elapsed":621951,"internal_node_id":"0.0-4.0","task_version":"prescreen-v0.3","browser_interactions":0},{"responses":{"Q04":"2","Q05":"1","Q06":"2"},"rt":16003.199999809265,"radio_events":[3650.699999809265,3978.800000190735,5350.699999809265,6289.699999809265,6871.800000190735,13514.900000572205,15295.800000190735],"key_events":[],"mouse_events":[2954.800000190735,3650.699999809265,3978.800000190735,4930.800000190735,5350.699999809265,6289.699999809265,6871.800000190735,13514.900000572205,14849.900000572205,15295.800000190735,16002.800000190735],"survey":"map","page":2,"trial_type":"survey-map","trial_index":5,"time_elapsed":637956,"internal_node_id":"0.0-5.0","task_version":"prescreen-v0.3","browser_interactions":0},{"responses":{"Q07":"2","Q08":"3","Q09":"3"},"rt":11474.300000190735,"radio_events":[6753.800000190735,7991.800000190735,10770.800000190735,11022.900000572205],"key_events":[],"mouse_events":[4065.699999809265,4645.900000572205,6518.699999809265,6753.800000190735,7361.60000038147,7991.800000190735,10242.699999809265,10770.800000190735,11022.900000572205,11473.800000190735],"survey":"map","page":3,"trial_type":"survey-map","trial_index":6,"time_elapsed":649432,"internal_node_id":"0.0-6.0","task_version":"prescreen-v0.3","browser_interactions":0},{"responses":{"Q10":"2","Q11":"1","Q12":"2","Q13":"1","Q16":"0","Q14":"1","Q15":"1"},"rt":2563279.599999428,"radio_events":[2547742.5,2549291.299999237,2550476.6999998093,2554200.6999998093,2556633.599999428,2556949.3999996185,2559219.599999428,2562008.3999996185],"key_events":[1569098],"mouse_events":[320.0999994277954,2546811.6999998093,2547742.5,2549291.299999237,2550476.6999998093,2553289.8999996185,2553808.3999996185,2554200.6999998093,2555579.8999996185,2556244.3999996185,2556633.599999428,2556949.3999996185,2558922.3999996185,2559219.599999428,2560684.5,2561138.599999428,2561796.6999998093,2562008.3999996185,2563278.6999998093],"survey":"map","page":4,"trial_type":"survey-map","trial_index":7,"time_elapsed":3212714,"internal_node_id":"0.0-7.0","task_version":"prescreen-v0.3","browser_interactions":26,"infrequency":0},{"view_history":[{"page_index":0,"viewing_time":1803.6000003814697},{"page_index":1,"viewing_time":1978.6999998092651}],"rt":3782.7000007629395,"trial_type":"instructions","trial_index":8,"time_elapsed":3216498,"internal_node_id":"0.0-8.0","task_version":"prescreen-v0.3"},{"responses":{"01":"No","02":"No","03":"No","04":"No","05":"No","06":"No"},"rt":18014.39999961853,"item_order":[0,1,2,3,4,5],"radio_events":[6687.5,12609.89999961853,13721.699999809265,14761.599999427795,15878.5,16441.39999961853,17507.5],"checkbox_events":[],"key_events":[],"mouse_events":[0,5962.699999809265,6687.5,12609.89999961853,13721.699999809265,14080.39999961853,14761.599999427795,15070.5,15571.300000190735,15878.5,16176.800000190735,16441.39999961853,16998.5,17507.5,18012],"honeypot":0,"survey":"mace","page":1,"trial_type":"survey-mace","trial_index":9,"time_elapsed":3234519,"internal_node_id":"0.0-9.0","task_version":"prescreen-v0.3","browser_interactions":0},{"responses":{"01":"Yes","01_ages_5":"5","01_ages_6":"6","01_ages_7":"7","01_ages_8":"8","01_ages_9":"9","02":"No","03":"Yes","03_ages_5":"5","03_ages_6":"6","03_ages_7":"7","03_ages_8":"8","03_ages_9":"9","03_ages_10":"10","03_ages_11":"11","03_ages_12":"12","04":"No","05":"No","06":"No","07":"No","08":"No"},"rt":33034.5,"item_order":[0,1,2,3,4,5,6,7],"radio_events":[2065.699999809265,3459.699999809265,4560.5,14087.5,15659.800000190735,27846.800000190735,28188.400000572205,29627.699999809265,30717.400000572205,32272.5],"checkbox_events":[7614.800000190735,7852.60000038147,8152,8460.60000038147,9084.400000572205,17407.800000190735,18308.60000038147,18614.699999809265,18963.5,19301.5,20015.5,20361.60000038147,20906.900000572205],"key_events":[],"mouse_events":[1610.6000003814697,2065.699999809265,3027.6000003814697,3459.699999809265,4317.199999809265,4560.5,7614.800000190735,7852.60000038147,8152,8460.60000038147,8759.5,9084.400000572205,14087.5,14510.5,15261.60000038147,15659.800000190735,17407.800000190735,17684.400000572205,18003.60000038147,18308.60000038147,18614.699999809265,18963.5,19301.5,19644.800000190735,20015.5,20361.60000038147,20906.900000572205,27846.800000190735,28188.400000572205,28694.400000572205,29251.5,29627.699999809265,30529.199999809265,30717.400000572205,31190.900000572205,31798.699999809265,32272.5,32691.199999809265,33031.699999809265],"honeypot":0,"survey":"mace","page":2,"trial_type":"survey-mace","trial_index":10,"time_elapsed":3267557,"internal_node_id":"0.0-10.0","task_version":"prescreen-v0.3","browser_interactions":0},{"responses":{"01":"No","02":"No","03":"No","04":"No"},"rt":6665.60000038147,"item_order":[0,1,2,3],"radio_events":[3004.800000190735,3709.6000003814697,5484.5,6109.800000190735],"checkbox_events":[],"key_events":[],"mouse_events":[2213.6000003814697,2655.6000003814697,3004.800000190735,3426.6000003814697,3709.6000003814697,4367.699999809265,4665.60000038147,5301.5,5484.5,5798.699999809265,6109.800000190735,6663.89999961853],"honeypot":0,"survey":"mace","page":3,"trial_type":"survey-mace","trial_index":11,"time_elapsed":3274225,"internal_node_id":"0.0-11.0","task_version":"prescreen-v0.3","browser_interactions":0},{"responses":{"01":"No","02":"No"},"rt":3848.800000190735,"item_order":[0,1],"radio_events":[1824.8999996185303,3439],"checkbox_events":[],"key_events":[],"mouse_events":[1569.8999996185303,1824.8999996185303,2169.699999809265,2510.800000190735,2919.699999809265,3439,3848],"honeypot":0,"survey":"mace","page":4,"trial_type":"survey-mace","trial_index":12,"time_elapsed":3278076,"internal_node_id":"0.0-12.0","task_version":"prescreen-v0.3","browser_interactions":0},{"responses":{"01":"No","02":"No","03":"Yes","03_ages_16":"16","04":"No","05":"No"},"rt":33380.699999809265,"item_order":[0,1,2,3,4],"radio_events":[2272.7999992370605,3415,4808.799999237061,5208.599999427795,7303.5,7811.799999237061,8149.89999961853,8678,29585.5],"checkbox_events":[32447.699999809265],"key_events":[],"mouse_events":[2272.7999992370605,2872.7999992370605,3415,4808.799999237061,5208.599999427795,5727.89999961853,6152.39999961853,6702.599999427795,7303.5,7811.799999237061,8149.89999961853,8678,29234.79999923706,29585.5,32042.89999961853,32447.699999809265,33378.89999961853],"honeypot":0,"survey":"mace","page":5,"trial_type":"survey-mace","trial_index":13,"time_elapsed":3311460,"internal_node_id":"0.0-13.0","task_version":"prescreen-v0.3","browser_interactions":0},{"responses":{"01":"No","02":"No","03":"No","04":"No","05":"No"},"rt":16630.60000038147,"item_order":[0,1,2,3,4],"radio_events":[13841.900000572205,14528,15121.10000038147,15327.900000572205,15612.900000572205,16242.800000190735],"checkbox_events":[],"key_events":[],"mouse_events":[12824,13228.800000190735,13621,13841.900000572205,14212.900000572205,14528,15121.10000038147,15327.900000572205,15612.900000572205,16069,16242.800000190735,16628.70000076294],"honeypot":0,"survey":"mace","page":6,"trial_type":"survey-mace","trial_index":14,"time_elapsed":3328094,"internal_node_id":"0.0-14.0","task_version":"prescreen-v0.3","browser_interactions":0},{"responses":{"01":"No","02":"No","03":"No","04":"No","05":"No","06":"No","07":"No"},"rt":11410.699999809265,"item_order":[0,1,2,3,4,5,6],"radio_events":[1789.3999996185303,2775.5,5930.199999809265,6321.300000190735,7713.300000190735,8135.5,9565.60000038147,10961.39999961853],"checkbox_events":[],"key_events":[],"mouse_events":[1460.3000001907349,1789.3999996185303,2305.3999996185303,2775.5,5608.5,5930.199999809265,6321.300000190735,6601.5,6908,7126.199999809265,7713.300000190735,8135.5,8726.5,9565.60000038147,10049.39999961853,10334,10961.39999961853,11408.199999809265],"honeypot":0,"survey":"mace","page":7,"trial_type":"survey-mace","trial_index":15,"time_elapsed":3339508,"internal_node_id":"0.0-15.0","task_version":"prescreen-v0.3","browser_interactions":0},{"responses":{"01":"No","02":"No","03":"No","04":"No"},"rt":17310.29999923706,"item_order":[0,1,2,3],"radio_events":[2106.8999996185303,7301.799999237061,12109.89999961853,15328.699999809265],"checkbox_events":[],"key_events":[],"mouse_events":[1361.6999998092651,2106.8999996185303,7301.799999237061,12109.89999961853,15328.699999809265,17308.699999809265],"honeypot":0,"survey":"mace","page":8,"trial_type":"survey-mace","trial_index":16,"time_elapsed":3356821,"internal_node_id":"0.0-16.0","task_version":"prescreen-v0.3","browser_interactions":0},{"responses":{"01":"Yes","01_ages_4":"4","01_ages_5":"5","01_ages_6":"6","01_ages_7":"7","01_ages_8":"8","02":"Yes","02_ages_4":"4","02_ages_5":"5","02_ages_6":"6","02_ages_7":"7","02_ages_8":"8","03":"Yes","03_ages_1":"1","03_ages_2":"2","03_ages_3":"3","03_ages_4":"4","03_ages_5":"5","03_ages_6":"6","03_ages_7":"7","03_ages_8":"8","03_ages_9":"9","03_ages_10":"10","03_ages_11":"11","03_ages_12":"12","03_ages_13":"13","03_ages_14":"14","03_ages_15":"15","03_ages_16":"16","03_ages_17":"17","03_ages_18":"18","04":"Yes","04_ages_1":"1","04_ages_2":"2","04_ages_3":"3","04_ages_4":"4","04_ages_5":"5","04_ages_6":"6","04_ages_7":"7","04_ages_8":"8","04_ages_9":"9","04_ages_10":"10","04_ages_11":"11","04_ages_12":"12","04_ages_13":"13","04_ages_14":"14","04_ages_15":"15","04_ages_16":"16","04_ages_17":"17","04_ages_18":"18"},"rt":50223,"item_order":[0,1,2,3],"radio_events":[5388.699999809265,6811.89999961853,16238.5,20459.89999961853,36125.79999923706],"checkbox_events":[10492.599999427795,10759.699999809265,11029.699999809265,11253.79999923706,12352.89999961853,13343.89999961853,13654.599999427795,16999.79999923706,17304.89999961853,17643.099999427795,17966.599999427795,18563.699999809265,23505,23730.89999961853,23967.699999809265,24202.699999809265,24625.699999809265,24956.599999427795,25315.099999427795,25731.5,26185.39999961853,26399.5,27130.599999427795,27790.599999427795,28256.599999427795,29171.79999923706,29568,30267.79999923706,30836.699999809265,31363.699999809265,36850.599999427795,37137.79999923706,37485.599999427795,38412.89999961853,38686.599999427795,40246.5,41371.599999427795,42069.5,42659,44178.89999961853,44437.79999923706,45470.599999427795,46014.699999809265,47298.79999923706,47670.89999961853,48338.699999809265,48839.599999427795,49797.89999961853],"key_events":[],"mouse_events":[4925.89999961853,5388.699999809265,6811.89999961853,10492.599999427795,10759.699999809265,11029.699999809265,11253.79999923706,11636,12352.89999961853,12734.79999923706,13036.699999809265,13343.89999961853,13654.599999427795,15808,16238.5,16999.79999923706,17304.89999961853,17643.099999427795,17966.599999427795,18339.699999809265,18563.699999809265,20041.599999427795,20459.89999961853,22511.699999809265,22746.5,22974.5,23230.89999961853,23505,23730.89999961853,23967.699999809265,24202.699999809265,24625.699999809265,24956.599999427795,25315.099999427795,25731.5,25985.599999427795,26185.39999961853,26399.5,26646.79999923706,26899.699999809265,27130.599999427795,27344.599999427795,27790.599999427795,28063,28256.599999427795,28540.79999923706,28945.89999961853,29171.79999923706,29568,29885.79999923706,30267.79999923706,30627.699999809265,30836.699999809265,31172.79999923706,31363.699999809265,36125.79999923706,36850.599999427795,37137.79999923706,37485.599999427795,37839.099999427795,38114.099999427795,38412.89999961853,38686.599999427795,38944.699999809265,39187.599999427795,39403.5,39609.699999809265,39828.5,40033.699999809265,40246.5,40619.79999923706,40919.39999961853,41150.5,41371.599999427795,41602.699999809265,41831.5,42069.5,42321.29999923706,42659,42980.599999427795,43328.599999427795,43614.599999427795,43909.699999809265,44178.89999961853,44437.79999923706,44769.89999961853,45115.5,45470.599999427795,45702.699999809265,46014.699999809265,46768.89999961853,47067.5,47298.79999923706,47670.89999961853,47988.79999923706,48338.699999809265,48839.599999427795,49147.699999809265,49424.699999809265,49797.89999961853,50221],"honeypot":0,"survey":"mace","page":9,"trial_type":"survey-mace","trial_index":17,"time_elapsed":3407047,"internal_node_id":"0.0-17.0","task_version":"prescreen-v0.3","browser_interactions":0},{"responses":{"01":"No","02":"No","03":"No","04":"No","05":"No","06":"Yes","06_ages_17":"17","07":"No","08":"No"},"rt":16111.5,"item_order":[0,1,2,3,4,5,6,7],"radio_events":[3426.3999996185303,3882.199999809265,4623.5,6583.5,7108.39999961853,11798.39999961853,13645.39999961853,13942.39999961853,14519.5,14824.199999809265],"checkbox_events":[12918.29999923706],"key_events":[],"mouse_events":[1906.1999998092651,2336.0999994277954,2687.0999994277954,3075.199999809265,3426.3999996185303,3882.199999809265,4243.5,4623.5,5005.299999237061,5387.099999427795,5699.199999809265,6583.5,7108.39999961853,11798.39999961853,12918.29999923706,13645.39999961853,13942.39999961853,14519.5,14824.199999809265,16108.599999427795],"honeypot":0,"survey":"mace","page":10,"trial_type":"survey-mace","trial_index":18,"time_elapsed":3423164,"internal_node_id":"0.0-18.0","task_version":"prescreen-v0.3","browser_interactions":0,"instructed":0},{"rt":1490.3999996185303,"trial_type":"mental-health-alert","trial_index":19,"time_elapsed":3424656,"internal_node_id":"0.0-19.0","task_version":"prescreen-v0.3","interactions":"[{\"event\":\"blur\",\"trial\":2,\"time\":40834},{\"event\":\"focus\",\"trial\":2,\"time\":79810},{\"event\":\"blur\",\"trial\":7,\"time\":652646},{\"event\":\"focus\",\"trial\":7,\"time\":1314478},{\"event\":\"blur\",\"trial\":7,\"time\":1315157},{\"event\":\"focus\",\"trial\":7,\"time\":1490359},{\"event\":\"blur\",\"trial\":7,\"time\":1490702},{\"event\":\"focus\",\"trial\":7,\"time\":1562870},{\"event\":\"blur\",\"trial\":7,\"time\":1563614},{\"event\":\"focus\",\"trial\":7,\"time\":1563701},{\"event\":\"blur\",\"trial\":7,\"time\":1563808},{\"event\":\"focus\",\"trial\":7,\"time\":1563820},{\"event\":\"blur\",\"trial\":7,\"time\":2177111},{\"event\":\"focus\",\"trial\":7,\"time\":2218464},{\"event\":\"blur\",\"trial\":7,\"time\":2219322},{\"event\":\"focus\",\"trial\":7,\"time\":2273388},{\"event\":\"blur\",\"trial\":7,\"time\":2273471},{\"event\":\"focus\",\"trial\":7,\"time\":2569434},{\"event\":\"blur\",\"trial\":7,\"time\":2570804},{\"event\":\"focus\",\"trial\":7,\"time\":2573337},{\"event\":\"blur\",\"trial\":7,\"time\":2576966},{\"event\":\"focus\",\"trial\":7,\"time\":2584149},{\"event\":\"blur\",\"trial\":7,\"time\":2584325},{\"event\":\"focus\",\"trial\":7,\"time\":2584414},{\"event\":\"blur\",\"trial\":7,\"time\":2584589},{\"event\":\"focus\",\"trial\":7,\"time\":2584605},{\"event\":\"blur\",\"trial\":7,\"time\":2585546},{\"event\":\"focus\",\"trial\":7,\"time\":3196163}]"}]