[{"view_history":[{"page_index":0,"viewing_time":7519.20000000298},{"page_index":1,"viewing_time":13747.39999999851},{"page_index":2,"viewing_time":2058.89999999851},{"page_index":3,"viewing_time":1023.9000000059605}],"rt":24350.20000000298,"trial_type":"instructions","trial_index":0,"time_elapsed":24471,"internal_node_id":"0.0-0.0","task_version":"prescreen-v0.3"},{"rt":19604.39999999851,"responses":{"age":"26","gender-categorical":"Male","gender-free-response":"","ethnicity":"Not Hispanic or Latino","race":["Black or African American"],"education":"Bachelor degree"},"trial_type":"survey-demo","trial_index":1,"time_elapsed":44080,"internal_node_id":"0.0-1.0","task_version":"prescreen-v0.3"},{"responses":{"Q06":"1","Q14":"2","Q08":"3","Q02":"0","Q07":"1","Q05":"0","Q01":"0","Q18":"0","Q15":"3","Q17":"1","Q19":"1","Q04":"0","Q03":"0","Q16":"1","Q13":"2","Q20":"1","Q09":"2","Q21":"3","Q11":"1","Q10":"1","Q12":"1"},"rt":327932.6000000015,"item_order":[5,13,7,1,6,4,0,17,14,16,18,3,2,15,12,19,8,20,10,9,11],"radio_events":[17059.80000000447,45736.10000000149,57481.30000000447,68494.5,82039.40000000596,89273.30000000447,93312.5,102020.30000000447,131854.90000000596,139549.30000000447,150000.80000000447,238334.90000000596,243376.1000000015,246874.5,255907.40000000596,263096,274109.90000000596,281039.700000003,288307.80000000447,297802.30000000447,303708.5,311785.90000000596,322057.200000003,326962],"key_events":[],"mouse_events":[17059.80000000447,45736.10000000149,57481.30000000447,68494.5,82039.40000000596,88013.40000000596,89273.30000000447,93312.5,102020.30000000447,131854.90000000596,139549.30000000447,150000.80000000447,238334.90000000596,243376.1000000015,246874.5,255143.20000000298,255907.40000000596,263096,274109.90000000596,280364.90000000596,281039.700000003,288307.80000000447,297802.30000000447,303708.5,311785.90000000596,322057.200000003,326962,327930.40000000596],"straightlining":0.42857142857142855,"zigzagging":0.6,"honeypot":0,"survey":"sns","trial_type":"survey-template","trial_index":2,"time_elapsed":372019,"internal_node_id":"0.0-2.0","task_version":"prescreen-v0.3","browser_interactions":0,"infrequency":0},{"responses":{"Q09":"3","Q13":"0","Q05":"3","Q06":"3","Q02":"2","Q12":"2","Q07":"3","Q08":"3","Q01":"3","Q10":"1","Q04":"3","Q03":"3","Q11":"2"},"rt":114114,"item_order":[8,12,4,5,1,11,6,7,0,9,3,2,10],"radio_events":[15484,19016.5,26509,34406.40000000596,38141.40000000596,46106.30000000447,82421.20000000298,85132.40000000596,91679.5,94211.30000000447,97608.90000000596,101817.30000000447,106620.70000000298,113146.40000000596],"key_events":[],"mouse_events":[15484,18465.60000000149,19016.5,25800.30000000447,26509,34406.40000000596,38141.40000000596,46106.30000000447,82421.20000000298,85132.40000000596,89868.70000000298,91679.5,94211.30000000447,97023.60000000149,97608.90000000596,101817.30000000447,106620.70000000298,113146.40000000596,114112.80000000447],"straightlining":0.6153846153846154,"zigzagging":0.4166666666666667,"honeypot":0,"survey":"bisbas","trial_type":"survey-template","trial_index":3,"time_elapsed":486136,"internal_node_id":"0.0-3.0","task_version":"prescreen-v0.3","browser_interactions":0,"infrequency":0},{"responses":{"Q01":"2","Q02":"2","Q03":"3"},"rt":57539.5,"radio_events":[41315.79999999702,46367.19999999553,56942],"key_events":[],"mouse_events":[40854.69999999553,41315.79999999702,46367.19999999553,56593.5,56942,57538.79999999702],"survey":"map","page":1,"trial_type":"survey-map","trial_index":4,"time_elapsed":543679,"internal_node_id":"0.0-4.0","task_version":"prescreen-v0.3","browser_interactions":0},{"responses":{"Q04":"3","Q05":"2","Q06":"3"},"rt":22013.39999999851,"radio_events":[6656.70000000298,11404,18615.20000000298,21225.20000000298],"key_events":[],"mouse_events":[6656.70000000298,11404,17209.30000000447,18615.20000000298,20854.89999999851,21225.20000000298,22012.80000000447],"survey":"map","page":2,"trial_type":"survey-map","trial_index":5,"time_elapsed":565695,"internal_node_id":"0.0-5.0","task_version":"prescreen-v0.3","browser_interactions":0},{"responses":{"Q07":"4","Q08":"4","Q09":"4"},"rt":115220.60000000149,"radio_events":[108165.89999999851,111585.79999999702,114634.5],"key_events":[],"mouse_events":[108165.89999999851,111585.79999999702,114634.5,115220.10000000149],"survey":"map","page":3,"trial_type":"survey-map","trial_index":6,"time_elapsed":680917,"internal_node_id":"0.0-6.0","task_version":"prescreen-v0.3","browser_interactions":0},{"responses":{"Q10":"2","Q11":"3","Q12":"3","Q13":"3","Q16":"0","Q14":"3","Q15":"3"},"rt":39430,"radio_events":[4902.10000000149,10459.5,13789.20000000298,25241.79999999702,31721.39999999851,36334,38707.60000000149],"key_events":[],"mouse_events":[4902.10000000149,10459.5,13789.20000000298,21101.70000000298,21731.89999999851,25241.79999999702,31721.39999999851,36334,38707.60000000149,39427.79999999702],"survey":"map","page":4,"trial_type":"survey-map","trial_index":7,"time_elapsed":720350,"internal_node_id":"0.0-7.0","task_version":"prescreen-v0.3","browser_interactions":0,"infrequency":0},{"view_history":[{"page_index":0,"viewing_time":4078.10000000149},{"page_index":1,"viewing_time":4758.60000000149}],"rt":8837.5,"trial_type":"instructions","trial_index":8,"time_elapsed":729190,"internal_node_id":"0.0-8.0","task_version":"prescreen-v0.3"},{"responses":{"01":"No","02":"No","03":"No","04":"No","05":"No","06":"No"},"rt":61073.10000000149,"item_order":[0,1,2,3,4,5],"radio_events":[25125.80000000447,41100.60000000149,55748.20000000298,57075.5,58605.80000000447,60473.39999999851],"checkbox_events":[],"key_events":[],"mouse_events":[0,24169.89999999851,25125.80000000447,41100.60000000149,55748.20000000298,57075.5,58605.80000000447,60473.39999999851,61070.10000000149],"honeypot":0,"survey":"mace","page":1,"trial_type":"survey-mace","trial_index":9,"time_elapsed":790270,"internal_node_id":"0.0-9.0","task_version":"prescreen-v0.3","browser_interactions":0},{"responses":{"01":"No","02":"No","03":"Yes","03_ages_8":"8","03_ages_9":"9","03_ages_10":"10","03_ages_11":"11","03_ages_12":"12","04":"No","05":"No","06":"No","07":"No","08":"No"},"rt":55514.70000000298,"item_order":[0,1,2,3,4,5,6,7],"radio_events":[2624.4000000059605,7056.80000000447,9903.10000000149,37454.10000000149,49716.5,52157.60000000149,53541.40000000596,54677.70000000298],"checkbox_events":[20455.40000000596,20894,21523.70000000298,23289.90000000596,25956.30000000447,29601.80000000447,30681.80000000447],"key_events":[],"mouse_events":[2624.4000000059605,7056.80000000447,9903.10000000149,20455.40000000596,20894,21523.70000000298,23289.90000000596,25956.30000000447,29601.80000000447,30681.80000000447,37454.10000000149,49716.5,52157.60000000149,53541.40000000596,54677.70000000298,55510.40000000596],"honeypot":0,"survey":"mace","page":2,"trial_type":"survey-mace","trial_index":10,"time_elapsed":845790,"internal_node_id":"0.0-10.0","task_version":"prescreen-v0.3","browser_interactions":0},{"responses":{"01":"No","02":"No","03":"No","04":"No"},"rt":8995.30000000447,"item_order":[0,1,2,3],"radio_events":[3626,5087.9000000059605,6257.9000000059605,7652.4000000059605,7923.4000000059605],"checkbox_events":[],"key_events":[],"mouse_events":[3626,5087.9000000059605,6257.9000000059605,7652.4000000059605,7923.4000000059605,8992],"honeypot":0,"survey":"mace","page":3,"trial_type":"survey-mace","trial_index":11,"time_elapsed":854788,"internal_node_id":"0.0-11.0","task_version":"prescreen-v0.3","browser_interactions":0},{"responses":{"01":"No","02":"No"},"rt":8544.89999999851,"item_order":[0,1],"radio_events":[2525.10000000149,6147.5],"checkbox_events":[],"key_events":[],"mouse_events":[2525.10000000149,6147.5,8543.69999999553],"honeypot":0,"survey":"mace","page":4,"trial_type":"survey-mace","trial_index":12,"time_elapsed":863335,"internal_node_id":"0.0-12.0","task_version":"prescreen-v0.3","browser_interactions":0},{"responses":{"01":"No","02":"No","03":"No","04":"No","05":"No"},"rt":98883.89999999851,"item_order":[0,1,2,3,4],"radio_events":[82650.10000000149,86047.60000000149,92124.39999999851,94848.5,95965.89999999851],"checkbox_events":[],"key_events":[],"mouse_events":[82650.10000000149,86047.60000000149,92124.39999999851,94848.5,95965.89999999851,98881.29999999702],"honeypot":0,"survey":"mace","page":5,"trial_type":"survey-mace","trial_index":13,"time_elapsed":962223,"internal_node_id":"0.0-13.0","task_version":"prescreen-v0.3","browser_interactions":0},{"responses":{"01":"No","02":"No","03":"No","04":"No","05":"No"},"rt":1170558.8999999985,"item_order":[0,1,2,3,4],"radio_events":[1164556.700000003,1165543.3999999985,1166457.700000003,1169160.5,1169919.700000003],"checkbox_events":[],"key_events":[],"mouse_events":[1164556.700000003,1165543.3999999985,1166457.700000003,1169160.5,1169919.700000003,1170556.3999999985],"honeypot":0,"survey":"mace","page":6,"trial_type":"survey-mace","trial_index":14,"time_elapsed":2132786,"internal_node_id":"0.0-14.0","task_version":"prescreen-v0.3","browser_interactions":0},{"responses":{"01":"No","02":"No","03":"No","04":"No","05":"No","06":"No","07":"No"},"rt":9041.5,"item_order":[0,1,2,3,4,5,6],"radio_events":[2243.89999999851,3478.3000000044703,4618.20000000298,5399.89999999851,6671.20000000298,7350.20000000298,8191.20000000298],"checkbox_events":[],"key_events":[],"mouse_events":[2243.89999999851,3478.3000000044703,4618.20000000298,5399.89999999851,6671.20000000298,7350.20000000298,8191.20000000298,9038.10000000149],"honeypot":0,"survey":"mace","page":7,"trial_type":"survey-mace","trial_index":15,"time_elapsed":2141832,"internal_node_id":"0.0-15.0","task_version":"prescreen-v0.3","browser_interactions":0},{"responses":{"01":"No","02":"Yes","02_ages_1":"1","02_ages_2":"2","02_ages_3":"3","02_ages_4":"4","02_ages_5":"5","02_ages_6":"6","02_ages_7":"7","02_ages_8":"8","02_ages_9":"9","02_ages_10":"10","02_ages_11":"11","02_ages_12":"12","02_ages_13":"13","02_ages_14":"14","02_ages_15":"15","02_ages_16":"16","02_ages_17":"17","02_ages_18":"18","03":"No","04":"No"},"rt":38535.40000000596,"item_order":[0,1,2,3],"radio_events":[4997,7049.30000000447,36437.80000000447,38008],"checkbox_events":[18232,19261.70000000298,20831.80000000447,21379.80000000447,21964.10000000149,22569.70000000298,23256,24030.70000000298,24870,25586.80000000447,26185,26776.30000000447,27470.10000000149,28091,28675,29347.30000000447,30275.60000000149,31654.80000000447],"key_events":[],"mouse_events":[4997,7049.30000000447,18232,19261.70000000298,20831.80000000447,21379.80000000447,21964.10000000149,22569.70000000298,23256,24030.70000000298,24870,25586.80000000447,26185,26776.30000000447,27470.10000000149,28091,28675,29347.30000000447,30275.60000000149,31012.10000000149,31654.80000000447,36437.80000000447,38008,38533.5],"honeypot":0,"survey":"mace","page":8,"trial_type":"survey-mace","trial_index":16,"time_elapsed":2180371,"internal_node_id":"0.0-16.0","task_version":"prescreen-v0.3","browser_interactions":0},{"responses":{"01":"Yes","01_ages_1":"1","01_ages_2":"2","01_ages_3":"3","01_ages_4":"4","01_ages_5":"5","01_ages_6":"6","01_ages_7":"7","01_ages_8":"8","01_ages_9":"9","01_ages_10":"10","01_ages_11":"11","01_ages_12":"12","01_ages_13":"13","01_ages_14":"14","01_ages_15":"15","01_ages_16":"16","01_ages_17":"17","01_ages_18":"18","02":"Yes","02_ages_1":"1","02_ages_2":"2","02_ages_3":"3","02_ages_4":"4","02_ages_5":"5","02_ages_6":"6","02_ages_7":"7","02_ages_8":"8","02_ages_9":"9","02_ages_10":"10","02_ages_11":"11","02_ages_12":"12","02_ages_13":"13","02_ages_14":"14","02_ages_15":"15","02_ages_16":"16","02_ages_17":"17","02_ages_18":"18","03":"Yes","03_ages_1":"1","03_ages_2":"2","03_ages_3":"3","03_ages_4":"4","03_ages_5":"5","03_ages_6":"6","03_ages_7":"7","03_ages_8":"8","03_ages_9":"9","03_ages_10":"10","03_ages_11":"11","03_ages_12":"12","03_ages_13":"13","03_ages_14":"14","03_ages_15":"15","03_ages_16":"16","03_ages_17":"17","03_ages_18":"18","04":"Yes","04_ages_1":"1","04_ages_2":"2","04_ages_3":"3","04_ages_4":"4","04_ages_5":"5","04_ages_6":"6","04_ages_7":"7","04_ages_8":"8","04_ages_9":"9","04_ages_10":"10","04_ages_11":"11","04_ages_12":"12","04_ages_13":"13","04_ages_14":"14","04_ages_15":"15","04_ages_16":"16","04_ages_17":"17","04_ages_18":"18"},"rt":76439.20000000298,"item_order":[0,1,2,3],"radio_events":[4815.0999999940395,26763.70000000298,44587.09999999404,61752.09999999404],"checkbox_events":[8977.29999999702,9721.79999999702,10247.69999999553,10941.29999999702,13080.89999999851,13847.29999999702,14460.69999999553,15059.09999999404,15775.09999999404,16315.19999999553,16914.20000000298,17534.59999999404,18389.09999999404,18980.70000000298,19644.89999999106,20601.39999999106,21361.09999999404,23215.20000000298,28516.79999999702,29356.09999999404,30232.20000000298,31373.09999999404,32109.20000000298,32686.20000000298,33328.79999999702,34066,34876.09999999404,35569.89999999106,36921,37702,38702.20000000298,40731.79999999702,41243.20000000298,41798.09999999404,43039,43652.39999999106,45967.70000000298,46580.59999999404,47157.09999999404,47769.79999999702,48552,49128.89999999106,49690.70000000298,50530.59999999404,51267.59999999404,53137,53809.09999999404,54545.89999999106,55305.20000000298,55934,56481,57159.89999999106,57948.29999999702,59065.20000000298,62898.20000000298,63584.70000000298,64329.59999999404,65066.79999999702,65636.09999999404,66403.09999999404,67228,67950.5,68658.70000000298,69491.09999999404,70272.09999999404,70922.20000000298,71659.79999999702,72280.29999999702,72988.20000000298,73843.20000000298,74434.09999999404,75222.79999999702],"key_events":[],"mouse_events":[4815.0999999940395,8977.29999999702,9721.79999999702,10247.69999999553,10941.29999999702,13080.89999999851,13847.29999999702,14460.69999999553,15059.09999999404,15775.09999999404,16315.19999999553,16914.20000000298,17534.59999999404,18389.09999999404,18980.70000000298,19644.89999999106,20601.39999999106,21361.09999999404,23215.20000000298,26763.70000000298,28516.79999999702,29356.09999999404,30232.20000000298,30846,31373.09999999404,32109.20000000298,32686.20000000298,33328.79999999702,34066,34876.09999999404,35569.89999999106,36292.59999999404,36921,37702,38702.20000000298,40731.79999999702,41243.20000000298,41798.09999999404,42440.89999999106,43039,43652.39999999106,44587.09999999404,45967.70000000298,46580.59999999404,47157.09999999404,47769.79999999702,48552,49128.89999999106,49690.70000000298,50530.59999999404,51267.59999999404,52187.59999999404,53137,53809.09999999404,54545.89999999106,55305.20000000298,55934,56481,57159.89999999106,57948.29999999702,58429.79999999702,59065.20000000298,61752.09999999404,62898.20000000298,63584.70000000298,64329.59999999404,65066.79999999702,65636.09999999404,66403.09999999404,67228,67950.5,68658.70000000298,69491.09999999404,70272.09999999404,70922.20000000298,71659.79999999702,72280.29999999702,72988.20000000298,73843.20000000298,74434.09999999404,75222.79999999702,76437.20000000298],"honeypot":0,"survey":"mace","page":9,"trial_type":"survey-mace","trial_index":17,"time_elapsed":2256813,"internal_node_id":"0.0-17.0","task_version":"prescreen-v0.3","browser_interactions":0},{"responses":{"01":"No","02":"No","03":"No","04":"No","05":"No","06":"Yes","06_ages_17":"17","07":"Yes","07_ages_1":"1","07_ages_2":"2","07_ages_3":"3","07_ages_4":"4","07_ages_5":"5","07_ages_6":"6","07_ages_7":"7","07_ages_8":"8","07_ages_9":"9","07_ages_10":"10","07_ages_11":"11","07_ages_12":"12","07_ages_13":"13","07_ages_14":"14","07_ages_15":"15","07_ages_16":"16","07_ages_17":"17","07_ages_18":"18","08":"Yes","08_ages_1":"1","08_ages_2":"2","08_ages_3":"3","08_ages_4":"4","08_ages_5":"5","08_ages_6":"6","08_ages_7":"7","08_ages_8":"8","08_ages_9":"9","08_ages_10":"10","08_ages_11":"11","08_ages_12":"12","08_ages_13":"13","08_ages_14":"14","08_ages_15":"15","08_ages_16":"16","08_ages_17":"17","08_ages_18":"18"},"rt":60074.70000000298,"item_order":[0,1,2,3,4,5,6,7],"radio_events":[2423.1000000089407,6176,10111,11506.20000000298,14886.60000000894,17741,21311.5,27598,45761.70000000298],"checkbox_events":[22669.5,31416.20000000298,32044,32738.10000000894,33328.90000000596,34212.60000000894,35730.90000000596,36315.10000000894,37008.90000000596,37862.79999999702,38505.40000000596,39322.70000000298,39914.10000000894,40724.29999999702,41476.10000000894,42198.60000000894,42885.10000000894,43513.29999999702,44118.90000000596,46725.79999999702,47316.60000000894,47981,48601.70000000298,49316.79999999702,49959.70000000298,51412.60000000894,51967,52623.79999999702,53361.40000000596,53988.90000000596,54565.79999999702,55098.5,55857.79999999702,56419.90000000596,56901.79999999702,58011.40000000596,59223.10000000894],"key_events":[],"mouse_events":[2423.1000000089407,6176,8111.20000000298,10111,11506.20000000298,14886.60000000894,17741,21311.5,22669.5,27598,31416.20000000298,32044,32738.10000000894,33328.90000000596,34212.60000000894,35730.90000000596,36315.10000000894,37008.90000000596,37862.79999999702,38505.40000000596,39322.70000000298,39914.10000000894,40724.29999999702,41476.10000000894,42198.60000000894,42885.10000000894,43513.29999999702,44118.90000000596,45761.70000000298,46725.79999999702,47316.60000000894,47981,48601.70000000298,49316.79999999702,49959.70000000298,50711,51412.60000000894,51967,52623.79999999702,53361.40000000596,53988.90000000596,54565.79999999702,55098.5,55857.79999999702,56419.90000000596,56901.79999999702,57631.90000000596,58011.40000000596,58712,59223.10000000894,60070.29999999702],"honeypot":0,"survey":"mace","page":10,"trial_type":"survey-mace","trial_index":18,"time_elapsed":2316892,"internal_node_id":"0.0-18.0","task_version":"prescreen-v0.3","browser_interactions":0,"instructed":0},{"rt":3007.6000000089407,"trial_type":"mental-health-alert","trial_index":19,"time_elapsed":2319902,"internal_node_id":"0.0-19.0","task_version":"prescreen-v0.3","interactions":"[]"}]