[{"view_history":[{"page_index":0,"viewing_time":6339.899999856949},{"page_index":1,"viewing_time":6814.799999952316},{"page_index":2,"viewing_time":8064.5},{"page_index":3,"viewing_time":2250}],"rt":23470.39999985695,"trial_type":"instructions","trial_index":0,"time_elapsed":23523,"internal_node_id":"0.0-0.0","task_version":"prescreen-v0.3"},{"rt":80938.59999990463,"responses":{"age":"19","gender-categorical":"Male","gender-free-response":"","ethnicity":"Not Hispanic or Latino","race":["White"],"education":"Some college","siblings":"0"},"trial_type":"survey-demo","trial_index":1,"time_elapsed":104483,"internal_node_id":"0.0-1.0","task_version":"prescreen-v0.3"},{"responses":{"Q13":"3","Q04":"2","Q03":"0","Q07":"1","Q21":"3","Q09":"2","Q17":"0","Q20":"1","Q15":"3","Q12":"3","Q06":"0","Q10":"3","Q16":"3","Q19":"2","Q18":"3","Q01":"0","Q05":"3","Q08":"3","Q11":"3","Q14":"3","Q02":"1"},"rt":186330.20000004768,"item_order":[12,3,2,6,20,8,16,19,14,11,5,9,15,18,17,0,4,7,10,13,1],"radio_events":[15247.5,35227.300000190735,38985.700000047684,51935.40000009537,56263.800000190735,65560.20000004768,77460.70000004768,82637.70000004768,87883.40000009537,94504.10000014305,99184.40000009537,104923.80000019073,110365.60000014305,121600.90000009537,131728.60000014305,134386.30000019073,143935.80000019073,149261.40000009537,155100.30000019073,161654.30000019073,165854.5,171281.70000004768,178987.80000019073,184738.20000004768],"key_events":[],"mouse_events":[14086.800000190735,15247.5,27403,31176,32259.700000047684,33895.5,35227.300000190735,38985.700000047684,51935.40000009537,56263.800000190735,63575.10000014305,64412.300000190735,65560.20000004768,77460.70000004768,82637.70000004768,87883.40000009537,94504.10000014305,99184.40000009537,104923.80000019073,110365.60000014305,120142.10000014305,121600.90000009537,131728.60000014305,134386.30000019073,142220.20000004768,143935.80000019073,149261.40000009537,155100.30000019073,158960.10000014305,159439.70000004768,161654.30000019073,165854.5,171281.70000004768,176953.5,178987.80000019073,184738.20000004768,186325.70000004768],"straightlining":0.5238095238095238,"zigzagging":0.5,"honeypot":0,"survey":"sns","trial_type":"survey-template","trial_index":2,"time_elapsed":290835,"internal_node_id":"0.0-2.0","task_version":"prescreen-v0.3","browser_interactions":0,"infrequency":0},{"responses":{"Q08":"1","Q13":"0","Q10":"2","Q02":"3","Q03":"3","Q01":"3","Q12":"2","Q07":"3","Q09":"3","Q11":"2","Q04":"2","Q06":"2","Q05":"3"},"rt":100547.5,"item_order":[7,12,9,1,2,0,11,6,8,10,3,5,4],"radio_events":[14956,18880.299999952316,35125.5,40565,47302.299999952316,53271.09999990463,61761.39999985695,66433,71468.70000004768,77889,84067.89999985695,89953.89999985695,99365.29999995232],"key_events":[],"mouse_events":[14956,18880.299999952316,33458.200000047684,35125.5,40565,46110.89999985695,47302.299999952316,52281.09999990463,53271.09999990463,59793.799999952316,61761.39999985695,66433,71468.70000004768,76476,77889,84067.89999985695,88618.09999990463,89953.89999985695,99365.29999995232,100545.89999985695],"straightlining":0.46153846153846156,"zigzagging":0.5,"honeypot":0,"survey":"bisbas","trial_type":"survey-template","trial_index":3,"time_elapsed":391397,"internal_node_id":"0.0-3.0","task_version":"prescreen-v0.3","browser_interactions":0,"infrequency":0},{"responses":{"Q01":"2","Q02":"1","Q03":"0"},"rt":95482.5,"radio_events":[68022.39999985695,82213.39999985695,93291.09999990463],"key_events":[],"mouse_events":[68022.39999985695,77589.70000004768,81189.79999995232,82213.39999985695,93291.09999990463,95481.59999990463],"survey":"map","page":1,"trial_type":"survey-map","trial_index":4,"time_elapsed":486891,"internal_node_id":"0.0-4.0","task_version":"prescreen-v0.3","browser_interactions":0},{"responses":{"Q04":"0","Q05":"0","Q06":"1"},"rt":42769.40000009537,"radio_events":[18723.900000095367,24816.799999952316,32902.5,41306.200000047684],"key_events":[],"mouse_events":[17127.799999952316,18723.900000095367,24816.799999952316,32902.5,38788.200000047684,41306.200000047684,42768.5],"survey":"map","page":2,"trial_type":"survey-map","trial_index":5,"time_elapsed":529671,"internal_node_id":"0.0-5.0","task_version":"prescreen-v0.3","browser_interactions":0},{"responses":{"Q07":"0","Q08":"0","Q09":"2"},"rt":26665.799999952316,"radio_events":[7836.799999952316,13595.399999856949,25035.200000047684],"key_events":[],"mouse_events":[7836.799999952316,13595.399999856949,23621.89999985695,25035.200000047684,26665],"survey":"map","page":3,"trial_type":"survey-map","trial_index":6,"time_elapsed":556346,"internal_node_id":"0.0-6.0","task_version":"prescreen-v0.3","browser_interactions":0},{"responses":{"Q10":"0","Q11":"0","Q12":"0","Q13":"1","Q16":"0","Q14":"0","Q15":"0"},"rt":67480,"radio_events":[6537.900000095367,12598.200000047684,17953.700000047684,27009.200000047684,32615.5,59463.60000014305,64365],"key_events":[],"mouse_events":[6537.900000095367,12598.200000047684,17953.700000047684,24631.800000190735,27009.200000047684,32615.5,38684.700000047684,59463.60000014305,64365,67478.60000014305],"survey":"map","page":4,"trial_type":"survey-map","trial_index":7,"time_elapsed":623839,"internal_node_id":"0.0-7.0","task_version":"prescreen-v0.3","browser_interactions":0,"infrequency":0},{"view_history":[{"page_index":0,"viewing_time":200769},{"page_index":1,"viewing_time":9118.5}],"rt":209890,"trial_type":"instructions","trial_index":8,"time_elapsed":833738,"internal_node_id":"0.0-8.0","task_version":"prescreen-v0.3"},{"responses":{"01":"Yes","01_ages_3":"3","01_ages_4":"4","01_ages_5":"5","01_ages_6":"6","01_ages_7":"7","01_ages_8":"8","01_ages_9":"9","01_ages_10":"10","01_ages_11":"11","01_ages_12":"12","01_ages_13":"13","01_ages_14":"14","01_ages_15":"15","01_ages_16":"16","01_ages_17":"17","02":"Yes","02_ages_4":"4","02_ages_5":"5","02_ages_6":"6","02_ages_7":"7","02_ages_9":"9","02_ages_10":"10","02_ages_11":"11","02_ages_12":"12","02_ages_13":"13","02_ages_14":"14","02_ages_16":"16","02_ages_17":"17","03":"Yes","03_ages_4":"4","03_ages_5":"5","03_ages_6":"6","03_ages_7":"7","03_ages_8":"8","03_ages_9":"9","04":"Yes","04_ages_6":"6","04_ages_7":"7","04_ages_8":"8","05":"No","06":"Yes","06_ages_2":"2","06_ages_3":"3","06_ages_4":"4","06_ages_5":"5","06_ages_6":"6","06_ages_7":"7","06_ages_8":"8","06_ages_9":"9"},"rt":193492.5,"item_order":[0,1,2,3,4,5],"radio_events":[12801.299999952316,79366.79999995232,122358.69999980927,151394.59999990463,165694.09999990463,171150],"checkbox_events":[23672.5,24933.299999952316,27790.89999985695,29231,31971.699999809265,34286.59999990463,36795.5,38519.199999809265,40039,41352,42685.5,43940.09999990463,45338.699999809265,46484.59999990463,47776.299999952316,48940,51264.89999985695,82520.59999990463,83676.19999980927,86702.09999990463,88785.69999980927,90325.39999985695,91846.29999995232,92920.79999995232,94660.69999980927,97453.39999985695,98832,100355.29999995232,101749.39999985695,103068.09999990463,104308.29999995232,105405.29999995232,107938.29999995232,108679.09999990463,110116.19999980927,112294.59999990463,113698.69999980927,127791.89999985695,128857.59999990463,129947.29999995232,132181.89999985695,134259.09999990463,145410,154364.5,157618.69999980927,159032,174253.69999980927,175214.19999980927,177371.89999985695,179943.39999985695,181705.79999995232,183579,184696.29999995232,185798.69999980927,186815.29999995232,187526.5],"key_events":[],"mouse_events":[0.19999980926513672,12801.299999952316,23672.5,24933.299999952316,27790.89999985695,29231,31971.699999809265,33199.09999990463,34286.59999990463,35636.09999990463,36795.5,38519.199999809265,40039,41352,42685.5,43940.09999990463,45338.699999809265,46484.59999990463,47776.299999952316,48940,50118.5,51264.89999985695,55665.5,62535.59999990463,79366.79999995232,82520.59999990463,83676.19999980927,86702.09999990463,88785.69999980927,90325.39999985695,91846.29999995232,92920.79999995232,94660.69999980927,97453.39999985695,98832,100355.29999995232,101749.39999985695,103068.09999990463,104308.29999995232,105405.29999995232,107938.29999995232,108679.09999990463,110116.19999980927,111223.39999985695,112294.59999990463,113698.69999980927,122358.69999980927,127791.89999985695,128857.59999990463,129947.29999995232,131154.5,132181.89999985695,134259.09999990463,145410,148527.39999985695,148746.5,151394.59999990463,154364.5,155419.09999990463,156256.29999995232,157618.69999980927,159032,165694.09999990463,171150,174253.69999980927,175214.19999980927,176300.59999990463,177371.89999985695,178786.5,179943.39999985695,181705.79999995232,183579,184696.29999995232,185798.69999980927,186815.29999995232,187526.5,191750.5,193487.59999990463],"honeypot":0,"survey":"mace","page":1,"trial_type":"survey-mace","trial_index":9,"time_elapsed":1027249,"internal_node_id":"0.0-9.0","task_version":"prescreen-v0.3","browser_interactions":0},{"responses":{"01":"Yes","01_ages_5":"5","01_ages_6":"6","02":"No","03":"Yes","03_ages_3":"3","03_ages_4":"4","03_ages_5":"5","03_ages_6":"6","03_ages_7":"7","04":"Yes","04_ages_4":"4","04_ages_5":"5","05":"Yes","05_ages_6":"6","05_ages_7":"7","06":"No","07":"No","08":"No"},"rt":95885,"item_order":[0,1,2,3,4,5,6,7],"radio_events":[12902.5,30019.299999952316,34217.5,34440.700000047684,53438.5,70709.40000009537,79610.40000009537,82709.59999990463,94412.20000004768],"checkbox_events":[16791.099999904633,21630.400000095367,42943.09999990463,43876,44979.700000047684,46030.90000009537,47049.59999990463,55433.40000009537,56788.90000009537,73454.79999995232,74462.20000004768],"key_events":[],"mouse_events":[12902.5,15717.900000095367,16791.099999904633,21630.400000095367,30019.299999952316,34217.5,34440.700000047684,42943.09999990463,43876,44979.700000047684,46030.90000009537,47049.59999990463,53438.5,55433.40000009537,56788.90000009537,70709.40000009537,72524.20000004768,73454.79999995232,74462.20000004768,78448.59999990463,79610.40000009537,82709.59999990463,85683.5,90732.90000009537,94412.20000004768,95878.70000004768],"honeypot":0,"survey":"mace","page":2,"trial_type":"survey-mace","trial_index":10,"time_elapsed":1123148,"internal_node_id":"0.0-10.0","task_version":"prescreen-v0.3","browser_interactions":0},{"responses":{"01":"No","02":"No","03":"No","04":"No"},"rt":27152.599999904633,"item_order":[0,1,2,3],"radio_events":[15216.599999904633,17800.200000047684,22344.099999904633,24592.700000047684],"checkbox_events":[],"key_events":[],"mouse_events":[15216.599999904633,17800.200000047684,22344.099999904633,24592.700000047684,27149.89999985695],"honeypot":0,"survey":"mace","page":3,"trial_type":"survey-mace","trial_index":11,"time_elapsed":1150313,"internal_node_id":"0.0-11.0","task_version":"prescreen-v0.3","browser_interactions":0},{"responses":{"01":"No","02":"Yes","02_ages_14":"14"},"rt":37988.800000190735,"item_order":[0,1],"radio_events":[27851,31831.200000047684],"checkbox_events":[36080.200000047684],"key_events":[],"mouse_events":[27851,31831.200000047684,36080.200000047684,37987.40000009537],"honeypot":0,"survey":"mace","page":4,"trial_type":"survey-mace","trial_index":12,"time_elapsed":1188312,"internal_node_id":"0.0-12.0","task_version":"prescreen-v0.3","browser_interactions":0},{"responses":{"01":"Yes","01_ages_3":"3","01_ages_4":"4","01_ages_5":"5","01_ages_6":"6","01_ages_7":"7","01_ages_8":"8","02":"No","03":"No","04":"No","05":"No"},"rt":151628.79999995232,"item_order":[0,1,2,3,4],"radio_events":[19866.799999952316,125257.40000009537,135928.40000009537,143111.40000009537,150075.90000009537],"checkbox_events":[90294.79999995232,98544.40000009537,100354.09999990463,101669.40000009537,104098.40000009537,105943.90000009537,107127.70000004768,111587.29999995232,114204.20000004768,115229.70000004768],"key_events":[131479.40000009537],"mouse_events":[19866.799999952316,90294.79999995232,92167.29999995232,98544.40000009537,100354.09999990463,101669.40000009537,104098.40000009537,105943.90000009537,107127.70000004768,111587.29999995232,114204.20000004768,115229.70000004768,125257.40000009537,135928.40000009537,143111.40000009537,145801.5,150075.90000009537,151625.29999995232],"honeypot":0,"survey":"mace","page":5,"trial_type":"survey-mace","trial_index":13,"time_elapsed":1339953,"internal_node_id":"0.0-13.0","task_version":"prescreen-v0.3","browser_interactions":0},{"responses":{"01":"Yes","01_ages_5":"5","01_ages_6":"6","01_ages_7":"7","01_ages_8":"8","01_ages_9":"9","01_ages_10":"10","01_ages_11":"11","01_ages_12":"12","01_ages_13":"13","01_ages_14":"14","01_ages_15":"15","01_ages_16":"16","01_ages_17":"17","01_ages_18":"18","02":"Yes","02_ages_4":"4","02_ages_5":"5","02_ages_6":"6","02_ages_7":"7","02_ages_8":"8","02_ages_9":"9","02_ages_10":"10","02_ages_11":"11","02_ages_12":"12","02_ages_13":"13","02_ages_14":"14","02_ages_15":"15","02_ages_16":"16","02_ages_17":"17","02_ages_18":"18","03":"Yes","03_ages_10":"10","03_ages_11":"11","03_ages_12":"12","03_ages_13":"13","03_ages_14":"14","03_ages_15":"15","03_ages_16":"16","03_ages_17":"17","03_ages_18":"18","04":"Yes","04_ages_11":"11","04_ages_12":"12","04_ages_13":"13","04_ages_14":"14","04_ages_15":"15","04_ages_16":"16","04_ages_17":"17","05":"Yes","05_ages_10":"10","05_ages_11":"11","05_ages_12":"12","05_ages_14":"14","05_ages_16":"16","05_ages_17":"17"},"rt":161213.19999980927,"item_order":[0,1,2,3,4],"radio_events":[16117.599999904633,58292.39999985695,103900.89999985695,121166.29999995232,137466.89999985695],"checkbox_events":[18560.699999809265,20119.599999904633,21734.099999904633,25317.5,26756.89999985695,28657.199999809265,30550.199999809265,32249.699999809265,34329.799999952316,35659,37030.299999952316,38548,39821.299999952316,42009.699999809265,61507,66916.69999980927,68978,70742.29999995232,72607.79999995232,76740.69999980927,78153.79999995232,79988.59999990463,81224.89999985695,82806.09999990463,84735.59999990463,85993.69999980927,87330.79999995232,89111.79999995232,90306.89999985695,93182.39999985695,94528.09999990463,106536.79999995232,107993.19999980927,109141.09999990463,110239.69999980927,111358,112396.59999990463,113353.29999995232,114222.29999995232,117048.79999995232,122721.5,124182.19999980927,125588.79999995232,126740.09999990463,127812.59999990463,128836.59999990463,129915,140759.79999995232,142762.39999985695,143878.5,145858.79999995232,147674.19999980927,149851,156524.89999985695,159484.29999995232],"key_events":[],"mouse_events":[12693.399999856949,14570.799999952316,16117.599999904633,18560.699999809265,20119.599999904633,21734.099999904633,24021.89999985695,25317.5,26756.89999985695,28657.199999809265,30550.199999809265,32249.699999809265,34329.799999952316,35659,37030.299999952316,38548,39821.299999952316,42009.699999809265,58292.39999985695,61507,63416.5,66457.5,66916.69999980927,68978,70742.29999995232,72607.79999995232,76740.69999980927,78153.79999995232,79988.59999990463,81224.89999985695,82806.09999990463,84735.59999990463,85993.69999980927,87330.79999995232,89111.79999995232,90306.89999985695,91693.29999995232,93182.39999985695,94528.09999990463,103900.89999985695,105386.39999985695,106536.79999995232,107993.19999980927,109141.09999990463,110239.69999980927,111358,112396.59999990463,113353.29999995232,114222.29999995232,115168.39999985695,117048.79999995232,121166.29999995232,122721.5,124182.19999980927,125588.79999995232,126740.09999990463,127812.59999990463,128836.59999990463,129915,136259.09999990463,137466.89999985695,140759.79999995232,141783.29999995232,142762.39999985695,143878.5,145858.79999995232,147674.19999980927,149851,154992.29999995232,156524.89999985695,159484.29999995232,161208.69999980927],"honeypot":0,"survey":"mace","page":6,"trial_type":"survey-mace","trial_index":14,"time_elapsed":1501178,"internal_node_id":"0.0-14.0","task_version":"prescreen-v0.3","browser_interactions":0},{"responses":{"01":"Yes","01_ages_12":"12","01_ages_16":"16","01_ages_17":"17","02":"No","03":"Yes","03_ages_13":"13","03_ages_16":"16","03_ages_17":"17","04":"No","05":"No","06":"No","07":"No"},"rt":62246.09999990463,"item_order":[0,1,2,3,4,5,6],"radio_events":[11446.799999952316,32660.200000047684,38243.299999952316,50077.200000047684,54519.299999952316,58713.09999990463,61121],"checkbox_events":[14930.400000095367,16766.900000095367,18396.799999952316,20400.400000095367,26502.400000095367,42348.799999952316,44032.59999990463,45182.09999990463],"key_events":[],"mouse_events":[9086.599999904633,10142,11446.799999952316,12985.5,14930.400000095367,16766.900000095367,18396.799999952316,20400.400000095367,25288.299999952316,26502.400000095367,31205,32660.200000047684,38243.299999952316,42348.799999952316,44032.59999990463,45182.09999990463,50077.200000047684,52848.5,54519.299999952316,58713.09999990463,61121,62241.5],"honeypot":0,"survey":"mace","page":7,"trial_type":"survey-mace","trial_index":15,"time_elapsed":1563442,"internal_node_id":"0.0-15.0","task_version":"prescreen-v0.3","browser_interactions":0},{"responses":{"01":"Yes","01_ages_1":"1","01_ages_2":"2","01_ages_3":"3","01_ages_4":"4","01_ages_5":"5","01_ages_6":"6","01_ages_7":"7","01_ages_8":"8","01_ages_9":"9","01_ages_10":"10","01_ages_11":"11","01_ages_12":"12","01_ages_13":"13","01_ages_14":"14","01_ages_16":"16","01_ages_17":"17","02":"Yes","02_ages_1":"1","02_ages_2":"2","02_ages_3":"3","02_ages_4":"4","02_ages_5":"5","02_ages_6":"6","02_ages_7":"7","02_ages_8":"8","02_ages_9":"9","02_ages_10":"10","02_ages_11":"11","02_ages_12":"12","02_ages_13":"13","02_ages_14":"14","02_ages_15":"15","02_ages_16":"16","03":"Yes","03_ages_3":"3","03_ages_4":"4","03_ages_5":"5","03_ages_6":"6","03_ages_7":"7","03_ages_8":"8","03_ages_9":"9","03_ages_10":"10","03_ages_11":"11","03_ages_12":"12","03_ages_13":"13","03_ages_14":"14","03_ages_16":"16","03_ages_17":"17","04":"Yes","04_ages_3":"3","04_ages_4":"4","04_ages_5":"5","04_ages_6":"6","04_ages_7":"7","04_ages_8":"8","04_ages_9":"9"},"rt":295484.09999990463,"item_order":[0,1,2,3],"radio_events":[13505.799999952316,85966,254542.09999990463,283825.09999990463],"checkbox_events":[47911.699999809265,50044.39999985695,51325.699999809265,52940.5,54222.299999952316,55306.59999990463,57460.699999809265,58610.799999952316,59900.5,60911.699999809265,61969.699999809265,63129.799999952316,64896.799999952316,66109,67646.19999980927,69030.59999990463,89326.5,90534.09999990463,91966.09999990463,93538.89999985695,95041.69999980927,96500.09999990463,98003.69999980927,99449,100957.59999990463,102271.69999980927,104300.69999980927,105703.79999995232,107325.39999985695,109019.29999995232,111150.69999980927,112906.5,259137.59999990463,260660.59999990463,261746.09999990463,262849.7999999523,263915.2999999523,264968.69999980927,265884.09999990463,267777.89999985695,268804,269996.19999980927,270916.09999990463,272452.09999990463,274420.39999985695,275510.39999985695,286666.39999985695,287506.2999999523,288585.5,289511.89999985695,289740,290633,291643.39999985695,292560.19999980927,293526.2999999523],"key_events":[],"mouse_events":[13505.799999952316,46731.799999952316,47911.699999809265,50044.39999985695,51325.699999809265,52940.5,54222.299999952316,55306.59999990463,56310.199999809265,57460.699999809265,58610.799999952316,59900.5,60911.699999809265,61969.699999809265,63129.799999952316,64896.799999952316,66109,67646.19999980927,69030.59999990463,84161.89999985695,85966,89326.5,90534.09999990463,91966.09999990463,93538.89999985695,95041.69999980927,96500.09999990463,98003.69999980927,99449,100957.59999990463,102271.69999980927,104300.69999980927,105703.79999995232,107325.39999985695,109019.29999995232,111150.69999980927,112906.5,254542.09999990463,259137.59999990463,260660.59999990463,261746.09999990463,262849.7999999523,263915.2999999523,264968.69999980927,265884.09999990463,266940.69999980927,267777.89999985695,268804,269996.19999980927,270916.09999990463,272452.09999990463,274420.39999985695,275510.39999985695,283825.09999990463,286666.39999985695,287506.2999999523,288585.5,289511.89999985695,289740,290633,291643.39999985695,292560.19999980927,293526.2999999523,295480.89999985695],"honeypot":0,"survey":"mace","page":8,"trial_type":"survey-mace","trial_index":16,"time_elapsed":1858937,"internal_node_id":"0.0-16.0","task_version":"prescreen-v0.3","browser_interactions":0},{"responses":{"01":"Yes","01_ages_1":"1","01_ages_2":"2","01_ages_3":"3","01_ages_4":"4","01_ages_5":"5","01_ages_6":"6","01_ages_7":"7","01_ages_8":"8","01_ages_9":"9","01_ages_10":"10","01_ages_11":"11","01_ages_12":"12","01_ages_13":"13","01_ages_14":"14","01_ages_15":"15","02":"Yes","02_ages_6":"6","02_ages_7":"7","02_ages_8":"8","02_ages_9":"9","02_ages_14":"14","02_ages_15":"15","02_ages_16":"16","03":"Yes","03_ages_1":"1","03_ages_2":"2","03_ages_3":"3","03_ages_4":"4","03_ages_5":"5","03_ages_6":"6","03_ages_7":"7","03_ages_8":"8","03_ages_9":"9","03_ages_10":"10","03_ages_11":"11","03_ages_12":"12","03_ages_13":"13","03_ages_14":"14","03_ages_15":"15","03_ages_16":"16","03_ages_17":"17","03_ages_18":"18","04":"Yes","04_ages_1":"1","04_ages_2":"2","04_ages_3":"3","04_ages_4":"4","04_ages_5":"5","04_ages_6":"6","04_ages_7":"7","04_ages_8":"8","04_ages_9":"9","04_ages_10":"10","04_ages_11":"11","04_ages_12":"12","04_ages_13":"13","04_ages_14":"14","04_ages_15":"15","04_ages_16":"16","04_ages_17":"17","04_ages_18":"18"},"rt":126337.79999995232,"item_order":[0,1,2,3],"radio_events":[6684.5,40932.299999952316,64655.89999985695,100728],"checkbox_events":[17601,18550.699999809265,20349.099999904633,21354.199999809265,22585.89999985695,23616.799999952316,24477.599999904633,25268.5,26278.099999904633,27278.39999985695,28290.299999952316,29267.699999809265,30790.099999904633,31982.299999952316,33052.299999952316,34184.5,36296.59999990463,43682.199999809265,44787.799999952316,46292.199999809265,47286.699999809265,50219.39999985695,51232.89999985695,52333.39999985695,67775.89999985695,68212.29999995232,68863.79999995232,71195.29999995232,72222,73238.19999980927,74611.19999980927,76171.89999985695,77955.5,79212.5,80308.5,81284.19999980927,82275.29999995232,83375.59999990463,84334.69999980927,85327.09999990463,86245.29999995232,88175.39999985695,89358.09999990463,91471.09999990463,103248.59999990463,105009.79999995232,106748.89999985695,107804,109033,110285.29999995232,111360.19999980927,112384.5,113443.09999990463,114548.79999995232,115497.39999985695,116971,118099.19999980927,119355.5,120410,121649.89999985695,123015.29999995232,124136],"key_events":[],"mouse_events":[6684.5,17601,18550.699999809265,20349.099999904633,21354.199999809265,22585.89999985695,23616.799999952316,24477.599999904633,25268.5,26278.099999904633,27278.39999985695,28290.299999952316,29267.699999809265,30790.099999904633,31982.299999952316,33052.299999952316,34184.5,36296.59999990463,40932.299999952316,42618.5,43682.199999809265,44787.799999952316,46292.199999809265,47286.699999809265,48873.09999990463,50219.39999985695,51232.89999985695,52333.39999985695,63477.699999809265,64655.89999985695,67775.89999985695,68212.29999995232,68863.79999995232,70047.79999995232,71195.29999995232,72222,73238.19999980927,74611.19999980927,76171.89999985695,77955.5,79212.5,80308.5,81284.19999980927,82275.29999995232,83375.59999990463,84334.69999980927,85327.09999990463,86245.29999995232,87295.59999990463,88175.39999985695,89358.09999990463,91471.09999990463,100728,103248.59999990463,104148,105009.79999995232,106748.89999985695,107804,109033,110285.29999995232,111360.19999980927,112384.5,113443.09999990463,114548.79999995232,115497.39999985695,116971,118099.19999980927,119355.5,120410,121649.89999985695,123015.29999995232,124136,126333.79999995232],"honeypot":0,"survey":"mace","page":9,"trial_type":"survey-mace","trial_index":17,"time_elapsed":1985289,"internal_node_id":"0.0-17.0","task_version":"prescreen-v0.3","browser_interactions":2},{"responses":{"01":"No","02":"No","03":"No","04":"No","05":"Yes","05_ages_3":"3","05_ages_4":"4","05_ages_5":"5","05_ages_6":"6","05_ages_7":"7","05_ages_8":"8","05_ages_9":"9","06":"Yes","06_ages_17":"17","07":"Yes","07_ages_1":"1","07_ages_2":"2","07_ages_3":"3","07_ages_4":"4","07_ages_5":"5","07_ages_6":"6","07_ages_7":"7","07_ages_8":"8","07_ages_9":"9","08":"No"},"rt":85288.09999990463,"item_order":[0,1,2,3,4,5,6,7],"radio_events":[9875.5,13008.5,20635.299999952316,25318.299999952316,30335.099999904633,47462.59999990463,59777.799999952316,78584.29999995232,82497.39999985695],"checkbox_events":[32326.299999952316,34280.09999990463,35237.89999985695,37643,39222.699999809265,40308.299999952316,41391.39999985695,51203,65320.5,67273.69999980927,68331,69828.69999980927,70866.09999990463,71848.29999995232,72906.29999995232,73768.59999990463,74715],"key_events":[],"mouse_events":[9875.5,11985.799999952316,13008.5,20635.299999952316,25318.299999952316,30335.099999904633,32326.299999952316,33132.299999952316,34280.09999990463,35237.89999985695,36216.5,37643,39222.699999809265,40308.299999952316,41391.39999985695,45550.89999985695,46266.5,47462.59999990463,51203,58318.89999985695,59777.799999952316,65320.5,66373,67273.69999980927,68331,69828.69999980927,70866.09999990463,71848.29999995232,72906.29999995232,73768.59999990463,74715,78584.29999995232,82497.39999985695,85282.69999980927],"honeypot":0,"survey":"mace","page":10,"trial_type":"survey-mace","trial_index":18,"time_elapsed":2070591,"internal_node_id":"0.0-18.0","task_version":"prescreen-v0.3","browser_interactions":0,"instructed":0},{"rt":12814.799999952316,"trial_type":"mental-health-alert","trial_index":19,"time_elapsed":2083417,"internal_node_id":"0.0-19.0","task_version":"prescreen-v0.3","interactions":"[{\"event\":\"blur\",\"trial\":17,\"time\":1954193},{\"event\":\"focus\",\"trial\":17,\"time\":1954458}]"}]