[{"view_history":[{"page_index":0,"viewing_time":3764.0999999046326},{"page_index":1,"viewing_time":3074.5},{"page_index":2,"viewing_time":3339.9000000953674},{"page_index":3,"viewing_time":993.7999999523163}],"rt":11173.400000095367,"trial_type":"instructions","trial_index":0,"time_elapsed":11232,"internal_node_id":"0.0-0.0","task_version":"prescreen-v0.3"},{"rt":8819.599999904633,"responses":{"age":"25","gender-categorical":"Female","gender-free-response":"","ethnicity":"Hispanic or Latino","race":["White"],"education":"High school"},"trial_type":"survey-demo","trial_index":1,"time_elapsed":20059,"internal_node_id":"0.0-1.0","task_version":"prescreen-v0.3"},{"responses":{"Q13":"2","Q02":"0","Q05":"0","Q20":"0","Q03":"0","Q04":"1","Q21":"3","Q15":"1","Q11":"1","Q06":"0","Q12":"0","Q16":"0","Q19":"0","Q01":"0","Q07":"0","Q18":"0","Q10":"1","Q17":"0","Q14":"0","Q09":"0","Q08":"0"},"rt":73275.79999995232,"item_order":[12,1,4,19,2,3,20,14,10,5,11,15,18,0,6,17,9,16,13,8,7],"radio_events":[4233.799999952316,7205.200000047684,12536.700000047684,14617.299999952316,18119.799999952316,23932.900000095367,30596,34315.10000014305,37971.700000047684,39460.5,40793,41955.799999952316,47821,48691.60000014305,50506.5,52387.700000047684,55761.5,57112.10000014305,59226.10000014305,63522.90000009537,70978.70000004768],"key_events":[],"mouse_events":[4233.799999952316,7205.200000047684,12536.700000047684,14617.299999952316,16024.400000095367,18119.799999952316,20321.799999952316,22844.5,23932.900000095367,28889.200000047684,29882.10000014305,30596,31962,34315.10000014305,36924.90000009537,37971.700000047684,39460.5,40793,41955.799999952316,45673.60000014305,46883.200000047684,47821,48691.60000014305,50506.5,52387.700000047684,54476.299999952316,55761.5,57112.10000014305,59226.10000014305,60409.90000009537,63522.90000009537,66608.5,70345.79999995232,70978.70000004768,73269.20000004768],"straightlining":0.7142857142857143,"zigzagging":0.2,"honeypot":0,"survey":"sns","trial_type":"survey-template","trial_index":2,"time_elapsed":93349,"internal_node_id":"0.0-2.0","task_version":"prescreen-v0.3","browser_interactions":0,"infrequency":0},{"responses":{"Q04":"2","Q13":"0","Q03":"2","Q01":"2","Q11":"1","Q07":"3","Q02":"3","Q08":"2","Q06":"1","Q09":"1","Q10":"1","Q12":"1","Q05":"3"},"rt":44291.700000047684,"item_order":[3,12,2,0,10,6,1,7,5,8,9,11,4],"radio_events":[6952.400000095367,9336.400000095367,14347.400000095367,15392.600000143051,19974.700000047684,22251.10000014305,23557,26865.200000047684,31852.799999952316,33082.700000047684,36338.700000047684,37328.5,43051.799999952316],"key_events":[],"mouse_events":[5688,6952.400000095367,9336.400000095367,14347.400000095367,15392.600000143051,19974.700000047684,22251.10000014305,23557,26865.200000047684,29855.200000047684,31852.799999952316,33082.700000047684,34698.90000009537,36338.700000047684,37328.5,38050.5,43051.799999952316,44288],"straightlining":0.38461538461538464,"zigzagging":0.25,"honeypot":0,"survey":"bisbas","trial_type":"survey-template","trial_index":3,"time_elapsed":137649,"internal_node_id":"0.0-3.0","task_version":"prescreen-v0.3","browser_interactions":0,"infrequency":0},{"responses":{"Q01":"3","Q02":"3","Q03":"2"},"rt":13856,"radio_events":[5584.299999952316,8708.5,12767.700000047684],"key_events":[],"mouse_events":[4320.799999952316,5584.299999952316,8708.5,12767.700000047684,13853.700000047684],"survey":"map","page":1,"trial_type":"survey-map","trial_index":4,"time_elapsed":151515,"internal_node_id":"0.0-4.0","task_version":"prescreen-v0.3","browser_interactions":0},{"responses":{"Q04":"2","Q05":"3","Q06":"2"},"rt":11569.400000095367,"radio_events":[3740.600000143051,7627.700000047684,9904.400000095367],"key_events":[],"mouse_events":[3740.600000143051,7627.700000047684,9904.400000095367,11567.700000047684],"survey":"map","page":2,"trial_type":"survey-map","trial_index":5,"time_elapsed":163089,"internal_node_id":"0.0-5.0","task_version":"prescreen-v0.3","browser_interactions":0},{"responses":{"Q07":"4","Q08":"4","Q09":"2"},"rt":12003.700000047684,"radio_events":[3578.5,5956.600000143051,10970.200000047684],"key_events":[],"mouse_events":[3578.5,5956.600000143051,9925.400000095367,10970.200000047684,12002.900000095367],"survey":"map","page":3,"trial_type":"survey-map","trial_index":6,"time_elapsed":175098,"internal_node_id":"0.0-6.0","task_version":"prescreen-v0.3","browser_interactions":0},{"responses":{"Q10":"2","Q11":"1","Q12":"2","Q13":"2","Q16":"0","Q14":"3","Q15":"2"},"rt":24460.39999985695,"radio_events":[2849.899999856949,5812.599999904633,9914.199999809265,14119.099999904633,16347.899999856949,19897.89999985695,23221.599999904633],"key_events":[],"mouse_events":[2849.899999856949,5812.599999904633,9914.199999809265,14119.099999904633,16347.899999856949,19897.89999985695,23221.599999904633,24457.199999809265],"survey":"map","page":4,"trial_type":"survey-map","trial_index":7,"time_elapsed":199565,"internal_node_id":"0.0-7.0","task_version":"prescreen-v0.3","browser_interactions":0,"infrequency":0},{"view_history":[{"page_index":0,"viewing_time":2705.7999999523163},{"page_index":1,"viewing_time":4062.0999999046326}],"rt":6769.599999904633,"trial_type":"instructions","trial_index":8,"time_elapsed":206339,"internal_node_id":"0.0-8.0","task_version":"prescreen-v0.3"},{"responses":{"01":"No","02":"No","03":"No","04":"No","05":"No","06":"Yes","06_ages_4":"4","06_ages_5":"5","06_ages_7":"7","06_ages_8":"8","06_ages_9":"9","06_ages_10":"10","06_ages_11":"11","06_ages_12":"12","06_ages_13":"13"},"rt":39721.5,"item_order":[0,1,2,3,4,5],"radio_events":[9451,13227.599999904633,15113.899999856949,21111.200000047684,24528.89999985695,26186.200000047684,28245],"checkbox_events":[31106,31817.700000047684,32862.799999952316,33480.299999952316,34465.89999985695,35484.200000047684,37160,37698,38662.299999952316],"key_events":[],"mouse_events":[0.20000004768371582,9451,13227.599999904633,15113.899999856949,20337,21111.200000047684,24528.89999985695,26186.200000047684,28245,31106,31817.700000047684,32862.799999952316,33480.299999952316,34465.89999985695,35083.200000047684,35484.200000047684,36461.799999952316,37160,37698,38662.299999952316,39713.200000047684],"honeypot":0,"survey":"mace","page":1,"trial_type":"survey-mace","trial_index":9,"time_elapsed":246082,"internal_node_id":"0.0-9.0","task_version":"prescreen-v0.3","browser_interactions":0},{"responses":{"01":"Yes","01_ages_8":"8","01_ages_9":"9","01_ages_10":"10","01_ages_11":"11","01_ages_12":"12","02":"No","03":"Yes","03_ages_8":"8","03_ages_9":"9","03_ages_10":"10","03_ages_11":"11","04":"Yes","04_ages_8":"8","04_ages_9":"9","04_ages_10":"10","04_ages_11":"11","05":"Yes","05_ages_8":"8","05_ages_9":"9","05_ages_10":"10","05_ages_11":"11","06":"Yes","06_ages_12":"12","06_ages_13":"13","06_ages_14":"14","07":"No","08":"No"},"rt":46876.60000014305,"item_order":[0,1,2,3,4,5,6,7],"radio_events":[2092.9000000953674,13970.5,15477.5,22792,30188,35613.90000009537,38157.700000047684,45872.700000047684],"checkbox_events":[4030.2999999523163,4714.600000143051,5219.200000047684,5922.5,6948.799999952316,16727.200000047684,17141.400000095367,17637.200000047684,18227.799999952316,23546.799999952316,24728.10000014305,25407.5,26072.299999952316,31749.700000047684,32606.60000014305,34661.5,39395.799999952316,40028.10000014305,41052.40000009537,41731.299999952316],"key_events":[],"mouse_events":[2092.9000000953674,4030.2999999523163,4714.600000143051,5219.200000047684,5922.5,6948.799999952316,12911.600000143051,13970.5,15477.5,16727.200000047684,17141.400000095367,17637.200000047684,18227.799999952316,22792,23546.799999952316,24061.299999952316,24728.10000014305,25407.5,26072.299999952316,30188,31749.700000047684,32606.60000014305,33305.700000047684,33949.60000014305,34661.5,35613.90000009537,38157.700000047684,39395.799999952316,40028.10000014305,40502.5,41052.40000009537,41731.299999952316,45872.700000047684,46865.700000047684],"honeypot":0,"survey":"mace","page":2,"trial_type":"survey-mace","trial_index":10,"time_elapsed":292969,"internal_node_id":"0.0-10.0","task_version":"prescreen-v0.3","browser_interactions":0},{"responses":{"01":"No","02":"No","03":"No","04":"No"},"rt":8485,"item_order":[0,1,2,3],"radio_events":[2956.2000000476837,3701.5,6365.899999856949,7241.299999952316],"checkbox_events":[],"key_events":[],"mouse_events":[2956.2000000476837,3701.5,5468.599999904633,6365.899999856949,7241.299999952316,8481.5],"honeypot":0,"survey":"mace","page":3,"trial_type":"survey-mace","trial_index":11,"time_elapsed":301459,"internal_node_id":"0.0-11.0","task_version":"prescreen-v0.3","browser_interactions":0},{"responses":{"01":"No","02":"No"},"rt":9573.600000143051,"item_order":[0,1],"radio_events":[2243.9000000953674,8714.600000143051],"checkbox_events":[],"key_events":[],"mouse_events":[2243.9000000953674,8714.600000143051,9570.900000095367],"honeypot":0,"survey":"mace","page":4,"trial_type":"survey-mace","trial_index":12,"time_elapsed":311038,"internal_node_id":"0.0-12.0","task_version":"prescreen-v0.3","browser_interactions":0},{"responses":{"01":"Yes","01_ages_8":"8","02":"No","03":"No","04":"Yes","04_ages_8":"8","05":"No"},"rt":22480.300000190735,"item_order":[0,1,2,3,4],"radio_events":[7031.200000047684,12700,14614.300000190735,17839.900000095367,21688.700000047684],"checkbox_events":[8817.5,18872],"key_events":[],"mouse_events":[7031.200000047684,8817.5,12700,14614.300000190735,17839.900000095367,18872,21688.700000047684,22476.800000190735],"honeypot":0,"survey":"mace","page":5,"trial_type":"survey-mace","trial_index":13,"time_elapsed":333522,"internal_node_id":"0.0-13.0","task_version":"prescreen-v0.3","browser_interactions":0},{"responses":{"01":"Yes","01_ages_6":"6","01_ages_7":"7","01_ages_8":"8","01_ages_9":"9","01_ages_10":"10","01_ages_11":"11","01_ages_12":"12","01_ages_13":"13","01_ages_14":"14","01_ages_15":"15","01_ages_16":"16","01_ages_17":"17","02":"Yes","02_ages_9":"9","02_ages_10":"10","02_ages_11":"11","02_ages_12":"12","02_ages_13":"13","02_ages_14":"14","02_ages_15":"15","03":"Yes","03_ages_12":"12","03_ages_13":"13","03_ages_14":"14","03_ages_15":"15","04":"Yes","04_ages_10":"10","04_ages_11":"11","04_ages_12":"12","04_ages_13":"13","04_ages_14":"14","04_ages_15":"15","05":"No"},"rt":43405.89999985695,"item_order":[0,1,2,3,4],"radio_events":[5883.399999856949,18558.89999985695,29589.39999985695,35651.59999990463,42515.89999985695],"checkbox_events":[7125.799999952316,7907.099999904633,8647.200000047684,9157.899999856949,9902.700000047684,10669,11402.599999904633,12053.899999856949,12699.599999904633,13453.299999952316,14375.700000047684,15530.399999856949,21212.39999985695,22326.200000047684,23086.5,23704.099999904633,25481.799999952316,26331,26860.700000047684,30981.200000047684,32053.599999904633,32508.599999904633,33146.39999985695,37050.200000047684,37647.09999990463,38135.700000047684,38862.09999990463,39588.799999952316,40145.09999990463],"key_events":[],"mouse_events":[5883.399999856949,7125.799999952316,7907.099999904633,8647.200000047684,9157.899999856949,9902.700000047684,10669,11402.599999904633,12053.899999856949,12699.599999904633,13453.299999952316,14375.700000047684,15530.399999856949,18558.89999985695,21212.39999985695,21830.5,22326.200000047684,23086.5,23704.099999904633,25481.799999952316,26331,26860.700000047684,29589.39999985695,30981.200000047684,32053.599999904633,32508.599999904633,33146.39999985695,35651.59999990463,37050.200000047684,37647.09999990463,38135.700000047684,38862.09999990463,39588.799999952316,40145.09999990463,42515.89999985695,43402.700000047684],"honeypot":0,"survey":"mace","page":6,"trial_type":"survey-mace","trial_index":14,"time_elapsed":376934,"internal_node_id":"0.0-14.0","task_version":"prescreen-v0.3","browser_interactions":0},{"responses":{"01":"No","02":"Yes","02_ages_14":"14","02_ages_15":"15","03":"No","04":"No","05":"No","06":"Yes","06_ages_14":"14","06_ages_15":"15","07":"Yes","07_ages_14":"14","07_ages_15":"15"},"rt":26864.700000047684,"item_order":[0,1,2,3,4,5,6],"radio_events":[4690.400000095367,6711.5,11614.400000095367,12375.5,15002.800000190735,19665.900000095367,22163.700000047684],"checkbox_events":[8090.600000143051,8993.400000095367,9517.900000095367,10528.400000095367,16849,18598.60000014305,23851.800000190735,24788.60000014305],"key_events":[],"mouse_events":[4690.400000095367,6711.5,8090.600000143051,8993.400000095367,9517.900000095367,10528.400000095367,11614.400000095367,12375.5,15002.800000190735,16849,18598.60000014305,19665.900000095367,22163.700000047684,23214.10000014305,23851.800000190735,24788.60000014305,26853.5],"honeypot":0,"survey":"mace","page":7,"trial_type":"survey-mace","trial_index":15,"time_elapsed":403804,"internal_node_id":"0.0-15.0","task_version":"prescreen-v0.3","browser_interactions":0},{"responses":{"01":"No","02":"No","03":"No","04":"Yes","04_ages_6":"6","04_ages_7":"7","04_ages_8":"8","04_ages_9":"9","04_ages_10":"10","04_ages_11":"11","04_ages_12":"12","04_ages_13":"13","04_ages_14":"14","04_ages_15":"15","04_ages_16":"16","04_ages_17":"17"},"rt":40291.299999952316,"item_order":[0,1,2,3],"radio_events":[11821.699999809265,23455.199999809265,23572.299999952316,24672.599999904633,26872,28948.799999952316],"checkbox_events":[13811.599999904633,14923.699999809265,15474.5,15997.099999904633,20043.5,20700.699999809265,21319.299999952316,22059.39999985695,30422.799999952316,31060.599999904633,31712.5,32416.39999985695,33319,34229.5,35370.299999952316,35999.699999809265,36943.59999990463,37540.5,38139.799999952316,38906.699999809265],"key_events":[],"mouse_events":[11821.699999809265,13811.599999904633,14252,14923.699999809265,15474.5,15997.099999904633,16613,20043.5,20700.699999809265,21319.299999952316,22059.39999985695,23455.199999809265,23572.299999952316,24672.599999904633,26872,28948.799999952316,30422.799999952316,31060.599999904633,31712.5,32416.39999985695,32925.299999952316,33319,34229.5,34934.39999985695,35370.299999952316,35999.699999809265,36943.59999990463,37540.5,38139.799999952316,38906.699999809265,40284.799999952316],"honeypot":0,"survey":"mace","page":8,"trial_type":"survey-mace","trial_index":16,"time_elapsed":444107,"internal_node_id":"0.0-16.0","task_version":"prescreen-v0.3","browser_interactions":0},{"responses":{"01":"Yes","01_ages_14":"14","01_ages_15":"15","01_ages_16":"16","02":"No","03":"No","04":"No"},"rt":20282.799999952316,"item_order":[0,1,2,3],"radio_events":[5799.400000095367,15518.799999952316,17453.299999952316,19219],"checkbox_events":[10419.799999952316,10848.799999952316,11466,12343.400000095367,13067.299999952316],"key_events":[],"mouse_events":[5799.400000095367,10419.799999952316,10848.799999952316,11466,11927.200000047684,12343.400000095367,13067.299999952316,15518.799999952316,17453.299999952316,19219,20277.200000047684],"honeypot":0,"survey":"mace","page":9,"trial_type":"survey-mace","trial_index":17,"time_elapsed":464405,"internal_node_id":"0.0-17.0","task_version":"prescreen-v0.3","browser_interactions":0},{"responses":{"01":"Yes","01_ages_4":"4","01_ages_5":"5","01_ages_6":"6","01_ages_7":"7","01_ages_8":"8","01_ages_9":"9","01_ages_10":"10","01_ages_11":"11","01_ages_12":"12","01_ages_13":"13","01_ages_14":"14","01_ages_15":"15","01_ages_16":"16","01_ages_17":"17","02":"Yes","02_ages_6":"6","02_ages_7":"7","02_ages_8":"8","02_ages_9":"9","02_ages_10":"10","02_ages_11":"11","02_ages_12":"12","02_ages_13":"13","02_ages_14":"14","02_ages_15":"15","03":"Yes","03_ages_10":"10","03_ages_11":"11","03_ages_12":"12","03_ages_13":"13","03_ages_14":"14","03_ages_15":"15","03_ages_16":"16","03_ages_17":"17","04":"Yes","04_ages_3":"3","04_ages_4":"4","04_ages_5":"5","04_ages_6":"6","04_ages_7":"7","04_ages_8":"8","04_ages_9":"9","04_ages_10":"10","04_ages_11":"11","04_ages_12":"12","04_ages_13":"13","04_ages_14":"14","04_ages_15":"15","04_ages_16":"16","04_ages_17":"17","04_ages_18":"18","05":"No","06":"Yes","06_ages_17":"17","07":"No","08":"No"},"rt":63170.700000047684,"item_order":[0,1,2,3,4,5,6,7],"radio_events":[3419.2000000476837,18016.799999952316,30546.099999904633,38424.89999985695,55655.89999985695,56632,60886.299999952316,62117.200000047684],"checkbox_events":[5902.599999904633,6746,7551.599999904633,8292.799999952316,9046.099999904633,9772.299999952316,10429.200000047684,10931.200000047684,11894.799999952316,12425.399999856949,12933.200000047684,13619.299999952316,14244.5,14745.399999856949,15484.799999952316,16518,19801.700000047684,20413.89999985695,21042.799999952316,21635.299999952316,22646.599999904633,23257,23907.39999985695,24667.700000047684,25897.599999904633,26711.39999985695,31537.39999985695,32139.799999952316,32677.599999904633,33519,34774.299999952316,35439.39999985695,35982.39999985695,37041,40102,40564.200000047684,41364.299999952316,42036.299999952316,42659.89999985695,43296.89999985695,43880.5,44368.89999985695,45326,46202.700000047684,46718.5,47343,47933.59999990463,48928.799999952316,49792.89999985695,52778.799999952316,58266.799999952316],"key_events":[],"mouse_events":[2163.5,3419.2000000476837,5902.599999904633,6746,7551.599999904633,8292.799999952316,9046.099999904633,9772.299999952316,10429.200000047684,10931.200000047684,11894.799999952316,12425.399999856949,12933.200000047684,13619.299999952316,14244.5,14745.399999856949,15484.799999952316,16518,18016.799999952316,19801.700000047684,20413.89999985695,21042.799999952316,21635.299999952316,22171.89999985695,22646.599999904633,23257,23907.39999985695,24667.700000047684,25443.700000047684,25897.599999904633,26711.39999985695,29716.299999952316,30546.099999904633,31537.39999985695,32139.799999952316,32677.599999904633,33519,34774.299999952316,35439.39999985695,35982.39999985695,37041,38424.89999985695,40102,40564.200000047684,41364.299999952316,42036.299999952316,42659.89999985695,43296.89999985695,43880.5,44368.89999985695,45326,46202.700000047684,46718.5,47343,47933.59999990463,48928.799999952316,49792.89999985695,50667.89999985695,52778.799999952316,55655.89999985695,56632,58266.799999952316,60886.299999952316,62117.200000047684,63160.200000047684],"honeypot":0,"survey":"mace","page":10,"trial_type":"survey-mace","trial_index":18,"time_elapsed":527588,"internal_node_id":"0.0-18.0","task_version":"prescreen-v0.3","browser_interactions":0,"instructed":0},{"rt":5459.199999809265,"trial_type":"mental-health-alert","trial_index":19,"time_elapsed":533052,"internal_node_id":"0.0-19.0","task_version":"prescreen-v0.3","interactions":"[]"}]