[{"view_history":[{"page_index":0,"viewing_time":2512.5},{"page_index":1,"viewing_time":1748.2999999523163},{"page_index":2,"viewing_time":1801},{"page_index":3,"viewing_time":1302.2000000476837}],"rt":7365.399999976158,"trial_type":"instructions","trial_index":0,"time_elapsed":7378,"internal_node_id":"0.0-0.0","task_version":"prescreen-v0.3"},{"rt":13340.699999928474,"responses":{"age":"18","gender-categorical":"Female","gender-free-response":"","ethnicity":"Not Hispanic or Latino","race":["White"],"education":"Some college"},"trial_type":"survey-demo","trial_index":1,"time_elapsed":20726,"internal_node_id":"0.0-1.0","task_version":"prescreen-v0.3"},{"responses":{"Q14":"2","Q21":"3","Q02":"1","Q07":"1","Q15":"2","Q16":"1","Q05":"0","Q08":"1","Q20":"1","Q18":"0","Q19":"1","Q12":"2","Q01":"1","Q06":"0","Q04":"0","Q09":"1","Q17":"1","Q11":"0","Q10":"0","Q03":"0","Q13":"0"},"rt":81872.19999992847,"item_order":[13,20,1,6,14,15,4,7,19,17,18,11,0,5,3,8,16,10,9,2,12],"radio_events":[8106.699999928474,10359.899999976158,14270.199999928474,19516.100000023842,29024.199999928474,32156.199999928474,35448.799999952316,40019,41225.60000002384,43677.199999928474,47939.10000002384,52349.5,55193.699999928474,61467.39999997616,65275.199999928474,70299.79999995232,73139.79999995232,75375.60000002384,76999,78645.10000002384,80302.10000002384],"key_events":[],"mouse_events":[6924.899999976158,8106.699999928474,10359.899999976158,14270.199999928474,19516.100000023842,29024.199999928474,32156.199999928474,35448.799999952316,38999.89999997616,40019,41225.60000002384,43677.199999928474,46699.60000002384,47939.10000002384,52349.5,55193.699999928474,60133.299999952316,61467.39999997616,65275.199999928474,70299.79999995232,73139.79999995232,75375.60000002384,76999,78645.10000002384,80302.10000002384,81868.29999995232],"straightlining":0.42857142857142855,"zigzagging":0.6,"honeypot":0,"survey":"sns","trial_type":"survey-template","trial_index":2,"time_elapsed":102605,"internal_node_id":"0.0-2.0","task_version":"prescreen-v0.3","browser_interactions":0,"infrequency":0},{"responses":{"Q06":"2","Q12":"2","Q13":"0","Q07":"2","Q09":"2","Q05":"3","Q10":"2","Q02":"2","Q03":"2","Q11":"2","Q01":"2","Q08":"3","Q04":"2"},"rt":44519.10000002384,"item_order":[5,11,12,6,8,4,9,1,2,10,0,7,3],"radio_events":[8913.400000095367,14375.200000047684,16157.800000071526,18983.300000071526,22046,25207.100000023842,26349.200000047684,29021.200000047684,31007.100000023842,35934.5,37384.700000047684,42271.800000071526,43569.700000047684],"key_events":[],"mouse_events":[8913.400000095367,14375.200000047684,16157.800000071526,18983.300000071526,22046,25207.100000023842,26349.200000047684,29021.200000047684,31007.100000023842,35934.5,37384.700000047684,39824.60000002384,42271.800000071526,43569.700000047684,44516.700000047684],"straightlining":0.7692307692307693,"zigzagging":0.3333333333333333,"honeypot":0,"survey":"bisbas","trial_type":"survey-template","trial_index":3,"time_elapsed":147128,"internal_node_id":"0.0-3.0","task_version":"prescreen-v0.3","browser_interactions":0,"infrequency":0},{"responses":{"Q01":"3","Q02":"3","Q03":"4"},"rt":19214,"radio_events":[8976.100000023842,12182.300000071526,18175.900000095367],"key_events":[],"mouse_events":[8976.100000023842,12182.300000071526,17132.200000047684,18175.900000095367,19212.800000071526],"survey":"map","page":1,"trial_type":"survey-map","trial_index":4,"time_elapsed":166351,"internal_node_id":"0.0-4.0","task_version":"prescreen-v0.3","browser_interactions":0},{"responses":{"Q04":"4","Q05":"3","Q06":"4"},"rt":14929.700000047684,"radio_events":[9878.100000023842,12058.400000095367,13939.800000071526],"key_events":[],"mouse_events":[9878.100000023842,12058.400000095367,13939.800000071526,14928.800000071526],"survey":"map","page":2,"trial_type":"survey-map","trial_index":5,"time_elapsed":181285,"internal_node_id":"0.0-5.0","task_version":"prescreen-v0.3","browser_interactions":0},{"responses":{"Q07":"2","Q08":"1","Q09":"4"},"rt":17497.199999928474,"radio_events":[7257.5,10069.899999976158,14158.5,16347],"key_events":[],"mouse_events":[7257.5,10069.899999976158,14158.5,16347,17496],"survey":"map","page":3,"trial_type":"survey-map","trial_index":6,"time_elapsed":198785,"internal_node_id":"0.0-6.0","task_version":"prescreen-v0.3","browser_interactions":0},{"responses":{"Q10":"3","Q11":"3","Q12":"3","Q13":"3","Q16":"0","Q14":"4","Q15":"3"},"rt":22415.200000047684,"radio_events":[3229.3000000715256,6675.600000023842,9660.5,13011.600000023842,15969.899999976158,19872.700000047684,21172],"key_events":[],"mouse_events":[3229.3000000715256,6675.600000023842,9660.5,13011.600000023842,15969.899999976158,19872.700000047684,21172,22413.899999976158],"survey":"map","page":4,"trial_type":"survey-map","trial_index":7,"time_elapsed":221200,"internal_node_id":"0.0-7.0","task_version":"prescreen-v0.3","browser_interactions":0,"infrequency":0},{"view_history":[{"page_index":0,"viewing_time":2509.100000023842},{"page_index":1,"viewing_time":3003.100000023842}],"rt":5512.899999976158,"trial_type":"instructions","trial_index":8,"time_elapsed":226714,"internal_node_id":"0.0-8.0","task_version":"prescreen-v0.3"},{"responses":{"01":"No","02":"No","03":"No","04":"No","05":"No","06":"No"},"rt":32439,"item_order":[0,1,2,3,4,5],"radio_events":[14573.200000047684,18036.400000095367,24866.400000095367,27978.5,28840.800000071526,30272.800000071526,31582.700000047684],"checkbox_events":[],"key_events":[],"mouse_events":[0,14573.200000047684,18036.400000095367,24866.400000095367,27978.5,28840.800000071526,30272.800000071526,31582.700000047684,32435.300000071526],"honeypot":0,"survey":"mace","page":1,"trial_type":"survey-mace","trial_index":9,"time_elapsed":259160,"internal_node_id":"0.0-9.0","task_version":"prescreen-v0.3","browser_interactions":0},{"responses":{"01":"No","02":"No","03":"Yes","03_ages_4":"4","03_ages_5":"5","03_ages_6":"6","03_ages_7":"7","03_ages_8":"8","03_ages_9":"9","04":"Yes","04_ages_4":"4","04_ages_5":"5","04_ages_6":"6","04_ages_7":"7","04_ages_8":"8","04_ages_9":"9","05":"No","06":"No","07":"No","08":"No"},"rt":44028.89999997616,"item_order":[0,1,2,3,4,5,6,7],"radio_events":[15438.200000047684,17345.899999976158,19470.700000047684,19877.600000023842,31874.700000047684,39204.60000002384,40184.799999952316,41688.60000002384,42926.5],"checkbox_events":[20943.799999952316,23668.799999952316,25108.399999976158,25550.299999952316,26039.700000047684,26606,32935.299999952316,33482.700000047684,34008.799999952316,35449.89999997616,35938.700000047684,36778.700000047684],"key_events":[],"mouse_events":[15438.200000047684,17345.899999976158,19470.700000047684,19877.600000023842,20943.799999952316,23668.799999952316,25108.399999976158,25550.299999952316,26039.700000047684,26606,31874.700000047684,32935.299999952316,33482.700000047684,34008.799999952316,34554.60000002384,35449.89999997616,35938.700000047684,36778.700000047684,39204.60000002384,40184.799999952316,41688.60000002384,42926.5,44024.39999997616],"honeypot":0,"survey":"mace","page":2,"trial_type":"survey-mace","trial_index":10,"time_elapsed":303193,"internal_node_id":"0.0-10.0","task_version":"prescreen-v0.3","browser_interactions":0},{"responses":{"01":"No","02":"No","03":"No","04":"No"},"rt":8566.099999904633,"item_order":[0,1,2,3],"radio_events":[3439.6999999284744,5876.699999928474,7012.899999976158,7840.099999904633],"checkbox_events":[],"key_events":[],"mouse_events":[3439.6999999284744,4426.599999904633,5876.699999928474,7012.899999976158,7840.099999904633,8563.5],"honeypot":0,"survey":"mace","page":3,"trial_type":"survey-mace","trial_index":11,"time_elapsed":311763,"internal_node_id":"0.0-11.0","task_version":"prescreen-v0.3","browser_interactions":0},{"responses":{"01":"No","02":"No"},"rt":9589.300000071526,"item_order":[0,1],"radio_events":[7143.5,8377],"checkbox_events":[],"key_events":[],"mouse_events":[7143.5,8377,9587.600000023842],"honeypot":0,"survey":"mace","page":4,"trial_type":"survey-mace","trial_index":12,"time_elapsed":321355,"internal_node_id":"0.0-12.0","task_version":"prescreen-v0.3","browser_interactions":0},{"responses":{"01":"No","02":"No","03":"No","04":"No","05":"No"},"rt":19545.600000023842,"item_order":[0,1,2,3,4],"radio_events":[13105.300000071526,14083.700000047684,16270.100000023842,18229.399999976158,18847.300000071526],"checkbox_events":[],"key_events":[],"mouse_events":[13105.300000071526,14083.700000047684,16270.100000023842,18229.399999976158,18847.300000071526,19542.300000071526],"honeypot":0,"survey":"mace","page":5,"trial_type":"survey-mace","trial_index":13,"time_elapsed":340907,"internal_node_id":"0.0-13.0","task_version":"prescreen-v0.3","browser_interactions":0},{"responses":{"01":"No","02":"Yes","02_ages_6":"6","02_ages_7":"7","02_ages_8":"8","02_ages_9":"9","02_ages_10":"10","02_ages_11":"11","02_ages_12":"12","02_ages_13":"13","02_ages_14":"14","03":"Yes","03_ages_14":"14","03_ages_15":"15","04":"No","05":"No"},"rt":36196.59999990463,"item_order":[0,1,2,3,4],"radio_events":[8453.799999952316,9678.299999952316,25332.199999928474,33452,35484.89999997616],"checkbox_events":[12391,13034.699999928474,13757.699999928474,14358.899999976158,14936.699999928474,15497.799999952316,16289,17093.199999928474,18430.299999952316,29518.599999904633,30242.599999904633],"key_events":[],"mouse_events":[8453.799999952316,9678.299999952316,12391,13034.699999928474,13757.699999928474,14358.899999976158,14936.699999928474,15497.799999952316,16289,17093.199999928474,18430.299999952316,25332.199999928474,29518.599999904633,30242.599999904633,33452,35484.89999997616,36193.09999990463],"honeypot":0,"survey":"mace","page":6,"trial_type":"survey-mace","trial_index":14,"time_elapsed":377106,"internal_node_id":"0.0-14.0","task_version":"prescreen-v0.3","browser_interactions":2},{"responses":{"01":"No","02":"No","03":"No","04":"No","05":"No","06":"No","07":"No"},"rt":16738.700000047684,"item_order":[0,1,2,3,4,5,6],"radio_events":[7953.700000047684,8790.399999976158,10984.300000071526,12055.800000071526,13529.100000023842,15330.200000047684,16053.399999976158],"checkbox_events":[],"key_events":[],"mouse_events":[7953.700000047684,8790.399999976158,10984.300000071526,12055.800000071526,13529.100000023842,15330.200000047684,16053.399999976158,16733.800000071526],"honeypot":0,"survey":"mace","page":7,"trial_type":"survey-mace","trial_index":15,"time_elapsed":393848,"internal_node_id":"0.0-15.0","task_version":"prescreen-v0.3","browser_interactions":0},{"responses":{"01":"Yes","01_ages_13":"13","01_ages_14":"14","01_ages_15":"15","01_ages_16":"16","01_ages_17":"17","02":"No","03":"Yes","03_ages_10":"10","03_ages_11":"11","03_ages_12":"12","03_ages_13":"13","03_ages_14":"14","03_ages_15":"15","03_ages_16":"16","03_ages_17":"17","03_ages_18":"18","04":"No"},"rt":45180.39999997616,"item_order":[0,1,2,3],"radio_events":[12043,23798.699999928474,28640.799999952316,43652.299999952316],"checkbox_events":[13969.299999952316,14739.899999976158,15637.699999928474,16499.799999952316,17495.099999904633,31542.699999928474,32365.5,33132.89999997616,33950.299999952316,34595.199999928474,36870.299999952316,37642.59999990463,39633.39999997616,42520.59999990463],"key_events":[],"mouse_events":[12043,13969.299999952316,14739.899999976158,15637.699999928474,16499.799999952316,17495.099999904633,23798.699999928474,28640.799999952316,31542.699999928474,32365.5,33132.89999997616,33950.299999952316,34595.199999928474,35272.09999990463,36505.39999997616,36870.299999952316,37642.59999990463,38862.5,39633.39999997616,40648.09999990463,41475.699999928474,42520.59999990463,43652.299999952316,45177],"honeypot":0,"survey":"mace","page":8,"trial_type":"survey-mace","trial_index":16,"time_elapsed":439030,"internal_node_id":"0.0-16.0","task_version":"prescreen-v0.3","browser_interactions":0},{"responses":{"01":"Yes","01_ages_1":"1","01_ages_2":"2","01_ages_3":"3","01_ages_4":"4","01_ages_5":"5","01_ages_6":"6","01_ages_7":"7","01_ages_8":"8","01_ages_9":"9","01_ages_10":"10","01_ages_11":"11","01_ages_12":"12","01_ages_13":"13","01_ages_14":"14","01_ages_15":"15","01_ages_16":"16","01_ages_17":"17","01_ages_18":"18","02":"Yes","02_ages_1":"1","02_ages_2":"2","02_ages_3":"3","02_ages_4":"4","02_ages_5":"5","02_ages_6":"6","02_ages_7":"7","02_ages_8":"8","02_ages_9":"9","02_ages_10":"10","02_ages_11":"11","02_ages_12":"12","02_ages_13":"13","02_ages_14":"14","02_ages_15":"15","02_ages_16":"16","03":"Yes","03_ages_1":"1","03_ages_2":"2","03_ages_3":"3","03_ages_4":"4","03_ages_5":"5","03_ages_6":"6","03_ages_7":"7","03_ages_8":"8","03_ages_9":"9","03_ages_10":"10","03_ages_11":"11","03_ages_12":"12","03_ages_13":"13","03_ages_14":"14","03_ages_15":"15","03_ages_16":"16","03_ages_17":"17","03_ages_18":"18","04":"Yes","04_ages_1":"1","04_ages_2":"2","04_ages_3":"3","04_ages_4":"4","04_ages_5":"5","04_ages_6":"6","04_ages_7":"7","04_ages_8":"8","04_ages_9":"9","04_ages_10":"10","04_ages_11":"11","04_ages_12":"12","04_ages_13":"13","04_ages_14":"14","04_ages_15":"15","04_ages_16":"16","04_ages_17":"17","04_ages_18":"18"},"rt":71763.90000009537,"item_order":[0,1,2,3],"radio_events":[4889.800000071526,28667,50334.10000002384,62750.40000009537],"checkbox_events":[8359.600000023842,9069.200000047684,10507.600000023842,12077.5,12896.600000023842,13874.700000047684,14750.400000095367,15499,16681.200000047684,17382.700000047684,18703.300000071526,19553.700000047684,21390.900000095367,22334.100000023842,23318.800000071526,24170.600000023842,25167.300000071526,26118.800000071526,32326.700000047684,33117.5,34006.5,35690.800000071526,36464.90000009537,37314,38146.200000047684,39066.700000047684,39999,40874.700000047684,43030.90000009537,43810.700000047684,44670.800000071526,45553.300000071526,46401.90000009537,47291.800000071526,53086.40000009537,53625.200000047684,54051,54508.60000002384,54942.40000009537,55329.200000047684,55707.10000002384,56074.10000002384,56402.200000047684,56777.300000071526,57124.40000009537,57484.5,57850.800000071526,58165.300000071526,58443.5,58810,59067.90000009537,59307.90000009537,63771.60000002384,64103.5,64383.60000002384,64724.60000002384,65041.40000009537,65371.800000071526,65675.40000009537,66022.40000009537,66369.70000004768,66686.70000004768,67050.20000004768,67367.40000009537,67703.5,68013.90000009537,68352.10000002384,68637.70000004768,68917.70000004768,69135.20000004768],"key_events":[],"mouse_events":[4889.800000071526,8359.600000023842,9069.200000047684,9847.100000023842,10507.600000023842,11246.5,12077.5,12896.600000023842,13874.700000047684,14750.400000095367,15499,16681.200000047684,17382.700000047684,18703.300000071526,19553.700000047684,21390.900000095367,22334.100000023842,23318.800000071526,24170.600000023842,25167.300000071526,26118.800000071526,28667,32326.700000047684,33117.5,34006.5,35690.800000071526,36464.90000009537,37314,38146.200000047684,39066.700000047684,39999,40874.700000047684,43030.90000009537,43810.700000047684,44670.800000071526,45553.300000071526,46401.90000009537,47291.800000071526,49321.40000009537,50334.10000002384,53086.40000009537,53625.200000047684,54051,54508.60000002384,54942.40000009537,55329.200000047684,55707.10000002384,56074.10000002384,56402.200000047684,56777.300000071526,57124.40000009537,57484.5,57850.800000071526,58165.300000071526,58443.5,58810,59067.90000009537,59307.90000009537,62750.40000009537,63771.60000002384,64103.5,64383.60000002384,64724.60000002384,65041.40000009537,65371.800000071526,65675.40000009537,66022.40000009537,66369.70000004768,66686.70000004768,67050.20000004768,67367.40000009537,67703.5,68013.90000009537,68352.10000002384,68637.70000004768,68917.70000004768,69135.20000004768,71760.60000002384],"honeypot":0,"survey":"mace","page":9,"trial_type":"survey-mace","trial_index":17,"time_elapsed":510802,"internal_node_id":"0.0-17.0","task_version":"prescreen-v0.3","browser_interactions":0},{"responses":{"01":"No","02":"No","03":"Yes","03_ages_15":"15","03_ages_16":"16","03_ages_17":"17","03_ages_18":"18","04":"No","05":"No","06":"Yes","06_ages_17":"17","07":"Yes","07_ages_8":"8","07_ages_9":"9","07_ages_10":"10","07_ages_11":"11","07_ages_12":"12","07_ages_13":"13","07_ages_14":"14","07_ages_15":"15","07_ages_16":"16","07_ages_17":"17","08":"Yes","08_ages_11":"11","08_ages_12":"12","08_ages_13":"13","08_ages_14":"14","08_ages_15":"15"},"rt":35296.199999928474,"item_order":[0,1,2,3,4,5,6,7],"radio_events":[3866.2999999523163,4465.099999904633,6565.599999904633,13220.599999904633,17006.699999928474,18724.199999928474,23505.699999928474,31218.799999952316],"checkbox_events":[8604.399999976158,8906.299999952316,9194.599999904633,9383.899999976158,19622.599999904633,25735.199999928474,26023,26367.899999976158,26648.099999904633,26944,27248.5,28001.199999928474,28223.599999904633,28412.799999952316,28587.5,33147.89999997616,33390.39999997616,33630.199999928474,33884.5,34154.09999990463],"key_events":[],"mouse_events":[3866.2999999523163,4465.099999904633,6565.599999904633,8604.399999976158,8906.299999952316,9194.599999904633,9383.899999976158,11884.599999904633,13220.599999904633,17006.699999928474,17768.399999976158,18724.199999928474,19622.599999904633,23505.699999928474,25735.199999928474,26023,26367.899999976158,26648.099999904633,26944,27248.5,28001.199999928474,28223.599999904633,28412.799999952316,28587.5,31218.799999952316,33147.89999997616,33390.39999997616,33630.199999928474,33884.5,34154.09999990463,35290.199999928474],"honeypot":0,"survey":"mace","page":10,"trial_type":"survey-mace","trial_index":18,"time_elapsed":546107,"internal_node_id":"0.0-18.0","task_version":"prescreen-v0.3","browser_interactions":0,"instructed":0},{"rt":2466.600000023842,"trial_type":"mental-health-alert","trial_index":19,"time_elapsed":548577,"internal_node_id":"0.0-19.0","task_version":"prescreen-v0.3","interactions":"[{\"event\":\"blur\",\"trial\":14,\"time\":360485},{\"event\":\"focus\",\"trial\":14,\"time\":362053}]"}]