[{"view_history":[{"page_index":0,"viewing_time":2349.1000003814697},{"page_index":1,"viewing_time":2306.1000003814697},{"page_index":2,"viewing_time":2172.199999809265},{"page_index":3,"viewing_time":1021.3999996185303}],"rt":7849.700000762939,"trial_type":"instructions","trial_index":0,"time_elapsed":7856,"internal_node_id":"0.0-0.0","task_version":"prescreen-v0.3"},{"rt":54268.300000190735,"responses":{"age":"32","gender-categorical":"Male","gender-free-response":"","ethnicity":"Not Hispanic or Latino","race":["White"],"education":"Bachelor degree","siblings":"1"},"trial_type":"survey-demo","trial_index":1,"time_elapsed":62131,"internal_node_id":"0.0-1.0","task_version":"prescreen-v0.3"},{"responses":{"Q17":"0","Q01":"0","Q12":"0","Q16":"0","Q06":"2","Q14":"0","Q19":"0","Q18":"0","Q11":"0","Q09":"0","Q07":"1","Q03":"0","Q20":"0","Q02":"0","Q15":"0","Q05":"0","Q04":"0","Q08":"0","Q10":"0","Q21":"3","Q13":"0"},"rt":79566.5999994278,"item_order":[16,0,11,15,5,13,18,17,10,8,6,2,19,1,14,4,3,7,9,20,12],"radio_events":[4518.5,5010.199999809265,6376,11360.5,16056.199999809265,17440.199999809265,25133.29999923706,33711.39999961853,35892.199999809265,37072.099999427795,42429.199999809265,46227.599999427795,49921.599999427795,51383.89999961853,52610.099999427795,55720.79999923706,58126.199999809265,60915.5,62171.5,66023.79999923706,68265.79999923706,70196.0999994278,74848.19999980927,77852],"key_events":[3150.2999992370605,4149.699999809265,4518.5,5010.199999809265,5602.39999961853,6376,11360.5,12416.099999427795,16056.199999809265,17440.199999809265,25133.29999923706,29743.699999809265,33711.39999961853,35892.199999809265,37072.099999427795,42429.199999809265,43595.29999923706,44515.699999809265,46227.599999427795,49921.599999427795,51383.89999961853,52610.099999427795,53719.29999923706,55720.79999923706,56765.599999427795,58126.199999809265,59603.199999809265,60915.5,62171.5,63274.29999923706,64798.099999427795,66023.79999923706,68265.79999923706,69438.69999980927,70196.0999994278,74848.19999980927,77852,79564],"mouse_events":[],"straightlining":0.8571428571428571,"zigzagging":0.2,"honeypot":0,"survey":"sns","trial_type":"survey-template","trial_index":2,"time_elapsed":141704,"internal_node_id":"0.0-2.0","task_version":"prescreen-v0.3","browser_interactions":0,"infrequency":0},{"responses":{"Q08":"3","Q11":"3","Q10":"3","Q03":"2","Q06":"3","Q04":"2","Q01":"1","Q05":"3","Q02":"1","Q09":"3","Q13":"0","Q12":"2","Q07":"3"},"rt":58204,"item_order":[7,10,9,2,5,3,0,4,1,8,12,11,6],"radio_events":[5944,10201.60000038147,13209.800000190735,16484.300000190735,19185.5,24591.300000190735,28709.60000038147,31155.699999809265,35247.800000190735,41468.300000190735,44225.5,47053.89999961853,49568.60000038147,54350,57296],"key_events":[5944,10201.60000038147,13209.800000190735,16484.300000190735,19185.5,24591.300000190735,28709.60000038147,31155.699999809265,35247.800000190735,39382,41468.300000190735,44225.5,47053.89999961853,49068.5,49568.60000038147,54350,56288.5,57296,58202.39999961853],"mouse_events":[],"straightlining":0.5384615384615384,"zigzagging":0.5,"honeypot":0,"survey":"bisbas","trial_type":"survey-template","trial_index":3,"time_elapsed":199912,"internal_node_id":"0.0-3.0","task_version":"prescreen-v0.3","browser_interactions":0,"infrequency":0},{"responses":{"Q01":"4","Q02":"4","Q03":"3"},"rt":14228.800000190735,"radio_events":[4601.900000572205,7571.400000572205,13437.699999809265],"key_events":[4601.900000572205,7571.400000572205,12361.300000190735,13437.699999809265,14228],"mouse_events":[],"survey":"map","page":1,"trial_type":"survey-map","trial_index":4,"time_elapsed":214145,"internal_node_id":"0.0-4.0","task_version":"prescreen-v0.3","browser_interactions":0},{"responses":{"Q04":"4","Q05":"4","Q06":"3"},"rt":12677.89999961853,"radio_events":[6254.199999809265,10168.099999427795,11690],"key_events":[5402.199999809265,6254.199999809265,10168.099999427795,11269.89999961853,11690,12676.800000190735],"mouse_events":[],"survey":"map","page":2,"trial_type":"survey-map","trial_index":5,"time_elapsed":226825,"internal_node_id":"0.0-5.0","task_version":"prescreen-v0.3","browser_interactions":0},{"responses":{"Q07":"4","Q08":"4","Q09":"3"},"rt":14394.699999809265,"radio_events":[3839.8999996185303,4488,7987.800000190735,11971.800000190735,13861.5],"key_events":[3058.199999809265,3839.8999996185303,4488,5143.800000190735,7987.800000190735,11971.800000190735,13861.5,14394.10000038147],"mouse_events":[],"survey":"map","page":3,"trial_type":"survey-map","trial_index":6,"time_elapsed":241222,"internal_node_id":"0.0-6.0","task_version":"prescreen-v0.3","browser_interactions":0},{"responses":{"Q10":"4","Q11":"4","Q12":"4","Q13":"2","Q16":"0","Q14":"4","Q15":"2"},"rt":34052.800000190735,"radio_events":[5996.699999809265,7137.300000190735,10457.10000038147,17621.199999809265,26604.699999809265,30121.10000038147,33247.5],"key_events":[5996.699999809265,7137.300000190735,8699.60000038147,10457.10000038147,11481.199999809265,16769.5,17621.199999809265,26091.89999961853,26604.699999809265,30121.10000038147,33247.5,34051.39999961853],"mouse_events":[],"survey":"map","page":4,"trial_type":"survey-map","trial_index":7,"time_elapsed":275278,"internal_node_id":"0.0-7.0","task_version":"prescreen-v0.3","browser_interactions":0,"infrequency":0},{"view_history":[{"page_index":0,"viewing_time":2877.699999809265},{"page_index":1,"viewing_time":2212}],"rt":5090.799999237061,"trial_type":"instructions","trial_index":8,"time_elapsed":280370,"internal_node_id":"0.0-8.0","task_version":"prescreen-v0.3"},{"responses":{"01":"No","02":"No","03":"No","04":"No","05":"No","06":"No"},"rt":15681.599999427795,"item_order":[0,1,2,3,4,5],"radio_events":[3960.699999809265,7648.599999427795,8189,9898.599999427795,11570,13693.79999923706],"checkbox_events":[],"key_events":[0.09999942779541016,3960.699999809265,4889.799999237061,5819.799999237061,6835.599999427795,7648.599999427795,8189,9898.599999427795,10546.699999809265,11570,13693.79999923706,15679.699999809265],"mouse_events":[],"honeypot":0,"survey":"mace","page":1,"trial_type":"survey-mace","trial_index":9,"time_elapsed":296060,"internal_node_id":"0.0-9.0","task_version":"prescreen-v0.3","browser_interactions":0},{"responses":{"01":"No","02":"No","03":"Yes","03_ages_4":"4","03_ages_5":"5","03_ages_6":"6","03_ages_7":"7","03_ages_8":"8","03_ages_9":"9","03_ages_10":"10","04":"No","05":"No","06":"No","07":"No","08":"No"},"rt":51858.199999809265,"item_order":[0,1,2,3,4,5,6,7],"radio_events":[2712.5999994277954,3345.2999992370605,4251,7446.89999961853,33713.39999961853,37672.89999961853,39860.199999809265,40837.39999961853,41828.89999961853],"checkbox_events":[12251.699999809265,14259.699999809265,14783.199999809265,15158.39999961853,16704.599999427795,17612.099999427795,18487.5,19049.5,19509.199999809265,25548.5,26159.199999809265,26587.099999427795,27234.699999809265,28587.099999427795,28947.29999923706,29398.29999923706,29962.699999809265],"key_events":[1908.8999996185303,2712.5999994277954,3345.2999992370605,4251,6222,7446.89999961853,12251.699999809265,14259.699999809265,14783.199999809265,15158.39999961853,16704.599999427795,17612.099999427795,18017,18487.5,19049.5,19509.199999809265,25548.5,26159.199999809265,26587.099999427795,27234.699999809265,27689.39999961853,28587.099999427795,28947.29999923706,29398.29999923706,29962.699999809265,33713.39999961853,37672.89999961853,39352.39999961853,39860.199999809265,40837.39999961853,41828.89999961853,51853.39999961853],"mouse_events":[],"honeypot":0,"survey":"mace","page":2,"trial_type":"survey-mace","trial_index":10,"time_elapsed":347922,"internal_node_id":"0.0-10.0","task_version":"prescreen-v0.3","browser_interactions":0},{"responses":{"01":"No","02":"No","03":"No","04":"No"},"rt":7838.60000038147,"item_order":[0,1,2,3],"radio_events":[2686.9000005722046,3280.1000003814697,4302.900000572205,6203.300000190735],"checkbox_events":[],"key_events":[2225.1000003814697,2686.9000005722046,3280.1000003814697,4302.900000572205,5412.800000190735,6203.300000190735,7836.400000572205],"mouse_events":[],"honeypot":0,"survey":"mace","page":3,"trial_type":"survey-mace","trial_index":11,"time_elapsed":355764,"internal_node_id":"0.0-11.0","task_version":"prescreen-v0.3","browser_interactions":0},{"responses":{"01":"No","02":"No"},"rt":3955.2999992370605,"item_order":[0,1],"radio_events":[2001.5999994277954,3485.8999996185303],"checkbox_events":[],"key_events":[1260.5,2001.5999994277954,2634.2999992370605,3485.8999996185303,3953.8999996185303],"mouse_events":[],"honeypot":0,"survey":"mace","page":4,"trial_type":"survey-mace","trial_index":12,"time_elapsed":359722,"internal_node_id":"0.0-12.0","task_version":"prescreen-v0.3","browser_interactions":0},{"responses":{"01":"No","02":"No","03":"No","04":"No","05":"No"},"rt":11566.300000190735,"item_order":[0,1,2,3,4],"radio_events":[5449.300000190735,6167.199999809265,7387.300000190735,8559.900000572205,9690.800000190735],"checkbox_events":[],"key_events":[4628.800000190735,5449.300000190735,6167.199999809265,7387.300000190735,8559.900000572205,9690.800000190735,11564.5],"mouse_events":[],"honeypot":0,"survey":"mace","page":5,"trial_type":"survey-mace","trial_index":13,"time_elapsed":371291,"internal_node_id":"0.0-13.0","task_version":"prescreen-v0.3","browser_interactions":0},{"responses":{"01":"Yes","01_ages_8":"8","01_ages_9":"9","01_ages_10":"10","01_ages_11":"11","01_ages_12":"12","01_ages_13":"13","01_ages_14":"14","01_ages_15":"15","01_ages_16":"16","02":"Yes","02_ages_12":"12","02_ages_13":"13","02_ages_14":"14","02_ages_15":"15","02_ages_16":"16","03":"No","04":"No","05":"No"},"rt":49734.300000190735,"item_order":[0,1,2,3,4],"radio_events":[9122.300000190735,27817.5,41966.800000190735,44676.300000190735,49021.199999809265],"checkbox_events":[15114.60000038147,15569,16021.39999961853,16677.10000038147,18209.10000038147,18644.89999961853,19238.800000190735,20193.10000038147,21139.199999809265,33387.199999809265,33873.699999809265,36451,36942.89999961853,38036.800000190735],"key_events":[1216.3999996185303,2832.699999809265,9122.300000190735,15114.60000038147,15569,16021.39999961853,16677.10000038147,17232,18209.10000038147,18644.89999961853,19238.800000190735,20193.10000038147,20668.699999809265,21139.199999809265,27817.5,33387.199999809265,33873.699999809265,34356.60000038147,35349.10000038147,35974.800000190735,36451,36942.89999961853,38036.800000190735,41966.800000190735,44676.300000190735,49021.199999809265,49731.199999809265],"mouse_events":[],"honeypot":0,"survey":"mace","page":6,"trial_type":"survey-mace","trial_index":14,"time_elapsed":421028,"internal_node_id":"0.0-14.0","task_version":"prescreen-v0.3","browser_interactions":0},{"responses":{"01":"No","02":"No","03":"No","04":"No","05":"No","06":"No","07":"No"},"rt":16209.099999427795,"item_order":[0,1,2,3,4,5,6],"radio_events":[3220.5999994277954,6836.599999427795,7508.300000190735,11118.800000190735,12056.5,14094.5,15640.300000190735],"checkbox_events":[],"key_events":[3220.5999994277954,4274.89999961853,5508.599999427795,6836.599999427795,7508.300000190735,8876.5,9884.300000190735,11118.800000190735,12056.5,13103.300000190735,14094.5,14946.099999427795,15640.300000190735,16204.800000190735],"mouse_events":[],"honeypot":0,"survey":"mace","page":7,"trial_type":"survey-mace","trial_index":15,"time_elapsed":437241,"internal_node_id":"0.0-15.0","task_version":"prescreen-v0.3","browser_interactions":0},{"responses":{"01":"No","02":"No","03":"No","04":"No"},"rt":14875.900000572205,"item_order":[0,1,2,3],"radio_events":[6615.800000190735,8257.400000572205,10976,13163.60000038147],"checkbox_events":[],"key_events":[6615.800000190735,8257.400000572205,10976,13163.60000038147,14873.300000190735],"mouse_events":[],"honeypot":0,"survey":"mace","page":8,"trial_type":"survey-mace","trial_index":16,"time_elapsed":452120,"internal_node_id":"0.0-16.0","task_version":"prescreen-v0.3","browser_interactions":0},{"responses":{"01":"Yes","01_ages_1":"1","01_ages_2":"2","01_ages_3":"3","01_ages_4":"4","01_ages_5":"5","01_ages_6":"6","01_ages_7":"7","01_ages_8":"8","01_ages_9":"9","01_ages_10":"10","01_ages_11":"11","01_ages_12":"12","01_ages_13":"13","01_ages_14":"14","01_ages_15":"15","01_ages_16":"16","01_ages_17":"17","01_ages_18":"18","02":"Yes","02_ages_1":"1","02_ages_2":"2","02_ages_3":"3","02_ages_4":"4","02_ages_5":"5","02_ages_6":"6","02_ages_7":"7","02_ages_8":"8","02_ages_9":"9","02_ages_10":"10","02_ages_11":"11","02_ages_12":"12","02_ages_13":"13","02_ages_14":"14","02_ages_15":"15","02_ages_16":"16","02_ages_17":"17","02_ages_18":"18","03":"Yes","03_ages_1":"1","03_ages_2":"2","03_ages_3":"3","03_ages_4":"4","03_ages_5":"5","03_ages_6":"6","03_ages_7":"7","03_ages_8":"8","03_ages_9":"9","03_ages_10":"10","03_ages_11":"11","03_ages_12":"12","03_ages_13":"13","03_ages_14":"14","03_ages_15":"15","03_ages_16":"16","03_ages_17":"17","03_ages_18":"18","04":"Yes","04_ages_1":"1","04_ages_2":"2","04_ages_3":"3","04_ages_4":"4","04_ages_5":"5","04_ages_6":"6","04_ages_7":"7","04_ages_8":"8","04_ages_9":"9","04_ages_10":"10","04_ages_11":"11","04_ages_12":"12","04_ages_13":"13","04_ages_14":"14","04_ages_15":"15","04_ages_16":"16","04_ages_17":"17","04_ages_18":"18"},"rt":75715.79999923706,"item_order":[0,1,2,3],"radio_events":[3877.0999994277954,21056.599999427795,39548.599999427795,58080.79999923706],"checkbox_events":[5792.39999961853,6503.199999809265,7236.699999809265,7650.699999809265,8081.199999809265,8962.89999961853,9330.29999923706,9933.599999427795,10557.29999923706,11198.099999427795,14540.89999961853,15056,15541,16269,16916.39999961853,17697,19166.39999961853,19745,23408.39999961853,24011,24720.79999923706,25400.599999427795,26158.599999427795,26954.699999809265,27666.39999961853,28494.099999427795,29330.5,29925.29999923706,31276.699999809265,31949.099999427795,32439.29999923706,33683.199999809265,34198.599999427795,34736.79999923706,35572.89999961853,36166.699999809265,41072.39999961853,41938.79999923706,42424.5,43151.099999427795,43854.5,44662.199999809265,45306.5,45852.79999923706,46696.599999427795,47430.5,48642.5,49118.599999427795,49774.79999923706,50441,50876.79999923706,52003.199999809265,52761.699999809265,53260.599999427795,60728.29999923706,61353.699999809265,61822.29999923706,62486.699999809265,63010.79999923706,63526.699999809265,64088.89999961853,64704.89999961853,66369,66995.29999923706,67503,68268.79999923706,68876.69999980927,70135.0999994278,70900.29999923706,71642.69999980927,72610.89999961853,73290.39999961853,73368.5,74345.79999923706],"key_events":[3877.0999994277954,5792.39999961853,6503.199999809265,7236.699999809265,7650.699999809265,8081.199999809265,8470.199999809265,8962.89999961853,9330.29999923706,9933.599999427795,10557.29999923706,11198.099999427795,11674.79999923706,14540.89999961853,15056,15541,16269,16916.39999961853,17697,19166.39999961853,19745,21056.599999427795,23408.39999961853,24011,24720.79999923706,25400.599999427795,26158.599999427795,26954.699999809265,27666.39999961853,28494.099999427795,29330.5,29925.29999923706,31276.699999809265,31949.099999427795,32439.29999923706,32869.099999427795,33683.199999809265,34198.599999427795,34736.79999923706,35572.89999961853,36166.699999809265,39548.599999427795,40464,41072.39999961853,41938.79999923706,42424.5,43151.099999427795,43854.5,44662.199999809265,45306.5,45852.79999923706,46696.599999427795,47167.29999923706,47430.5,48642.5,49118.599999427795,49774.79999923706,50441,50876.79999923706,52003.199999809265,52439.099999427795,52761.699999809265,53260.599999427795,58080.79999923706,60728.29999923706,61353.699999809265,61822.29999923706,62237.39999961853,62486.699999809265,63010.79999923706,63526.699999809265,64088.89999961853,64704.89999961853,66090.79999923706,66369,66995.29999923706,67503,68268.79999923706,68876.69999980927,70135.0999994278,70900.29999923706,71642.69999980927,72610.89999961853,73290.39999961853,73368.5,74345.79999923706,75713.39999961853],"mouse_events":[],"honeypot":0,"survey":"mace","page":9,"trial_type":"survey-mace","trial_index":17,"time_elapsed":527840,"internal_node_id":"0.0-17.0","task_version":"prescreen-v0.3","browser_interactions":0},{"responses":{"01":"No","02":"No","03":"No","04":"No","05":"No","06":"Yes","06_ages_17":"17","07":"Yes","07_ages_1":"1","07_ages_2":"2","07_ages_3":"3","07_ages_4":"4","07_ages_5":"5","07_ages_6":"6","07_ages_7":"7","07_ages_8":"8","07_ages_9":"9","07_ages_10":"10","07_ages_11":"11","07_ages_12":"12","07_ages_13":"13","07_ages_14":"14","07_ages_15":"15","07_ages_16":"16","07_ages_17":"17","07_ages_18":"18","08":"Yes","08_ages_1":"1","08_ages_2":"2","08_ages_3":"3","08_ages_4":"4","08_ages_5":"5","08_ages_6":"6","08_ages_7":"7","08_ages_8":"8","08_ages_9":"9","08_ages_10":"10","08_ages_11":"11","08_ages_12":"12","08_ages_13":"13","08_ages_14":"14","08_ages_15":"15","08_ages_16":"16","08_ages_17":"17","08_ages_18":"18"},"rt":56309.300000190735,"item_order":[0,1,2,3,4,5,6,7],"radio_events":[2296.7000007629395,3796.300000190735,5820.60000038147,7616.5,8533.10000038147,9726.5,12492,19656.60000038147,39623.60000038147],"checkbox_events":[15570.5,22672.800000190735,23344.5,23828.5,24664.900000572205,25868.900000572205,26587,27108.20000076294,27742.10000038147,28304.900000572205,28781.800000190735,29578.10000038147,33430,34102.70000076294,35008.10000038147,35546.300000190735,36103.70000076294,36610.60000038147,37305.20000076294,42009,42688.70000076294,43632,44218.5,44812.70000076294,45516.5,46320.5,47032.900000572205,48211.10000038147,48890.5,49701.800000190735,50444.10000038147,51383.60000038147,52001.20000076294,52930.60000038147,53852.10000038147,54406.10000038147,54915.300000190735],"key_events":[2296.7000007629395,3000.6000003814697,3796.300000190735,4882.60000038147,5820.60000038147,7078.900000572205,7616.5,8533.10000038147,9726.5,11413.900000572205,12492,15570.5,19656.60000038147,22672.800000190735,23344.5,23828.5,24664.900000572205,25868.900000572205,26587,27108.20000076294,27742.10000038147,28304.900000572205,28781.800000190735,29578.10000038147,33430,34102.70000076294,34657,35008.10000038147,35546.300000190735,36103.70000076294,36610.60000038147,37039.5,37305.20000076294,39233.5,39623.60000038147,42009,42688.70000076294,43632,44218.5,44812.70000076294,45516.5,46320.5,47032.900000572205,48211.10000038147,48890.5,49701.800000190735,50444.10000038147,51383.60000038147,52001.20000076294,52930.60000038147,53852.10000038147,54406.10000038147,54915.300000190735,56304.5],"mouse_events":[],"honeypot":0,"survey":"mace","page":10,"trial_type":"survey-mace","trial_index":18,"time_elapsed":584154,"internal_node_id":"0.0-18.0","task_version":"prescreen-v0.3","browser_interactions":0,"instructed":0},{"rt":3618.3999996185303,"trial_type":"mental-health-alert","trial_index":19,"time_elapsed":587774,"internal_node_id":"0.0-19.0","task_version":"prescreen-v0.3","interactions":"[{\"event\":\"blur\",\"trial\":1,\"time\":21065},{\"event\":\"focus\",\"trial\":1,\"time\":57754}]"}]