[{"view_history":[{"page_index":0,"viewing_time":4075.10000000149},{"page_index":1,"viewing_time":2585.60000000149},{"page_index":2,"viewing_time":2641.7999999970198},{"page_index":3,"viewing_time":1854.3000000044703}],"rt":11158.10000000149,"trial_type":"instructions","trial_index":0,"time_elapsed":11186,"internal_node_id":"0.0-0.0","task_version":"prescreen-v0.3"},{"rt":17684.39999999851,"responses":{"age":"26","gender-categorical":"Female","gender-free-response":"","ethnicity":"Not Hispanic or Latino","race":["White"],"education":"Associate degree"},"trial_type":"survey-demo","trial_index":1,"time_elapsed":28880,"internal_node_id":"0.0-1.0","task_version":"prescreen-v0.3"},{"responses":{"Q12":"1","Q03":"0","Q13":"0","Q09":"1","Q05":"1","Q08":"0","Q18":"2","Q20":"3","Q14":"1","Q19":"2","Q01":"2","Q06":"1","Q15":"2","Q07":"1","Q11":"1","Q02":"2","Q21":"3","Q16":"1","Q17":"2","Q10":"1","Q04":"1"},"rt":92634.60000000149,"item_order":[11,2,12,8,4,7,17,19,13,18,0,5,14,6,10,1,20,15,16,9,3],"radio_events":[7545.70000000298,10789.70000000298,13438.10000000149,17380,25389.70000000298,27656.70000000298,31330.5,34201.70000000298,40174.20000000298,47536.20000000298,52924.5,54484.10000000149,59082.80000000447,63021.80000000447,65646.10000000149,71059.30000000447,74953,77197.70000000298,81793.20000000298,85546.5,90561.30000000447],"key_events":[],"mouse_events":[7545.70000000298,10789.70000000298,13438.10000000149,17380,25389.70000000298,27656.70000000298,31330.5,34201.70000000298,40174.20000000298,47536.20000000298,50007.5,52924.5,54484.10000000149,59082.80000000447,63021.80000000447,65646.10000000149,68837.60000000149,71059.30000000447,74953,77197.70000000298,81793.20000000298,85546.5,86312.30000000447,90561.30000000447,92630.80000000447],"straightlining":0.47619047619047616,"zigzagging":0.6,"honeypot":0,"survey":"sns","trial_type":"survey-template","trial_index":2,"time_elapsed":121525,"internal_node_id":"0.0-2.0","task_version":"prescreen-v0.3","browser_interactions":0,"infrequency":0},{"responses":{"Q05":"2","Q06":"3","Q01":"3","Q09":"3","Q03":"3","Q08":"3","Q12":"2","Q07":"3","Q13":"0","Q04":"3","Q11":"3","Q10":"3","Q02":"3"},"rt":39142.39999999851,"item_order":[4,5,0,8,2,7,11,6,12,3,10,9,1],"radio_events":[3460.2999999970198,7251.19999999553,9771.29999999702,11244.19999999553,13945.19999999553,16444.39999999851,20837.29999999702,23353.89999999851,27915.5,30342.79999999702,33635.29999999702,35828.79999999702,38153.69999999553],"key_events":[],"mouse_events":[3460.2999999970198,7251.19999999553,8848.29999999702,9771.29999999702,11244.19999999553,13945.19999999553,16444.39999999851,20837.29999999702,23353.89999999851,26554.19999999553,27915.5,30342.79999999702,33635.29999999702,35828.79999999702,38153.69999999553,39140.19999999553],"straightlining":0.7692307692307693,"zigzagging":0.4166666666666667,"honeypot":0,"survey":"bisbas","trial_type":"survey-template","trial_index":3,"time_elapsed":160674,"internal_node_id":"0.0-3.0","task_version":"prescreen-v0.3","browser_interactions":0,"infrequency":0},{"responses":{"Q01":"1","Q02":"2","Q03":"1"},"rt":19197.39999999851,"radio_events":[6780.80000000447,11338.89999999851,18209.5],"key_events":[],"mouse_events":[6780.80000000447,11338.89999999851,18209.5,19196.20000000298],"survey":"map","page":1,"trial_type":"survey-map","trial_index":4,"time_elapsed":179879,"internal_node_id":"0.0-4.0","task_version":"prescreen-v0.3","browser_interactions":0},{"responses":{"Q04":"2","Q05":"2","Q06":"3"},"rt":12186.80000000447,"radio_events":[5754.10000000149,9435.40000000596,11387],"key_events":[],"mouse_events":[5754.10000000149,9435.40000000596,11387,12185.80000000447],"survey":"map","page":2,"trial_type":"survey-map","trial_index":5,"time_elapsed":192069,"internal_node_id":"0.0-5.0","task_version":"prescreen-v0.3","browser_interactions":0},{"responses":{"Q07":"2","Q08":"2","Q09":"1"},"rt":14234.79999999702,"radio_events":[5836.79999999702,9941.79999999702,13406.60000000149],"key_events":[],"mouse_events":[5836.79999999702,8928.20000000298,9941.79999999702,11994.10000000149,13406.60000000149,14233.79999999702],"survey":"map","page":3,"trial_type":"survey-map","trial_index":6,"time_elapsed":206308,"internal_node_id":"0.0-6.0","task_version":"prescreen-v0.3","browser_interactions":0},{"responses":{"Q10":"0","Q11":"1","Q12":"2","Q13":"3","Q16":"0","Q14":"2","Q15":"1"},"rt":37212.5,"radio_events":[8365.19999999553,12600.19999999553,16182.29999999702,19648.69999999553,23345.79999999702,29338.69999999553,33478.29999999702,36371.59999999404],"key_events":[],"mouse_events":[8365.19999999553,12600.19999999553,16182.29999999702,19648.69999999553,23345.79999999702,29338.69999999553,33478.29999999702,36371.59999999404,37210.69999999553],"survey":"map","page":4,"trial_type":"survey-map","trial_index":7,"time_elapsed":243525,"internal_node_id":"0.0-7.0","task_version":"prescreen-v0.3","browser_interactions":0,"infrequency":0},{"view_history":[{"page_index":0,"viewing_time":2156.2999999970198},{"page_index":1,"viewing_time":3417.7000000029802}],"rt":5574.69999999553,"trial_type":"instructions","trial_index":8,"time_elapsed":249102,"internal_node_id":"0.0-8.0","task_version":"prescreen-v0.3"},{"responses":{"01":"No","02":"Yes","02_ages_10":"10","02_ages_11":"11","02_ages_12":"12","02_ages_13":"13","02_ages_14":"14","02_ages_15":"15","02_ages_16":"16","02_ages_17":"17","02_ages_18":"18","03":"Yes","03_ages_16":"16","03_ages_17":"17","03_ages_18":"18","04":"No","05":"No","06":"No"},"rt":41958,"item_order":[0,1,2,3,4,5],"radio_events":[7595.20000000298,9761.10000000149,32557.29999999702,38217.79999999702,39360.5,41233.79999999702],"checkbox_events":[15537.20000000298,16155.39999999851,16838,18646.70000000298,19961.29999999702,20510.29999999702,21134.10000000149,22370.60000000149,22989.10000000149,23770.39999999851,24381.5,25669.70000000298,26371.60000000149,34389.70000000298,35057.20000000298,35746.5],"key_events":[],"mouse_events":[0.10000000149011612,7595.20000000298,9761.10000000149,15537.20000000298,16155.39999999851,16838,17639.20000000298,18646.70000000298,19293.79999999702,19961.29999999702,20510.29999999702,21134.10000000149,21682.5,22370.60000000149,22989.10000000149,23770.39999999851,24381.5,25669.70000000298,26371.60000000149,32557.29999999702,34389.70000000298,35057.20000000298,35746.5,38217.79999999702,39360.5,41233.79999999702,41952.20000000298],"honeypot":0,"survey":"mace","page":1,"trial_type":"survey-mace","trial_index":9,"time_elapsed":291072,"internal_node_id":"0.0-9.0","task_version":"prescreen-v0.3","browser_interactions":0},{"responses":{"01":"No","02":"No","03":"Yes","03_ages_3":"3","03_ages_4":"4","03_ages_5":"5","03_ages_6":"6","03_ages_7":"7","03_ages_8":"8","04":"No","05":"No","06":"Yes","06_ages_16":"16","06_ages_17":"17","06_ages_18":"18","07":"No","08":"No"},"rt":32764.10000000149,"item_order":[0,1,2,3,4,5,6,7],"radio_events":[3472.9000000059605,4796.9000000059605,6787.70000000298,9873.60000000149,20768,22093.60000000149,24355.30000000447,30420.70000000298,31902.10000000149],"checkbox_events":[11982.40000000596,12587.60000000149,13236.5,14466,15251.60000000149,16502.5,26161.60000000149,26778,27478.30000000447],"key_events":[],"mouse_events":[2131.2000000029802,3472.9000000059605,4796.9000000059605,6787.70000000298,9873.60000000149,11982.40000000596,12587.60000000149,13236.5,13819.70000000298,14466,15251.60000000149,15939.90000000596,16502.5,20768,22093.60000000149,24355.30000000447,26161.60000000149,26778,27478.30000000447,30420.70000000298,31902.10000000149,32757],"honeypot":0,"survey":"mace","page":2,"trial_type":"survey-mace","trial_index":10,"time_elapsed":323846,"internal_node_id":"0.0-10.0","task_version":"prescreen-v0.3","browser_interactions":0},{"responses":{"01":"No","02":"No","03":"No","04":"No"},"rt":11426.30000000447,"item_order":[0,1,2,3],"radio_events":[5868.10000000149,7400.5,9763.40000000596,10722.90000000596],"checkbox_events":[],"key_events":[],"mouse_events":[5868.10000000149,7400.5,9763.40000000596,10722.90000000596,11422.70000000298],"honeypot":0,"survey":"mace","page":3,"trial_type":"survey-mace","trial_index":11,"time_elapsed":335279,"internal_node_id":"0.0-11.0","task_version":"prescreen-v0.3","browser_interactions":0},{"responses":{"01":"No","02":"No"},"rt":8776.10000000149,"item_order":[0,1],"radio_events":[6354.60000000149,7907.20000000298],"checkbox_events":[],"key_events":[],"mouse_events":[6354.60000000149,7907.20000000298,8774.10000000149],"honeypot":0,"survey":"mace","page":4,"trial_type":"survey-mace","trial_index":12,"time_elapsed":344059,"internal_node_id":"0.0-12.0","task_version":"prescreen-v0.3","browser_interactions":0},{"responses":{"01":"Yes","01_ages_10":"10","01_ages_16":"16","01_ages_17":"17","01_ages_18":"18","02":"No","03":"No","04":"Yes","04_ages_10":"10","05":"No"},"rt":38399.60000000149,"item_order":[0,1,2,3,4],"radio_events":[10566.29999999702,23677.79999999702,27464.89999999851,31953.39999999851,36632.79999999702],"checkbox_events":[12139.70000000298,13258.39999999851,13876.89999999851,15152,29198],"key_events":[],"mouse_events":[10566.29999999702,12139.70000000298,12786.39999999851,13258.39999999851,13876.89999999851,15152,20283,20804.20000000298,23677.79999999702,27464.89999999851,29198,31953.39999999851,32817.5,36632.79999999702,38395.29999999702],"honeypot":0,"survey":"mace","page":5,"trial_type":"survey-mace","trial_index":13,"time_elapsed":382466,"internal_node_id":"0.0-13.0","task_version":"prescreen-v0.3","browser_interactions":0},{"responses":{"01":"Yes","01_ages_10":"10","01_ages_11":"11","01_ages_12":"12","01_ages_13":"13","01_ages_14":"14","01_ages_15":"15","02":"Yes","02_ages_10":"10","02_ages_11":"11","02_ages_12":"12","02_ages_13":"13","02_ages_14":"14","02_ages_15":"15","03":"Yes","03_ages_10":"10","03_ages_11":"11","03_ages_12":"12","03_ages_13":"13","03_ages_14":"14","03_ages_15":"15","04":"Yes","04_ages_10":"10","04_ages_11":"11","04_ages_12":"12","04_ages_13":"13","04_ages_14":"14","04_ages_15":"15","05":"No"},"rt":42754,"item_order":[0,1,2,3,4],"radio_events":[7553,16476.5,25397.5,31330.30000000447,42096.39999999851],"checkbox_events":[10912.20000000298,11483.60000000149,12065.80000000447,12613.80000000447,13216.39999999851,13921.5,17946.60000000149,18516.70000000298,19069.60000000149,20282.80000000447,22166.70000000298,22799.30000000447,26256,26918.30000000447,27500.70000000298,28031.39999999851,28635.5,29279.10000000149,33056.39999999851,33645.20000000298,34217.10000000149,34754.20000000298,36547.80000000447,37147],"key_events":[],"mouse_events":[7553,10912.20000000298,11483.60000000149,12065.80000000447,12613.80000000447,13216.39999999851,13921.5,15905.39999999851,16476.5,17946.60000000149,18516.70000000298,19069.60000000149,19645.5,20282.80000000447,20803.89999999851,21367.5,22166.70000000298,22799.30000000447,25397.5,26256,26918.30000000447,27500.70000000298,28031.39999999851,28635.5,29279.10000000149,31330.30000000447,32278.10000000149,33056.39999999851,33645.20000000298,34217.10000000149,34754.20000000298,35300.30000000447,35901.10000000149,36547.80000000447,37147,42096.39999999851,42749.80000000447],"honeypot":0,"survey":"mace","page":6,"trial_type":"survey-mace","trial_index":14,"time_elapsed":425226,"internal_node_id":"0.0-14.0","task_version":"prescreen-v0.3","browser_interactions":0},{"responses":{"01":"No","02":"No","03":"No","04":"No","05":"No","06":"No","07":"No"},"rt":16112.60000000149,"item_order":[0,1,2,3,4,5,6],"radio_events":[4220,6521,7988.69999999553,9544.69999999553,10858.5,13194.69999999553,15473.5],"checkbox_events":[],"key_events":[],"mouse_events":[4220,6521,7988.69999999553,9544.69999999553,10858.5,13194.69999999553,15473.5,16106.60000000149],"honeypot":0,"survey":"mace","page":7,"trial_type":"survey-mace","trial_index":15,"time_elapsed":441348,"internal_node_id":"0.0-15.0","task_version":"prescreen-v0.3","browser_interactions":0},{"responses":{"01":"Yes","01_ages_14":"14","01_ages_15":"15","01_ages_16":"16","01_ages_17":"17","01_ages_18":"18","02":"No","03":"Yes","03_ages_1":"1","03_ages_2":"2","03_ages_3":"3","03_ages_4":"4","03_ages_5":"5","03_ages_6":"6","03_ages_7":"7","03_ages_8":"8","03_ages_9":"9","03_ages_10":"10","03_ages_11":"11","03_ages_12":"12","03_ages_13":"13","03_ages_14":"14","03_ages_15":"15","03_ages_16":"16","03_ages_17":"17","03_ages_18":"18","04":"Yes","04_ages_14":"14","04_ages_15":"15","04_ages_16":"16","04_ages_17":"17","04_ages_18":"18"},"rt":52959,"item_order":[0,1,2,3],"radio_events":[12529.89999999851,19672.39999999851,24520,43853.80000000447],"checkbox_events":[14531.30000000447,15114.5,15701.10000000149,16314.20000000298,16968,27601.39999999851,28247.70000000298,28756.30000000447,29272.60000000149,29772,30250.89999999851,30771.5,31331.70000000298,31851.20000000298,32373.89999999851,32927.39999999851,33464.30000000447,33967.70000000298,34467.80000000447,35008.80000000447,35654.60000000149,36213.89999999851,36747.70000000298,38155.80000000447,38922.80000000447,46554.89999999851,47704.70000000298,48254,48804,49382.20000000298,49932.10000000149,51346.20000000298],"key_events":[],"mouse_events":[12529.89999999851,14531.30000000447,15114.5,15701.10000000149,16314.20000000298,16968,19672.39999999851,24520,27601.39999999851,28247.70000000298,28756.30000000447,29272.60000000149,29772,30250.89999999851,30771.5,31331.70000000298,31851.20000000298,32373.89999999851,32927.39999999851,33464.30000000447,33967.70000000298,34467.80000000447,35008.80000000447,35654.60000000149,36213.89999999851,36747.70000000298,37477.10000000149,38155.80000000447,38922.80000000447,43853.80000000447,46554.89999999851,47704.70000000298,48254,48804,49382.20000000298,49932.10000000149,50505.39999999851,51346.20000000298,52955.5],"honeypot":0,"survey":"mace","page":8,"trial_type":"survey-mace","trial_index":16,"time_elapsed":494314,"internal_node_id":"0.0-16.0","task_version":"prescreen-v0.3","browser_interactions":0},{"responses":{"01":"Yes","01_ages_1":"1","01_ages_2":"2","01_ages_3":"3","01_ages_4":"4","01_ages_5":"5","01_ages_6":"6","01_ages_7":"7","01_ages_8":"8","01_ages_9":"9","01_ages_10":"10","01_ages_11":"11","01_ages_12":"12","01_ages_13":"13","01_ages_14":"14","01_ages_15":"15","01_ages_16":"16","01_ages_17":"17","02":"Yes","02_ages_1":"1","02_ages_2":"2","02_ages_3":"3","02_ages_4":"4","02_ages_5":"5","02_ages_6":"6","02_ages_7":"7","02_ages_8":"8","02_ages_9":"9","02_ages_10":"10","02_ages_11":"11","02_ages_12":"12","02_ages_13":"13","02_ages_14":"14","02_ages_15":"15","02_ages_16":"16","02_ages_17":"17","02_ages_18":"18","03":"Yes","03_ages_1":"1","03_ages_2":"2","03_ages_3":"3","03_ages_4":"4","03_ages_5":"5","03_ages_6":"6","03_ages_7":"7","03_ages_8":"8","03_ages_9":"9","03_ages_10":"10","03_ages_11":"11","03_ages_12":"12","03_ages_13":"13","03_ages_14":"14","03_ages_15":"15","03_ages_16":"16","04":"Yes","04_ages_1":"1","04_ages_2":"2","04_ages_3":"3","04_ages_4":"4","04_ages_5":"5","04_ages_6":"6","04_ages_7":"7","04_ages_8":"8","04_ages_9":"9","04_ages_10":"10","04_ages_11":"11","04_ages_12":"12","04_ages_13":"13","04_ages_14":"14","04_ages_15":"15","04_ages_16":"16","04_ages_17":"17","04_ages_18":"18"},"rt":103255.19999999553,"item_order":[0,1,2,3],"radio_events":[8254.39999999851,35392.39999999851,57140,86034.39999999851],"checkbox_events":[11567.69999999553,12061.69999999553,12556.09999999404,13084.39999999851,13614.5,14082.39999999851,14564.69999999553,15003.5,15560.29999999702,16913.39999999851,17469.69999999553,18043.79999999702,19162.39999999851,19815.59999999404,22086.09999999404,22658.69999999553,23244.5,24542.29999999702,25154.89999999851,28812.5,32429.29999999702,38400.79999999702,39143.5,40008.29999999702,40647.5,41238.09999999404,42977,43904.69999999553,45051.69999999553,46923.19999999553,49525.69999999553,50149.29999999702,50879.5,51536.79999999702,52174.79999999702,52751.69999999553,53452.19999999553,54319.39999999851,55082.89999999851,58708.69999999553,59493.09999999404,60688.69999999553,61300.29999999702,61884.29999999702,62715,63303.19999999553,65140.89999999851,66703.19999999553,69539.39999999851,70654,71245.19999999553,72252.5,73592.39999999851,74175.59999999404,74745.5,88631.59999999404,89312.69999999553,90311.29999999702,91363.19999999553,91903.79999999702,92431,93084.69999999553,93696.29999999702,94418.39999999851,95488,96246.89999999851,96945.39999999851,97900.29999999702,98658.69999999553,99243.19999999553,99951.79999999702,101000.39999999851,101591.59999999404],"key_events":[],"mouse_events":[8254.39999999851,11567.69999999553,12061.69999999553,12556.09999999404,13084.39999999851,13614.5,14082.39999999851,14564.69999999553,15003.5,15560.29999999702,16063.5,16913.39999999851,17469.69999999553,18043.79999999702,18502.59999999404,19162.39999999851,19815.59999999404,20549,21495.5,22086.09999999404,22658.69999999553,23244.5,23821.89999999851,24542.29999999702,25154.89999999851,25717.69999999553,27767.79999999702,28812.5,32429.29999999702,33708.39999999851,34663.09999999404,35392.39999999851,37587.29999999702,38400.79999999702,39143.5,40008.29999999702,40647.5,41238.09999999404,41759.5,42422.19999999553,42977,43904.69999999553,44460.69999999553,45051.69999999553,45845.09999999404,46923.19999999553,47849.09999999404,49525.69999999553,50149.29999999702,50879.5,51536.79999999702,52174.79999999702,52751.69999999553,53452.19999999553,54319.39999999851,55082.89999999851,57140,58708.69999999553,59493.09999999404,60052.39999999851,60688.69999999553,61300.29999999702,61884.29999999702,62715,63303.19999999553,64310.59999999404,65140.89999999851,66703.19999999553,69539.39999999851,70654,71245.19999999553,71773,72252.5,72836.29999999702,73592.39999999851,74175.59999999404,74745.5,86034.39999999851,88631.59999999404,89312.69999999553,89901.79999999702,90311.29999999702,91363.19999999553,91903.79999999702,92431,93084.69999999553,93696.29999999702,94418.39999999851,95072.59999999404,95488,96246.89999999851,96945.39999999851,97900.29999999702,98658.69999999553,99243.19999999553,99951.79999999702,101000.39999999851,101591.59999999404,103251.69999999553],"honeypot":0,"survey":"mace","page":9,"trial_type":"survey-mace","trial_index":17,"time_elapsed":597576,"internal_node_id":"0.0-17.0","task_version":"prescreen-v0.3","browser_interactions":0},{"responses":{"01":"No","02":"No","03":"Yes","03_ages_14":"14","03_ages_15":"15","03_ages_16":"16","03_ages_17":"17","03_ages_18":"18","04":"No","05":"Yes","05_ages_14":"14","05_ages_15":"15","05_ages_16":"16","05_ages_17":"17","05_ages_18":"18","06":"Yes","06_ages_17":"17","07":"No","08":"No"},"rt":45850.29999999702,"item_order":[0,1,2,3,4,5,6,7],"radio_events":[4061.5,5067.39999999851,6815.89999999851,15065.19999999553,17842.79999999702,29412.89999999851,35572.10000000149,37836.19999999553,44985],"checkbox_events":[7957,8582.5,9521.39999999851,10716.10000000149,20941.60000000149,22694,23780.10000000149,24893.10000000149,25491.69999999553,26235.89999999851,30802.39999999851],"key_events":[],"mouse_events":[4061.5,5067.39999999851,6815.89999999851,7957,8582.5,9097.89999999851,9521.39999999851,10106,10716.10000000149,15065.19999999553,17842.79999999702,19507.5,20941.60000000149,21512.19999999553,22694,23780.10000000149,24364.79999999702,24893.10000000149,25491.69999999553,26235.89999999851,29412.89999999851,30802.39999999851,35572.10000000149,37836.19999999553,42897.29999999702,44985,45843.39999999851],"honeypot":0,"survey":"mace","page":10,"trial_type":"survey-mace","trial_index":18,"time_elapsed":643435,"internal_node_id":"0.0-18.0","task_version":"prescreen-v0.3","browser_interactions":0,"instructed":0},{"rt":5368.60000000149,"trial_type":"mental-health-alert","trial_index":19,"time_elapsed":648807,"internal_node_id":"0.0-19.0","task_version":"prescreen-v0.3","interactions":"[]"}]