[{"view_history":[{"page_index":0,"viewing_time":3699.5},{"page_index":1,"viewing_time":2806.1999999955297},{"page_index":2,"viewing_time":5046.10000000149},{"page_index":3,"viewing_time":1269.5}],"rt":12822.19999999553,"trial_type":"instructions","trial_index":0,"time_elapsed":12867,"internal_node_id":"0.0-0.0","task_version":"prescreen-v0.3"},{"rt":17278.40000000596,"responses":{"age":"22","gender-categorical":"Female","gender-free-response":"","ethnicity":"Not Hispanic or Latino","race":["White"],"education":"Bachelor degree"},"trial_type":"survey-demo","trial_index":1,"time_elapsed":30155,"internal_node_id":"0.0-1.0","task_version":"prescreen-v0.3"},{"responses":{"Q02":"2","Q18":"0","Q15":"1","Q12":"1","Q06":"1","Q08":"2","Q07":"2","Q20":"1","Q03":"1","Q16":"0","Q11":"0","Q19":"0","Q13":"0","Q05":"0","Q09":"0","Q01":"1","Q17":"1","Q04":"0","Q14":"0","Q21":"3","Q10":"0"},"rt":197911.40000000596,"item_order":[1,17,14,11,5,7,6,19,2,15,10,18,12,4,8,0,16,3,13,20,9],"radio_events":[7301.70000000298,13949,21999.30000000447,25704.5,32115.90000000596,33943,36935.90000000596,48223.70000000298,51580.20000000298,54443.60000000149,57055.80000000447,59975.90000000596,62312.80000000447,64909.10000000149,70991.30000000447,71800.5,78995.80000000447,165850.6000000015,167897.5,171101.5,175485.20000000298,183081.30000000447,189364.30000000447,195350],"key_events":[],"mouse_events":[7301.70000000298,13949,21999.30000000447,25704.5,32115.90000000596,33943,36329.60000000149,36935.90000000596,48223.70000000298,51580.20000000298,54443.60000000149,57055.80000000447,59975.90000000596,62312.80000000447,64909.10000000149,68614,70991.30000000447,71800.5,78995.80000000447,165850.6000000015,167897.5,171101.5,175485.20000000298,179004.70000000298,183081.30000000447,189364.30000000447,190351,195350,197905.90000000596],"straightlining":0.47619047619047616,"zigzagging":0.4,"honeypot":0,"survey":"sns","trial_type":"survey-template","trial_index":2,"time_elapsed":228074,"internal_node_id":"0.0-2.0","task_version":"prescreen-v0.3","browser_interactions":2,"infrequency":0},{"responses":{"Q09":"2","Q13":"0","Q05":"2","Q06":"3","Q02":"2","Q07":"3","Q03":"2","Q01":"2","Q12":"1","Q10":"2","Q11":"2","Q08":"3","Q04":"2"},"rt":65366.59999999404,"item_order":[8,12,4,5,1,6,2,0,11,9,10,7,3],"radio_events":[15123.39999999851,18673.19999999553,25410.5,30242.89999999851,34060,37652.69999999553,42570.39999999851,45166,51015.29999999702,53102.39999999851,57704.29999999702,58634.79999999702,60227.89999999851,63017.39999999851,64490.5],"key_events":[],"mouse_events":[15123.39999999851,18673.19999999553,25410.5,29732.79999999702,30242.89999999851,32717.89999999851,34060,37652.69999999553,42570.39999999851,45166,51015.29999999702,53102.39999999851,55326.5,57704.29999999702,58634.79999999702,60227.89999999851,63017.39999999851,64490.5,65364.19999999553],"straightlining":0.6153846153846154,"zigzagging":0.6666666666666666,"honeypot":0,"survey":"bisbas","trial_type":"survey-template","trial_index":3,"time_elapsed":293445,"internal_node_id":"0.0-3.0","task_version":"prescreen-v0.3","browser_interactions":0,"infrequency":0},{"responses":{"Q01":"3","Q02":"3","Q03":"3"},"rt":16269.39999999851,"radio_events":[7512.39999999851,11458,15474.89999999851],"key_events":[],"mouse_events":[7512.39999999851,11458,15474.89999999851,16268.10000000149],"survey":"map","page":1,"trial_type":"survey-map","trial_index":4,"time_elapsed":309723,"internal_node_id":"0.0-4.0","task_version":"prescreen-v0.3","browser_interactions":0},{"responses":{"Q04":"2","Q05":"2","Q06":"3"},"rt":75675.89999999851,"radio_events":[67707.59999999404,69486.89999999851,73014],"key_events":[],"mouse_events":[66810.79999999702,67707.59999999404,69486.89999999851,73014,75674.79999999702],"survey":"map","page":2,"trial_type":"survey-map","trial_index":5,"time_elapsed":385414,"internal_node_id":"0.0-5.0","task_version":"prescreen-v0.3","browser_interactions":2},{"responses":{"Q07":"4","Q08":"2","Q09":"3"},"rt":12109.89999999851,"radio_events":[4345.80000000447,8347.60000000149,11235.80000000447],"key_events":[],"mouse_events":[4345.80000000447,8347.60000000149,11235.80000000447,12108.70000000298],"survey":"map","page":3,"trial_type":"survey-map","trial_index":6,"time_elapsed":397526,"internal_node_id":"0.0-6.0","task_version":"prescreen-v0.3","browser_interactions":0},{"responses":{"Q10":"1","Q11":"2","Q12":"3","Q13":"3","Q16":"0","Q14":"1","Q15":"2"},"rt":98073.60000000149,"radio_events":[62614.89999999851,64596.60000000149,68195.89999999851,73678.5,79898.39999999851,86504.89999999851,91762.39999999851,93954.60000000149,97083.80000000447],"key_events":[],"mouse_events":[62614.89999999851,64596.60000000149,68195.89999999851,73678.5,79898.39999999851,85987.10000000149,86504.89999999851,91762.39999999851,93954.60000000149,97083.80000000447,98071.30000000447],"survey":"map","page":4,"trial_type":"survey-map","trial_index":7,"time_elapsed":495605,"internal_node_id":"0.0-7.0","task_version":"prescreen-v0.3","browser_interactions":2,"infrequency":0},{"view_history":[{"page_index":0,"viewing_time":2453.5999999940395},{"page_index":1,"viewing_time":21520.80000000447}],"rt":23975.5,"trial_type":"instructions","trial_index":8,"time_elapsed":519583,"internal_node_id":"0.0-8.0","task_version":"prescreen-v0.3"},{"responses":{"01":"No","02":"No","03":"No","04":"No","05":"No","06":"No"},"rt":38226.39999999851,"item_order":[0,1,2,3,4,5],"radio_events":[23886.30000000447,28917.70000000298,32007.20000000298,33528,35315.70000000298,37378.10000000149],"checkbox_events":[],"key_events":[],"mouse_events":[0.10000000149011612,23886.30000000447,28917.70000000298,32007.20000000298,33528,35315.70000000298,37378.10000000149,38220],"honeypot":0,"survey":"mace","page":1,"trial_type":"survey-mace","trial_index":9,"time_elapsed":557819,"internal_node_id":"0.0-9.0","task_version":"prescreen-v0.3","browser_interactions":2},{"responses":{"01":"No","02":"No","03":"Yes","03_ages_2":"2","03_ages_3":"3","03_ages_4":"4","03_ages_5":"5","04":"Yes","04_ages_2":"2","04_ages_3":"3","05":"No","06":"No","07":"No","08":"No"},"rt":34853,"item_order":[0,1,2,3,4,5,6,7],"radio_events":[2972.7999999970198,5496.60000000149,8190,21633.79999999702,26261.10000000149,31131,31770.60000000149,34100],"checkbox_events":[12185.5,12913.29999999702,13552.89999999851,16894.10000000149,22806.69999999553,23275.19999999553],"key_events":[],"mouse_events":[2972.7999999970198,5496.60000000149,8190,12185.5,12913.29999999702,13552.89999999851,16894.10000000149,21633.79999999702,22806.69999999553,23275.19999999553,26261.10000000149,28688,31131,31770.60000000149,34100,34844.5],"honeypot":0,"survey":"mace","page":2,"trial_type":"survey-mace","trial_index":10,"time_elapsed":592677,"internal_node_id":"0.0-10.0","task_version":"prescreen-v0.3","browser_interactions":0},{"responses":{"01":"No","02":"No","03":"No","04":"No"},"rt":15806.30000000447,"item_order":[0,1,2,3],"radio_events":[11828.5,12532.10000000149,14060.70000000298,14788.39999999851],"checkbox_events":[],"key_events":[],"mouse_events":[11828.5,12532.10000000149,14060.70000000298,14788.39999999851,15801.80000000447],"honeypot":0,"survey":"mace","page":3,"trial_type":"survey-mace","trial_index":11,"time_elapsed":608487,"internal_node_id":"0.0-11.0","task_version":"prescreen-v0.3","browser_interactions":0},{"responses":{"01":"No","02":"No"},"rt":6429.29999999702,"item_order":[0,1],"radio_events":[4194.39999999851,5528.5],"checkbox_events":[],"key_events":[],"mouse_events":[4194.39999999851,5528.5,6426.89999999851],"honeypot":0,"survey":"mace","page":4,"trial_type":"survey-mace","trial_index":12,"time_elapsed":614920,"internal_node_id":"0.0-12.0","task_version":"prescreen-v0.3","browser_interactions":0},{"responses":{"01":"No","02":"No","03":"No","04":"No","05":"No"},"rt":24822.39999999851,"item_order":[0,1,2,3,4],"radio_events":[12141,14188,16453,19939.60000000149,21662.79999999702],"checkbox_events":[],"key_events":[],"mouse_events":[12141,14188,16453,19939.60000000149,21662.79999999702,24177.89999999851,24817.60000000149],"honeypot":0,"survey":"mace","page":5,"trial_type":"survey-mace","trial_index":13,"time_elapsed":639748,"internal_node_id":"0.0-13.0","task_version":"prescreen-v0.3","browser_interactions":0},{"responses":{"01":"No","02":"Yes","02_ages_7":"7","02_ages_8":"8","03":"No","04":"No","05":"No"},"rt":26719.70000000298,"item_order":[0,1,2,3,4],"radio_events":[9119,11660,18996.70000000298,21277.89999999851,26010.20000000298],"checkbox_events":[14126.79999999702,15041.60000000149],"key_events":[],"mouse_events":[9119,11660,14126.79999999702,15041.60000000149,18996.70000000298,21277.89999999851,26010.20000000298,26714.70000000298],"honeypot":0,"survey":"mace","page":6,"trial_type":"survey-mace","trial_index":14,"time_elapsed":666472,"internal_node_id":"0.0-14.0","task_version":"prescreen-v0.3","browser_interactions":0},{"responses":{"01":"No","02":"No","03":"No","04":"No","05":"No","06":"No","07":"No"},"rt":23326.39999999851,"item_order":[0,1,2,3,4,5,6],"radio_events":[11144.19999999553,11896.79999999702,15076.09999999404,15658,19242.19999999553,21943.5,22437.19999999553],"checkbox_events":[],"key_events":[],"mouse_events":[9340.5,11144.19999999553,11896.79999999702,13320.29999999702,15076.09999999404,15658,19242.19999999553,20503.29999999702,21943.5,22437.19999999553,23319],"honeypot":0,"survey":"mace","page":7,"trial_type":"survey-mace","trial_index":15,"time_elapsed":689803,"internal_node_id":"0.0-15.0","task_version":"prescreen-v0.3","browser_interactions":0},{"responses":{"01":"No","02":"No","03":"No","04":"No"},"rt":71775.40000000596,"item_order":[0,1,2,3],"radio_events":[8785.30000000447,67993.5,70202.40000000596,71035.60000000149],"checkbox_events":[],"key_events":[],"mouse_events":[8785.30000000447,67993.5,70202.40000000596,71035.60000000149,71771.5],"honeypot":0,"survey":"mace","page":8,"trial_type":"survey-mace","trial_index":16,"time_elapsed":761583,"internal_node_id":"0.0-16.0","task_version":"prescreen-v0.3","browser_interactions":2},{"responses":{"01":"Yes","01_ages_1":"1","01_ages_2":"2","01_ages_3":"3","01_ages_4":"4","01_ages_5":"5","01_ages_6":"6","01_ages_7":"7","01_ages_8":"8","01_ages_9":"9","01_ages_10":"10","01_ages_11":"11","01_ages_12":"12","01_ages_13":"13","01_ages_14":"14","01_ages_15":"15","01_ages_16":"16","01_ages_17":"17","01_ages_18":"18","02":"Yes","02_ages_1":"1","02_ages_2":"2","02_ages_3":"3","02_ages_4":"4","02_ages_5":"5","02_ages_6":"6","02_ages_7":"7","02_ages_8":"8","02_ages_9":"9","02_ages_10":"10","02_ages_11":"11","02_ages_12":"12","02_ages_13":"13","02_ages_14":"14","02_ages_15":"15","02_ages_16":"16","02_ages_17":"17","02_ages_18":"18","03":"Yes","03_ages_1":"1","03_ages_2":"2","03_ages_3":"3","03_ages_4":"4","03_ages_5":"5","03_ages_6":"6","03_ages_7":"7","03_ages_8":"8","03_ages_9":"9","03_ages_10":"10","03_ages_11":"11","03_ages_12":"12","03_ages_13":"13","03_ages_14":"14","03_ages_15":"15","03_ages_16":"16","03_ages_17":"17","03_ages_18":"18","04":"Yes","04_ages_1":"1","04_ages_2":"2","04_ages_3":"3","04_ages_4":"4","04_ages_5":"5","04_ages_6":"6","04_ages_7":"7","04_ages_8":"8","04_ages_9":"9","04_ages_10":"10","04_ages_11":"11","04_ages_12":"12","04_ages_13":"13","04_ages_14":"14","04_ages_15":"15","04_ages_16":"16","04_ages_17":"17","04_ages_18":"18"},"rt":84882.19999999553,"item_order":[0,1,2,3],"radio_events":[7118,32173,48545.29999999702,68570.89999999851],"checkbox_events":[9901.39999999851,15451.60000000149,16001.19999999553,16623.60000000149,17182.39999999851,17691.89999999851,18193.10000000149,19131.60000000149,19690.39999999851,20215.5,20766.29999999702,21914.29999999702,22545.69999999553,23848.39999999851,24568.29999999702,25199.5,25806,26396.10000000149,33800.10000000149,34291.39999999851,34801.60000000149,35473.10000000149,36014.89999999851,36523.79999999702,37382,37907.5,38546.89999999851,39089,39647.10000000149,40245.69999999553,40747.39999999851,41361.39999999851,41943.89999999851,42478.19999999553,43392.39999999851,43998.89999999851,50366,51716.60000000149,52355.60000000149,52881.39999999851,53447.60000000149,54005.60000000149,54653.19999999553,55356.69999999553,55963.79999999702,56602.29999999702,57362.39999999851,58463.5,59135,59741.60000000149,60469.39999999851,61294.5,61966.39999999851,62588.89999999851,70285.89999999851,70730.39999999851,71296.29999999702,71894.89999999851,73464,74071.29999999702,74847.69999999553,76052.69999999553,76602.5,77266.19999999553,78860,79596.19999999553,80631.39999999851,81335.39999999851,82063.10000000149,82701.69999999553,83478.5,84118.19999999553],"key_events":[],"mouse_events":[7118,9901.39999999851,10402.19999999553,13623,14747.19999999553,15451.60000000149,16001.19999999553,16623.60000000149,17182.39999999851,17691.89999999851,18193.10000000149,18735.5,19131.60000000149,19690.39999999851,20215.5,20766.29999999702,21469.89999999851,21914.29999999702,22545.69999999553,23225.69999999553,23848.39999999851,24568.29999999702,25199.5,25806,26396.10000000149,32173,33800.10000000149,34291.39999999851,34801.60000000149,35473.10000000149,36014.89999999851,36523.79999999702,37382,37907.5,38546.89999999851,39089,39647.10000000149,40245.69999999553,40747.39999999851,41361.39999999851,41943.89999999851,42478.19999999553,43392.39999999851,43998.89999999851,48545.29999999702,50366,50794.29999999702,51247,51716.60000000149,52355.60000000149,52881.39999999851,53447.60000000149,54005.60000000149,54653.19999999553,55356.69999999553,55963.79999999702,56602.29999999702,57362.39999999851,57945.69999999553,58463.5,59135,59741.60000000149,60469.39999999851,61294.5,61966.39999999851,62588.89999999851,68570.89999999851,70285.89999999851,70730.39999999851,71296.29999999702,71894.89999999851,72493.29999999702,73464,74071.29999999702,74847.69999999553,75502.5,76052.69999999553,76602.5,77266.19999999553,78860,79596.19999999553,80219.19999999553,80631.39999999851,81335.39999999851,82063.10000000149,82701.69999999553,83478.5,84118.19999999553,84878.39999999851],"honeypot":0,"survey":"mace","page":9,"trial_type":"survey-mace","trial_index":17,"time_elapsed":846471,"internal_node_id":"0.0-17.0","task_version":"prescreen-v0.3","browser_interactions":0},{"responses":{"01":"No","02":"No","03":"No","04":"No","05":"No","06":"Yes","06_ages_17":"17","07":"Yes","07_ages_1":"1","07_ages_2":"2","07_ages_3":"3","07_ages_4":"4","07_ages_5":"5","07_ages_6":"6","07_ages_7":"7","07_ages_8":"8","07_ages_9":"9","07_ages_10":"10","07_ages_11":"11","07_ages_12":"12","07_ages_13":"13","07_ages_14":"14","07_ages_15":"15","07_ages_16":"16","07_ages_17":"17","07_ages_18":"18","08":"Yes","08_ages_1":"1","08_ages_2":"2","08_ages_3":"3","08_ages_4":"4","08_ages_5":"5","08_ages_6":"6","08_ages_7":"7","08_ages_8":"8","08_ages_9":"9","08_ages_10":"10","08_ages_11":"11","08_ages_12":"12","08_ages_13":"13","08_ages_14":"14","08_ages_15":"15","08_ages_16":"16","08_ages_17":"17","08_ages_18":"18"},"rt":55841.70000000298,"item_order":[0,1,2,3,4,5,6,7],"radio_events":[4981,6396.70000000298,9025.80000000447,11702.80000000447,14259.60000000149,16881.30000000447,23709.60000000149,41725.60000000149],"checkbox_events":[18644.60000000149,26726.20000000298,27940.10000000149,28602.80000000447,30237.70000000298,30900.89999999851,31572.5,32211.70000000298,33101.5,33610.70000000298,34258.60000000149,34856.60000000149,35407.10000000149,36119,36911.89999999851,37526.80000000447,38157.60000000149,38877.5,39500.30000000447,43368.5,43893.80000000447,44468.20000000298,45091,46183.39999999851,46782,47518.10000000149,48140.89999999851,48780.10000000149,49435.10000000149,50090.60000000149,50745.5,51408.30000000447,52129,52776.39999999851,53399.10000000149,54051.70000000298,55179.10000000149],"key_events":[],"mouse_events":[4981,6396.70000000298,9025.80000000447,11702.80000000447,14259.60000000149,16881.30000000447,18644.60000000149,23709.60000000149,26726.20000000298,27130.60000000149,27940.10000000149,28602.80000000447,30237.70000000298,30900.89999999851,31572.5,32211.70000000298,33101.5,33610.70000000298,34258.60000000149,34856.60000000149,35407.10000000149,36119,36911.89999999851,37526.80000000447,38157.60000000149,38877.5,39500.30000000447,40512,41256.30000000447,41725.60000000149,43368.5,43893.80000000447,44468.20000000298,45091,45689.30000000447,46183.39999999851,46782,47518.10000000149,48140.89999999851,48780.10000000149,49435.10000000149,50090.60000000149,50745.5,51408.30000000447,52129,52776.39999999851,53399.10000000149,54051.70000000298,54676.80000000447,55179.10000000149,55834.10000000149],"honeypot":0,"survey":"mace","page":10,"trial_type":"survey-mace","trial_index":18,"time_elapsed":902319,"internal_node_id":"0.0-18.0","task_version":"prescreen-v0.3","browser_interactions":0,"instructed":0},{"rt":6534.20000000298,"trial_type":"mental-health-alert","trial_index":19,"time_elapsed":908855,"internal_node_id":"0.0-19.0","task_version":"prescreen-v0.3","interactions":"[{\"event\":\"blur\",\"trial\":2,\"time\":111150},{\"event\":\"focus\",\"trial\":2,\"time\":189301},{\"event\":\"blur\",\"trial\":5,\"time\":314019},{\"event\":\"focus\",\"trial\":5,\"time\":371534},{\"event\":\"blur\",\"trial\":7,\"time\":399798},{\"event\":\"focus\",\"trial\":7,\"time\":456036},{\"event\":\"blur\",\"trial\":8,\"time\":500173},{\"event\":\"focus\",\"trial\":8,\"time\":512864},{\"event\":\"blur\",\"trial\":9,\"time\":524953},{\"event\":\"focus\",\"trial\":9,\"time\":534063},{\"event\":\"blur\",\"trial\":16,\"time\":700611},{\"event\":\"focus\",\"trial\":16,\"time\":753516}]"}]