[{"view_history":[{"page_index":0,"viewing_time":3542.8000000715256},{"page_index":1,"viewing_time":3106.7999999523163},{"page_index":2,"viewing_time":2717.5},{"page_index":3,"viewing_time":1148.1000000238419}],"rt":10516.600000023842,"trial_type":"instructions","trial_index":0,"time_elapsed":10534,"internal_node_id":"0.0-0.0","task_version":"prescreen-v0.3"},{"rt":14717.100000023842,"responses":{"age":"20","gender-categorical":"Male","gender-free-response":"","ethnicity":"Not Hispanic or Latino","race":["White"],"education":"Some college"},"trial_type":"survey-demo","trial_index":1,"time_elapsed":25261,"internal_node_id":"0.0-1.0","task_version":"prescreen-v0.3"},{"responses":{"Q05":"2","Q17":"1","Q09":"0","Q12":"1","Q15":"2","Q14":"2","Q20":"0","Q03":"1","Q07":"2","Q18":"0","Q16":"0","Q04":"0","Q01":"3","Q08":"1","Q02":"1","Q13":"2","Q11":"2","Q21":"3","Q19":"1","Q10":"1","Q06":"3"},"rt":135329,"item_order":[4,16,8,11,14,13,19,2,6,17,15,3,0,7,1,12,10,20,18,9,5],"radio_events":[10418.399999976158,18343,21555.100000023842,32588,37530.799999952316,42921.89999997616,57907,58962.299999952316,67411.69999992847,71696.19999992847,77713.19999992847,79981.5,86493,88327.60000002384,91008.89999997616,92538.60000002384,95019.39999997616,97263.5,98989.60000002384,101931.39999997616,108782.29999995232,111013.60000002384,134760.39999997616],"key_events":[],"mouse_events":[10418.399999976158,18343,21555.100000023842,32588,37530.799999952316,42921.89999997616,57907,58962.299999952316,67411.69999992847,71696.19999992847,77713.19999992847,79981.5,86493,88327.60000002384,91008.89999997616,92538.60000002384,95019.39999997616,97263.5,98989.60000002384,101931.39999997616,108782.29999995232,111013.60000002384,134760.39999997616,135322.69999992847],"straightlining":0.3333333333333333,"zigzagging":0.45,"honeypot":0,"survey":"sns","trial_type":"survey-template","trial_index":2,"time_elapsed":160603,"internal_node_id":"0.0-2.0","task_version":"prescreen-v0.3","browser_interactions":0,"infrequency":0},{"responses":{"Q11":"3","Q05":"3","Q04":"3","Q10":"1","Q01":"2","Q09":"2","Q13":"0","Q06":"3","Q03":"0","Q07":"3","Q02":"1","Q12":"2","Q08":"3"},"rt":63326.700000047684,"item_order":[10,4,3,9,0,8,12,5,2,6,1,11,7],"radio_events":[22555.600000023842,27287.300000071526,31416.900000095367,33700.40000009537,35715.700000047684,39227.800000071526,41960.700000047684,47824.90000009537,51280.90000009537,53327.800000071526,56422.5,59617,62752.10000002384],"key_events":[],"mouse_events":[22555.600000023842,27287.300000071526,31416.900000095367,33700.40000009537,35715.700000047684,39227.800000071526,41960.700000047684,47824.90000009537,50702.700000047684,51280.90000009537,53327.800000071526,55880.700000047684,56422.5,59617,62752.10000002384,63322.800000071526],"straightlining":0.46153846153846156,"zigzagging":0.5,"honeypot":0,"survey":"bisbas","trial_type":"survey-template","trial_index":3,"time_elapsed":223947,"internal_node_id":"0.0-3.0","task_version":"prescreen-v0.3","browser_interactions":0,"infrequency":0},{"responses":{"Q01":"4","Q02":"2","Q03":"2"},"rt":15091.600000023842,"radio_events":[6994.100000023842,9715.200000047684,13275.700000047684],"key_events":[],"mouse_events":[6994.100000023842,9715.200000047684,13275.700000047684,15089.800000071526],"survey":"map","page":1,"trial_type":"survey-map","trial_index":4,"time_elapsed":239045,"internal_node_id":"0.0-4.0","task_version":"prescreen-v0.3","browser_interactions":0},{"responses":{"Q04":"3","Q05":"4","Q06":"2"},"rt":13205.200000047684,"radio_events":[4862.799999952316,8928.700000047684,11999.700000047684],"key_events":[],"mouse_events":[4862.799999952316,8928.700000047684,11999.700000047684,13203.600000023842],"survey":"map","page":2,"trial_type":"survey-map","trial_index":5,"time_elapsed":252255,"internal_node_id":"0.0-5.0","task_version":"prescreen-v0.3","browser_interactions":0},{"responses":{"Q07":"3","Q08":"4","Q09":"3"},"rt":14278.299999952316,"radio_events":[5204.699999928474,10194.199999928474,13598.299999952316],"key_events":[],"mouse_events":[5204.699999928474,10194.199999928474,13598.299999952316,14276.699999928474],"survey":"map","page":3,"trial_type":"survey-map","trial_index":6,"time_elapsed":266537,"internal_node_id":"0.0-6.0","task_version":"prescreen-v0.3","browser_interactions":0},{"responses":{"Q10":"3","Q11":"1","Q12":"4","Q13":"4","Q16":"0","Q14":"2","Q15":"1"},"rt":31825.800000071526,"radio_events":[3855.9000000953674,6171.800000071526,9383.800000071526,14116.900000095367,16304.600000023842,19583.900000095367,26058.700000047684,26901.5,29715.100000023842],"key_events":[],"mouse_events":[3855.9000000953674,6171.800000071526,9383.800000071526,14116.900000095367,16304.600000023842,19583.900000095367,26058.700000047684,26901.5,29715.100000023842,31822.400000095367],"survey":"map","page":4,"trial_type":"survey-map","trial_index":7,"time_elapsed":298369,"internal_node_id":"0.0-7.0","task_version":"prescreen-v0.3","browser_interactions":0,"infrequency":0},{"view_history":[{"page_index":0,"viewing_time":2142.3000000715256},{"page_index":1,"viewing_time":2452.5999999046326}],"rt":4596.200000047684,"trial_type":"instructions","trial_index":8,"time_elapsed":302977,"internal_node_id":"0.0-8.0","task_version":"prescreen-v0.3"},{"responses":{"01":"Yes","01_ages_12":"12","01_ages_13":"13","01_ages_14":"14","01_ages_15":"15","01_ages_16":"16","02":"No","03":"No","04":"No","05":"No","06":"No"},"rt":32287.899999976158,"item_order":[0,1,2,3,4,5],"radio_events":[7665.200000047684,26105.299999952316,26872.700000047684,28308.5,29617.100000023842,31692],"checkbox_events":[16175.700000047684,16873.899999976158,17616.299999952316,18940.899999976158,20971.600000023842],"key_events":[],"mouse_events":[0.10000002384185791,7665.200000047684,16175.700000047684,16873.899999976158,17616.299999952316,18370.700000047684,18940.899999976158,20971.600000023842,26105.299999952316,26872.700000047684,28308.5,29617.100000023842,31692,32278.600000023842],"honeypot":0,"survey":"mace","page":1,"trial_type":"survey-mace","trial_index":9,"time_elapsed":335277,"internal_node_id":"0.0-9.0","task_version":"prescreen-v0.3","browser_interactions":0},{"responses":{"01":"No","02":"No","03":"Yes","03_ages_3":"3","03_ages_4":"4","03_ages_5":"5","03_ages_6":"6","04":"Yes","04_ages_3":"3","04_ages_4":"4","04_ages_5":"5","04_ages_6":"6","05":"No","06":"No","07":"No","08":"No"},"rt":35942.89999997616,"item_order":[0,1,2,3,4,5,6,7],"radio_events":[2617.100000023842,3849.3000000715256,7196.300000071526,18029.800000071526,30524.700000047684,31712.5,33133.39999997616,35031.700000047684],"checkbox_events":[9833.200000047684,10892.800000071526,11471.399999976158,12052.800000071526,12791.899999976158,14100.600000023842,19306,19924.200000047684,20466.300000071526,21879.300000071526],"key_events":[],"mouse_events":[2617.100000023842,3849.3000000715256,7196.300000071526,9833.200000047684,10443.800000071526,10892.800000071526,11471.399999976158,12052.800000071526,12791.899999976158,14100.600000023842,18029.800000071526,19306,19924.200000047684,20466.300000071526,21397.399999976158,21879.300000071526,23548.899999976158,30524.700000047684,31712.5,33133.39999997616,35031.700000047684,35922.89999997616],"honeypot":0,"survey":"mace","page":2,"trial_type":"survey-mace","trial_index":10,"time_elapsed":371229,"internal_node_id":"0.0-10.0","task_version":"prescreen-v0.3","browser_interactions":0},{"responses":{"01":"No","02":"No","03":"No","04":"No"},"rt":14021.899999976158,"item_order":[0,1,2,3],"radio_events":[4993.100000023842,10398.700000047684,12152.5,13243.100000023842],"checkbox_events":[],"key_events":[],"mouse_events":[4446.899999976158,4993.100000023842,10398.700000047684,12152.5,13243.100000023842,14014.700000047684],"honeypot":0,"survey":"mace","page":3,"trial_type":"survey-mace","trial_index":11,"time_elapsed":385256,"internal_node_id":"0.0-11.0","task_version":"prescreen-v0.3","browser_interactions":0},{"responses":{"01":"No","02":"No"},"rt":5434.899999976158,"item_order":[0,1],"radio_events":[2874.5,4825.300000071526],"checkbox_events":[],"key_events":[],"mouse_events":[2874.5,4825.300000071526,5431.300000071526],"honeypot":0,"survey":"mace","page":4,"trial_type":"survey-mace","trial_index":12,"time_elapsed":390695,"internal_node_id":"0.0-12.0","task_version":"prescreen-v0.3","browser_interactions":0},{"responses":{"01":"No","02":"No","03":"No","04":"No","05":"No"},"rt":48750.5,"item_order":[0,1,2,3,4],"radio_events":[28948.5,31508.399999976158,33386.700000047684,35413.39999997616,40313.5],"checkbox_events":[],"key_events":[],"mouse_events":[28948.5,31508.399999976158,33386.700000047684,35413.39999997616,40313.5,48742.60000002384],"honeypot":0,"survey":"mace","page":5,"trial_type":"survey-mace","trial_index":13,"time_elapsed":439452,"internal_node_id":"0.0-13.0","task_version":"prescreen-v0.3","browser_interactions":0},{"responses":{"01":"No","02":"Yes","02_ages_16":"16","02_ages_17":"17","02_ages_18":"18","03":"No","04":"Yes","04_ages_15":"15","04_ages_16":"16","05":"No"},"rt":24503.799999952316,"item_order":[0,1,2,3,4],"radio_events":[6665.799999952316,8877.100000023842,16418.100000023842,18766.100000023842,23915.799999952316],"checkbox_events":[9936.199999928474,10739.299999952316,11357.299999952316,12159.699999928474,12693.399999976158,20235.199999928474,20789.100000023842],"key_events":[],"mouse_events":[6665.799999952316,8877.100000023842,9936.199999928474,10739.299999952316,11357.299999952316,12159.699999928474,12693.399999976158,16418.100000023842,18766.100000023842,20235.199999928474,20789.100000023842,23915.799999952316,24494],"honeypot":0,"survey":"mace","page":6,"trial_type":"survey-mace","trial_index":14,"time_elapsed":463961,"internal_node_id":"0.0-14.0","task_version":"prescreen-v0.3","browser_interactions":0},{"responses":{"01":"No","02":"No","03":"No","04":"No","05":"No","06":"No","07":"No"},"rt":37180.5,"item_order":[0,1,2,3,4,5,6],"radio_events":[21333.399999976158,22937.799999952316,27123.899999976158,28444.199999928474,31646.799999952316,32967.39999997616,34845.89999997616],"checkbox_events":[],"key_events":[],"mouse_events":[21333.399999976158,22937.799999952316,27123.899999976158,28444.199999928474,31646.799999952316,32967.39999997616,34845.89999997616,37170.09999990463],"honeypot":0,"survey":"mace","page":7,"trial_type":"survey-mace","trial_index":15,"time_elapsed":501149,"internal_node_id":"0.0-15.0","task_version":"prescreen-v0.3","browser_interactions":0},{"responses":{"01":"No","02":"No","03":"No","04":"No"},"rt":13000,"item_order":[0,1,2,3],"radio_events":[6611.200000047684,7795.200000047684,9625.600000023842,12278.600000023842],"checkbox_events":[],"key_events":[],"mouse_events":[6611.200000047684,7795.200000047684,9625.600000023842,12278.600000023842,12993.399999976158],"honeypot":0,"survey":"mace","page":8,"trial_type":"survey-mace","trial_index":16,"time_elapsed":514154,"internal_node_id":"0.0-16.0","task_version":"prescreen-v0.3","browser_interactions":0},{"responses":{"01":"Yes","01_ages_4":"4","01_ages_5":"5","01_ages_6":"6","01_ages_7":"7","01_ages_8":"8","01_ages_9":"9","01_ages_10":"10","01_ages_11":"11","01_ages_12":"12","01_ages_13":"13","01_ages_14":"14","01_ages_15":"15","01_ages_16":"16","01_ages_17":"17","01_ages_18":"18","02":"Yes","02_ages_4":"4","02_ages_5":"5","02_ages_6":"6","02_ages_7":"7","02_ages_8":"8","02_ages_9":"9","02_ages_10":"10","02_ages_11":"11","02_ages_12":"12","02_ages_13":"13","02_ages_14":"14","02_ages_15":"15","02_ages_16":"16","02_ages_17":"17","02_ages_18":"18","03":"Yes","03_ages_1":"1","03_ages_2":"2","03_ages_3":"3","03_ages_4":"4","03_ages_5":"5","03_ages_6":"6","03_ages_7":"7","03_ages_8":"8","03_ages_9":"9","03_ages_10":"10","03_ages_11":"11","03_ages_12":"12","03_ages_13":"13","03_ages_14":"14","03_ages_15":"15","03_ages_16":"16","03_ages_17":"17","03_ages_18":"18","04":"Yes","04_ages_1":"1","04_ages_2":"2","04_ages_3":"3","04_ages_4":"4","04_ages_5":"5","04_ages_6":"6","04_ages_7":"7","04_ages_8":"8","04_ages_9":"9","04_ages_10":"10","04_ages_11":"11","04_ages_12":"12","04_ages_13":"13","04_ages_14":"14","04_ages_15":"15","04_ages_16":"16","04_ages_17":"17","04_ages_18":"18"},"rt":70360.60000002384,"item_order":[0,1,2,3],"radio_events":[2421.1999999284744,17425.399999976158,42983.39999997616,56745.799999952316],"checkbox_events":[4938.100000023842,5435.699999928474,5949.199999928474,6447.299999952316,6940.600000023842,7438.199999928474,7928.100000023842,9036.100000023842,9558.100000023842,10264.600000023842,11051.299999952316,11697.299999952316,12299.5,12829.5,13576,20399.799999952316,21026.299999952316,21549.799999952316,22358.799999952316,23129.299999952316,23691.5,24349.899999976158,25011.5,25590.299999952316,26160.399999976158,26715.199999928474,27260.199999928474,27854.399999976158,28958.5,29529.199999928474,44283.10000002384,45202.10000002384,45852.39999997616,46350.199999928474,46848,47314.299999952316,47859.60000002384,48389.5,48903.299999952316,49388.89999997616,49862.699999928474,50359.799999952316,50874,51853.60000002384,52391.39999997616,52929,53462.89999997616,53944.5,57673.39999997616,58267.299999952316,58893.60000002384,59431.39999997616,59945.39999997616,60483.699999928474,61478.699999928474,62373.89999997616,62927.699999928474,63537.89999997616,64236.299999952316,65071.39999997616,65753.60000002384,66319.60000002384,66905.89999997616,67580.19999992847,68174.19999992847,68816.39999997616],"key_events":[],"mouse_events":[2421.1999999284744,4938.100000023842,5435.699999928474,5949.199999928474,6447.299999952316,6940.600000023842,7438.199999928474,7928.100000023842,8514.299999952316,9036.100000023842,9558.100000023842,10264.600000023842,11051.299999952316,11697.299999952316,12299.5,12829.5,13576,17425.399999976158,20399.799999952316,21026.299999952316,21549.799999952316,22358.799999952316,23129.299999952316,23691.5,24349.899999976158,25011.5,25590.299999952316,26160.399999976158,26715.199999928474,27260.199999928474,27854.399999976158,28424.5,28958.5,29529.199999928474,42983.39999997616,44283.10000002384,44772.89999997616,45202.10000002384,45852.39999997616,46350.199999928474,46848,47314.299999952316,47859.60000002384,48389.5,48903.299999952316,49388.89999997616,49862.699999928474,50359.799999952316,50874,51436.799999952316,51853.60000002384,52391.39999997616,52929,53462.89999997616,53944.5,56745.799999952316,57673.39999997616,58267.299999952316,58893.60000002384,59431.39999997616,59945.39999997616,60483.699999928474,60998.60000002384,61478.699999928474,62373.89999997616,62927.699999928474,63537.89999997616,64236.299999952316,65071.39999997616,65753.60000002384,66319.60000002384,66905.89999997616,67580.19999992847,68174.19999992847,68816.39999997616,70354],"honeypot":0,"survey":"mace","page":9,"trial_type":"survey-mace","trial_index":17,"time_elapsed":584521,"internal_node_id":"0.0-17.0","task_version":"prescreen-v0.3","browser_interactions":0},{"responses":{"01":"No","02":"No","03":"No","04":"No","05":"No","06":"Yes","06_ages_17":"17","07":"Yes","07_ages_1":"1","07_ages_2":"2","07_ages_3":"3","07_ages_4":"4","07_ages_5":"5","07_ages_6":"6","07_ages_7":"7","07_ages_8":"8","07_ages_9":"9","07_ages_10":"10","07_ages_11":"11","07_ages_12":"12","07_ages_13":"13","07_ages_14":"14","07_ages_15":"15","07_ages_16":"16","07_ages_17":"17","07_ages_18":"18","08":"Yes","08_ages_1":"1","08_ages_2":"2","08_ages_3":"3","08_ages_4":"4","08_ages_5":"5","08_ages_6":"6","08_ages_7":"7","08_ages_8":"8","08_ages_9":"9","08_ages_10":"10","08_ages_11":"11","08_ages_12":"12","08_ages_13":"13","08_ages_14":"14","08_ages_15":"15","08_ages_16":"16","08_ages_17":"17","08_ages_18":"18"},"rt":64043.60000002384,"item_order":[0,1,2,3,4,5,6,7],"radio_events":[22253.299999952316,23627.100000023842,25243.5,26591.700000047684,28076.399999976158,30312.100000023842,35541.89999997616,51030.89999997616],"checkbox_events":[31597.299999952316,36417,37035.299999952316,37556.89999997616,38183.200000047684,38773.200000047684,39871.89999997616,40530.700000047684,41285.89999997616,41823.60000002384,42401.700000047684,42935.700000047684,43666.200000047684,44501,45078.89999997616,45929.5,47061.60000002384,47667.5,48382.200000047684,51974.700000047684,52825.89999997616,53444.10000002384,54070.200000047684,54671.89999997616,55362.700000047684,55904.10000002384,56610.799999952316,57140.5,57823.10000002384,58465.39999997616,59091.5,59701.10000002384,60323.89999997616,60901.700000047684,61463.299999952316,62073.799999952316,62836.39999997616],"key_events":[],"mouse_events":[22253.299999952316,23627.100000023842,25243.5,26591.700000047684,28076.399999976158,30312.100000023842,31597.299999952316,35541.89999997616,36417,37035.299999952316,37556.89999997616,38183.200000047684,38773.200000047684,39270.700000047684,39871.89999997616,40530.700000047684,41285.89999997616,41823.60000002384,42401.700000047684,42935.700000047684,43666.200000047684,44501,45078.89999997616,45929.5,46459.39999997616,47061.60000002384,47667.5,48382.200000047684,48896.10000002384,51030.89999997616,51974.700000047684,52825.89999997616,53444.10000002384,54070.200000047684,54671.89999997616,55362.700000047684,55904.10000002384,56610.799999952316,57140.5,57823.10000002384,58465.39999997616,59091.5,59701.10000002384,60323.89999997616,60901.700000047684,61463.299999952316,62073.799999952316,62836.39999997616,64032.5],"honeypot":0,"survey":"mace","page":10,"trial_type":"survey-mace","trial_index":18,"time_elapsed":648573,"internal_node_id":"0.0-18.0","task_version":"prescreen-v0.3","browser_interactions":0,"instructed":0},{"rt":3808.899999976158,"trial_type":"mental-health-alert","trial_index":19,"time_elapsed":652385,"internal_node_id":"0.0-19.0","task_version":"prescreen-v0.3","interactions":"[{\"event\":\"blur\",\"trial\":1,\"time\":12348},{\"event\":\"focus\",\"trial\":1,\"time\":13813}]"}]