[{"view_history":[{"page_index":0,"viewing_time":4590},{"page_index":1,"viewing_time":3312},{"page_index":2,"viewing_time":2742.5},{"page_index":3,"viewing_time":1219}],"rt":11864.40000000596,"trial_type":"instructions","trial_index":0,"time_elapsed":11886,"internal_node_id":"0.0-0.0","task_version":"prescreen-v0.3"},{"rt":11117,"responses":{"age":"18","gender-categorical":"Female","gender-free-response":"","ethnicity":"Not Hispanic or Latino","race":["White"],"education":"Some college"},"trial_type":"survey-demo","trial_index":1,"time_elapsed":23022,"internal_node_id":"0.0-1.0","task_version":"prescreen-v0.3"},{"responses":{"Q19":"1","Q17":"1","Q02":"1","Q12":"2","Q11":"0","Q14":"2","Q16":"0","Q09":"2","Q15":"2","Q07":"0","Q21":"3","Q13":"1","Q06":"1","Q04":"1","Q08":"1","Q03":"0","Q05":"0","Q01":"1","Q18":"0","Q10":"0","Q20":"0"},"rt":110627.20000000298,"item_order":[18,16,1,11,10,13,15,8,14,6,20,12,5,3,7,2,4,0,17,9,19],"radio_events":[8081.0999999940395,10405.20000000298,15976.09999999404,22392.09999999404,26172.90000000596,30414.59999999404,34709.70000000298,40158.5,46330.79999999702,50866.40000000596,52358.70000000298,55611.59999999404,57213.79999999702,63818.40000000596,66803.79999999702,73546.5,77943.79999999702,89375.79999999702,91852.90000000596,93470.70000000298,97704.40000000596,100346.29999999702,102432.40000000596,105643.5,107940.70000000298,109067.5],"key_events":[],"mouse_events":[8081.0999999940395,10405.20000000298,15143.29999999702,15976.09999999404,21602.90000000596,22392.09999999404,25118.5,26172.90000000596,30414.59999999404,34709.70000000298,40158.5,46330.79999999702,50866.40000000596,52358.70000000298,55611.59999999404,56658.40000000596,57213.79999999702,63818.40000000596,66803.79999999702,73546.5,77943.79999999702,88557.70000000298,89375.79999999702,91852.90000000596,93470.70000000298,97704.40000000596,100346.29999999702,102432.40000000596,105643.5,107940.70000000298,109067.5,110623.70000000298],"straightlining":0.38095238095238093,"zigzagging":0.25,"honeypot":0,"survey":"sns","trial_type":"survey-template","trial_index":2,"time_elapsed":133651,"internal_node_id":"0.0-2.0","task_version":"prescreen-v0.3","browser_interactions":0,"infrequency":0},{"responses":{"Q08":"3","Q04":"2","Q03":"3","Q02":"3","Q12":"1","Q07":"3","Q01":"2","Q05":"3","Q13":"0","Q10":"2","Q11":"1","Q06":"2","Q09":"2"},"rt":54513.59999999404,"item_order":[7,3,2,1,11,6,0,4,12,9,10,5,8],"radio_events":[8130.399999991059,10689.29999999702,18861.5,19856.5,21831,25589.59999999404,27851.59999999404,30059.5,31625.5,35384.29999999702,39278.39999999106,44486.09999999404,47384,48838,50911.29999999702,53705.79999999702],"key_events":[],"mouse_events":[8130.399999991059,10689.29999999702,18101.29999999702,18861.5,19856.5,21831,25589.59999999404,27851.59999999404,30059.5,31625.5,35384.29999999702,39278.39999999106,44486.09999999404,47384,48320.29999999702,48838,50911.29999999702,53705.79999999702,54510.59999999404],"straightlining":0.38461538461538464,"zigzagging":0.5833333333333334,"honeypot":0,"survey":"bisbas","trial_type":"survey-template","trial_index":3,"time_elapsed":188172,"internal_node_id":"0.0-3.0","task_version":"prescreen-v0.3","browser_interactions":0,"infrequency":0},{"responses":{"Q01":"2","Q02":"3","Q03":"4"},"rt":18275.59999999404,"radio_events":[7973.5999999940395,11844.09999999404,17462.19999998808],"key_events":[],"mouse_events":[7973.5999999940395,11844.09999999404,17462.19999998808,18274.5],"survey":"map","page":1,"trial_type":"survey-map","trial_index":4,"time_elapsed":206452,"internal_node_id":"0.0-4.0","task_version":"prescreen-v0.3","browser_interactions":0},{"responses":{"Q04":"2","Q05":"2","Q06":"3"},"rt":17484.39999999106,"radio_events":[7860.5,12712.199999988079,16619.69999998808],"key_events":[],"mouse_events":[7860.5,12712.199999988079,16619.69999998808,17483.29999999702],"survey":"map","page":2,"trial_type":"survey-map","trial_index":5,"time_elapsed":223940,"internal_node_id":"0.0-5.0","task_version":"prescreen-v0.3","browser_interactions":0},{"responses":{"Q07":"3","Q08":"4","Q09":"2"},"rt":29546.20000000298,"radio_events":[22286.40000000596,26039.5,28600.09999999404],"key_events":[],"mouse_events":[22286.40000000596,26039.5,28600.09999999404,29545.29999999702],"survey":"map","page":3,"trial_type":"survey-map","trial_index":6,"time_elapsed":253490,"internal_node_id":"0.0-6.0","task_version":"prescreen-v0.3","browser_interactions":0},{"responses":{"Q10":"2","Q11":"2","Q12":"3","Q13":"3","Q16":"0","Q14":"3","Q15":"2"},"rt":43690.90000000596,"radio_events":[5139.20000000298,16127.800000011921,19956.5,24101.90000000596,28188.60000000894,34122.90000000596,42801.5],"key_events":[],"mouse_events":[4289.70000000298,5139.20000000298,16127.800000011921,19956.5,24101.90000000596,28188.60000000894,34122.90000000596,42801.5,43688.10000000894],"survey":"map","page":4,"trial_type":"survey-map","trial_index":7,"time_elapsed":297185,"internal_node_id":"0.0-7.0","task_version":"prescreen-v0.3","browser_interactions":0,"infrequency":0},{"view_history":[{"page_index":0,"viewing_time":2526},{"page_index":1,"viewing_time":3656.8999999910593}],"rt":6183.5,"trial_type":"instructions","trial_index":8,"time_elapsed":303371,"internal_node_id":"0.0-8.0","task_version":"prescreen-v0.3"},{"responses":{"01":"No","02":"No","03":"No","04":"No","05":"No","06":"No"},"rt":29292.20000000298,"item_order":[0,1,2,3,4,5],"radio_events":[8136.899999991059,13486.59999999404,17576.89999999106,21673.59999999404,23334.70000000298,25003.79999999702,27548.39999999106],"checkbox_events":[],"key_events":[],"mouse_events":[0.09999999403953552,8136.899999991059,13486.59999999404,17576.89999999106,21673.59999999404,23334.70000000298,25003.79999999702,27548.39999999106,29287],"honeypot":0,"survey":"mace","page":1,"trial_type":"survey-mace","trial_index":9,"time_elapsed":332678,"internal_node_id":"0.0-9.0","task_version":"prescreen-v0.3","browser_interactions":0},{"responses":{"01":"No","02":"No","03":"No","04":"No","05":"No","06":"No","07":"No","08":"No"},"rt":17104.39999999106,"item_order":[0,1,2,3,4,5,6,7],"radio_events":[3682.7999999970198,5446.399999991059,9606.09999999404,10337.59999999404,12043.199999988079,13819.59999999404,15158.39999999106,16409.09999999404],"checkbox_events":[],"key_events":[],"mouse_events":[3682.7999999970198,5446.399999991059,7336.199999988079,9606.09999999404,10337.59999999404,12043.199999988079,13819.59999999404,15158.39999999106,16409.09999999404,17100.29999999702],"honeypot":0,"survey":"mace","page":2,"trial_type":"survey-mace","trial_index":10,"time_elapsed":349787,"internal_node_id":"0.0-10.0","task_version":"prescreen-v0.3","browser_interactions":0},{"responses":{"01":"No","02":"No","03":"No","04":"No"},"rt":12863.89999999106,"item_order":[0,1,2,3],"radio_events":[5788.5999999940395,9303.39999999106,10882.70000000298,12098.20000000298],"checkbox_events":[],"key_events":[],"mouse_events":[5788.5999999940395,9303.39999999106,10882.70000000298,12098.20000000298,12860.89999999106],"honeypot":0,"survey":"mace","page":3,"trial_type":"survey-mace","trial_index":11,"time_elapsed":362654,"internal_node_id":"0.0-11.0","task_version":"prescreen-v0.3","browser_interactions":0},{"responses":{"01":"No","02":"No"},"rt":6442.899999991059,"item_order":[0,1],"radio_events":[3464.5999999940395,5731.0999999940395],"checkbox_events":[],"key_events":[],"mouse_events":[3464.5999999940395,5731.0999999940395,6441.29999999702],"honeypot":0,"survey":"mace","page":4,"trial_type":"survey-mace","trial_index":12,"time_elapsed":369100,"internal_node_id":"0.0-12.0","task_version":"prescreen-v0.3","browser_interactions":0},{"responses":{"01":"No","02":"No","03":"No","04":"No","05":"No"},"rt":33417,"item_order":[0,1,2,3,4],"radio_events":[8205.10000000894,21410.10000000894,25970.60000000894,29249,32615.29999999702],"checkbox_events":[],"key_events":[],"mouse_events":[8205.10000000894,21410.10000000894,25970.60000000894,29249,32615.29999999702,33413.20000000298],"honeypot":0,"survey":"mace","page":5,"trial_type":"survey-mace","trial_index":13,"time_elapsed":402524,"internal_node_id":"0.0-13.0","task_version":"prescreen-v0.3","browser_interactions":0},{"responses":{"01":"No","02":"No","03":"No","04":"Yes","04_ages_16":"16","04_ages_17":"17","05":"No"},"rt":30572.40000000596,"item_order":[0,1,2,3,4],"radio_events":[9374.20000000298,11227.90000000596,14771,23979.90000000596,25364],"checkbox_events":[26672.29999999702,28783.09999999404],"key_events":[],"mouse_events":[9374.20000000298,11227.90000000596,14771,23979.90000000596,25364,26672.29999999702,28226.20000000298,28783.09999999404,30568.70000000298],"honeypot":0,"survey":"mace","page":6,"trial_type":"survey-mace","trial_index":14,"time_elapsed":433101,"internal_node_id":"0.0-14.0","task_version":"prescreen-v0.3","browser_interactions":0},{"responses":{"01":"No","02":"No","03":"No","04":"No","05":"No","06":"No","07":"No"},"rt":14219.89999999106,"item_order":[0,1,2,3,4,5,6],"radio_events":[2734.0999999940395,5646.0999999940395,7095.899999991059,8437.5,9871.29999999702,11604.699999988079,13163.699999988079],"checkbox_events":[],"key_events":[],"mouse_events":[2734.0999999940395,5646.0999999940395,7095.899999991059,8437.5,9871.29999999702,11604.699999988079,13163.699999988079,14214.59999999404],"honeypot":0,"survey":"mace","page":7,"trial_type":"survey-mace","trial_index":15,"time_elapsed":447328,"internal_node_id":"0.0-15.0","task_version":"prescreen-v0.3","browser_interactions":0},{"responses":{"01":"No","02":"No","03":"No","04":"No"},"rt":17544,"item_order":[0,1,2,3],"radio_events":[8729.5,10380.79999999702,14054.09999999404,16469.79999999702],"checkbox_events":[],"key_events":[],"mouse_events":[8729.5,10380.79999999702,14054.09999999404,16469.79999999702,17541.09999999404],"honeypot":0,"survey":"mace","page":8,"trial_type":"survey-mace","trial_index":16,"time_elapsed":464873,"internal_node_id":"0.0-16.0","task_version":"prescreen-v0.3","browser_interactions":0},{"responses":{"01":"Yes","01_ages_1":"1","01_ages_2":"2","01_ages_3":"3","01_ages_4":"4","01_ages_5":"5","01_ages_6":"6","01_ages_7":"7","01_ages_8":"8","01_ages_9":"9","01_ages_10":"10","01_ages_11":"11","01_ages_12":"12","01_ages_13":"13","01_ages_14":"14","01_ages_15":"15","01_ages_16":"16","01_ages_17":"17","01_ages_18":"18","02":"Yes","02_ages_1":"1","02_ages_2":"2","02_ages_3":"3","02_ages_4":"4","02_ages_5":"5","02_ages_6":"6","02_ages_7":"7","02_ages_8":"8","02_ages_9":"9","02_ages_10":"10","02_ages_11":"11","02_ages_12":"12","02_ages_13":"13","02_ages_14":"14","02_ages_15":"15","02_ages_16":"16","02_ages_17":"17","02_ages_18":"18","03":"Yes","03_ages_1":"1","03_ages_2":"2","03_ages_3":"3","03_ages_4":"4","03_ages_5":"5","03_ages_6":"6","03_ages_7":"7","03_ages_8":"8","03_ages_9":"9","03_ages_10":"10","03_ages_11":"11","03_ages_12":"12","03_ages_13":"13","03_ages_14":"14","03_ages_15":"15","03_ages_16":"16","03_ages_17":"17","03_ages_18":"18","04":"Yes","04_ages_1":"1","04_ages_2":"2","04_ages_3":"3","04_ages_4":"4","04_ages_5":"5","04_ages_6":"6","04_ages_7":"7","04_ages_8":"8","04_ages_9":"9","04_ages_10":"10","04_ages_11":"11","04_ages_12":"12","04_ages_13":"13","04_ages_14":"14","04_ages_15":"15","04_ages_16":"16","04_ages_17":"17","04_ages_18":"18"},"rt":88971.40000000596,"item_order":[0,1,2,3],"radio_events":[7250,30706.20000000298,52510.40000000596,56120.5],"checkbox_events":[12062.40000000596,13335.5,14225.70000000298,15122.59999999404,16619.40000000596,17340.70000000298,17866.40000000596,18387.29999999702,19696,20311.90000000596,21168.90000000596,21924.59999999404,22860.59999999404,23561.90000000596,24747.20000000298,25399.20000000298,26373.79999999702,27785.5,32097.70000000298,32770,33627.29999999702,34235.5,34901.29999999702,42168.5,42871,43544.20000000298,44159.09999999404,44722.59999999404,45368.59999999404,45937.79999999702,46596.59999999404,47394.59999999404,47931.90000000596,48552.79999999702,49239.90000000596,50096.59999999404,58340.90000000596,59036.20000000298,60314.5,60976.29999999702,61633.59999999404,62878.09999999404,63493.5,64027.5,64701.59999999404,65573.79999999702,66341.40000000596,67513.29999999702,68304.59999999404,68954.90000000596,69724.90000000596,70846,71467.09999999404,72127.09999999404,76132.09999999404,76842.09999999404,77362.40000000596,78034.59999999404,78721.29999999702,79280.20000000298,79932.5,81073.29999999702,81630.5,82304.29999999702,83168.5,83651.20000000298,84338.20000000298,84841.79999999702,85523.09999999404,86233.29999999702,86928.79999999702,87508.40000000596],"key_events":[],"mouse_events":[7250,12062.40000000596,13335.5,14225.70000000298,15122.59999999404,16619.40000000596,17340.70000000298,17866.40000000596,18387.29999999702,18957.90000000596,19696,20311.90000000596,21168.90000000596,21924.59999999404,22860.59999999404,23561.90000000596,24747.20000000298,25399.20000000298,26373.79999999702,27785.5,30706.20000000298,32097.70000000298,32770,33627.29999999702,34235.5,34901.29999999702,42168.5,42871,43544.20000000298,44159.09999999404,44722.59999999404,45368.59999999404,45937.79999999702,46596.59999999404,47394.59999999404,47931.90000000596,48552.79999999702,49239.90000000596,50096.59999999404,52510.40000000596,56120.5,57505.40000000596,58340.90000000596,59036.20000000298,60314.5,60976.29999999702,61633.59999999404,62878.09999999404,63493.5,64027.5,64701.59999999404,65573.79999999702,66341.40000000596,67513.29999999702,68304.59999999404,68954.90000000596,69724.90000000596,70846,71467.09999999404,72127.09999999404,76132.09999999404,76842.09999999404,77362.40000000596,78034.59999999404,78721.29999999702,79280.20000000298,79932.5,81073.29999999702,81630.5,82304.29999999702,83168.5,83651.20000000298,84338.20000000298,84841.79999999702,85523.09999999404,86233.29999999702,86928.79999999702,87508.40000000596,88131.59999999404,88968.5],"honeypot":0,"survey":"mace","page":9,"trial_type":"survey-mace","trial_index":17,"time_elapsed":553849,"internal_node_id":"0.0-17.0","task_version":"prescreen-v0.3","browser_interactions":0},{"responses":{"01":"No","02":"No","03":"No","04":"No","05":"No","06":"Yes","06_ages_17":"17","07":"Yes","07_ages_1":"1","07_ages_2":"2","07_ages_3":"3","07_ages_4":"4","07_ages_5":"5","07_ages_6":"6","07_ages_7":"7","07_ages_8":"8","07_ages_9":"9","07_ages_10":"10","07_ages_11":"11","07_ages_12":"12","07_ages_13":"13","07_ages_14":"14","07_ages_15":"15","07_ages_16":"16","07_ages_17":"17","07_ages_18":"18","08":"Yes","08_ages_1":"1","08_ages_2":"2","08_ages_3":"3","08_ages_4":"4","08_ages_5":"5","08_ages_6":"6","08_ages_7":"7","08_ages_8":"8","08_ages_9":"9","08_ages_10":"10","08_ages_11":"11","08_ages_12":"12","08_ages_13":"13","08_ages_14":"14","08_ages_15":"15","08_ages_16":"16","08_ages_17":"17","08_ages_18":"18"},"rt":68222.5,"item_order":[0,1,2,3,4,5,6,7],"radio_events":[4231.199999988079,5452.5,7196,13273.09999999404,15048.29999999702,18074.19999998808,23302.5,25333.79999999702],"checkbox_events":[19399.5,37973.5,38552,39223.89999999106,39934.29999999702,40550.89999999106,41098.29999999702,41712.79999999702,42387.69999998808,43310.89999999106,43991.59999999404,44637.19999998808,45340.19999998808,45838.19999998808,46525.59999999404,47118.39999999106,47924.29999999702,48678.09999999404,49300.79999999702,51183.5,51753.5,52516.59999999404,53070.29999999702,53774.69999998808,54354.69999998808,55153.09999999404,56974.09999999404,57993.89999999106,58958.29999999702,59765.79999999702,61589.5,62834,63455.39999999106,65103.89999999106,65682.5,66626.79999999702,67352.5],"key_events":[],"mouse_events":[4231.199999988079,5452.5,7196,12548.199999988079,13273.09999999404,15048.29999999702,18074.19999998808,19399.5,23302.5,25333.79999999702,37973.5,38552,39223.89999999106,39934.29999999702,40550.89999999106,41098.29999999702,41712.79999999702,42387.69999998808,43310.89999999106,43991.59999999404,44637.19999998808,45340.19999998808,45838.19999998808,46525.59999999404,47118.39999999106,47924.29999999702,48678.09999999404,49300.79999999702,51183.5,51753.5,52516.59999999404,53070.29999999702,53774.69999998808,54354.69999998808,55153.09999999404,56024,56974.09999999404,57993.89999999106,58958.29999999702,59765.79999999702,61589.5,62834,63455.39999999106,65103.89999999106,65682.5,66626.79999999702,67352.5,68216.59999999404],"honeypot":0,"survey":"mace","page":10,"trial_type":"survey-mace","trial_index":18,"time_elapsed":622082,"internal_node_id":"0.0-18.0","task_version":"prescreen-v0.3","browser_interactions":0,"instructed":0},{"rt":8877,"trial_type":"mental-health-alert","trial_index":19,"time_elapsed":630962,"internal_node_id":"0.0-19.0","task_version":"prescreen-v0.3","interactions":"[]"}]