[{"view_history":[{"page_index":0,"viewing_time":4296},{"page_index":1,"viewing_time":2393.7000000476837},{"page_index":2,"viewing_time":2074.2999999523163},{"page_index":3,"viewing_time":2219.600000023842}],"rt":10985.600000023842,"trial_type":"instructions","trial_index":0,"time_elapsed":11012,"internal_node_id":"0.0-0.0","task_version":"prescreen-v0.3"},{"rt":23535.600000023842,"responses":{"age":"56","gender-categorical":"Female","gender-free-response":"","ethnicity":"Not Hispanic or Latino","race":["White"],"education":"Some college"},"trial_type":"survey-demo","trial_index":1,"time_elapsed":34563,"internal_node_id":"0.0-1.0","task_version":"prescreen-v0.3"},{"responses":{"Q16":"0","Q14":"1","Q17":"1","Q18":"1","Q21":"3","Q03":"0","Q04":"0","Q20":"1","Q07":"1","Q10":"0","Q15":"1","Q12":"0","Q08":"1","Q02":"0","Q09":"0","Q05":"0","Q11":"1","Q01":"1","Q19":"1","Q13":"1","Q06":"0"},"rt":140112.80000001192,"item_order":[15,13,16,17,20,2,3,19,6,9,14,11,7,1,8,4,10,0,18,12,5],"radio_events":[14288.899999976158,22044.19999998808,26636.5,32542.30000001192,38696.5,46718.30000001192,52049.39999997616,60320.19999998808,70076.5,74946.89999997616,81207.69999998808,85129.80000001192,88060,96442,104397.60000002384,110878,118954.69999998808,122515.5,127918.10000002384,132624.60000002384,137719.80000001192],"key_events":[],"mouse_events":[14288.899999976158,22044.19999998808,26636.5,32542.30000001192,38696.5,44283.69999998808,46718.30000001192,50143.5,52049.39999997616,60320.19999998808,70076.5,74946.89999997616,81207.69999998808,85129.80000001192,88060,96442,104397.60000002384,110878,118954.69999998808,122515.5,127918.10000002384,132624.60000002384,137719.80000001192,140107.19999998808],"straightlining":0.5238095238095238,"zigzagging":0.5,"honeypot":0,"survey":"sns","trial_type":"survey-template","trial_index":2,"time_elapsed":174691,"internal_node_id":"0.0-2.0","task_version":"prescreen-v0.3","browser_interactions":0,"infrequency":0},{"responses":{"Q08":"2","Q09":"2","Q04":"1","Q11":"2","Q01":"1","Q06":"3","Q03":"2","Q02":"2","Q10":"2","Q07":"2","Q13":"0","Q05":"2","Q12":"1"},"rt":75618.30000001192,"item_order":[7,8,3,10,0,5,2,1,9,6,12,4,11],"radio_events":[4164.800000011921,7763.400000035763,16650.100000023842,23948.30000001192,31783.600000023842,34549.40000003576,37232.80000001192,41617.90000003576,48781.5,51972.80000001192,55975.5,64682.60000002384,69484.10000002384,73852],"key_events":[],"mouse_events":[4164.800000011921,7763.400000035763,16650.100000023842,23948.30000001192,26719.30000001192,31783.600000023842,34549.40000003576,37232.80000001192,41617.90000003576,48781.5,51972.80000001192,55975.5,59953,64682.60000002384,69484.10000002384,73852,75614.80000001192],"straightlining":0.6153846153846154,"zigzagging":0.4166666666666667,"honeypot":0,"survey":"bisbas","trial_type":"survey-template","trial_index":3,"time_elapsed":250317,"internal_node_id":"0.0-3.0","task_version":"prescreen-v0.3","browser_interactions":0,"infrequency":0},{"responses":{"Q01":"3","Q02":"3","Q03":"3"},"rt":20311.80000001192,"radio_events":[7611.700000047684,13505.200000047684,18875.100000023842],"key_events":[],"mouse_events":[7611.700000047684,13505.200000047684,18875.100000023842,20309.200000047684],"survey":"map","page":1,"trial_type":"survey-map","trial_index":4,"time_elapsed":270637,"internal_node_id":"0.0-4.0","task_version":"prescreen-v0.3","browser_interactions":0},{"responses":{"Q04":"3","Q05":"3","Q06":"3"},"rt":16272.400000035763,"radio_events":[5340.199999988079,8331.699999988079,14782.199999988079],"key_events":[],"mouse_events":[5340.199999988079,8331.699999988079,14782.199999988079,16270.699999988079],"survey":"map","page":2,"trial_type":"survey-map","trial_index":5,"time_elapsed":286915,"internal_node_id":"0.0-5.0","task_version":"prescreen-v0.3","browser_interactions":0},{"responses":{"Q07":"4","Q08":"3","Q09":"2"},"rt":20502.5,"radio_events":[7324.800000011921,12077.599999964237,18569.30000001192],"key_events":[],"mouse_events":[7324.800000011921,12077.599999964237,18569.30000001192,20500.80000001192],"survey":"map","page":3,"trial_type":"survey-map","trial_index":6,"time_elapsed":307423,"internal_node_id":"0.0-6.0","task_version":"prescreen-v0.3","browser_interactions":0},{"responses":{"Q10":"2","Q11":"2","Q12":"2","Q13":"3","Q16":"0","Q14":"3","Q15":"3"},"rt":50903.19999998808,"radio_events":[8528.599999964237,12987.899999976158,17097.899999976158,29200.099999964237,38163.09999996424,44375.299999952316,49032.59999996424],"key_events":[],"mouse_events":[8528.599999964237,12987.899999976158,17097.899999976158,23281.399999976158,25065.19999998808,29200.099999964237,38163.09999996424,44375.299999952316,49032.59999996424,50900.89999997616],"survey":"map","page":4,"trial_type":"survey-map","trial_index":7,"time_elapsed":358334,"internal_node_id":"0.0-7.0","task_version":"prescreen-v0.3","browser_interactions":0,"infrequency":0},{"view_history":[{"page_index":0,"viewing_time":4377.100000023842},{"page_index":1,"viewing_time":3146.5}],"rt":7524.400000035763,"trial_type":"instructions","trial_index":8,"time_elapsed":365862,"internal_node_id":"0.0-8.0","task_version":"prescreen-v0.3"},{"responses":{"01":"No","02":"No","03":"No","04":"No","05":"No","06":"No"},"rt":28111,"item_order":[0,1,2,3,4,5],"radio_events":[10068.700000047684,15719.600000023842,20198.30000001192,22265.400000035763,24465.30000001192,26664.400000035763],"checkbox_events":[],"key_events":[],"mouse_events":[0.20000004768371582,10068.700000047684,15719.600000023842,20198.30000001192,22265.400000035763,24465.30000001192,26664.400000035763,28105.100000023842],"honeypot":0,"survey":"mace","page":1,"trial_type":"survey-mace","trial_index":9,"time_elapsed":393989,"internal_node_id":"0.0-9.0","task_version":"prescreen-v0.3","browser_interactions":0},{"responses":{"01":"No","02":"No","03":"Yes","03_ages_6":"6","04":"No","05":"No","06":"No","07":"No","08":"No"},"rt":44200.90000003576,"item_order":[0,1,2,3,4,5,6,7],"radio_events":[5160.699999988079,6902.800000011921,13414.300000011921,24115.69999998808,26741.80000001192,34209.10000002384,35963.19999998808,42380.19999998808],"checkbox_events":[19589.600000023842],"key_events":[],"mouse_events":[5160.699999988079,6902.800000011921,13414.300000011921,19589.600000023842,24115.69999998808,26741.80000001192,34209.10000002384,35963.19999998808,42380.19999998808,44195],"honeypot":0,"survey":"mace","page":2,"trial_type":"survey-mace","trial_index":10,"time_elapsed":438201,"internal_node_id":"0.0-10.0","task_version":"prescreen-v0.3","browser_interactions":0},{"responses":{"01":"No","02":"No","03":"No","04":"No"},"rt":18926.899999976158,"item_order":[0,1,2,3],"radio_events":[6527,11720,13534.899999976158,16783],"checkbox_events":[],"key_events":[],"mouse_events":[6527,9644.899999976158,11720,13534.899999976158,16783,18921.19999998808],"honeypot":0,"survey":"mace","page":3,"trial_type":"survey-mace","trial_index":11,"time_elapsed":457135,"internal_node_id":"0.0-11.0","task_version":"prescreen-v0.3","browser_interactions":0},{"responses":{"01":"No","02":"No"},"rt":8442,"item_order":[0,1],"radio_events":[3507.899999976158,6780.300000011921],"checkbox_events":[],"key_events":[],"mouse_events":[3507.899999976158,6780.300000011921,8439.100000023842],"honeypot":0,"survey":"mace","page":4,"trial_type":"survey-mace","trial_index":12,"time_elapsed":465583,"internal_node_id":"0.0-12.0","task_version":"prescreen-v0.3","browser_interactions":0},{"responses":{"01":"No","02":"No","03":"No","04":"No","05":"No"},"rt":15145.699999988079,"item_order":[0,1,2,3,4],"radio_events":[5221.400000035763,7462,9717.199999988079,11698.5,13438.199999988079],"checkbox_events":[],"key_events":[],"mouse_events":[5221.400000035763,7462,9717.199999988079,11698.5,13438.199999988079,15138.900000035763],"honeypot":0,"survey":"mace","page":5,"trial_type":"survey-mace","trial_index":13,"time_elapsed":480738,"internal_node_id":"0.0-13.0","task_version":"prescreen-v0.3","browser_interactions":0},{"responses":{"01":"No","02":"No","03":"No","04":"No","05":"No"},"rt":19448.19999998808,"item_order":[0,1,2,3,4],"radio_events":[6248.699999988079,7930,11390.299999952316,14755.399999976158,17672.5],"checkbox_events":[],"key_events":[],"mouse_events":[6248.699999988079,7930,11390.299999952316,14755.399999976158,17672.5,19442.299999952316],"honeypot":0,"survey":"mace","page":6,"trial_type":"survey-mace","trial_index":14,"time_elapsed":500198,"internal_node_id":"0.0-14.0","task_version":"prescreen-v0.3","browser_interactions":0},{"responses":{"01":"No","02":"No","03":"No","04":"No","05":"No","06":"No","07":"No"},"rt":33746.39999997616,"item_order":[0,1,2,3,4,5,6],"radio_events":[6910.299999952316,14019,17036.099999964237,18820.099999964237,20809.899999976158,24521.5,32076],"checkbox_events":[],"key_events":[],"mouse_events":[6910.299999952316,14019,17036.099999964237,18820.099999964237,20809.899999976158,24521.5,32076,33736.89999997616],"honeypot":0,"survey":"mace","page":7,"trial_type":"survey-mace","trial_index":15,"time_elapsed":533958,"internal_node_id":"0.0-15.0","task_version":"prescreen-v0.3","browser_interactions":0},{"responses":{"01":"No","02":"No","03":"No","04":"No"},"rt":32406.799999952316,"item_order":[0,1,2,3],"radio_events":[11185.199999988079,19788.19999998808,25553,30602.399999976158],"checkbox_events":[],"key_events":[],"mouse_events":[1404.8999999761581,6999.099999964237,11185.199999988079,19788.19999998808,25553,30602.399999976158,32402.599999964237],"honeypot":0,"survey":"mace","page":8,"trial_type":"survey-mace","trial_index":16,"time_elapsed":566372,"internal_node_id":"0.0-16.0","task_version":"prescreen-v0.3","browser_interactions":0},{"responses":{"01":"Yes","01_ages_1":"1","01_ages_2":"2","01_ages_3":"3","01_ages_4":"4","01_ages_5":"5","01_ages_6":"6","01_ages_7":"7","01_ages_8":"8","01_ages_9":"9","01_ages_10":"10","01_ages_11":"11","01_ages_12":"12","01_ages_13":"13","01_ages_14":"14","02":"No","03":"Yes","03_ages_1":"1","03_ages_2":"2","03_ages_3":"3","03_ages_4":"4","03_ages_5":"5","03_ages_6":"6","03_ages_7":"7","03_ages_8":"8","03_ages_9":"9","03_ages_10":"10","03_ages_11":"11","03_ages_12":"12","03_ages_13":"13","03_ages_14":"14","04":"Yes","04_ages_11":"11"},"rt":98411.60000002384,"item_order":[0,1,2,3],"radio_events":[5391.5,50278.60000002384,55663.19999998808,86551.30000001192],"checkbox_events":[12662.800000011921,14311.900000035763,16267.699999988079,17568.80000001192,19928.80000001192,21946.80000001192,23631.400000035763,25245,27058.30000001192,28745.600000023842,31250.5,33063.60000002384,34752.60000002384,37438,61601.10000002384,63291,64732.60000002384,66545.90000003576,67962.90000003576,69379.19999998808,70657.30000001192,72095.90000003576,73291.69999998808,74715.80000001192,76188.80000001192,77662.69999998808,79264.69999998808,81110.69999998808,95891],"key_events":[],"mouse_events":[5391.5,12662.800000011921,14311.900000035763,16267.699999988079,17568.80000001192,19928.80000001192,21425,21946.80000001192,23631.400000035763,25245,27058.30000001192,28745.600000023842,31250.5,33063.60000002384,34752.60000002384,37438,50278.60000002384,55663.19999998808,61601.10000002384,63291,64732.60000002384,66545.90000003576,67962.90000003576,69379.19999998808,70657.30000001192,72095.90000003576,73291.69999998808,74715.80000001192,76188.80000001192,77662.69999998808,79264.69999998808,81110.69999998808,86551.30000001192,95891,98407.19999998808],"honeypot":0,"survey":"mace","page":9,"trial_type":"survey-mace","trial_index":17,"time_elapsed":664794,"internal_node_id":"0.0-17.0","task_version":"prescreen-v0.3","browser_interactions":0},{"responses":{"01":"No","02":"No","03":"No","04":"No","05":"No","06":"Yes","06_ages_17":"17","07":"Yes","07_ages_1":"1","07_ages_2":"2","07_ages_3":"3","07_ages_4":"4","07_ages_5":"5","07_ages_6":"6","07_ages_7":"7","07_ages_8":"8","07_ages_9":"9","07_ages_10":"10","07_ages_11":"11","07_ages_12":"12","07_ages_13":"13","07_ages_14":"14","08":"Yes","08_ages_1":"1","08_ages_2":"2","08_ages_3":"3","08_ages_4":"4","08_ages_5":"5","08_ages_6":"6","08_ages_7":"7","08_ages_8":"8","08_ages_9":"9","08_ages_10":"10","08_ages_11":"11","08_ages_12":"12","08_ages_13":"13","08_ages_14":"14"},"rt":107407,"item_order":[0,1,2,3,4,5,6,7],"radio_events":[4379.900000035763,6611.400000035763,10157,11866.600000023842,14450.400000035763,19340.600000023842,30372,68967],"checkbox_events":[21971.80000001192,39569,40816.30000001192,42249.69999998808,43699.80000001192,45530.60000002384,47219.69999998808,48830.60000002384,50681.19999998808,52216,53616.60000002384,55000.10000002384,57001.69999998808,58601.40000003576,60091.69999998808,77548.30000001192,79066.30000001192,80846.5,82568.19999998808,84507.60000002384,85730.60000002384,87935,89648.30000001192,91433.5,93619.60000002384,95478.40000003576,95728.30000001192,97661.69999998808,101113.10000002384,102912.90000003576,104698.5],"key_events":[],"mouse_events":[4379.900000035763,6611.400000035763,10157,11866.600000023842,14450.400000035763,19340.600000023842,21971.80000001192,30372,39569,40816.30000001192,42249.69999998808,43699.80000001192,45530.60000002384,47219.69999998808,48830.60000002384,50681.19999998808,52216,53616.60000002384,55000.10000002384,57001.69999998808,58601.40000003576,60091.69999998808,68967,75528.40000003576,77548.30000001192,79066.30000001192,80846.5,82568.19999998808,84507.60000002384,85730.60000002384,87935,89648.30000001192,91433.5,93619.60000002384,95478.40000003576,95728.30000001192,97661.69999998808,99704,101113.10000002384,102912.90000003576,104698.5,107397.30000001192],"honeypot":0,"survey":"mace","page":10,"trial_type":"survey-mace","trial_index":18,"time_elapsed":772212,"internal_node_id":"0.0-18.0","task_version":"prescreen-v0.3","browser_interactions":0,"instructed":0},{"rt":3360.099999964237,"trial_type":"mental-health-alert","trial_index":19,"time_elapsed":775578,"internal_node_id":"0.0-19.0","task_version":"prescreen-v0.3","interactions":"[]"}]