[{"view_history":[{"page_index":0,"viewing_time":5137.600000143051},{"page_index":1,"viewing_time":3947.5999999046326},{"page_index":2,"viewing_time":3808},{"page_index":3,"viewing_time":34253.40000009537}],"rt":47147.60000014305,"trial_type":"instructions","trial_index":0,"time_elapsed":47156,"internal_node_id":"0.0-0.0","task_version":"prescreen-v0.3"},{"rt":17977.5,"responses":{"age":"24","gender-categorical":"Female","gender-free-response":"","ethnicity":"Not Hispanic or Latino","race":["Asian"],"education":"Some college"},"trial_type":"survey-demo","trial_index":1,"time_elapsed":65140,"internal_node_id":"0.0-1.0","task_version":"prescreen-v0.3"},{"responses":{"Q05":"2","Q10":"1","Q20":"0","Q15":"3","Q04":"1","Q19":"1","Q02":"0","Q09":"0","Q16":"2","Q18":"2","Q13":"3","Q08":"2","Q12":"2","Q07":"1","Q03":"1","Q01":"1","Q21":"0","Q11":"2","Q06":"2","Q17":"2","Q14":"2"},"rt":194103.09999990463,"item_order":[4,9,19,14,3,18,1,8,15,17,12,7,11,6,2,0,20,10,5,16,13],"radio_events":[21801.299999952316,25940.599999904633,32369.89999985695,41390.59999990463,76482.59999990463,84860.89999985695,87091.29999995232,91501.39999985695,98282.79999995232,116567.89999985695,121230.29999995232,124666.70000004768,136342,144551,150016.59999990463,150970.09999990463,160696,165709.5,173596.09999990463,191427.70000004768,193377],"key_events":[],"mouse_events":[20676.099999904633,21801.299999952316,25940.599999904633,32369.89999985695,41390.59999990463,74514.5,75578,76482.59999990463,84860.89999985695,87091.29999995232,91501.39999985695,98282.79999995232,116567.89999985695,121230.29999995232,124666.70000004768,129650.09999990463,136342,144551,148549.29999995232,150016.59999990463,150970.09999990463,160696,165709.5,172009.59999990463,173596.09999990463,190312.89999985695,191427.70000004768,193377,194100.5],"straightlining":0.42857142857142855,"zigzagging":0.4,"honeypot":0,"survey":"sns","trial_type":"survey-template","trial_index":2,"time_elapsed":259253,"internal_node_id":"0.0-2.0","task_version":"prescreen-v0.3","browser_interactions":0,"infrequency":1},{"responses":{"Q08":"2","Q07":"3","Q05":"3","Q02":"2","Q11":"2","Q01":"3","Q10":"1","Q09":"1","Q06":"2","Q03":"2","Q04":"2","Q12":"2","Q13":"0"},"rt":79229,"item_order":[7,6,4,1,10,0,9,8,5,2,3,11,12],"radio_events":[8366.899999856949,11139.5,13108.599999904633,16915.5,23203.699999809265,24248.39999985695,32927.89999985695,48168.09999990463,57068.799999952316,61608.799999952316,65817.5,70297.69999980927,73451.5],"key_events":[],"mouse_events":[8366.899999856949,11139.5,13108.599999904633,16915.5,19808.599999904633,23203.699999809265,24248.39999985695,32927.89999985695,48168.09999990463,57068.799999952316,61608.799999952316,65817.5,70297.69999980927,73451.5,79227.59999990463],"straightlining":0.5384615384615384,"zigzagging":0.3333333333333333,"honeypot":0,"survey":"bisbas","trial_type":"survey-template","trial_index":3,"time_elapsed":338490,"internal_node_id":"0.0-3.0","task_version":"prescreen-v0.3","browser_interactions":0,"infrequency":0},{"responses":{"Q01":"2","Q02":"2","Q03":"2"},"rt":31882.39999985695,"radio_events":[6720.299999952316,23434.39999985695,30857],"key_events":[],"mouse_events":[6720.299999952316,23434.39999985695,29641.5,30857,31881.599999904633],"survey":"map","page":1,"trial_type":"survey-map","trial_index":4,"time_elapsed":370379,"internal_node_id":"0.0-4.0","task_version":"prescreen-v0.3","browser_interactions":0},{"responses":{"Q04":"1","Q05":"1","Q06":"1"},"rt":25475.200000047684,"radio_events":[10689.799999952316,18554.400000095367,24690.799999952316],"key_events":[],"mouse_events":[9474.799999952316,10689.799999952316,16183.799999952316,17138.400000095367,18554.400000095367,24690.799999952316,25474.60000014305],"survey":"map","page":2,"trial_type":"survey-map","trial_index":5,"time_elapsed":395860,"internal_node_id":"0.0-5.0","task_version":"prescreen-v0.3","browser_interactions":0},{"responses":{"Q07":"4","Q08":"4","Q09":"4"},"rt":12990.900000095367,"radio_events":[7265.5,9786.099999904633,12236.5],"key_events":[],"mouse_events":[7265.5,9786.099999904633,12236.5,12990.099999904633],"survey":"map","page":3,"trial_type":"survey-map","trial_index":6,"time_elapsed":408856,"internal_node_id":"0.0-6.0","task_version":"prescreen-v0.3","browser_interactions":0},{"responses":{"Q10":"4","Q11":"3","Q12":"1","Q13":"1","Q16":"0","Q14":"1","Q15":"2"},"rt":59036.299999952316,"radio_events":[13220.400000095367,14074.099999904633,21737,24498.599999904633,27611.5,29268.700000047684,46702.799999952316,48631.09999990463,53200.5,58221.59999990463],"key_events":[],"mouse_events":[13220.400000095367,14074.099999904633,21737,24498.599999904633,27611.5,29268.700000047684,44204,44212.799999952316,44955.5,46702.799999952316,48631.09999990463,53200.5,58221.59999990463,59035.200000047684],"survey":"map","page":4,"trial_type":"survey-map","trial_index":7,"time_elapsed":467899,"internal_node_id":"0.0-7.0","task_version":"prescreen-v0.3","browser_interactions":0,"infrequency":0},{"view_history":[{"page_index":0,"viewing_time":2332.2999999523163},{"page_index":1,"viewing_time":3726.4000000953674}],"rt":6059.799999952316,"trial_type":"instructions","trial_index":8,"time_elapsed":473963,"internal_node_id":"0.0-8.0","task_version":"prescreen-v0.3"},{"responses":{"01":"Yes","01_ages_13":"13","01_ages_14":"14","01_ages_15":"15","01_ages_16":"16","02":"Yes","02_ages_12":"12","02_ages_13":"13","02_ages_14":"14","02_ages_15":"15","02_ages_16":"16","02_ages_17":"17","02_ages_18":"18","03":"Yes","03_ages_13":"13","03_ages_14":"14","03_ages_15":"15","03_ages_16":"16","03_ages_17":"17","04":"Yes","04_ages_10":"10","04_ages_16":"16","04_ages_17":"17","05":"No","06":"Yes","06_ages_13":"13","06_ages_14":"14","06_ages_15":"15","06_ages_16":"16","06_ages_17":"17"},"rt":141794.20000004768,"item_order":[0,1,2,3,4,5],"radio_events":[27798.099999904633,57224,68099.59999990463,81546.70000004768,127952.20000004768,133094.09999990463],"checkbox_events":[36175.09999990463,37118.299999952316,38474.700000047684,39046.09999990463,59072.5,60136.700000047684,60859.59999990463,61442.200000047684,62225,62888.59999990463,63530.700000047684,72167.90000009537,72760,73483.20000004768,74155.90000009537,80311.90000009537,93677.79999995232,95033.09999990463,104603.59999990463,123112.5,123805.09999990463,135242.90000009537,136257.29999995232,137311,138547.40000009537,140836.79999995232],"key_events":[],"mouse_events":[0.09999990463256836,25469.599999904633,26241.700000047684,27798.099999904633,36175.09999990463,37118.299999952316,37810.700000047684,38474.700000047684,39046.09999990463,57224,59072.5,59714.90000009537,60136.700000047684,60859.59999990463,61442.200000047684,62225,62888.59999990463,63530.700000047684,68099.59999990463,72167.90000009537,72760,73483.20000004768,74155.90000009537,78564.59999990463,80311.90000009537,81546.70000004768,93677.79999995232,95033.09999990463,104603.59999990463,123112.5,123805.09999990463,127952.20000004768,131537.59999990463,132491.40000009537,133094.09999990463,135242.90000009537,136257.29999995232,137311,138547.40000009537,140836.79999995232,141790.70000004768],"honeypot":0,"survey":"mace","page":1,"trial_type":"survey-mace","trial_index":9,"time_elapsed":615769,"internal_node_id":"0.0-9.0","task_version":"prescreen-v0.3","browser_interactions":0},{"responses":{"01":"Yes","01_ages_13":"13","01_ages_14":"14","01_ages_15":"15","01_ages_16":"16","01_ages_17":"17","02":"No","02_ages_16":"16","03":"Yes","03_ages_3":"3","03_ages_4":"4","03_ages_5":"5","03_ages_6":"6","04":"No","05":"Yes","05_ages_3":"3","05_ages_4":"4","05_ages_5":"5","05_ages_6":"6","06":"No","07":"No","08":"No"},"rt":88195.60000014305,"item_order":[0,1,2,3,4,5,6,7],"radio_events":[3833.100000143051,34061.5,42517.60000014305,67555.70000004768,67568.90000009537,72716.5,74714.79999995232,81924.70000004768,85299.10000014305,86935.90000009537],"checkbox_events":[6043,6534.600000143051,7287.799999952316,7920.200000047684,8552.900000095367,35768.5,62183.40000009537,62905,64531.700000047684,75879.60000014305,76462.40000009537,77144.70000004768,78028.10000014305,79213.10000014305],"key_events":[],"mouse_events":[3833.100000143051,6043,6534.600000143051,7287.799999952316,7920.200000047684,8552.900000095367,33247.799999952316,34061.5,35276.90000009537,35768.5,40659.700000047684,41442.799999952316,42517.60000014305,61438.5,62183.40000009537,62905,64531.700000047684,67555.70000004768,67568.90000009537,72716.5,74714.79999995232,75879.60000014305,76462.40000009537,77144.70000004768,78028.10000014305,79213.10000014305,81924.70000004768,85299.10000014305,86935.90000009537,88191.60000014305],"honeypot":0,"survey":"mace","page":2,"trial_type":"survey-mace","trial_index":10,"time_elapsed":703974,"internal_node_id":"0.0-10.0","task_version":"prescreen-v0.3","browser_interactions":0},{"responses":{"01":"Yes","01_ages_13":"13","01_ages_14":"14","01_ages_15":"15","02":"No","03":"No","04":"No"},"rt":31752.39999985695,"item_order":[0,1,2,3],"radio_events":[16074.599999904633,27733.299999952316,29741.599999904633,31037],"checkbox_events":[21085.799999952316,22632.200000047684,23595.89999985695],"key_events":[],"mouse_events":[16074.599999904633,19790.299999952316,20282.299999952316,20674.099999904633,21085.799999952316,22632.200000047684,23595.89999985695,27733.299999952316,29741.599999904633,31037,31750.099999904633],"honeypot":0,"survey":"mace","page":3,"trial_type":"survey-mace","trial_index":11,"time_elapsed":735734,"internal_node_id":"0.0-11.0","task_version":"prescreen-v0.3","browser_interactions":0},{"responses":{"01":"No","02":"No"},"rt":7996,"item_order":[0,1],"radio_events":[4429.799999952316,6609.099999904633],"checkbox_events":[],"key_events":[],"mouse_events":[4429.799999952316,6609.099999904633,7301.799999952316,7995],"honeypot":0,"survey":"mace","page":4,"trial_type":"survey-mace","trial_index":12,"time_elapsed":743736,"internal_node_id":"0.0-12.0","task_version":"prescreen-v0.3","browser_interactions":0},{"responses":{"01":"Yes","01_ages_6":"6","01_ages_10":"10","01_ages_11":"11","01_ages_12":"12","02":"No","03":"No","04":"No","05":"No"},"rt":36377.40000009537,"item_order":[0,1,2,3,4],"radio_events":[5835.900000095367,28712.200000047684,30791.400000095367,33633.200000047684,35299.40000009537],"checkbox_events":[8828.900000095367,12825,20617.5,22305.60000014305],"key_events":[],"mouse_events":[5835.900000095367,7985,8828.900000095367,12825,20617.5,21611.800000190735,22305.60000014305,28712.200000047684,30791.400000095367,33633.200000047684,35299.40000009537,36374.40000009537],"honeypot":0,"survey":"mace","page":5,"trial_type":"survey-mace","trial_index":13,"time_elapsed":780121,"internal_node_id":"0.0-13.0","task_version":"prescreen-v0.3","browser_interactions":0},{"responses":{"01":"Yes","01_ages_11":"11","01_ages_12":"12","01_ages_13":"13","01_ages_14":"14","02":"Yes","02_ages_11":"11","02_ages_12":"12","02_ages_13":"13","02_ages_14":"14","03":"Yes","03_ages_13":"13","03_ages_14":"14","03_ages_15":"15","03_ages_16":"16","04":"No","05":"No"},"rt":107454.5,"item_order":[0,1,2,3,4],"radio_events":[73656.29999995232,81243.20000004768,92324.29999995232,102952.20000004768,106559.20000004768],"checkbox_events":[74802.5,75787.20000004768,76631,77294,77766.20000004768,83905,85583.90000009537,87593.10000014305,88556.90000009537,89923.20000004768,95508.5,96543.20000004768,97638.10000014305,98371.10000014305],"key_events":[],"mouse_events":[72289.5,73033,73656.29999995232,74802.5,75787.20000004768,76631,77294,77766.20000004768,81243.20000004768,82951.29999995232,83905,84749.40000009537,85583.90000009537,86176,86577.5,87070.40000009537,87593.10000014305,88556.90000009537,89923.20000004768,92324.29999995232,95508.5,96151.5,96543.20000004768,97638.10000014305,98371.10000014305,101756.60000014305,102952.20000004768,106559.20000004768,107452],"honeypot":0,"survey":"mace","page":6,"trial_type":"survey-mace","trial_index":14,"time_elapsed":887584,"internal_node_id":"0.0-14.0","task_version":"prescreen-v0.3","browser_interactions":0},{"responses":{"01":"No","02":"Yes","02_ages_13":"13","02_ages_14":"14","02_ages_15":"15","03":"No","04":"No","05":"No","06":"Yes","06_ages_17":"17","06_ages_18":"18","07":"Yes","07_ages_17":"17","07_ages_18":"18"},"rt":49592.40000009537,"item_order":[0,1,2,3,4,5,6],"radio_events":[5574.100000143051,25914.10000014305,33066.300000190735,35215.40000009537,36068.90000009537,38429.200000047684,45832],"checkbox_events":[29430.200000047684,30022,30875.900000095367,39615.200000047684,40206.90000009537,41020.5,42145.300000190735,47017,47418.800000190735],"key_events":[],"mouse_events":[5574.100000143051,25914.10000014305,28103.900000095367,29430.200000047684,30022,30875.900000095367,33066.300000190735,34220.5,35215.40000009537,36068.90000009537,38429.200000047684,39615.200000047684,40206.90000009537,41020.5,41422.60000014305,42145.300000190735,45832,47017,47418.800000190735,49588.90000009537],"honeypot":0,"survey":"mace","page":7,"trial_type":"survey-mace","trial_index":15,"time_elapsed":937185,"internal_node_id":"0.0-15.0","task_version":"prescreen-v0.3","browser_interactions":0},{"responses":{"01":"Yes","01_ages_10":"10","01_ages_11":"11","01_ages_12":"12","01_ages_13":"13","01_ages_14":"14","01_ages_15":"15","01_ages_16":"16","01_ages_17":"17","01_ages_18":"18","02":"Yes","02_ages_6":"6","02_ages_7":"7","02_ages_8":"8","02_ages_9":"9","02_ages_10":"10","02_ages_11":"11","02_ages_12":"12","02_ages_13":"13","02_ages_14":"14","02_ages_15":"15","02_ages_16":"16","02_ages_17":"17","02_ages_18":"18","03":"Yes","03_ages_11":"11","03_ages_12":"12","03_ages_13":"13","03_ages_14":"14","03_ages_15":"15","03_ages_16":"16","03_ages_17":"17","03_ages_18":"18","04":"Yes","04_ages_10":"10","04_ages_11":"11","04_ages_12":"12","04_ages_13":"13","04_ages_14":"14","04_ages_15":"15","04_ages_16":"16","04_ages_17":"17","04_ages_18":"18"},"rt":70249.20000004768,"item_order":[0,1,2,3],"radio_events":[6083.900000095367,18006.700000047684,46261.10000014305,62342.200000047684],"checkbox_events":[7921.900000095367,10332.100000143051,11688.900000095367,12241.300000190735,12683,13366.200000047684,13838.400000095367,14411,15556.400000095367,32540.700000047684,33403.90000009537,33926.60000014305,34891.10000014305,35272.700000047684,35714.800000190735,36408.200000047684,37804,38326.200000047684,39039.300000190735,39541.700000047684,41500,42133.60000014305,50349.10000014305,51132.5,52820.700000047684,53885.300000190735,55863.60000014305,56536.60000014305,57280.10000014305,57912.700000047684,58756.60000014305,59740.800000190735,64150.200000047684,64662.5,65747.30000019073,66400.80000019073,67013.10000014305,67665.70000004768,68358.30000019073,69132.10000014305,69593.40000009537],"key_events":[],"mouse_events":[6083.900000095367,7921.900000095367,9348.100000143051,10332.100000143051,11688.900000095367,12241.300000190735,12683,13366.200000047684,13838.400000095367,14411,15556.400000095367,18006.700000047684,32540.700000047684,33403.90000009537,33926.60000014305,34891.10000014305,35272.700000047684,35714.800000190735,36408.200000047684,37211.200000047684,37804,38326.200000047684,39039.300000190735,39541.700000047684,40174.800000190735,40877.5,41500,42133.60000014305,45487.800000190735,46261.10000014305,50349.10000014305,51132.5,52820.700000047684,53241.90000009537,53885.300000190735,54799.10000014305,55863.60000014305,56536.60000014305,57280.10000014305,57912.700000047684,58756.60000014305,59740.800000190735,62342.200000047684,64150.200000047684,64662.5,65747.30000019073,66400.80000019073,67013.10000014305,67665.70000004768,68358.30000019073,69132.10000014305,69593.40000009537,70247],"honeypot":0,"survey":"mace","page":8,"trial_type":"survey-mace","trial_index":16,"time_elapsed":1007442,"internal_node_id":"0.0-16.0","task_version":"prescreen-v0.3","browser_interactions":0},{"responses":{"01":"Yes","01_ages_18":"18","02":"No","03":"Yes","03_ages_13":"13","03_ages_14":"14","03_ages_15":"15","03_ages_16":"16","03_ages_17":"17","03_ages_18":"18","04":"Yes","04_ages_1":"1","04_ages_2":"2","04_ages_3":"3","04_ages_4":"4","04_ages_5":"5","04_ages_6":"6","04_ages_7":"7","04_ages_8":"8","04_ages_9":"9","04_ages_10":"10","04_ages_11":"11","04_ages_12":"12","04_ages_13":"13","04_ages_14":"14","04_ages_15":"15","04_ages_16":"16","04_ages_17":"17","04_ages_18":"18"},"rt":49593,"item_order":[0,1,2,3],"radio_events":[4238.900000095367,10637,15638.600000143051,32101.800000190735],"checkbox_events":[6267.600000143051,18853,19476,19997.700000047684,21052.900000095367,21987.10000014305,22950.60000014305,33800,34341.800000190735,35376.60000014305,36361.10000014305,37295.40000009537,38299.40000009537,39746.10000014305,40740.60000014305,41423.90000009537,42036.40000009537,42679.300000190735,43252.200000047684,43984.800000190735,45793.5,46858.40000009537,47410.800000190735,48394.90000009537,48836.5],"key_events":[],"mouse_events":[4238.900000095367,5474.300000190735,6267.600000143051,10637,15638.600000143051,18853,19476,19997.700000047684,21052.900000095367,21565.300000190735,21987.10000014305,22950.60000014305,32101.800000190735,33800,34341.800000190735,34985.200000047684,35376.60000014305,36361.10000014305,37295.40000009537,38299.40000009537,39746.10000014305,40740.60000014305,41423.90000009537,42036.40000009537,42679.300000190735,43252.200000047684,43984.800000190735,44668.5,45120.300000190735,45793.5,46426.5,46858.40000009537,47410.800000190735,48394.90000009537,48836.5,49590.300000190735],"honeypot":0,"survey":"mace","page":9,"trial_type":"survey-mace","trial_index":17,"time_elapsed":1057043,"internal_node_id":"0.0-17.0","task_version":"prescreen-v0.3","browser_interactions":0},{"responses":{"01":"No","02":"No","03":"Yes","03_ages_15":"15","03_ages_16":"16","03_ages_17":"17","03_ages_18":"18","04":"Yes","04_ages_13":"13","04_ages_14":"14","04_ages_15":"15","04_ages_16":"16","04_ages_17":"17","04_ages_18":"18","05":"Yes","05_ages_16":"16","05_ages_17":"17","05_ages_18":"18","06":"Yes","06_ages_17":"17","07":"Yes","07_ages_13":"13","07_ages_14":"14","07_ages_15":"15","07_ages_16":"16","07_ages_17":"17","07_ages_18":"18","08":"Yes","08_ages_18":"18"},"rt":86417.29999995232,"item_order":[0,1,2,3,4,5,6,7],"radio_events":[34704.09999990463,36020.59999990463,39667.09999990463,48507.59999990463,58827,65556.39999985695,70127.39999985695,82263.59999990463],"checkbox_events":[41194.09999990463,41716.39999985695,42329.39999985695,43073.09999990463,43595.199999809265,44017.199999809265,44640,46177.09999990463,50095.39999985695,51370.799999952316,52023.699999809265,53008.199999809265,54455.199999809265,54897.299999952316,60824.39999985695,61427.699999809265,61989.39999985695,67184,73914.79999995232,75070.19999980927,75582.39999985695,76436.29999995232,77269.89999985695,77702.19999980927,85508.39999985695],"key_events":[],"mouse_events":[34704.09999990463,36020.59999990463,38230.299999952316,38973.5,39667.09999990463,41194.09999990463,41716.39999985695,42329.39999985695,43073.09999990463,43595.199999809265,44017.199999809265,44640,46177.09999990463,48507.59999990463,50095.39999985695,50767.89999985695,51370.799999952316,52023.699999809265,52647.09999990463,53008.199999809265,53430,54455.199999809265,54897.299999952316,58827,60161.39999985695,60824.39999985695,61427.699999809265,61989.39999985695,65556.39999985695,67184,70127.39999985695,73533.09999990463,73914.79999995232,74437.69999980927,75070.19999980927,75582.39999985695,76436.29999995232,76939.09999990463,77269.89999985695,77702.19999980927,82263.59999990463,84523.79999995232,85508.39999985695,86412.69999980927],"honeypot":0,"survey":"mace","page":10,"trial_type":"survey-mace","trial_index":18,"time_elapsed":1143470,"internal_node_id":"0.0-18.0","task_version":"prescreen-v0.3","browser_interactions":0,"instructed":0},{"rt":4608.5,"trial_type":"mental-health-alert","trial_index":19,"time_elapsed":1148083,"internal_node_id":"0.0-19.0","task_version":"prescreen-v0.3","interactions":"[]"}]