[{"view_history":[{"page_index":0,"viewing_time":2563},{"page_index":1,"viewing_time":3887.7999999821186},{"page_index":2,"viewing_time":2128.2000000178814},{"page_index":3,"viewing_time":1264}],"rt":9843.59999999404,"trial_type":"instructions","trial_index":0,"time_elapsed":9881,"internal_node_id":"0.0-0.0","task_version":"prescreen-v0.3"},{"rt":12556.200000017881,"responses":{"age":"23","gender-categorical":"Female","gender-free-response":"","ethnicity":"Not Hispanic or Latino","race":["White"],"education":"Bachelor degree"},"trial_type":"survey-demo","trial_index":1,"time_elapsed":22441,"internal_node_id":"0.0-1.0","task_version":"prescreen-v0.3"},{"responses":{"Q04":"3","Q12":"2","Q01":"1","Q09":"1","Q16":"2","Q14":"2","Q13":"3","Q20":"1","Q15":"3","Q10":"1","Q18":"2","Q02":"1","Q19":"0","Q11":"2","Q06":"1","Q03":"1","Q05":"2","Q21":"3","Q08":"2","Q07":"0","Q17":"1"},"rt":79878,"item_order":[3,11,0,8,15,13,12,19,14,9,17,1,18,10,5,2,4,20,7,6,16],"radio_events":[8188.200000017881,12964.200000017881,17028.40000000596,20196.20000001788,24268.30000001192,26844.40000000596,29180.59999999404,31892.40000000596,36324.30000001192,39428.30000001192,42788.30000001192,46388.30000001192,50860.30000001192,52140.40000000596,54788.20000001788,57788.20000001788,60148.30000001192,65236.20000001788,69043.90000000596,71356.30000001192,76708.80000001192,79068.20000001788],"key_events":[],"mouse_events":[5348.4000000059605,8188.200000017881,12964.200000017881,17028.40000000596,20196.20000001788,23564.20000001788,24268.30000001192,26844.40000000596,28796.40000000596,29180.59999999404,31036.40000000596,31892.40000000596,36324.30000001192,38812.40000000596,39428.30000001192,42788.30000001192,45188.40000000596,46388.30000001192,49996.40000000596,50860.30000001192,51684.40000000596,52140.40000000596,54788.20000001788,57788.20000001788,60148.30000001192,65236.20000001788,68324.20000001788,69043.90000000596,71356.30000001192,76708.80000001192,79068.20000001788,79876.40000000596],"straightlining":0.38095238095238093,"zigzagging":0.6,"honeypot":0,"survey":"sns","trial_type":"survey-template","trial_index":2,"time_elapsed":102323,"internal_node_id":"0.0-2.0","task_version":"prescreen-v0.3","browser_interactions":0,"infrequency":0},{"responses":{"Q07":"3","Q04":"3","Q13":"0","Q08":"2","Q11":"2","Q10":"2","Q01":"3","Q05":"2","Q09":"2","Q06":"2","Q12":"1","Q02":"2","Q03":"2"},"rt":39611.59999999404,"item_order":[6,3,12,7,10,9,0,4,8,5,11,1,2],"radio_events":[2763.399999976158,5042.699999988079,6907,13706.899999976158,16139,17939,19251,21258.79999998212,22739.09999999404,29194.69999998808,32091.5,32619,36139,39091],"key_events":[],"mouse_events":[2763.399999976158,5042.699999988079,6907,13706.899999976158,15627.09999999404,16139,17939,19251,20682.899999976158,21258.79999998212,22739.09999999404,23970.899999976158,28523,29194.69999998808,32091.5,32619,36139,39091,39610.89999997616],"straightlining":0.6153846153846154,"zigzagging":0.4166666666666667,"honeypot":0,"survey":"bisbas","trial_type":"survey-template","trial_index":3,"time_elapsed":141937,"internal_node_id":"0.0-3.0","task_version":"prescreen-v0.3","browser_interactions":0,"infrequency":0},{"responses":{"Q01":"3","Q02":"2","Q03":"2"},"rt":12573.800000011921,"radio_events":[3733.199999988079,4717.300000011921,10077.300000011921,11877.199999988079],"key_events":[],"mouse_events":[3733.199999988079,4717.300000011921,7925.300000011921,9141.5,10077.300000011921,11877.199999988079,12573.199999988079],"survey":"map","page":1,"trial_type":"survey-map","trial_index":4,"time_elapsed":154513,"internal_node_id":"0.0-4.0","task_version":"prescreen-v0.3","browser_interactions":0},{"responses":{"Q04":"2","Q05":"1","Q06":"1"},"rt":14238,"radio_events":[5389.800000011921,11069.800000011921,13653.800000011921],"key_events":[],"mouse_events":[5389.800000011921,10670,11069.800000011921,13653.800000011921,14237.59999999404],"survey":"map","page":2,"trial_type":"survey-map","trial_index":5,"time_elapsed":168752,"internal_node_id":"0.0-5.0","task_version":"prescreen-v0.3","browser_interactions":0},{"responses":{"Q07":"2","Q08":"0","Q09":"1"},"rt":9582.5,"radio_events":[4839,7014.200000017881,8990.09999999404],"key_events":[],"mouse_events":[3806.0999999940395,4334.200000017881,4839,7014.200000017881,8990.09999999404,9582],"survey":"map","page":3,"trial_type":"survey-map","trial_index":6,"time_elapsed":178336,"internal_node_id":"0.0-6.0","task_version":"prescreen-v0.3","browser_interactions":0},{"responses":{"Q10":"0","Q11":"1","Q12":"3","Q13":"2","Q16":"0","Q14":"2","Q15":"2"},"rt":24383,"radio_events":[3077.800000011921,6189.699999988079,6453.699999988079,8869.800000011921,9389.800000011921,13637.800000011921,16213.800000011921,21781.69999998808,23693.5],"key_events":[],"mouse_events":[3077.800000011921,4645.699999988079,5669.699999988079,6189.699999988079,6453.699999988079,8869.800000011921,9389.800000011921,12693.699999988079,13637.800000011921,16213.800000011921,21781.69999998808,23693.5,24382.19999998808],"survey":"map","page":4,"trial_type":"survey-map","trial_index":7,"time_elapsed":202722,"internal_node_id":"0.0-7.0","task_version":"prescreen-v0.3","browser_interactions":0,"infrequency":0},{"view_history":[{"page_index":0,"viewing_time":2213.100000023842},{"page_index":1,"viewing_time":2863.899999976158}],"rt":5077.5,"trial_type":"instructions","trial_index":8,"time_elapsed":207801,"internal_node_id":"0.0-8.0","task_version":"prescreen-v0.3"},{"responses":{"01":"No","01_ages_5":"5","01_ages_6":"6","01_ages_7":"7","01_ages_8":"8","02":"Yes","02_ages_8":"8","02_ages_9":"9","02_ages_10":"10","02_ages_11":"11","02_ages_12":"12","02_ages_13":"13","02_ages_14":"14","02_ages_15":"15","02_ages_16":"16","02_ages_17":"17","02_ages_18":"18","03":"No","04":"Yes","04_ages_8":"8","04_ages_9":"9","04_ages_10":"10","05":"Yes","05_ages_8":"8","05_ages_9":"9","05_ages_10":"10","06":"No"},"rt":56438.80000001192,"item_order":[0,1,2,3,4,5],"radio_events":[8436.59999999404,14604.300000011921,17428.19999998808,36084.30000001192,41420.30000001192,46596.09999999404,55828],"checkbox_events":[11340.5,11692.699999988079,12028.199999988079,12364.40000000596,19788.19999998808,20308.30000001192,20740.30000001192,21268.19999998808,22012.19999998808,22644,23284.5,23716.69999998808,24588.19999998808,25140.30000001192,25940.30000001192,27588,28740.30000001192,29549.30000001192,30524.30000001192,42468.30000001192,42828.09999999404,43252.19999998808,47772.19999998808,48556.30000001192,49388.19999998808],"key_events":[],"mouse_events":[0,8436.59999999404,11340.5,11692.699999988079,12028.199999988079,12364.40000000596,14604.300000011921,17428.19999998808,19788.19999998808,20308.30000001192,20740.30000001192,21268.19999998808,21652.30000001192,22012.19999998808,22332.19999998808,22644,22980.30000001192,23284.5,23716.69999998808,24588.19999998808,25140.30000001192,25644.5,25940.30000001192,26308.30000001192,27588,28740.30000001192,29549.30000001192,29948.19999998808,30524.30000001192,36084.30000001192,41420.30000001192,42468.30000001192,42828.09999999404,43252.19999998808,46596.09999999404,47772.19999998808,48228.19999998808,48556.30000001192,48924.19999998808,49388.19999998808,55828,56436.59999999404],"honeypot":0,"survey":"mace","page":1,"trial_type":"survey-mace","trial_index":9,"time_elapsed":264243,"internal_node_id":"0.0-9.0","task_version":"prescreen-v0.3","browser_interactions":0},{"responses":{"01":"No","02":"No","03":"Yes","03_ages_5":"5","03_ages_6":"6","03_ages_7":"7","04":"No","05":"No","06":"Yes","06_ages_10":"10","06_ages_11":"11","06_ages_12":"12","06_ages_13":"13","07":"No","08":"No"},"rt":110484.89999997616,"item_order":[0,1,2,3,4,5,6,7],"radio_events":[88298,89457.89999997616,90177.79999998212,94785.89999997616,102905.59999999404,105441.69999998808,109673.69999998808,110122],"checkbox_events":[91353.89999997616,91673.79999998212,92113.89999997616,106665.79999998212,106985.79999998212,107337.79999998212,108105.59999999404],"key_events":[],"mouse_events":[88298,89457.89999997616,90177.79999998212,91353.89999997616,91673.79999998212,92113.89999997616,94785.89999997616,102905.59999999404,105441.69999998808,106665.79999998212,106985.79999998212,107337.79999998212,107786.5,108105.59999999404,109673.69999998808,110122,110482],"honeypot":0,"survey":"mace","page":2,"trial_type":"survey-mace","trial_index":10,"time_elapsed":374733,"internal_node_id":"0.0-10.0","task_version":"prescreen-v0.3","browser_interactions":2},{"responses":{"01":"No","02":"No","03":"Yes","03_ages_9":"9","03_ages_10":"10","03_ages_11":"11","03_ages_12":"12","03_ages_13":"13","04":"No"},"rt":20643.5,"item_order":[0,1,2,3],"radio_events":[10722,12858.5,13697.90000000596,15042.09999999404,19794],"checkbox_events":[16714,17018.30000001192,17690,18417.90000000596,19097.80000001192],"key_events":[],"mouse_events":[10722,11770,12858.5,13697.90000000596,15042.09999999404,16714,17018.30000001192,17690,18417.90000000596,18705.90000000596,19097.80000001192,19794,20321.90000000596,20642],"honeypot":0,"survey":"mace","page":3,"trial_type":"survey-mace","trial_index":11,"time_elapsed":395378,"internal_node_id":"0.0-11.0","task_version":"prescreen-v0.3","browser_interactions":0},{"responses":{"01":"No","02":"No"},"rt":14277.09999999404,"item_order":[0,1],"radio_events":[8556.199999988079,13156.09999999404,13740.199999988079],"checkbox_events":[],"key_events":[],"mouse_events":[8556.199999988079,12916.5,13156.09999999404,13740.199999988079,14276.299999982119],"honeypot":0,"survey":"mace","page":4,"trial_type":"survey-mace","trial_index":12,"time_elapsed":409657,"internal_node_id":"0.0-12.0","task_version":"prescreen-v0.3","browser_interactions":0},{"responses":{"01":"Yes","01_ages_9":"9","01_ages_10":"10","02":"No","03":"No","04":"No","05":"No"},"rt":23318.90000000596,"item_order":[0,1,2,3,4],"radio_events":[6541,14661,18981,21084.90000000596,22677],"checkbox_events":[8012.9000000059605,8412.90000000596,8804.90000000596,9549,10189,10628.90000000596,11069,11708.90000000596],"key_events":[],"mouse_events":[6541,8012.9000000059605,8412.90000000596,8804.90000000596,9164.90000000596,9549,10189,10628.90000000596,11069,11708.90000000596,14661,18981,21084.90000000596,22677,23317],"honeypot":0,"survey":"mace","page":5,"trial_type":"survey-mace","trial_index":13,"time_elapsed":432979,"internal_node_id":"0.0-13.0","task_version":"prescreen-v0.3","browser_interactions":0},{"responses":{"01":"Yes","01_ages_8":"8","01_ages_9":"9","01_ages_10":"10","02":"Yes","02_ages_8":"8","02_ages_9":"9","02_ages_10":"10","02_ages_11":"11","02_ages_12":"12","02_ages_13":"13","03":"No","04":"Yes","04_ages_8":"8","04_ages_9":"9","04_ages_10":"10","04_ages_11":"11","04_ages_12":"12","04_ages_13":"13","04_ages_14":"14","04_ages_15":"15","05":"No"},"rt":34829.69999998808,"item_order":[0,1,2,3,4],"radio_events":[8707.5,14747.59999999404,26955.5,27667.59999999404,34267.59999999404],"checkbox_events":[11283.59999999404,11619.799999982119,12299.699999988079,16467.69999998808,17091.69999998808,17531.59999999404,17939.79999998212,18395.59999999404,19387.59999999404,28699.5,29035.59999999404,29779.59999999404,30235.59999999404,30603.40000000596,30931.40000000596,31267.59999999404,31579.69999998808],"key_events":[],"mouse_events":[8707.5,11283.59999999404,11619.799999982119,11948.5,12299.699999988079,14747.59999999404,16163.59999999404,16467.69999998808,17091.69999998808,17531.59999999404,17939.79999998212,18395.59999999404,18811.29999998212,19387.59999999404,26955.5,27667.59999999404,28699.5,29035.59999999404,29779.59999999404,30235.59999999404,30603.40000000596,30931.40000000596,31267.59999999404,31579.69999998808,34267.59999999404,34827.69999998808],"honeypot":0,"survey":"mace","page":6,"trial_type":"survey-mace","trial_index":14,"time_elapsed":467811,"internal_node_id":"0.0-14.0","task_version":"prescreen-v0.3","browser_interactions":0},{"responses":{"01":"No","02":"Yes","02_ages_8":"8","02_ages_9":"9","02_ages_10":"10","02_ages_11":"11","02_ages_12":"12","02_ages_13":"13","03":"Yes","03_ages_8":"8","03_ages_9":"9","03_ages_10":"10","03_ages_11":"11","03_ages_12":"12","03_ages_13":"13","04":"No","05":"No","06":"No","07":"No"},"rt":27397.399999976158,"item_order":[0,1,2,3,4,5,6],"radio_events":[5170.699999988079,7066.699999988079,14218.699999988079,22994.69999998808,24714.59999999404,25762.69999998808,26970.59999999404],"checkbox_events":[8738.699999988079,9274.699999988079,9802.799999982119,10178.699999988079,10890.799999982119,11178.699999988079,15058.799999982119,17043.5,17930.59999999404,18282.69999998808,18642.69999998808,21730.69999998808],"key_events":[],"mouse_events":[5170.699999988079,7066.699999988079,8450.799999982119,8738.699999988079,9274.699999988079,9802.799999982119,10178.699999988079,10563.59999999404,10890.799999982119,11178.699999988079,14218.699999988079,15058.799999982119,15370.699999988079,15762.699999988079,16155.5,17043.5,17418.5,17930.59999999404,18282.69999998808,18642.69999998808,21730.69999998808,22994.69999998808,24714.59999999404,25762.69999998808,26474.69999998808,26970.59999999404,27394.79999998212],"honeypot":0,"survey":"mace","page":7,"trial_type":"survey-mace","trial_index":15,"time_elapsed":495212,"internal_node_id":"0.0-15.0","task_version":"prescreen-v0.3","browser_interactions":0},{"responses":{"01":"Yes","01_ages_8":"8","01_ages_9":"9","01_ages_10":"10","01_ages_11":"11","01_ages_12":"12","01_ages_13":"13","01_ages_14":"14","01_ages_15":"15","01_ages_16":"16","01_ages_17":"17","01_ages_18":"18","02":"No","03":"Yes","03_ages_8":"8","03_ages_9":"9","03_ages_10":"10","03_ages_11":"11","03_ages_12":"12","03_ages_13":"13","03_ages_14":"14","03_ages_15":"15","03_ages_16":"16","03_ages_17":"17","03_ages_18":"18","04":"Yes","04_ages_8":"8","04_ages_9":"9","04_ages_10":"10","04_ages_11":"11","04_ages_12":"12","04_ages_13":"13","04_ages_14":"14","04_ages_15":"15","04_ages_16":"16","04_ages_17":"17","04_ages_18":"18"},"rt":34964.20000001788,"item_order":[0,1,2,3],"radio_events":[4626.300000011921,14962.200000017881,17850.30000001192,27866.20000001788],"checkbox_events":[7346.300000011921,7778.100000023842,8210.200000017881,8586.300000011921,8946.5,9314.5,9682.40000000596,10026.800000011921,10610.300000011921,10930.200000017881,11330.300000011921,19082.20000001788,19402.20000001788,19714,20739.100000023842,21410.100000023842,21714.20000001788,22090.40000000596,22450.70000001788,22778,23186.30000001192,23530.20000001788,28714.30000001192,30450.600000023842,30778,31178.20000001788,31570.20000001788,31986.70000001788,32362.30000001192,33130.20000001788,33794.20000001788,34130.10000002384,34482],"key_events":[],"mouse_events":[4626.300000011921,7346.300000011921,7778.100000023842,8210.200000017881,8586.300000011921,8946.5,9314.5,9682.40000000596,10026.800000011921,10610.300000011921,10930.200000017881,11330.300000011921,14962.200000017881,17850.30000001192,19082.20000001788,19402.20000001788,19714,20074.20000001788,20739.100000023842,21066.5,21410.100000023842,21714.20000001788,22090.40000000596,22450.70000001788,22778,23186.30000001192,23530.20000001788,27866.20000001788,28714.30000001192,29698.40000000596,30450.600000023842,30778,31178.20000001788,31570.20000001788,31986.70000001788,32362.30000001192,32818,33130.20000001788,33474.10000002384,33794.20000001788,34130.10000002384,34482,34963.10000002384],"honeypot":0,"survey":"mace","page":8,"trial_type":"survey-mace","trial_index":16,"time_elapsed":530178,"internal_node_id":"0.0-16.0","task_version":"prescreen-v0.3","browser_interactions":0},{"responses":{"01":"Yes","01_ages_1":"1","01_ages_2":"2","01_ages_3":"3","01_ages_4":"4","01_ages_5":"5","01_ages_6":"6","01_ages_7":"7","01_ages_8":"8","01_ages_9":"9","01_ages_10":"10","01_ages_11":"11","01_ages_12":"12","01_ages_13":"13","01_ages_14":"14","01_ages_15":"15","01_ages_16":"16","01_ages_17":"17","01_ages_18":"18","02":"Yes","02_ages_1":"1","02_ages_2":"2","02_ages_3":"3","02_ages_4":"4","02_ages_5":"5","02_ages_6":"6","02_ages_7":"7","02_ages_8":"8","02_ages_9":"9","02_ages_10":"10","02_ages_11":"11","02_ages_12":"12","02_ages_13":"13","02_ages_14":"14","02_ages_15":"15","02_ages_16":"16","02_ages_17":"17","02_ages_18":"18","03":"Yes","03_ages_1":"1","03_ages_2":"2","03_ages_3":"3","03_ages_4":"4","03_ages_5":"5","03_ages_6":"6","03_ages_7":"7","03_ages_8":"8","03_ages_9":"9","03_ages_10":"10","03_ages_11":"11","03_ages_12":"12","03_ages_13":"13","03_ages_14":"14","03_ages_15":"15","03_ages_16":"16","03_ages_17":"17","03_ages_18":"18","04":"Yes","04_ages_1":"1","04_ages_2":"2","04_ages_3":"3","04_ages_4":"4","04_ages_5":"5","04_ages_6":"6","04_ages_7":"7","04_ages_8":"8","04_ages_9":"9","04_ages_10":"10","04_ages_11":"11","04_ages_12":"12","04_ages_13":"13","04_ages_14":"14","04_ages_15":"15","04_ages_16":"16","04_ages_17":"17","04_ages_18":"18"},"rt":60661.59999999404,"item_order":[0,1,2,3],"radio_events":[3452.0999999940395,16148.699999988079,34236,42587.90000000596],"checkbox_events":[4788,5092,5419.799999982119,5804.0999999940395,6772,7075.9000000059605,7684,8211.90000000596,8731.90000000596,9236,10195.90000000596,10812.199999988079,11212,11580,11963.90000000596,12477,12836,13284,17140,18571.79999998212,19460,20419.79999998212,20788.19999998808,21092.09999999404,21500.09999999404,22437,23220,23572.59999999404,25164,26059.90000000596,26868,27468,28179.90000000596,29027.90000000596,29956,30668,35172,36171.90000000596,37331.90000000596,37907.69999998808,38300,38955.69999998808,39451.79999998212,39836,40660.09999999404,41139.90000000596,41588.69999998808,42011.79999998212,45723.79999998212,46459.69999998808,46867.90000000596,47468,48140,48523.90000000596,50836,51251.90000000596,51596,51971.90000000596,52988.09999999404,53435.90000000596,53819.79999998212,54220,54611.69999998808,55251.69999998808,55899.90000000596,56699.90000000596,57355.79999998212,58011.90000000596,58555.79999998212,59052.29999998212,59715.79999998212,60107.90000000596],"key_events":[],"mouse_events":[3452.0999999940395,4788,5092,5419.799999982119,5804.0999999940395,6180.299999982119,6451.9000000059605,6772,7075.9000000059605,7436.0999999940395,7684,8211.90000000596,8731.90000000596,9236,10195.90000000596,10812.199999988079,11212,11580,11963.90000000596,12477,12836,13284,16148.699999988079,17140,18571.79999998212,19460,19899.90000000596,20419.79999998212,20788.19999998808,21092.09999999404,21500.09999999404,22100,22437,23220,23572.59999999404,24371.90000000596,24683.90000000596,25164,26059.90000000596,26868,27468,28179.90000000596,29027.90000000596,29956,30668,34236,35172,36171.90000000596,37331.90000000596,37907.69999998808,38300,38955.69999998808,39451.79999998212,39836,40660.09999999404,41139.90000000596,41588.69999998808,42011.79999998212,42587.90000000596,45723.79999998212,46459.69999998808,46867.90000000596,47468,47819.90000000596,48140,48523.90000000596,50836,51251.90000000596,51596,51971.90000000596,52355.90000000596,52988.09999999404,53435.90000000596,53819.79999998212,54220,54611.69999998808,55251.69999998808,55899.90000000596,56699.90000000596,57355.79999998212,58011.90000000596,58555.79999998212,59052.29999998212,59715.79999998212,60107.90000000596,60660],"honeypot":0,"survey":"mace","page":9,"trial_type":"survey-mace","trial_index":17,"time_elapsed":590842,"internal_node_id":"0.0-17.0","task_version":"prescreen-v0.3","browser_interactions":0},{"responses":{"01":"No","02":"No","03":"No","04":"Yes","04_ages_8":"8","04_ages_9":"9","04_ages_10":"10","04_ages_11":"11","04_ages_12":"12","04_ages_13":"13","04_ages_14":"14","05":"No","06":"Yes","06_ages_17":"17","07":"No","08":"No"},"rt":34350.20000001788,"item_order":[0,1,2,3,4,5,6,7],"radio_events":[3659.300000011921,4155.4000000059605,7459.300000011921,7867.200000017881,8563.300000011921,18187.20000001788,22139.20000001788,24187.30000001192,30211,32507.20000001788,33507],"checkbox_events":[10595.40000000596,11227.300000011921,11867.200000017881,12555.40000000596,14155.300000011921,14491.800000011921,14939.300000011921,25235.20000001788],"key_events":[],"mouse_events":[2780.2000000178814,3659.300000011921,4155.4000000059605,6971.300000011921,7459.300000011921,7867.200000017881,8563.300000011921,9651.5,10347.40000000596,10595.40000000596,11227.300000011921,11867.200000017881,12236.200000017881,12555.40000000596,12915,13315.300000011921,14155.300000011921,14491.800000011921,14939.300000011921,18187.20000001788,22139.20000001788,24187.30000001192,25235.20000001788,30211,32507.20000001788,33507,34347.09999999404],"honeypot":0,"survey":"mace","page":10,"trial_type":"survey-mace","trial_index":18,"time_elapsed":625196,"internal_node_id":"0.0-18.0","task_version":"prescreen-v0.3","browser_interactions":0,"instructed":0},{"rt":7610.300000011921,"trial_type":"mental-health-alert","trial_index":19,"time_elapsed":632808,"internal_node_id":"0.0-19.0","task_version":"prescreen-v0.3","interactions":"[{\"event\":\"blur\",\"trial\":10,\"time\":265740},{\"event\":\"focus\",\"trial\":10,\"time\":347800}]"}]