[{"view_history":[{"page_index":0,"viewing_time":3178},{"page_index":1,"viewing_time":2959.7000000029802},{"page_index":2,"viewing_time":3031.7000000029802},{"page_index":3,"viewing_time":1136.2999999970198}],"rt":10306.40000000596,"trial_type":"instructions","trial_index":0,"time_elapsed":10323,"internal_node_id":"0.0-0.0","task_version":"prescreen-v0.3"},{"rt":14604.29999999702,"responses":{"age":"29","gender-categorical":"Female","gender-free-response":"","ethnicity":"Not Hispanic or Latino","race":["White"],"education":"Master degree or higher"},"trial_type":"survey-demo","trial_index":1,"time_elapsed":24931,"internal_node_id":"0.0-1.0","task_version":"prescreen-v0.3"},{"responses":{"Q02":"2","Q10":"1","Q15":"3","Q14":"3","Q11":"2","Q06":"1","Q13":"1","Q16":"2","Q21":"3","Q04":"1","Q07":"1","Q03":"2","Q12":"3","Q05":"1","Q09":"1","Q17":"1","Q18":"2","Q08":"3","Q20":"1","Q19":"1","Q01":"2"},"rt":74990.5,"item_order":[1,9,14,13,10,5,12,15,20,3,6,2,11,4,8,16,17,7,19,18,0],"radio_events":[9261.20000000298,16708.5,19844.70000000298,22557,25157,28340.80000001192,30580.90000000596,33028.90000000596,35756.30000001192,41044.90000000596,44365,46164.80000001192,49420.80000001192,52612.60000000894,55788.90000000596,58916.90000000596,61548.90000000596,63972.80000001192,67292.80000001192,69892.80000001192,72492.90000000596],"key_events":[],"mouse_events":[9261.20000000298,16708.5,19844.70000000298,22557,25157,28340.80000001192,30580.90000000596,33028.90000000596,35756.30000001192,41044.90000000596,44365,46164.80000001192,49420.80000001192,52612.60000000894,55788.90000000596,58916.90000000596,61548.90000000596,63972.80000001192,67292.80000001192,69892.80000001192,72492.90000000596,74989],"straightlining":0.47619047619047616,"zigzagging":0.5,"honeypot":0,"survey":"sns","trial_type":"survey-template","trial_index":2,"time_elapsed":99924,"internal_node_id":"0.0-2.0","task_version":"prescreen-v0.3","browser_interactions":0,"infrequency":0},{"responses":{"Q04":"3","Q12":"1","Q06":"2","Q13":"0","Q03":"3","Q01":"3","Q05":"2","Q09":"2","Q08":"2","Q10":"1","Q02":"3","Q07":"2","Q11":"1"},"rt":41211.90000000596,"item_order":[3,11,5,12,2,0,4,8,7,9,1,6,10],"radio_events":[5699,8835,10971.09999999404,12706.90000000596,18122.59999999404,20874.90000000596,22970.70000000298,26458.90000000596,29154.90000000596,31075,33066.90000000596,35410.90000000596,38162.90000000596],"key_events":[],"mouse_events":[5699,8835,10971.09999999404,12706.90000000596,18122.59999999404,20874.90000000596,22970.70000000298,26458.90000000596,29154.90000000596,31075,33066.90000000596,35410.90000000596,38162.90000000596,41211],"straightlining":0.38461538461538464,"zigzagging":0.5,"honeypot":0,"survey":"bisbas","trial_type":"survey-template","trial_index":3,"time_elapsed":141139,"internal_node_id":"0.0-3.0","task_version":"prescreen-v0.3","browser_interactions":0,"infrequency":0},{"responses":{"Q01":"2","Q02":"2","Q03":"2"},"rt":20796.60000000894,"radio_events":[10948.10000000894,13852.10000000894,18364.10000000894],"key_events":[],"mouse_events":[10948.10000000894,13852.10000000894,18364.10000000894,20796.10000000894],"survey":"map","page":1,"trial_type":"survey-map","trial_index":4,"time_elapsed":161938,"internal_node_id":"0.0-4.0","task_version":"prescreen-v0.3","browser_interactions":0},{"responses":{"Q04":"2","Q05":"2","Q06":"2"},"rt":10709.70000000298,"radio_events":[5933.5,6981.5999999940395,8485.39999999106],"key_events":[],"mouse_events":[5933.5,6981.5999999940395,8485.39999999106,10709.29999999702],"survey":"map","page":2,"trial_type":"survey-map","trial_index":5,"time_elapsed":172650,"internal_node_id":"0.0-5.0","task_version":"prescreen-v0.3","browser_interactions":0},{"responses":{"Q07":"2","Q08":"3","Q09":"2"},"rt":13631.09999999404,"radio_events":[4254.5999999940395,7326.29999999702,8422.5,11046.59999999404],"key_events":[],"mouse_events":[4254.5999999940395,7326.29999999702,8422.5,11046.59999999404,13630.70000000298],"survey":"map","page":3,"trial_type":"survey-map","trial_index":6,"time_elapsed":186282,"internal_node_id":"0.0-6.0","task_version":"prescreen-v0.3","browser_interactions":0},{"responses":{"Q10":"1","Q11":"0","Q12":"1","Q13":"2","Q16":"0","Q14":"2","Q15":"2"},"rt":30606.79999999702,"radio_events":[3094,7877.899999991059,10213.59999999404,14518,17709.89999999106,24853.89999999106,27125.89999999106],"key_events":[],"mouse_events":[3094,7877.899999991059,10213.59999999404,14518,17709.89999999106,24853.89999999106,27125.89999999106,30605.89999999106],"survey":"map","page":4,"trial_type":"survey-map","trial_index":7,"time_elapsed":216891,"internal_node_id":"0.0-7.0","task_version":"prescreen-v0.3","browser_interactions":0,"infrequency":0},{"view_history":[{"page_index":0,"viewing_time":7661.5},{"page_index":1,"viewing_time":3824}],"rt":11486.20000000298,"trial_type":"instructions","trial_index":8,"time_elapsed":228378,"internal_node_id":"0.0-8.0","task_version":"prescreen-v0.3"},{"responses":{"01":"No","02":"No","03":"No","04":"No","05":"No","06":"No"},"rt":20205.29999999702,"item_order":[0,1,2,3,4,5],"radio_events":[7667.199999988079,12474.89999999106,14347,16035,17290.89999999106,18866.89999999106],"checkbox_events":[],"key_events":[],"mouse_events":[0,7667.199999988079,12474.89999999106,14347,16035,17290.89999999106,18866.89999999106,20202.89999999106],"honeypot":0,"survey":"mace","page":1,"trial_type":"survey-mace","trial_index":9,"time_elapsed":248589,"internal_node_id":"0.0-9.0","task_version":"prescreen-v0.3","browser_interactions":0},{"responses":{"01":"No","02":"No","03":"Yes","03_ages_4":"4","03_ages_5":"5","04":"No","05":"No","06":"No","07":"No","08":"No"},"rt":26733.40000000596,"item_order":[0,1,2,3,4,5,6,7],"radio_events":[2097.800000011921,4522.300000011921,8138.20000000298,17546.20000000298,19658.30000001192,22074.20000000298,23290.10000000894,25114.10000000894],"checkbox_events":[10866.5,12698.300000011921,13114.10000000894,13490.20000000298],"key_events":[],"mouse_events":[2097.800000011921,4522.300000011921,8138.20000000298,10866.5,12698.300000011921,13114.10000000894,13490.20000000298,17546.20000000298,19658.30000001192,22074.20000000298,23290.10000000894,25114.10000000894,26730.40000000596],"honeypot":0,"survey":"mace","page":2,"trial_type":"survey-mace","trial_index":10,"time_elapsed":275326,"internal_node_id":"0.0-10.0","task_version":"prescreen-v0.3","browser_interactions":0},{"responses":{"01":"No","02":"No","03":"No","04":"No"},"rt":14931.70000000298,"item_order":[0,1,2,3],"radio_events":[4098.300000011921,6978.20000000298,11785.90000000596,13514.300000011921],"checkbox_events":[],"key_events":[],"mouse_events":[4098.300000011921,6978.20000000298,11785.90000000596,13514.300000011921,14930],"honeypot":0,"survey":"mace","page":3,"trial_type":"survey-mace","trial_index":11,"time_elapsed":290260,"internal_node_id":"0.0-11.0","task_version":"prescreen-v0.3","browser_interactions":0},{"responses":{"01":"No","02":"No"},"rt":8693.29999999702,"item_order":[0,1],"radio_events":[5484.100000008941,7636.4000000059605],"checkbox_events":[],"key_events":[],"mouse_events":[5484.100000008941,7636.4000000059605,8692.40000000596],"honeypot":0,"survey":"mace","page":4,"trial_type":"survey-mace","trial_index":12,"time_elapsed":298955,"internal_node_id":"0.0-12.0","task_version":"prescreen-v0.3","browser_interactions":0},{"responses":{"01":"No","02":"No","03":"No","04":"No","05":"No"},"rt":52991,"item_order":[0,1,2,3,4],"radio_events":[6605.100000008941,9924.90000000596,18124.79999999702,49901,51932.79999999702],"checkbox_events":[],"key_events":[],"mouse_events":[6605.100000008941,9924.90000000596,18124.79999999702,49901,51932.79999999702,52989.10000000894],"honeypot":0,"survey":"mace","page":5,"trial_type":"survey-mace","trial_index":13,"time_elapsed":351948,"internal_node_id":"0.0-13.0","task_version":"prescreen-v0.3","browser_interactions":0},{"responses":{"01":"Yes","01_ages_11":"11","01_ages_12":"12","01_ages_13":"13","02":"Yes","02_ages_11":"11","02_ages_12":"12","02_ages_13":"13","02_ages_14":"14","02_ages_15":"15","02_ages_16":"16","02_ages_17":"17","03":"Yes","03_ages_13":"13","03_ages_14":"14","03_ages_15":"15","03_ages_16":"16","03_ages_17":"17","04":"Yes","04_ages_10":"10","04_ages_11":"11","04_ages_12":"12","04_ages_13":"13","05":"No"},"rt":51892.90000000596,"item_order":[0,1,2,3,4],"radio_events":[9642.800000011921,28227.10000000894,35554.90000000596,42394.90000000596,49618.80000001192],"checkbox_events":[17659.20000000298,22955.10000000894,24035.10000000894,29707.10000000894,30051.20000000298,30531,30923.10000000894,31723.10000000894,32034.90000000596,32611.10000000894,38107,38491.10000000894,39082.80000001192,39467.10000000894,40139.10000000894,45131,45482.70000000298,45819.10000000894,46643],"key_events":[],"mouse_events":[9642.800000011921,17659.20000000298,22955.10000000894,24035.10000000894,28227.10000000894,29707.10000000894,30051.20000000298,30531,30923.10000000894,31243.10000000894,31723.10000000894,32034.90000000596,32347.80000001192,32611.10000000894,35554.90000000596,38107,38491.10000000894,39082.80000001192,39467.10000000894,39810.80000001192,40139.10000000894,42394.90000000596,45131,45482.70000000298,45819.10000000894,46643,49618.80000001192,51890.90000000596],"honeypot":0,"survey":"mace","page":6,"trial_type":"survey-mace","trial_index":14,"time_elapsed":403844,"internal_node_id":"0.0-14.0","task_version":"prescreen-v0.3","browser_interactions":0},{"responses":{"01":"No","02":"Yes","02_ages_16":"16","02_ages_17":"17","03":"No","04":"No","05":"No","06":"Yes","06_ages_16":"16","06_ages_17":"17","07":"Yes","07_ages_16":"16","07_ages_17":"17"},"rt":35229.70000000298,"item_order":[0,1,2,3,4,5,6],"radio_events":[5107,12330.90000000596,17306.90000000596,19146.90000000596,21611,23035,30226.80000001192],"checkbox_events":[13403,13827,26659,27091,31842.60000000894,32339],"key_events":[],"mouse_events":[5107,12330.90000000596,13403,13827,17306.90000000596,19146.90000000596,21611,23035,26659,27091,30226.80000001192,31138.80000001192,31842.60000000894,32339,35227.10000000894],"honeypot":0,"survey":"mace","page":7,"trial_type":"survey-mace","trial_index":15,"time_elapsed":439077,"internal_node_id":"0.0-15.0","task_version":"prescreen-v0.3","browser_interactions":0},{"responses":{"01":"No","02":"Yes","02_ages_5":"5","02_ages_6":"6","02_ages_7":"7","02_ages_8":"8","02_ages_9":"9","02_ages_10":"10","02_ages_11":"11","02_ages_12":"12","02_ages_13":"13","02_ages_14":"14","02_ages_15":"15","02_ages_16":"16","02_ages_17":"17","03":"No","04":"Yes","04_ages_5":"5","04_ages_6":"6","04_ages_7":"7","04_ages_8":"8","04_ages_9":"9","04_ages_10":"10","04_ages_11":"11","04_ages_12":"12","04_ages_13":"13","04_ages_14":"14","04_ages_15":"15","04_ages_16":"16","04_ages_17":"17"},"rt":81708,"item_order":[0,1,2,3],"radio_events":[8634.5,13674.300000011921,70146.40000000596,72482.40000000596],"checkbox_events":[61498.40000000596,61851.10000000894,62178.10000000894,62506.10000000894,62826.40000000596,63146.10000000894,63674.30000001192,64186.30000001192,64586.40000000596,65290.5,65578,66330.40000000596,66794.40000000596,74266.40000000596,74810.30000001192,75290.40000000596,75802.40000000596,76594.30000001192,77042.30000001192,77362.40000000596,77978.30000001192,78410.30000001192,78762.30000001192,79778.40000000596,80122.40000000596,80914.20000000298],"key_events":[],"mouse_events":[8634.5,13674.300000011921,61498.40000000596,61851.10000000894,62178.10000000894,62506.10000000894,62826.40000000596,63146.10000000894,63674.30000001192,64186.30000001192,64586.40000000596,64922.40000000596,65290.5,65578,65898.40000000596,66330.40000000596,66794.40000000596,70146.40000000596,72482.40000000596,74266.40000000596,74810.30000001192,75290.40000000596,75802.40000000596,76594.30000001192,77042.30000001192,77362.40000000596,77978.30000001192,78410.30000001192,78762.30000001192,79122.40000000596,79778.40000000596,80122.40000000596,80914.20000000298,81706.40000000596],"honeypot":0,"survey":"mace","page":8,"trial_type":"survey-mace","trial_index":16,"time_elapsed":520788,"internal_node_id":"0.0-16.0","task_version":"prescreen-v0.3","browser_interactions":0},{"responses":{"01":"Yes","01_ages_1":"1","01_ages_2":"2","01_ages_3":"3","01_ages_4":"4","01_ages_5":"5","01_ages_6":"6","01_ages_7":"7","01_ages_8":"8","01_ages_9":"9","01_ages_10":"10","01_ages_11":"11","01_ages_12":"12","01_ages_13":"13","01_ages_14":"14","01_ages_15":"15","01_ages_16":"16","01_ages_17":"17","02":"Yes","02_ages_1":"1","02_ages_2":"2","02_ages_3":"3","02_ages_4":"4","02_ages_5":"5","02_ages_6":"6","02_ages_7":"7","02_ages_8":"8","02_ages_9":"9","02_ages_10":"10","02_ages_11":"11","02_ages_12":"12","02_ages_13":"13","02_ages_14":"14","02_ages_15":"15","02_ages_16":"16","02_ages_17":"17","03":"Yes","03_ages_1":"1","03_ages_2":"2","03_ages_3":"3","03_ages_4":"4","03_ages_5":"5","03_ages_6":"6","03_ages_7":"7","03_ages_8":"8","03_ages_9":"9","03_ages_10":"10","03_ages_11":"11","03_ages_12":"12","03_ages_13":"13","03_ages_14":"14","03_ages_15":"15","03_ages_16":"16","03_ages_17":"17","04":"Yes","04_ages_1":"1","04_ages_2":"2","04_ages_3":"3","04_ages_4":"4","04_ages_5":"5","04_ages_6":"6","04_ages_7":"7","04_ages_8":"8","04_ages_9":"9","04_ages_10":"10","04_ages_11":"11","04_ages_12":"12","04_ages_13":"13","04_ages_14":"14","04_ages_15":"15","04_ages_16":"16","04_ages_17":"17"},"rt":74421.5,"item_order":[0,1,2,3],"radio_events":[26796,37523.5,49691.90000000596,62755.79999999702],"checkbox_events":[28611.90000000596,29011.70000000298,29468,29763.79999999702,30084.20000000298,30387.90000000596,30747.90000000596,31124,31547.79999999702,32059.90000000596,32355.90000000596,32996,33356,34099.90000000596,34523.90000000596,35163.79999999702,35875.90000000596,38467.90000000596,38772,39091.79999999702,39475.90000000596,39891.59999999404,40203.79999999702,40547.90000000596,40859.90000000596,41235.90000000596,41564,42355.90000000596,42700,43028,43339.90000000596,43628.09999999404,44499.90000000596,44892,51675.90000000596,52212,52579.90000000596,53339.90000000596,53859.90000000596,54563.90000000596,55020,55347.90000000596,55692,56595.90000000596,57796,58139.90000000596,58883.90000000596,59355.5,59740,60195.70000000298,60987.79999999702,64859.40000000596,65403.90000000596,65763.70000000298,66171.90000000596,66619.90000000596,67003.79999999702,67395.70000000298,67923.70000000298,68659.79999999702,69035.90000000596,69619.79999999702,70411.90000000596,70755.59999999404,71291.90000000596,71715.79999999702,72356,72795.79999999702],"key_events":[],"mouse_events":[26796,28611.90000000596,29011.70000000298,29468,29763.79999999702,30084.20000000298,30387.90000000596,30747.90000000596,31124,31547.79999999702,32059.90000000596,32355.90000000596,32996,33356,34099.90000000596,34523.90000000596,35163.79999999702,35875.90000000596,37523.5,38467.90000000596,38772,39091.79999999702,39475.90000000596,39891.59999999404,40203.79999999702,40547.90000000596,40859.90000000596,41235.90000000596,41564,42355.90000000596,42700,43028,43339.90000000596,43628.09999999404,44499.90000000596,44892,49691.90000000596,51675.90000000596,52212,52579.90000000596,53339.90000000596,53859.90000000596,54563.90000000596,55020,55347.90000000596,55692,56595.90000000596,57796,58139.90000000596,58612.09999999404,58883.90000000596,59355.5,59740,60195.70000000298,60987.79999999702,62755.79999999702,64179.5,64859.40000000596,65403.90000000596,65763.70000000298,66171.90000000596,66619.90000000596,67003.79999999702,67395.70000000298,67923.70000000298,68659.79999999702,69035.90000000596,69619.79999999702,70411.90000000596,70755.59999999404,71291.90000000596,71715.79999999702,72356,72795.79999999702,74420],"honeypot":0,"survey":"mace","page":9,"trial_type":"survey-mace","trial_index":17,"time_elapsed":595212,"internal_node_id":"0.0-17.0","task_version":"prescreen-v0.3","browser_interactions":0},{"responses":{"01":"No","02":"No","03":"Yes","03_ages_8":"8","03_ages_9":"9","03_ages_10":"10","03_ages_11":"11","03_ages_12":"12","03_ages_13":"13","03_ages_14":"14","03_ages_15":"15","03_ages_16":"16","03_ages_17":"17","04":"No","05":"No","06":"Yes","06_ages_17":"17","07":"Yes","07_ages_1":"1","07_ages_2":"2","07_ages_3":"3","07_ages_4":"4","07_ages_5":"5","07_ages_6":"6","07_ages_7":"7","07_ages_8":"8","07_ages_9":"9","07_ages_10":"10","07_ages_11":"11","07_ages_12":"12","07_ages_13":"13","07_ages_14":"14","07_ages_15":"15","07_ages_16":"16","07_ages_17":"17","08":"Yes","08_ages_1":"1","08_ages_2":"2","08_ages_3":"3","08_ages_4":"4","08_ages_5":"5","08_ages_6":"6","08_ages_7":"7","08_ages_8":"8","08_ages_9":"9","08_ages_10":"10","08_ages_11":"11","08_ages_12":"12","08_ages_13":"13","08_ages_14":"14","08_ages_15":"15","08_ages_16":"16","08_ages_17":"17"},"rt":57950.5,"item_order":[0,1,2,3,4,5,6,7],"radio_events":[3675.5999999940395,5883.29999999702,9427.20000000298,19107.09999999404,22907.40000000596,25067,28691.29999999702,46179.20000000298],"checkbox_events":[11883.40000000596,12267.40000000596,12643.29999999702,13171.29999999702,13899.40000000596,14779.40000000596,15187.40000000596,15667.40000000596,15971.40000000596,16331.09999999404,26395.40000000596,34475.40000000596,35043.29999999702,35451.29999999702,35971.29999999702,36371.29999999702,36747.29999999702,37491.29999999702,37939.20000000298,38283.40000000596,40187.29999999702,41186.90000000596,41691.29999999702,42043.5,42435.29999999702,42787.29999999702,43795.29999999702,44491.40000000596,48450.90000000596,48795.40000000596,49291.29999999702,49627.29999999702,50123.40000000596,50475.29999999702,51218.79999999702,51523.20000000298,52266.90000000596,53179,53827.29999999702,54227.29999999702,54867.40000000596,55227.20000000298,55611.20000000298,56003.40000000596,56387.29999999702],"key_events":[],"mouse_events":[3675.5999999940395,5883.29999999702,9427.20000000298,11883.40000000596,12267.40000000596,12643.29999999702,13171.29999999702,13899.40000000596,14459.40000000596,14779.40000000596,15187.40000000596,15667.40000000596,15971.40000000596,16331.09999999404,19107.09999999404,22907.40000000596,25067,26395.40000000596,28691.29999999702,34475.40000000596,35043.29999999702,35451.29999999702,35971.29999999702,36371.29999999702,36747.29999999702,37491.29999999702,37939.20000000298,38283.40000000596,38691.40000000596,39403.20000000298,39779.20000000298,40187.29999999702,40619.40000000596,41186.90000000596,41691.29999999702,42043.5,42435.29999999702,42787.29999999702,43107.5,43795.29999999702,44491.40000000596,46179.20000000298,47955.40000000596,48450.90000000596,48795.40000000596,49291.29999999702,49627.29999999702,50123.40000000596,50475.29999999702,50803.5,51218.79999999702,51523.20000000298,51923.29999999702,52266.90000000596,53179,53827.29999999702,54227.29999999702,54587.29999999702,54867.40000000596,55227.20000000298,55611.20000000298,56003.40000000596,56387.29999999702,57947.5],"honeypot":0,"survey":"mace","page":10,"trial_type":"survey-mace","trial_index":18,"time_elapsed":653166,"internal_node_id":"0.0-18.0","task_version":"prescreen-v0.3","browser_interactions":0,"instructed":0},{"rt":9002.10000000894,"trial_type":"mental-health-alert","trial_index":19,"time_elapsed":662170,"internal_node_id":"0.0-19.0","task_version":"prescreen-v0.3","interactions":"[]"}]