[{"view_history":[{"page_index":0,"viewing_time":5602},{"page_index":1,"viewing_time":5609},{"page_index":2,"viewing_time":4623},{"page_index":3,"viewing_time":1239}],"rt":17074,"trial_type":"instructions","trial_index":0,"time_elapsed":17078,"internal_node_id":"0.0-0.0","task_version":"prescreen-v0.3"},{"rt":15661.999999999993,"responses":{"age":"34","gender-categorical":"Female","gender-free-response":"","ethnicity":"Not Hispanic or Latino","race":["White"],"education":"Bachelor degree"},"trial_type":"survey-demo","trial_index":1,"time_elapsed":32745,"internal_node_id":"0.0-1.0","task_version":"prescreen-v0.3"},{"responses":{"Q07":"1","Q02":"3","Q04":"3","Q08":"3","Q01":"3","Q10":"3","Q20":"0","Q17":"2","Q09":"3","Q03":"1","Q13":"3","Q11":"3","Q15":"2","Q05":"3","Q21":"3","Q12":"2","Q06":"0","Q18":"1","Q14":"3","Q19":"1","Q16":"3"},"rt":129894,"item_order":[6,1,3,7,0,9,19,16,8,2,12,10,14,4,20,11,5,17,13,18,15],"radio_events":[13433,16873,31601,34289,34881.000000000015,37433,40057,54713,57273,59992,63345,65488,77585,89801,93977,98801,104449,109961,115561,123801,128265],"key_events":[],"mouse_events":[12585,13433,16873,31601,34289,34881.000000000015,37433,40057,54713,57273,59992,63345,65488,77585,89801,93977,98801,104449,109961,115561,123801,128265,129881],"straightlining":0.5714285714285714,"zigzagging":0.3,"honeypot":0,"survey":"sns","trial_type":"survey-template","trial_index":2,"time_elapsed":162640,"internal_node_id":"0.0-2.0","task_version":"prescreen-v0.3","browser_interactions":0,"infrequency":0},{"responses":{"Q04":"3","Q05":"2","Q13":"0","Q07":"1","Q01":"3","Q02":"3","Q06":"2","Q11":"1","Q09":"1","Q03":"3","Q12":"0","Q10":"0","Q08":"0"},"rt":59941.99999999997,"item_order":[3,4,12,6,0,1,5,10,8,2,11,9,7],"radio_events":[4917.999999999971,9174.99999999997,12542.99999999997,13885.99999999997,15822.99999999997,19126.99999999997,25470.99999999997,30774.99999999997,40054.99999999997,44910.99999999997,48918.99999999997,51303,58422.99999999997],"key_events":[],"mouse_events":[4917.999999999971,9174.99999999997,10437.99999999997,12542.99999999997,13885.99999999997,15822.99999999997,19126.99999999997,25470.99999999997,30774.99999999997,40054.99999999997,44910.99999999997,48918.99999999997,51303,55894.99999999997,56614.99999999997,57566.99999999997,58110.99999999997,58422.99999999997,59934.99999999997],"straightlining":0.3076923076923077,"zigzagging":0.4166666666666667,"honeypot":0,"survey":"bisbas","trial_type":"survey-template","trial_index":3,"time_elapsed":222584,"internal_node_id":"0.0-3.0","task_version":"prescreen-v0.3","browser_interactions":0,"infrequency":0},{"responses":{"Q01":"2","Q02":"2","Q03":"1"},"rt":32930,"radio_events":[13742,21582.00000000006,27405],"key_events":[],"mouse_events":[13742,21582.00000000006,27405,32926],"survey":"map","page":1,"trial_type":"survey-map","trial_index":4,"time_elapsed":255516,"internal_node_id":"0.0-4.0","task_version":"prescreen-v0.3","browser_interactions":0},{"responses":{"Q04":"3","Q05":"3","Q06":"3"},"rt":16213,"radio_events":[8378,11146,15290],"key_events":[],"mouse_events":[5490,8378,11146,15290,16210],"survey":"map","page":2,"trial_type":"survey-map","trial_index":5,"time_elapsed":271731,"internal_node_id":"0.0-5.0","task_version":"prescreen-v0.3","browser_interactions":0},{"responses":{"Q07":"2","Q08":"4","Q09":"3"},"rt":22253,"radio_events":[7082,10394,21274],"key_events":[],"mouse_events":[7082,10394,21274,22250],"survey":"map","page":3,"trial_type":"survey-map","trial_index":6,"time_elapsed":293986,"internal_node_id":"0.0-6.0","task_version":"prescreen-v0.3","browser_interactions":0},{"responses":{"Q10":"0","Q11":"0","Q12":"0","Q13":"0","Q16":"0","Q14":"3","Q15":"3"},"rt":37528,"radio_events":[6035,8690,12163,16963,21771,27851,33219],"key_events":[],"mouse_events":[6035,8690,12163,16963,21771,27851,32099,33219,37523],"survey":"map","page":4,"trial_type":"survey-map","trial_index":7,"time_elapsed":331516,"internal_node_id":"0.0-7.0","task_version":"prescreen-v0.3","browser_interactions":0,"infrequency":0},{"view_history":[{"page_index":0,"viewing_time":3240},{"page_index":1,"viewing_time":5744}],"rt":8984,"trial_type":"instructions","trial_index":8,"time_elapsed":340502,"internal_node_id":"0.0-8.0","task_version":"prescreen-v0.3"},{"responses":{"01":"No","02":"Yes","02_ages_3":"3","02_ages_4":"4","02_ages_5":"5","02_ages_10":"10","02_ages_11":"11","02_ages_12":"12","02_ages_13":"13","02_ages_14":"14","02_ages_15":"15","02_ages_16":"16","02_ages_17":"17","02_ages_18":"18","03":"Yes","03_ages_3":"3","03_ages_4":"4","03_ages_5":"5","03_ages_6":"6","03_ages_7":"7","03_ages_8":"8","03_ages_9":"9","04":"Yes","04_ages_3":"3","04_ages_4":"4","04_ages_5":"5","04_ages_6":"6","04_ages_7":"7","04_ages_8":"8","04_ages_9":"9","04_ages_10":"10","05":"Yes","05_ages_3":"3","05_ages_4":"4","05_ages_5":"5","06":"Yes","06_ages_3":"3","06_ages_4":"4","06_ages_5":"5"},"rt":157742.00000000006,"item_order":[0,1,2,3,4,5],"radio_events":[16947,18627,54115,82075.00000000006,103035,112675],"checkbox_events":[30555,31475,31931,32395,32931,33347,33859,34995,35731.00000000006,45371,51267,59299,59731.00000000006,60211,61651,62747,64563.00000000006,65251,65715,66195.00000000006,84035,85162,85635.00000000006,86019,86627,87243.00000000006,87827,88203,104563.00000000006,105331,106387,114315,114780,115179,132475,135891,137355],"key_events":[],"mouse_events":[0,16947,18627,30555,31475,31931,32395,32931,33347,33859,34995,35731.00000000006,45371,51267,54115,59299,59731.00000000006,60211,61651,62747,64563.00000000006,65251,65715,66195.00000000006,82075.00000000006,84035,84419,85162,85635.00000000006,86019,86627,87243.00000000006,87827,88203,103035,104563.00000000006,105331,106387,112675,114315,114780,115179,132475,135891,137355,157731.99999999994],"honeypot":0,"survey":"mace","page":1,"trial_type":"survey-mace","trial_index":9,"time_elapsed":498246,"internal_node_id":"0.0-9.0","task_version":"prescreen-v0.3","browser_interactions":0},{"responses":{"01":"Yes","01_ages_3":"3","01_ages_4":"4","01_ages_5":"5","02":"No","03":"Yes","03_ages_3":"3","03_ages_4":"4","03_ages_5":"5","04":"No","05":"No","06":"Yes","06_ages_3":"3","06_ages_4":"4","06_ages_5":"5","06_ages_10":"10","06_ages_11":"11","06_ages_12":"12","06_ages_13":"13","06_ages_14":"14","06_ages_15":"15","06_ages_16":"16","07":"No","08":"No"},"rt":84194.00000000006,"item_order":[0,1,2,3,4,5,6,7],"radio_events":[15233.000000000058,25249.00000000006,26753.00000000006,32201.00000000006,36161.00000000006,37561.00000000006,81377.00000000006,82977.00000000006],"checkbox_events":[18425.00000000006,18865.00000000006,19473.00000000006,28441.00000000006,28929.00000000006,29393.00000000006,49049.00000000006,50217.000000000175,51985.00000000006,55104.00000000006,55545.00000000006,56385.00000000006,56857.00000000006,57217.000000000175,57873.00000000006,58833.00000000006],"key_events":[],"mouse_events":[15233.000000000058,18425.00000000006,18865.00000000006,19473.00000000006,25249.00000000006,26753.00000000006,28441.00000000006,28929.00000000006,29393.00000000006,32201.00000000006,36161.00000000006,37561.00000000006,49049.00000000006,50217.000000000175,51985.00000000006,54121.000000000175,55104.00000000006,55545.00000000006,56385.00000000006,56857.00000000006,57217.000000000175,57873.00000000006,58833.00000000006,81377.00000000006,82977.00000000006,84185.00000000006],"honeypot":0,"survey":"mace","page":2,"trial_type":"survey-mace","trial_index":10,"time_elapsed":582443,"internal_node_id":"0.0-10.0","task_version":"prescreen-v0.3","browser_interactions":0},{"responses":{"01":"Yes","01_ages_3":"3","01_ages_4":"4","01_ages_5":"5","01_ages_6":"6","01_ages_7":"7","01_ages_8":"8","02":"No","03":"No","04":"No"},"rt":39000,"item_order":[0,1,2,3],"radio_events":[11739,30635,37251,38019.00000000012],"checkbox_events":[14211,14571,15211,15987,19403,25802],"key_events":[],"mouse_events":[11739,14211,14571,15211,15987,19403,25802,30635,37251,38019.00000000012,38995.00000000012],"honeypot":0,"survey":"mace","page":3,"trial_type":"survey-mace","trial_index":11,"time_elapsed":621445,"internal_node_id":"0.0-11.0","task_version":"prescreen-v0.3","browser_interactions":0},{"responses":{"01":"Yes","01_ages_3":"3","01_ages_4":"4","01_ages_5":"5","01_ages_10":"10","01_ages_11":"11","01_ages_12":"12","01_ages_13":"13","01_ages_14":"14","01_ages_15":"15","02":"No"},"rt":46125,"item_order":[0,1],"radio_events":[8416,42952],"checkbox_events":[16720,17240,18072,18455,23359,23776,24728,32824,34816],"key_events":[],"mouse_events":[8416,16720,17240,17720,18072,18455,23359,23776,24728,32824,34816,40640,42952,46120],"honeypot":0,"survey":"mace","page":4,"trial_type":"survey-mace","trial_index":12,"time_elapsed":667571,"internal_node_id":"0.0-12.0","task_version":"prescreen-v0.3","browser_interactions":0},{"responses":{"01":"No","02":"No","03":"No","04":"No","05":"No"},"rt":30669,"item_order":[0,1,2,3,4],"radio_events":[11031.000000000116,15415,20430.000000000116,23127,26823],"checkbox_events":[],"key_events":[],"mouse_events":[11031.000000000116,15415,20430.000000000116,23127,26823,30663],"honeypot":0,"survey":"mace","page":5,"trial_type":"survey-mace","trial_index":13,"time_elapsed":698244,"internal_node_id":"0.0-13.0","task_version":"prescreen-v0.3","browser_interactions":0},{"responses":{"01":"Yes","01_ages_3":"3","01_ages_4":"4","01_ages_5":"5","01_ages_6":"6","01_ages_7":"7","01_ages_8":"8","01_ages_9":"9","01_ages_10":"10","01_ages_11":"11","01_ages_12":"12","01_ages_13":"13","01_ages_14":"14","01_ages_15":"15","01_ages_16":"16","01_ages_17":"17","01_ages_18":"18","02":"Yes","02_ages_3":"3","02_ages_4":"4","02_ages_5":"5","02_ages_6":"6","02_ages_7":"7","02_ages_8":"8","02_ages_9":"9","02_ages_10":"10","02_ages_11":"11","02_ages_12":"12","02_ages_13":"13","02_ages_14":"14","02_ages_15":"15","02_ages_16":"16","02_ages_17":"17","02_ages_18":"18","03":"Yes","03_ages_3":"3","03_ages_4":"4","03_ages_5":"5","03_ages_6":"6","03_ages_7":"7","03_ages_8":"8","03_ages_9":"9","03_ages_10":"10","03_ages_11":"11","03_ages_12":"12","03_ages_13":"13","03_ages_14":"14","03_ages_15":"15","03_ages_16":"16","03_ages_17":"17","03_ages_18":"18","04":"Yes","04_ages_3":"3","04_ages_4":"4","04_ages_5":"5","04_ages_6":"6","04_ages_7":"7","04_ages_8":"8","04_ages_9":"9","04_ages_10":"10","04_ages_11":"11","04_ages_12":"12","04_ages_13":"13","04_ages_14":"14","04_ages_15":"15","04_ages_16":"16","04_ages_17":"17","04_ages_18":"18","05":"Yes","05_ages_3":"3","05_ages_4":"4","05_ages_5":"5","05_ages_6":"6","05_ages_7":"7","05_ages_8":"8","05_ages_9":"9","05_ages_10":"10","05_ages_11":"11","05_ages_12":"12","05_ages_13":"13"},"rt":70477,"item_order":[0,1,2,3,4],"radio_events":[6245,20365,31309.000000000116,43013,60189.00000000012],"checkbox_events":[7557,7981,8437,8829,9189.000000000116,9909,11325,11829,12565,13197,13893,14413,14957,16789,17469,18221,21341,21845,22237.000000000116,22541,23077,23501,23925,24357.000000000116,24765,25245,25629,26149,26557,27069,27621,28437,32533,32877,34309.00000000012,35085,35965,36340,36917,37493,37925,38557,39053,39636.00000000012,40037,40469,40837,41461,44325,45125,45485,46204,46965,47716,48349,49206,50029,50749,51485,52589,53477,55325,55829,56485,62437,63260,63709,64148,64717,65165.00000000012,66037,66829,67709,68413,68765],"key_events":[],"mouse_events":[6245,7557,7981,8437,8829,9189.000000000116,9909,11325,11829,12565,13197,13893,14413,14957,15517,16789,17469,18221,20365,21341,21845,22237.000000000116,22541,23077,23501,23925,24357.000000000116,24765,25245,25629,26149,26557,27069,27621,28437,31309.000000000116,32533,32877,33308,34309.00000000012,35085,35965,36340,36917,37493,37925,38557,39053,39636.00000000012,40037,40469,40837,41461,43013,44325,44741,45125,45485,45844,46204,46965,47716,48349,49206,50029,50749,51485,52589,53477,55325,55829,56485,60189.00000000012,62437,62965,63260,63709,64148,64717,65165.00000000012,65613,66037,66829,67709,68085,68413,68765,70470],"honeypot":0,"survey":"mace","page":6,"trial_type":"survey-mace","trial_index":14,"time_elapsed":768725,"internal_node_id":"0.0-14.0","task_version":"prescreen-v0.3","browser_interactions":0},{"responses":{"01":"Yes","01_ages_3":"3","01_ages_4":"4","01_ages_5":"5","01_ages_6":"6","01_ages_7":"7","01_ages_8":"8","01_ages_9":"9","02":"Yes","02_ages_3":"3","02_ages_4":"4","02_ages_5":"5","02_ages_6":"6","02_ages_7":"7","02_ages_8":"8","02_ages_9":"9","03":"Yes","03_ages_3":"3","03_ages_4":"4","03_ages_5":"5","03_ages_6":"6","03_ages_7":"7","03_ages_8":"8","03_ages_9":"9","04":"Yes","04_ages_3":"3","04_ages_4":"4","04_ages_5":"5","04_ages_6":"6","04_ages_7":"7","04_ages_8":"8","04_ages_9":"9","05":"Yes","05_ages_4":"4","05_ages_8":"8","06":"Yes","06_ages_3":"3","06_ages_4":"4","06_ages_5":"5","06_ages_6":"6","06_ages_7":"7","07":"Yes","07_ages_3":"3","07_ages_4":"4","07_ages_5":"5","07_ages_6":"6","07_ages_7":"7"},"rt":119173,"item_order":[0,1,2,3,4,5,6],"radio_events":[5242.999999999884,14042.999999999884,26762.999999999884,35834.99999999988,42058.99999999988,69618.99999999988,102921.99999999988],"checkbox_events":[6690.999999999884,7242.999999999884,7938.999999999884,8690.999999999884,9434.999999999884,10130.999999999884,11058.999999999884,12234.999999999884,15690.999999999884,16683.999999999884,17578.999999999884,18066.999999999884,18458.999999999884,19266.999999999884,19866.999999999884,23698.999999999884,27930.999999999884,28930.999999999884,30490.999999999884,30851,31410.999999999884,32106.999999999884,32635,37210.99999999988,37731,38106.99999999988,38490.99999999988,39298.99999999988,39755,40426.99999999988,43042.99999999988,43538.99999999988,44250.99999999988,44810.99999999988,45386.99999999988,46226.99999999988,50554.99999999988,51666.99999999988,52242.99999999988,53106.99999999988,56779,66458.99999999988,70673.99999999988,72498.99999999988,77698.99999999988,78394.99999999988,78858.99999999988,81019,90274.99999999988,106529.99999999988,106971.99999999988,107986.99999999988,108434.99999999988,108914.99999999988],"key_events":[],"mouse_events":[5242.999999999884,6690.999999999884,7242.999999999884,7938.999999999884,8690.999999999884,9434.999999999884,10130.999999999884,11058.999999999884,12234.999999999884,14042.999999999884,15690.999999999884,16114.999999999884,16683.999999999884,17578.999999999884,18066.999999999884,18458.999999999884,19266.999999999884,19866.999999999884,23698.999999999884,26762.999999999884,27930.999999999884,28443.999999999884,28930.999999999884,29786.999999999884,30490.999999999884,30851,31410.999999999884,32106.999999999884,32635,35834.99999999988,37210.99999999988,37731,38106.99999999988,38490.99999999988,39298.99999999988,39755,40426.99999999988,42058.99999999988,43042.99999999988,43538.99999999988,44250.99999999988,44810.99999999988,45386.99999999988,46226.99999999988,50554.99999999988,51666.99999999988,52242.99999999988,53106.99999999988,56779,66458.99999999988,69618.99999999988,70673.99999999988,72498.99999999988,77698.99999999988,78394.99999999988,78858.99999999988,81019,90274.99999999988,102921.99999999988,106529.99999999988,106971.99999999988,107986.99999999988,108434.99999999988,108914.99999999988,119163.99999999988],"honeypot":0,"survey":"mace","page":7,"trial_type":"survey-mace","trial_index":15,"time_elapsed":887899,"internal_node_id":"0.0-15.0","task_version":"prescreen-v0.3","browser_interactions":0},{"responses":{"01":"Yes","01_ages_3":"3","01_ages_4":"4","01_ages_5":"5","01_ages_6":"6","01_ages_7":"7","01_ages_8":"8","01_ages_9":"9","01_ages_10":"10","01_ages_11":"11","01_ages_12":"12","01_ages_13":"13","01_ages_14":"14","01_ages_15":"15","01_ages_16":"16","01_ages_17":"17","01_ages_18":"18","02":"Yes","02_ages_3":"3","02_ages_4":"4","02_ages_5":"5","02_ages_6":"6","02_ages_7":"7","02_ages_8":"8","02_ages_9":"9","02_ages_10":"10","02_ages_11":"11","02_ages_12":"12","02_ages_13":"13","02_ages_14":"14","02_ages_15":"15","02_ages_16":"16","02_ages_17":"17","02_ages_18":"18","03":"Yes","03_ages_3":"3","03_ages_4":"4","03_ages_5":"5","03_ages_6":"6","03_ages_7":"7","03_ages_8":"8","03_ages_9":"9","03_ages_10":"10","03_ages_11":"11","03_ages_12":"12","03_ages_13":"13","03_ages_14":"14","03_ages_15":"15","03_ages_16":"16","03_ages_17":"17","03_ages_18":"18","04":"Yes","04_ages_3":"3","04_ages_4":"4","04_ages_5":"5","04_ages_6":"6","04_ages_7":"7","04_ages_8":"8","04_ages_9":"9","04_ages_10":"10","04_ages_11":"11","04_ages_12":"12","04_ages_13":"13","04_ages_14":"14","04_ages_15":"15","04_ages_16":"16","04_ages_17":"17","04_ages_18":"18"},"rt":69842.00000000012,"item_order":[0,1,2,3],"radio_events":[16274,30874,45146,59458.00000000012],"checkbox_events":[17202,18026,18570,19642,20210,20666,21090,21786,23915,24594,25218,25650.000000000116,26066,26626.000000000116,27330,28010,32010,32386,33178,33706,34098,35202,35946,36570,37074,37466,37826,38162,38658,39106,40018,40602.00000000012,46314,46914,47450,47866.00000000012,48522,49137,49762,51026,51682,52650.00000000012,53474,54010,54786,55370,55802,56818.00000000012,60306,60810,61170,61809.00000000012,62186,62666,63226,63938,64938,65298,65730,66178,66650.00000000012,67082,67978,68442],"key_events":[],"mouse_events":[15794.000000000116,16274,17202,17634,18026,18570,19209,19642,20210,20666,21090,21786,23915,24594,25218,25650.000000000116,26066,26626.000000000116,27330,28010,30874,32010,32386,33178,33706,34098,35202,35946,36570,37074,37466,37826,38162,38658,39106,39441,39722.00000000012,40018,40602.00000000012,45146,46314,46914,47450,47866.00000000012,48522,49137,49762,50626.00000000012,51026,51682,52650.00000000012,53474,54010,54786,55370,55802,56818.00000000012,59458.00000000012,60306,60810,61170,61809.00000000012,62186,62666,63226,63938,64938,65298,65730,66178,66650.00000000012,67082,67978,68442,69835],"honeypot":0,"survey":"mace","page":8,"trial_type":"survey-mace","trial_index":16,"time_elapsed":957743,"internal_node_id":"0.0-16.0","task_version":"prescreen-v0.3","browser_interactions":0},{"responses":{"01":"Yes","01_ages_1":"1","01_ages_2":"2","01_ages_3":"3","01_ages_4":"4","01_ages_5":"5","01_ages_6":"6","01_ages_7":"7","01_ages_8":"8","01_ages_9":"9","01_ages_10":"10","01_ages_11":"11","01_ages_12":"12","01_ages_13":"13","01_ages_14":"14","01_ages_15":"15","01_ages_16":"16","01_ages_17":"17","01_ages_18":"18","02":"Yes","02_ages_10":"10","02_ages_14":"14","02_ages_15":"15","02_ages_16":"16","02_ages_17":"17","02_ages_18":"18","03":"No","04":"No"},"rt":57864,"item_order":[0,1,2,3],"radio_events":[5068.000000000116,24748,42972,53340.00000000012],"checkbox_events":[7435,7908,8348,8852.000000000116,9420,10228,10924.000000000116,11868,12380,12828.000000000116,13380,13804.000000000116,14356,14772,15540,16676,17492,18203.000000000116,30148,32932,34252,34924.00000000012,35324,35748],"key_events":[],"mouse_events":[5068.000000000116,6876.000000000116,7435,7908,8348,8852.000000000116,9420,10228,10924.000000000116,11868,12380,12828.000000000116,13380,13804.000000000116,14356,14772,15540,16676,17492,18203.000000000116,24748,30148,32932,34252,34924.00000000012,35324,35748,42972,53340.00000000012,57860.00000000012],"honeypot":0,"survey":"mace","page":9,"trial_type":"survey-mace","trial_index":17,"time_elapsed":1015489,"internal_node_id":"0.0-17.0","task_version":"prescreen-v0.3","browser_interactions":0},{"responses":{"01":"No","02":"Yes","02_ages_10":"10","02_ages_11":"11","02_ages_12":"12","02_ages_13":"13","02_ages_14":"14","02_ages_15":"15","02_ages_16":"16","02_ages_17":"17","02_ages_18":"18","03":"Yes","03_ages_3":"3","03_ages_4":"4","03_ages_5":"5","03_ages_6":"6","03_ages_7":"7","03_ages_8":"8","03_ages_9":"9","03_ages_10":"10","03_ages_11":"11","03_ages_12":"12","03_ages_13":"13","03_ages_14":"14","03_ages_15":"15","03_ages_16":"16","03_ages_17":"17","03_ages_18":"18","04":"Yes","04_ages_3":"3","04_ages_4":"4","04_ages_5":"5","04_ages_6":"6","04_ages_7":"7","04_ages_8":"8","04_ages_9":"9","04_ages_10":"10","04_ages_11":"11","04_ages_12":"12","04_ages_13":"13","04_ages_14":"14","04_ages_15":"15","04_ages_16":"16","04_ages_17":"17","04_ages_18":"18","05":"No","06":"Yes","06_ages_17":"17","07":"No","08":"No"},"rt":75119.99999999988,"item_order":[0,1,2,3,4,5,6,7],"radio_events":[4655,17822.999999999884,33966.99999999988,40910.99999999988,58478.99999999988,61726.99999999988,68158.99999999988,70750.00000000012],"checkbox_events":[9102.999999999884,9686.999999999884,10279.000000000116,10790.999999999884,11198.999999999884,11622.999999999884,12270.999999999884,12957.999999999884,13646.999999999884,19870.999999999884,20302.999999999884,21478.999999999884,22014.999999999884,22510.999999999884,22958.999999999884,23574.999999999884,24070.999999999884,24510.999999999884,24894.999999999884,25854.999999999884,26718.999999999884,28006.999999999884,29414.999999999884,30094.999999999884,30942.999999999884,42638.99999999988,43046.99999999988,43966.99999999988,44894.00000000012,45423.00000000012,45773.99999999988,46526.99999999988,47149.99999999988,47638.99999999988,48629.99999999988,49270.99999999988,49718.99999999988,50598.99999999988,51214.99999999988,51734.99999999988,52526.99999999988,63622.99999999988],"key_events":[],"mouse_events":[4655,9102.999999999884,9686.999999999884,10279.000000000116,10790.999999999884,11198.999999999884,11622.999999999884,12270.999999999884,12957.999999999884,13646.999999999884,17822.999999999884,19870.999999999884,20302.999999999884,21014.999999999884,21478.999999999884,22014.999999999884,22510.999999999884,22958.999999999884,23574.999999999884,24070.999999999884,24510.999999999884,24894.999999999884,25854.999999999884,26718.999999999884,28006.999999999884,29414.999999999884,30094.999999999884,30942.999999999884,33966.99999999988,40910.99999999988,42638.99999999988,43046.99999999988,43966.99999999988,44894.00000000012,45423.00000000012,45773.99999999988,46526.99999999988,47149.99999999988,47638.99999999988,48222.99999999988,48629.99999999988,49270.99999999988,49718.99999999988,50126.99999999988,50598.99999999988,51214.99999999988,51734.99999999988,52526.99999999988,58478.99999999988,61726.99999999988,63622.99999999988,68158.99999999988,70350.99999999988,70750.00000000012,75111.99999999988],"honeypot":0,"survey":"mace","page":10,"trial_type":"survey-mace","trial_index":18,"time_elapsed":1090610,"internal_node_id":"0.0-18.0","task_version":"prescreen-v0.3","browser_interactions":0,"instructed":0},{"rt":4524,"trial_type":"mental-health-alert","trial_index":19,"time_elapsed":1095137,"internal_node_id":"0.0-19.0","task_version":"prescreen-v0.3","interactions":"[]"}]