[{"view_history":[{"page_index":0,"viewing_time":2764.5},{"page_index":1,"viewing_time":4127.29999999702},{"page_index":2,"viewing_time":2976.10000000149},{"page_index":3,"viewing_time":1296}],"rt":11166.10000000149,"trial_type":"instructions","trial_index":0,"time_elapsed":11198,"internal_node_id":"0.0-0.0","task_version":"prescreen-v0.3"},{"rt":14972.69999999553,"responses":{"age":"35","gender-categorical":"Male","gender-free-response":"","ethnicity":"Not Hispanic or Latino","race":["White"],"education":"Bachelor degree","siblings":"3"},"trial_type":"survey-demo","trial_index":1,"time_elapsed":26183,"internal_node_id":"0.0-1.0","task_version":"prescreen-v0.3"},{"responses":{"Q10":"1","Q16":"2","Q20":"0","Q14":"2","Q12":"0","Q11":"3","Q05":"2","Q18":"1","Q03":"2","Q15":"2","Q19":"2","Q08":"2","Q01":"2","Q07":"2","Q21":"3","Q13":"1","Q02":"1","Q06":"2","Q17":"3","Q04":"2","Q09":"1"},"rt":107345.90000000596,"item_order":[9,15,19,13,11,10,4,17,2,14,18,7,0,6,20,12,1,5,16,3,8],"radio_events":[8170.70000000298,15866.30000000447,18289.60000000149,23425.70000000298,30073.40000000596,34689.60000000149,40946,47849.90000000596,50857.90000000596,55313.70000000298,61409.80000000447,64993.70000000298,68017.80000000447,73945.20000000298,79746.10000000149,82897.90000000596,86497.60000000149,88249.70000000298,92801.5,96945.5,102193.70000000298,106513.10000000149],"key_events":[],"mouse_events":[8170.70000000298,12234.20000000298,14770.10000000149,15866.30000000447,16866.20000000298,17746,18289.60000000149,23425.70000000298,30073.40000000596,34193.90000000596,34689.60000000149,40946,47849.90000000596,50857.90000000596,55313.70000000298,61409.80000000447,64993.70000000298,68017.80000000447,73130.20000000298,73945.20000000298,78178.30000000447,79746.10000000149,82897.90000000596,86497.60000000149,88249.70000000298,92801.5,96945.5,102193.70000000298,106513.10000000149,107338.60000000149],"straightlining":0.5238095238095238,"zigzagging":0.5,"honeypot":0,"survey":"sns","trial_type":"survey-template","trial_index":2,"time_elapsed":133538,"internal_node_id":"0.0-2.0","task_version":"prescreen-v0.3","browser_interactions":0,"infrequency":0},{"responses":{"Q07":"2","Q01":"1","Q08":"1","Q03":"2","Q05":"1","Q02":"2","Q12":"2","Q06":"2","Q04":"1","Q13":"0","Q09":"2","Q10":"1","Q11":"2"},"rt":54353.60000000149,"item_order":[6,0,7,2,4,1,11,5,3,12,8,9,10],"radio_events":[4844.89999999851,8908.69999999553,12900.89999999851,17773.19999999553,22844.89999999851,25812.39999999851,30805.39999999851,35236.60000000149,39196.69999999553,42708.60000000149,47116.79999999702,50708.39999999851,53420.5],"key_events":[],"mouse_events":[4844.89999999851,8220.69999999553,8908.69999999553,12900.89999999851,17100.5,17773.19999999553,22844.89999999851,25812.39999999851,29285.19999999553,30805.39999999851,35236.60000000149,39196.69999999553,41773.39999999851,42708.60000000149,47116.79999999702,50708.39999999851,53420.5,54349.19999999553],"straightlining":0.5384615384615384,"zigzagging":0.6666666666666666,"honeypot":0,"survey":"bisbas","trial_type":"survey-template","trial_index":3,"time_elapsed":187899,"internal_node_id":"0.0-3.0","task_version":"prescreen-v0.3","browser_interactions":0,"infrequency":0},{"responses":{"Q01":"1","Q02":"1","Q03":"1"},"rt":17365.79999999702,"radio_events":[6083.69999999553,9739.29999999702,16411.29999999702],"key_events":[],"mouse_events":[6083.69999999553,9739.29999999702,16411.29999999702,17363.39999999851],"survey":"map","page":1,"trial_type":"survey-map","trial_index":4,"time_elapsed":205271,"internal_node_id":"0.0-4.0","task_version":"prescreen-v0.3","browser_interactions":0},{"responses":{"Q04":"2","Q05":"2","Q06":"2"},"rt":9129.69999999553,"radio_events":[4119.89999999851,6687.5,8079.5],"key_events":[],"mouse_events":[4119.89999999851,6687.5,8079.5,9127.69999999553],"survey":"map","page":2,"trial_type":"survey-map","trial_index":5,"time_elapsed":214406,"internal_node_id":"0.0-5.0","task_version":"prescreen-v0.3","browser_interactions":0},{"responses":{"Q07":"1","Q08":"1","Q09":"1"},"rt":12042.89999999851,"radio_events":[5120.89999999851,7960.89999999851,10760.60000000149],"key_events":[],"mouse_events":[5120.89999999851,7960.89999999851,10104.79999999702,10760.60000000149,12040.69999999553],"survey":"map","page":3,"trial_type":"survey-map","trial_index":6,"time_elapsed":226453,"internal_node_id":"0.0-6.0","task_version":"prescreen-v0.3","browser_interactions":0},{"responses":{"Q10":"0","Q11":"0","Q12":"0","Q13":"0","Q16":"0","Q14":"2","Q15":"2"},"rt":37075.89999999851,"radio_events":[6774.89999999851,9279.10000000149,14446.5,20182.89999999851,26383.70000000298,33319,36119.10000000149],"key_events":[],"mouse_events":[6774.89999999851,9279.10000000149,14446.5,19167.20000000298,20182.89999999851,24894.60000000149,26383.70000000298,33319,36119.10000000149,37071.60000000149],"survey":"map","page":4,"trial_type":"survey-map","trial_index":7,"time_elapsed":263536,"internal_node_id":"0.0-7.0","task_version":"prescreen-v0.3","browser_interactions":0,"infrequency":0},{"view_history":[{"page_index":0,"viewing_time":1398.3999999985099},{"page_index":1,"viewing_time":3847.7000000029802}],"rt":5248.60000000149,"trial_type":"instructions","trial_index":8,"time_elapsed":268787,"internal_node_id":"0.0-8.0","task_version":"prescreen-v0.3"},{"responses":{"01":"Yes","01_ages_7":"7","01_ages_8":"8","01_ages_9":"9","01_ages_10":"10","01_ages_11":"11","01_ages_12":"12","01_ages_13":"13","01_ages_14":"14","01_ages_15":"15","01_ages_16":"16","01_ages_17":"17","01_ages_18":"18","02":"Yes","02_ages_7":"7","02_ages_8":"8","02_ages_9":"9","02_ages_10":"10","02_ages_11":"11","02_ages_12":"12","02_ages_13":"13","02_ages_14":"14","02_ages_15":"15","02_ages_16":"16","02_ages_17":"17","02_ages_18":"18","03":"No","04":"No","05":"No","06":"No"},"rt":51559.69999999553,"item_order":[0,1,2,3,4,5],"radio_events":[3884.1999999955297,26547.09999999404,41163.09999999404,47211.59999999404,48051.69999999553,50043.69999999553],"checkbox_events":[10836.79999999702,11419.79999999702,11971.29999999702,12579.39999999851,14347.69999999553,15443.69999999553,16395.39999999851,17018.79999999702,18043.5,19115.79999999702,19861,20819.09999999404,28067.19999999553,28507.5,29027.59999999404,30059,30611.09999999404,31363.19999999553,31979.29999999702,32490.79999999702,33955.09999999404,34883.59999999404,36027.5,36483.39999999851],"key_events":[],"mouse_events":[0.5,3884.1999999955297,10836.79999999702,11419.79999999702,11971.29999999702,12579.39999999851,13131.09999999404,14347.69999999553,14755.79999999702,15443.69999999553,16395.39999999851,17018.79999999702,17595.59999999404,18043.5,18531.09999999404,19115.79999999702,19861,20411.5,20819.09999999404,26547.09999999404,28067.19999999553,28507.5,29027.59999999404,29563.59999999404,30059,30611.09999999404,31363.19999999553,31979.29999999702,32490.79999999702,33387.29999999702,33955.09999999404,34411.59999999404,34883.59999999404,35690.89999999851,36027.5,36483.39999999851,41163.09999999404,47211.59999999404,48051.69999999553,50043.69999999553,51548.5],"honeypot":0,"survey":"mace","page":1,"trial_type":"survey-mace","trial_index":9,"time_elapsed":320367,"internal_node_id":"0.0-9.0","task_version":"prescreen-v0.3","browser_interactions":0},{"responses":{"01":"No","02":"No","03":"No","04":"No","05":"No","06":"No","07":"No","08":"No"},"rt":15525.10000000149,"item_order":[0,1,2,3,4,5,6,7],"radio_events":[2854.4000000059605,3990.2000000029802,5430.20000000298,6766.10000000149,8421.60000000149,11965.80000000447,13414,14517.90000000596],"checkbox_events":[],"key_events":[],"mouse_events":[2854.4000000059605,3990.2000000029802,5430.20000000298,6766.10000000149,7878.10000000149,8421.60000000149,11965.80000000447,12910.30000000447,13414,14517.90000000596,15510.30000000447],"honeypot":0,"survey":"mace","page":2,"trial_type":"survey-mace","trial_index":10,"time_elapsed":335905,"internal_node_id":"0.0-10.0","task_version":"prescreen-v0.3","browser_interactions":0},{"responses":{"01":"No","02":"No","03":"No","04":"No"},"rt":13893.60000000149,"item_order":[0,1,2,3],"radio_events":[6733.80000000447,8038.10000000149,11485.90000000596,13069.30000000447],"checkbox_events":[],"key_events":[],"mouse_events":[4333.60000000149,5101.9000000059605,6733.80000000447,8038.10000000149,11485.90000000596,13069.30000000447,13885.90000000596],"honeypot":0,"survey":"mace","page":3,"trial_type":"survey-mace","trial_index":11,"time_elapsed":349808,"internal_node_id":"0.0-11.0","task_version":"prescreen-v0.3","browser_interactions":0},{"responses":{"01":"No","02":"No"},"rt":4860.4000000059605,"item_order":[0,1],"radio_events":[2560.60000000149,3640.10000000149],"checkbox_events":[],"key_events":[],"mouse_events":[2560.60000000149,3640.10000000149,4856.20000000298],"honeypot":0,"survey":"mace","page":4,"trial_type":"survey-mace","trial_index":12,"time_elapsed":354675,"internal_node_id":"0.0-12.0","task_version":"prescreen-v0.3","browser_interactions":0},{"responses":{"01":"No","02":"No","03":"No","04":"No","05":"No"},"rt":18906.79999999702,"item_order":[0,1,2,3,4],"radio_events":[4545,6409.0999999940395,9593.09999999404,11112.89999999851,17513.19999999553],"checkbox_events":[],"key_events":[],"mouse_events":[4545,6409.0999999940395,9593.09999999404,11112.89999999851,17513.19999999553,18897.29999999702],"honeypot":0,"survey":"mace","page":5,"trial_type":"survey-mace","trial_index":13,"time_elapsed":373593,"internal_node_id":"0.0-13.0","task_version":"prescreen-v0.3","browser_interactions":0},{"responses":{"01":"No","02":"No","03":"No","04":"No","05":"No"},"rt":21241.5,"item_order":[0,1,2,3,4],"radio_events":[8871.89999999851,13655.39999999851,16487.10000000149,17671.39999999851,20535.60000000149],"checkbox_events":[],"key_events":[],"mouse_events":[8871.89999999851,13655.39999999851,16487.10000000149,17671.39999999851,20535.60000000149,21231.79999999702],"honeypot":0,"survey":"mace","page":6,"trial_type":"survey-mace","trial_index":14,"time_elapsed":394848,"internal_node_id":"0.0-14.0","task_version":"prescreen-v0.3","browser_interactions":0},{"responses":{"01":"No","02":"No","03":"No","04":"No","05":"No","06":"No","07":"No"},"rt":15238.10000000149,"item_order":[0,1,2,3,4,5,6],"radio_events":[2569,4664.5,7280.60000000149,8272.5,9736,13628.70000000298,14575.5],"checkbox_events":[],"key_events":[],"mouse_events":[2569,4664.5,6320.5,7280.60000000149,8272.5,9736,13628.70000000298,14575.5,15223.90000000596],"honeypot":0,"survey":"mace","page":7,"trial_type":"survey-mace","trial_index":15,"time_elapsed":410100,"internal_node_id":"0.0-15.0","task_version":"prescreen-v0.3","browser_interactions":0},{"responses":{"01":"Yes","01_ages_7":"7","01_ages_8":"8","01_ages_9":"9","01_ages_10":"10","01_ages_11":"11","01_ages_12":"12","01_ages_13":"13","01_ages_14":"14","01_ages_15":"15","01_ages_16":"16","01_ages_17":"17","01_ages_18":"18","02":"Yes","02_ages_11":"11","02_ages_12":"12","02_ages_13":"13","02_ages_14":"14","03":"No","04":"Yes","04_ages_7":"7","04_ages_8":"8","04_ages_9":"9","04_ages_10":"10","04_ages_11":"11","04_ages_12":"12","04_ages_13":"13","04_ages_14":"14","04_ages_15":"15","04_ages_16":"16","04_ages_17":"17","04_ages_18":"18"},"rt":45527.59999999404,"item_order":[0,1,2,3],"radio_events":[5942.5999999940395,19934.59999999404,31118.59999999404,33775],"checkbox_events":[8375.09999999404,8830.59999999404,9359.19999999553,10343,10830.89999999851,11406.09999999404,12046.59999999404,12614.79999999702,13615,14278.59999999404,15583.19999999553,18134.89999999851,23030.89999999851,23534.39999999851,24230.69999999553,25503.09999999404,37110.89999999851,37542.89999999851,38334.89999999851,39142.79999999702,39918.89999999851,40958.59999999404,41438.79999999702,42047.19999999553,42694.89999999851,43238.69999999553,43831,44446.79999999702],"key_events":[],"mouse_events":[5302.5,5942.5999999940395,8375.09999999404,8830.59999999404,9359.19999999553,9854.69999999553,10343,10830.89999999851,11406.09999999404,12046.59999999404,12614.79999999702,13150.69999999553,13615,14278.59999999404,15006.89999999851,15583.19999999553,16270.29999999702,18134.89999999851,19934.59999999404,23030.89999999851,23534.39999999851,24230.69999999553,25503.09999999404,31118.59999999404,33775,36575.09999999404,37110.89999999851,37542.89999999851,38334.89999999851,39142.79999999702,39918.89999999851,40358.19999999553,40958.59999999404,41438.79999999702,42047.19999999553,42694.89999999851,43238.69999999553,43831,44446.79999999702,45520],"honeypot":0,"survey":"mace","page":8,"trial_type":"survey-mace","trial_index":16,"time_elapsed":455636,"internal_node_id":"0.0-16.0","task_version":"prescreen-v0.3","browser_interactions":0},{"responses":{"01":"Yes","01_ages_1":"1","01_ages_2":"2","01_ages_3":"3","01_ages_4":"4","01_ages_5":"5","01_ages_6":"6","01_ages_7":"7","01_ages_8":"8","01_ages_9":"9","01_ages_10":"10","01_ages_11":"11","01_ages_12":"12","01_ages_13":"13","01_ages_14":"14","01_ages_15":"15","01_ages_16":"16","01_ages_17":"17","01_ages_18":"18","02":"Yes","02_ages_1":"1","02_ages_2":"2","02_ages_3":"3","02_ages_4":"4","02_ages_5":"5","02_ages_6":"6","02_ages_7":"7","02_ages_8":"8","02_ages_9":"9","02_ages_10":"10","02_ages_11":"11","02_ages_12":"12","02_ages_13":"13","02_ages_14":"14","02_ages_15":"15","02_ages_16":"16","02_ages_17":"17","02_ages_18":"18","03":"No","04":"Yes","04_ages_1":"1","04_ages_2":"2","04_ages_3":"3","04_ages_4":"4","04_ages_5":"5","04_ages_6":"6","04_ages_7":"7","04_ages_8":"8","04_ages_9":"9","04_ages_10":"10","04_ages_11":"11","04_ages_12":"12","04_ages_13":"13","04_ages_14":"14","04_ages_15":"15","04_ages_16":"16","04_ages_17":"17","04_ages_18":"18"},"rt":66830.10000000149,"item_order":[0,1,2,3],"radio_events":[6453.80000000447,25669.70000000298,44846.20000000298,52382.10000000149],"checkbox_events":[11830.10000000149,12254,12830,13613.60000000149,14046.39999999851,14741.60000000149,15358.20000000298,15926.89999999851,16606.20000000298,17550.39999999851,18062.10000000149,18646.39999999851,19221.39999999851,20078.20000000298,20638.39999999851,21261.89999999851,21845.89999999851,22398,27606.5,28950.20000000298,29806.10000000149,30646.30000000447,31070.20000000298,31798.20000000298,32341.89999999851,32926,33566.10000000149,34022.39999999851,34606,35038.10000000149,35822.39999999851,36341.39999999851,37030.20000000298,37734.10000000149,38477.89999999851,39094.39999999851,53350.5,54526.5,55598.5,56014.20000000298,56486.5,57190.5,57718.30000000447,58390.70000000298,58982.39999999851,59526.39999999851,59966.39999999851,60517.89999999851,61030.39999999851,61910.39999999851,62422.20000000298,62950.5,64206.39999999851,64614.60000000149],"key_events":[],"mouse_events":[5310,5950,6453.80000000447,11830.10000000149,12254,12830,13613.60000000149,14046.39999999851,14741.60000000149,15358.20000000298,15926.89999999851,16606.20000000298,17550.39999999851,18062.10000000149,18646.39999999851,19221.39999999851,20078.20000000298,20638.39999999851,21261.89999999851,21845.89999999851,22398,25669.70000000298,27606.5,28150.10000000149,28950.20000000298,29301.70000000298,29806.10000000149,30182.70000000298,30646.30000000447,31070.20000000298,31798.20000000298,32341.89999999851,32926,33566.10000000149,34022.39999999851,34606,35038.10000000149,35822.39999999851,36341.39999999851,37030.20000000298,37734.10000000149,38477.89999999851,39094.39999999851,44846.20000000298,51917.5,52382.10000000149,53350.5,53734.20000000298,54150.60000000149,54526.5,54982.70000000298,55598.5,56014.20000000298,56486.5,57190.5,57718.30000000447,58390.70000000298,58982.39999999851,59526.39999999851,59966.39999999851,60517.89999999851,61030.39999999851,61534,61910.39999999851,62422.20000000298,62950.5,63486.80000000447,63886.39999999851,64206.39999999851,64614.60000000149,66822.5],"honeypot":0,"survey":"mace","page":9,"trial_type":"survey-mace","trial_index":17,"time_elapsed":522458,"internal_node_id":"0.0-17.0","task_version":"prescreen-v0.3","browser_interactions":0},{"responses":{"01":"No","02":"No","03":"Yes","03_ages_7":"7","03_ages_8":"8","03_ages_9":"9","03_ages_10":"10","03_ages_11":"11","03_ages_12":"12","03_ages_13":"13","03_ages_14":"14","03_ages_15":"15","03_ages_16":"16","03_ages_17":"17","03_ages_18":"18","04":"Yes","04_ages_7":"7","04_ages_8":"8","04_ages_9":"9","04_ages_10":"10","04_ages_11":"11","04_ages_12":"12","04_ages_13":"13","04_ages_14":"14","04_ages_15":"15","04_ages_16":"16","04_ages_17":"17","04_ages_18":"18","05":"No","06":"Yes","06_ages_17":"17","07":"No","08":"No"},"rt":39817.39999999851,"item_order":[0,1,2,3,4,5,6,7],"radio_events":[3042.89999999851,4394.69999999553,6138.79999999702,19274.69999999553,30114.89999999851,31570,37386.60000000149,38938.60000000149],"checkbox_events":[7594.60000000149,8090.5,8658.19999999553,9194.89999999851,10074.69999999553,10874.89999999851,11314.89999999851,11867.29999999702,12530.79999999702,13362.10000000149,13922.5,14506.39999999851,20386.60000000149,21434.79999999702,21818.89999999851,22290.69999999553,22938.39999999851,23482.79999999702,24122.29999999702,24786.29999999702,25346.39999999851,25874.29999999702,26410.10000000149,26810.5,33282.5],"key_events":[],"mouse_events":[3042.89999999851,4394.69999999553,6138.79999999702,7594.60000000149,8090.5,8658.19999999553,9194.89999999851,9618.79999999702,10074.69999999553,10482.89999999851,10874.89999999851,11314.89999999851,11867.29999999702,12530.79999999702,13362.10000000149,13922.5,14506.39999999851,18275,18706.79999999702,19274.69999999553,20386.60000000149,21002.39999999851,21434.79999999702,21818.89999999851,22290.69999999553,22938.39999999851,23482.79999999702,24122.29999999702,24786.29999999702,25346.39999999851,25874.29999999702,26410.10000000149,26810.5,30114.89999999851,31570,33282.5,37386.60000000149,38938.60000000149,39802.29999999702],"honeypot":0,"survey":"mace","page":10,"trial_type":"survey-mace","trial_index":18,"time_elapsed":562288,"internal_node_id":"0.0-18.0","task_version":"prescreen-v0.3","browser_interactions":0,"instructed":0},{"rt":4033.60000000149,"trial_type":"mental-health-alert","trial_index":19,"time_elapsed":566325,"internal_node_id":"0.0-19.0","task_version":"prescreen-v0.3","interactions":"[]"}]