[{"view_history":[{"page_index":0,"viewing_time":1666.800000011921},{"page_index":1,"viewing_time":1183.9000000357628},{"page_index":2,"viewing_time":781.8999999761581},{"page_index":3,"viewing_time":1171.300000011921}],"rt":4805,"trial_type":"instructions","trial_index":0,"time_elapsed":4827,"internal_node_id":"0.0-0.0","task_version":"prescreen-v0.3"},{"rt":20049.30000001192,"responses":{"age":"26","gender-categorical":"Female","gender-free-response":"","ethnicity":"Not Hispanic or Latino","race":["Asian"],"education":"Master degree or higher"},"trial_type":"survey-demo","trial_index":1,"time_elapsed":24884,"internal_node_id":"0.0-1.0","task_version":"prescreen-v0.3"},{"responses":{"Q13":"2","Q16":"3","Q19":"1","Q18":"1","Q21":"3","Q15":"3","Q17":"1","Q06":"0","Q04":"0","Q07":"1","Q03":"1","Q09":"2","Q08":"2","Q10":"3","Q02":"2","Q12":"3","Q14":"1","Q01":"2","Q11":"3","Q05":"0","Q20":"1"},"rt":201034,"item_order":[12,15,18,17,20,14,16,5,3,6,2,8,7,9,1,11,13,0,10,4,19],"radio_events":[9081.199999988079,29672.299999952316,31467.799999952316,41809.09999996424,46680.5,51468.5,58684.69999998808,63540,71680.89999997616,78604.69999998808,124309.29999995232,125377.79999995232,131340.29999995232,135985.39999997616,139966.19999998808,150769.09999996424,151332.79999995232,154493.19999998808,161304.89999997616,167103.59999996424,174303.29999995232,178291.79999995232,181507.39999997616,181887.5,183461.69999998808,190253.59999996424,197448.29999995232,199902.29999995232],"key_events":[],"mouse_events":[9081.199999988079,28733.799999952316,29672.299999952316,31467.799999952316,40751.89999997616,41809.09999996424,46680.5,50345.5,51468.5,58684.69999998808,63540,71680.89999997616,78604.69999998808,124309.29999995232,125377.79999995232,131340.29999995232,135985.39999997616,139966.19999998808,150769.09999996424,151332.79999995232,154493.19999998808,161304.89999997616,166365.69999998808,167103.59999996424,174303.29999995232,178291.79999995232,181507.39999997616,181887.5,183461.69999998808,190253.59999996424,195568.39999997616,196341.59999996424,197448.29999995232,199902.29999995232,201030.79999995232],"straightlining":0.3333333333333333,"zigzagging":0.55,"honeypot":0,"survey":"sns","trial_type":"survey-template","trial_index":2,"time_elapsed":225928,"internal_node_id":"0.0-2.0","task_version":"prescreen-v0.3","browser_interactions":0,"infrequency":0},{"responses":{"Q08":"2","Q06":"2","Q02":"1","Q03":"1","Q11":"1","Q07":"3","Q01":"2","Q04":"2","Q13":"0","Q12":"1","Q10":"2","Q05":"3","Q09":"2"},"rt":89937.10000002384,"item_order":[7,5,1,2,10,6,0,3,12,11,9,4,8],"radio_events":[21003.100000023842,28269.19999998808,30533,37652.30000001192,47242.5,51135.39999997616,53319.89999997616,58775.80000001192,59774.30000001192,63603.69999998808,74095,79158.80000001192,82079,86120.69999998808,88891.19999998808],"key_events":[],"mouse_events":[21003.100000023842,28269.19999998808,30533,37652.30000001192,47242.5,51135.39999997616,53319.89999997616,58775.80000001192,59774.30000001192,63603.69999998808,72584.39999997616,74095,79158.80000001192,82079,86120.69999998808,88891.19999998808,89936.10000002384],"straightlining":0.46153846153846156,"zigzagging":0.5,"honeypot":0,"survey":"bisbas","trial_type":"survey-template","trial_index":3,"time_elapsed":315870,"internal_node_id":"0.0-3.0","task_version":"prescreen-v0.3","browser_interactions":0,"infrequency":0},{"responses":{"Q01":"3","Q02":"1","Q03":"4"},"rt":46047.69999998808,"radio_events":[12840.099999964237,38731.80000001192,45326.39999997616],"key_events":[],"mouse_events":[12840.099999964237,38731.80000001192,45326.39999997616,46046.80000001192],"survey":"map","page":1,"trial_type":"survey-map","trial_index":4,"time_elapsed":361922,"internal_node_id":"0.0-4.0","task_version":"prescreen-v0.3","browser_interactions":0},{"responses":{"Q04":"1","Q05":"1","Q06":"2"},"rt":23928.900000035763,"radio_events":[7797.300000011921,10304.5,15770.5,23065.400000035763],"key_events":[],"mouse_events":[7797.300000011921,9949.700000047684,10304.5,15770.5,20464.100000023842,21365.5,22252.400000035763,23065.400000035763,23928.100000023842],"survey":"map","page":2,"trial_type":"survey-map","trial_index":5,"time_elapsed":385857,"internal_node_id":"0.0-5.0","task_version":"prescreen-v0.3","browser_interactions":0},{"responses":{"Q07":"4","Q08":"0","Q09":"4"},"rt":16519.100000023842,"radio_events":[8157,12196.5,15611.300000011921],"key_events":[],"mouse_events":[8157,10784.199999988079,12196.5,15611.300000011921,16518.30000001192],"survey":"map","page":3,"trial_type":"survey-map","trial_index":6,"time_elapsed":402382,"internal_node_id":"0.0-6.0","task_version":"prescreen-v0.3","browser_interactions":0},{"responses":{"Q10":"2","Q11":"2","Q12":"0","Q13":"4","Q16":"0","Q14":"2","Q15":"1"},"rt":35894.09999996424,"radio_events":[7292,11379.300000011921,13145.099999964237,14420.199999988079,19248.399999976158,24646.80000001192,28490.599999964237,31200.899999976158,34781.5],"key_events":[],"mouse_events":[7292,11379.300000011921,13145.099999964237,14420.199999988079,17749.599999964237,19248.399999976158,24646.80000001192,28490.599999964237,31200.899999976158,34781.5,35892.5],"survey":"map","page":4,"trial_type":"survey-map","trial_index":7,"time_elapsed":438282,"internal_node_id":"0.0-7.0","task_version":"prescreen-v0.3","browser_interactions":0,"infrequency":0},{"view_history":[{"page_index":0,"viewing_time":1694.699999988079},{"page_index":1,"viewing_time":985.8000000119209}],"rt":2681.099999964237,"trial_type":"instructions","trial_index":8,"time_elapsed":440967,"internal_node_id":"0.0-8.0","task_version":"prescreen-v0.3"},{"responses":{"01":"Yes","01_ages_2":"2","01_ages_3":"3","01_ages_4":"4","01_ages_5":"5","01_ages_6":"6","01_ages_7":"7","01_ages_8":"8","01_ages_9":"9","01_ages_10":"10","01_ages_11":"11","01_ages_12":"12","01_ages_13":"13","02":"Yes","02_ages_2":"2","02_ages_3":"3","02_ages_4":"4","02_ages_5":"5","02_ages_6":"6","02_ages_7":"7","02_ages_8":"8","02_ages_9":"9","02_ages_10":"10","02_ages_11":"11","02_ages_12":"12","02_ages_13":"13","02_ages_14":"14","02_ages_15":"15","02_ages_16":"16","02_ages_17":"17","02_ages_18":"18","03":"Yes","03_ages_2":"2","03_ages_3":"3","03_ages_4":"4","03_ages_5":"5","03_ages_6":"6","03_ages_7":"7","03_ages_8":"8","03_ages_9":"9","04":"No","05":"Yes","05_ages_3":"3","05_ages_4":"4","05_ages_5":"5","05_ages_6":"6","05_ages_7":"7","06":"Yes","06_ages_2":"2","06_ages_3":"3","06_ages_4":"4","06_ages_5":"5","06_ages_6":"6","06_ages_7":"7","06_ages_8":"8","06_ages_9":"9","06_ages_10":"10"},"rt":103648.89999997616,"item_order":[0,1,2,3,4,5],"radio_events":[13542.599999964237,41775.59999996424,62361.19999998808,79984.19999998808,80206.5,82684.19999998808,91520.79999995232],"checkbox_events":[22009.19999998808,22567.399999976158,24602.799999952316,25705.799999952316,26234.69999998808,27237.799999952316,28480.599999964237,29166.5,29803.69999998808,30752,31156.399999976158,31683.5,32546.599999964237,33881.5,44530.59999996424,45494.09999996424,46074.89999997616,46896.5,47477.89999997616,47867.799999952316,49973.799999952316,51906,53339.299999952316,54480.39999997616,55213.89999997616,55930.299999952316,57379.09999996424,57974.59999996424,59388.09999996424,59990.299999952316,60662.19999998808,66303.69999998808,67397,68432,68793.29999995232,69324.89999997616,69865.39999997616,70701.29999995232,71708.29999995232,72724.19999998808,78719.79999995232,84600.5,86652.69999998808,87126.89999997616,87744.19999998808,88324.89999997616,93114.59999996424,94504.19999998808,94985.89999997616,95533,96902.79999995232,97570,98769.69999998808,99764.29999995232,102381.79999995232],"key_events":[],"mouse_events":[0.09999996423721313,13542.599999964237,22009.19999998808,22567.399999976158,24602.799999952316,25705.799999952316,26234.69999998808,27237.799999952316,27878.399999976158,28480.599999964237,29166.5,29803.69999998808,30752,31156.399999976158,31683.5,32546.599999964237,32987.89999997616,33881.5,41775.59999996424,43929.5,44530.59999996424,45494.09999996424,46074.89999997616,46896.5,47477.89999997616,47867.799999952316,48440.89999997616,49321.69999998808,49973.799999952316,51251.69999998808,51906,53339.299999952316,54480.39999997616,55213.89999997616,55930.299999952316,56980,57379.09999996424,57974.59999996424,59388.09999996424,59990.299999952316,60662.19999998808,62361.19999998808,66303.69999998808,67002.89999997616,67397,68432,68793.29999995232,69324.89999997616,69865.39999997616,70701.29999995232,71331.09999996424,71708.29999995232,72119.39999997616,72724.19999998808,78719.79999995232,79984.19999998808,80206.5,82684.19999998808,84600.5,86652.69999998808,87126.89999997616,87744.19999998808,88324.89999997616,91520.79999995232,93114.59999996424,93562.89999997616,94504.19999998808,94985.89999997616,95533,96078.69999998808,96902.79999995232,97570,98769.69999998808,99764.29999995232,102381.79999995232,103645.5],"honeypot":0,"survey":"mace","page":1,"trial_type":"survey-mace","trial_index":9,"time_elapsed":544624,"internal_node_id":"0.0-9.0","task_version":"prescreen-v0.3","browser_interactions":0},{"responses":{"01":"Yes","01_ages_7":"7","02":"No","03":"Yes","03_ages_2":"2","03_ages_3":"3","03_ages_4":"4","03_ages_5":"5","03_ages_6":"6","03_ages_7":"7","03_ages_8":"8","03_ages_9":"9","04":"No","05":"Yes","05_ages_3":"3","05_ages_4":"4","05_ages_5":"5","05_ages_6":"6","05_ages_7":"7","05_ages_8":"8","06":"No","07":"No","08":"No"},"rt":55532,"item_order":[0,1,2,3,4,5,6,7],"radio_events":[3680.300000011921,20113.80000001192,23852,33995.80000001192,37975.89999997616,51226.5,53024.30000001192,54618.89999997616],"checkbox_events":[6768,11894.100000023842,12599.5,24905.899999976158,25375.399999976158,25860.600000023842,27138.19999998808,27698.600000023842,28111.69999998808,29410.19999998808,30371,39471.39999997616,39927.30000001192,40342,41441,41951.60000002384,43092.5],"key_events":[],"mouse_events":[3680.300000011921,6768,10646.5,11172.199999988079,11894.100000023842,12599.5,13417.100000023842,20113.80000001192,22502.80000001192,23852,24905.899999976158,25375.399999976158,25860.600000023842,26732,27138.19999998808,27698.600000023842,28111.69999998808,28608.69999998808,29410.19999998808,29964.80000001192,30371,33995.80000001192,37975.89999997616,39471.39999997616,39927.30000001192,40342,40811.19999998808,41441,41951.60000002384,42581.5,43092.5,51226.5,53024.30000001192,54618.89999997616,55527],"honeypot":0,"survey":"mace","page":2,"trial_type":"survey-mace","trial_index":10,"time_elapsed":600162,"internal_node_id":"0.0-10.0","task_version":"prescreen-v0.3","browser_interactions":0},{"responses":{"01":"No","02":"No","03":"No","04":"No"},"rt":9841,"item_order":[0,1,2,3],"radio_events":[3454.699999988079,5855.300000011921,6790.399999976158,7727.5],"checkbox_events":[],"key_events":[],"mouse_events":[3454.699999988079,5855.300000011921,6790.399999976158,7727.5,9156.800000011921,9838],"honeypot":0,"survey":"mace","page":3,"trial_type":"survey-mace","trial_index":11,"time_elapsed":610008,"internal_node_id":"0.0-11.0","task_version":"prescreen-v0.3","browser_interactions":0},{"responses":{"01":"No","02":"No"},"rt":6970.699999988079,"item_order":[0,1],"radio_events":[2633.7999999523163,6188.5],"checkbox_events":[],"key_events":[],"mouse_events":[2633.7999999523163,3632.699999988079,5039,6188.5,6969.099999964237],"honeypot":0,"survey":"mace","page":4,"trial_type":"survey-mace","trial_index":12,"time_elapsed":616985,"internal_node_id":"0.0-12.0","task_version":"prescreen-v0.3","browser_interactions":0},{"responses":{"01":"Yes","01_ages_3":"3","01_ages_4":"4","01_ages_5":"5","01_ages_6":"6","01_ages_7":"7","01_ages_8":"8","01_ages_9":"9","01_ages_10":"10","02":"No","03":"No","04":"No","05":"No"},"rt":47521,"item_order":[0,1,2,3,4],"radio_events":[5875.800000011921,22993.400000035763,32078.400000035763,45093.200000047684,46288.10000002384,46508.40000003576],"checkbox_events":[8360.300000011921,9006.100000023842,9860,11990.400000035763,13346.700000047684,13955.300000011921,15593,16591.5],"key_events":[],"mouse_events":[5875.800000011921,8360.300000011921,9006.100000023842,9860,10591.300000011921,11990.400000035763,12678.600000023842,13346.700000047684,13955.300000011921,15229.400000035763,15593,16591.5,22993.400000035763,25571.100000023842,28047.80000001192,29695.900000035763,32078.400000035763,45093.200000047684,46288.10000002384,46508.40000003576,47517.700000047684],"honeypot":0,"survey":"mace","page":5,"trial_type":"survey-mace","trial_index":13,"time_elapsed":664512,"internal_node_id":"0.0-13.0","task_version":"prescreen-v0.3","browser_interactions":0},{"responses":{"01":"Yes","01_ages_10":"10","01_ages_11":"11","01_ages_12":"12","01_ages_13":"13","02":"Yes","02_ages_8":"8","02_ages_9":"9","02_ages_10":"10","02_ages_11":"11","03":"No","04":"No","05":"No"},"rt":57305.40000003576,"item_order":[0,1,2,3,4],"radio_events":[8460,9916,39148.700000047684,51727.80000001192,53897.60000002384,56371.30000001192],"checkbox_events":[14373.5,15819.900000035763,16919.100000023842,18177.100000023842,25059.600000023842,26085.900000035763,26928.80000001192,27455.30000001192,31984.100000023842,32748.80000001192,34444.90000003576,36318.40000003576,41396.40000003576,42638.200000047684,44557.200000047684,45167.90000003576,46085.80000001192,46781.10000002384],"key_events":[],"mouse_events":[8460,9916,14373.5,15819.900000035763,16919.100000023842,18177.100000023842,25059.600000023842,26085.900000035763,26928.80000001192,27455.30000001192,31984.100000023842,32748.80000001192,34444.90000003576,36318.40000003576,39148.700000047684,41396.40000003576,42638.200000047684,44557.200000047684,45167.90000003576,46085.80000001192,46781.10000002384,51727.80000001192,53897.60000002384,55388.80000001192,56371.30000001192,57301.90000003576],"honeypot":0,"survey":"mace","page":6,"trial_type":"survey-mace","trial_index":14,"time_elapsed":721823,"internal_node_id":"0.0-14.0","task_version":"prescreen-v0.3","browser_interactions":0},{"responses":{"01":"No","02":"No","03":"No","04":"No","05":"No","06":"No","07":"No"},"rt":17984.30000001192,"item_order":[0,1,2,3,4,5,6],"radio_events":[4107,7095.100000023842,8808.400000035763,10548.800000011921,12188.300000011921,14254.300000011921,17188.80000001192],"checkbox_events":[],"key_events":[],"mouse_events":[4107,6336.700000047684,7095.100000023842,8808.400000035763,10548.800000011921,12188.300000011921,14254.300000011921,15699.600000023842,16083.400000035763,17188.80000001192,17980],"honeypot":0,"survey":"mace","page":7,"trial_type":"survey-mace","trial_index":15,"time_elapsed":739813,"internal_node_id":"0.0-15.0","task_version":"prescreen-v0.3","browser_interactions":0},{"responses":{"01":"Yes","01_ages_1":"1","01_ages_2":"2","01_ages_3":"3","01_ages_4":"4","01_ages_5":"5","01_ages_6":"6","01_ages_7":"7","01_ages_8":"8","01_ages_9":"9","01_ages_10":"10","01_ages_11":"11","01_ages_12":"12","01_ages_13":"13","01_ages_14":"14","01_ages_15":"15","01_ages_16":"16","01_ages_17":"17","01_ages_18":"18","02":"Yes","02_ages_1":"1","02_ages_2":"2","02_ages_3":"3","02_ages_4":"4","02_ages_5":"5","02_ages_6":"6","02_ages_7":"7","02_ages_8":"8","02_ages_9":"9","02_ages_10":"10","02_ages_11":"11","02_ages_12":"12","02_ages_13":"13","02_ages_14":"14","02_ages_15":"15","02_ages_16":"16","02_ages_17":"17","02_ages_18":"18","03":"Yes","03_ages_1":"1","03_ages_2":"2","03_ages_3":"3","03_ages_4":"4","03_ages_5":"5","03_ages_6":"6","03_ages_7":"7","03_ages_8":"8","03_ages_9":"9","03_ages_10":"10","03_ages_11":"11","03_ages_12":"12","03_ages_13":"13","03_ages_14":"14","03_ages_15":"15","03_ages_16":"16","03_ages_17":"17","03_ages_18":"18","04":"No"},"rt":83341,"item_order":[0,1,2,3],"radio_events":[9814.800000011921,34664.19999998808,60053.90000003576,82187.5],"checkbox_events":[11968.100000023842,12949,13768.600000023842,16998.600000023842,17921,18851.900000035763,19746.900000035763,20541.600000023842,21275.400000035763,22065.80000001192,22846.600000023842,24425.400000035763,25287.69999998808,26174.19999998808,26923.900000035763,28492.80000001192,30111.30000001192,31027.69999998808,36122.40000003576,36794.80000001192,37390.5,38561.40000003576,39069.60000002384,41670.40000003576,42250.80000001192,43874.30000001192,45722.10000002384,46499.69999998808,47464.40000003576,48237.40000003576,48959.90000003576,50357.69999998808,51176.90000003576,52034.30000001192,53733.5,54637.80000001192,62744.40000003576,63527.69999998808,64150.5,64802,65748.10000002384,66851.40000003576,67985.10000002384,70139.90000003576,71084.69999998808,71986.19999998808,73071.19999998808,74784.5,75607.80000001192,76474.10000002384,77216.69999998808,78873.19999998808,79641.40000003576,81040.40000003576],"key_events":[],"mouse_events":[9814.800000011921,11968.100000023842,12949,13768.600000023842,14608.300000011921,15712.800000011921,16998.600000023842,17921,18851.900000035763,19746.900000035763,20541.600000023842,21275.400000035763,22065.80000001192,22846.600000023842,23632.69999998808,24425.400000035763,25287.69999998808,26174.19999998808,26923.900000035763,27747.400000035763,28492.80000001192,30111.30000001192,31027.69999998808,34664.19999998808,36122.40000003576,36794.80000001192,37390.5,38561.40000003576,39069.60000002384,39735.10000002384,41289.69999998808,41670.40000003576,42250.80000001192,43874.30000001192,45343.40000003576,45722.10000002384,46499.69999998808,47464.40000003576,48237.40000003576,48959.90000003576,50357.69999998808,51176.90000003576,52034.30000001192,52922.90000003576,53733.5,54637.80000001192,60053.90000003576,62744.40000003576,63527.69999998808,64150.5,64802,65748.10000002384,66851.40000003576,67985.10000002384,69784.30000001192,70139.90000003576,71084.69999998808,71986.19999998808,73071.19999998808,74374.60000002384,74784.5,75607.80000001192,76474.10000002384,77216.69999998808,78366.10000002384,78873.19999998808,79641.40000003576,81040.40000003576,82187.5,83338.19999998808],"honeypot":0,"survey":"mace","page":8,"trial_type":"survey-mace","trial_index":16,"time_elapsed":823160,"internal_node_id":"0.0-16.0","task_version":"prescreen-v0.3","browser_interactions":0},{"responses":{"01":"Yes","01_ages_1":"1","01_ages_2":"2","01_ages_3":"3","01_ages_4":"4","01_ages_5":"5","01_ages_6":"6","01_ages_7":"7","01_ages_8":"8","01_ages_9":"9","01_ages_10":"10","01_ages_11":"11","01_ages_12":"12","01_ages_13":"13","01_ages_14":"14","01_ages_15":"15","01_ages_16":"16","01_ages_17":"17","01_ages_18":"18","02":"Yes","02_ages_1":"1","02_ages_2":"2","02_ages_3":"3","02_ages_4":"4","02_ages_5":"5","02_ages_6":"6","02_ages_7":"7","02_ages_8":"8","02_ages_9":"9","02_ages_10":"10","02_ages_11":"11","02_ages_12":"12","02_ages_13":"13","02_ages_14":"14","02_ages_15":"15","02_ages_16":"16","02_ages_17":"17","02_ages_18":"18","03":"No","04":"Yes","04_ages_1":"1","04_ages_2":"2","04_ages_3":"3","04_ages_4":"4","04_ages_5":"5","04_ages_6":"6","04_ages_7":"7","04_ages_8":"8","04_ages_9":"9","04_ages_10":"10","04_ages_11":"11","04_ages_12":"12","04_ages_13":"13","04_ages_14":"14","04_ages_15":"15","04_ages_16":"16","04_ages_17":"17","04_ages_18":"18"},"rt":97109.80000001192,"item_order":[0,1,2,3],"radio_events":[3912,24179.80000001192,29356.100000023842,39898.40000003576],"checkbox_events":[5847.800000011921,6393.5,7002.600000023842,7507.300000011921,8386.300000011921,8900.5,10301.600000023842,11105.900000035763,12042.900000035763,14781.100000023842,15543.400000035763,16474.30000001192,17263.69999998808,18057.30000001192,19037.100000023842,19942.5,21505.100000023842,22208.600000023842,43703,45735.40000003576,46725.80000001192,47768.90000003576,49777.10000002384,55781.90000003576,58228.90000003576,59357.19999998808,60480.69999998808,61420.90000003576,62278.80000001192,63101.60000002384,65515.80000001192,66440.90000003576,67304.90000003576,68224.69999998808,69196.69999998808,71243.10000002384,74267.5,75493.80000001192,77377.69999998808,78831.5,80266.90000003576,81764.69999998808,82949.10000002384,83910.69999998808,84942.30000001192,86224.5,87225.80000001192,88179.60000002384,89128.60000002384,90040.30000001192,92215.10000002384,93516.19999998808,94468.90000003576,95736.19999998808],"key_events":[],"mouse_events":[3912,5847.800000011921,6393.5,7002.600000023842,7507.300000011921,8386.300000011921,8900.5,10301.600000023842,11105.900000035763,12042.900000035763,13583.800000011921,14398.100000023842,14781.100000023842,15543.400000035763,16474.30000001192,17263.69999998808,18057.30000001192,19037.100000023842,19942.5,20813.900000035763,21505.100000023842,22208.600000023842,23169.30000001192,24179.80000001192,29356.100000023842,39898.40000003576,42293.30000001192,43703,45735.40000003576,46725.80000001192,47768.90000003576,49777.10000002384,51611.40000003576,55781.90000003576,58228.90000003576,59357.19999998808,60480.69999998808,61420.90000003576,62278.80000001192,63101.60000002384,64328,65515.80000001192,66440.90000003576,67304.90000003576,68224.69999998808,69196.69999998808,70183.90000003576,71243.10000002384,73173.90000003576,74267.5,75493.80000001192,76444.69999998808,77377.69999998808,78831.5,80266.90000003576,81764.69999998808,82949.10000002384,83910.69999998808,84942.30000001192,86224.5,87225.80000001192,88179.60000002384,89128.60000002384,90040.30000001192,90996.80000001192,92215.10000002384,93516.19999998808,94468.90000003576,95736.19999998808,97106.80000001192],"honeypot":0,"survey":"mace","page":9,"trial_type":"survey-mace","trial_index":17,"time_elapsed":920275,"internal_node_id":"0.0-17.0","task_version":"prescreen-v0.3","browser_interactions":0},{"responses":{"01":"No","02":"No","03":"Yes","03_ages_1":"1","03_ages_2":"2","03_ages_3":"3","03_ages_4":"4","03_ages_5":"5","03_ages_6":"6","03_ages_7":"7","03_ages_8":"8","03_ages_9":"9","03_ages_10":"10","03_ages_11":"11","03_ages_12":"12","03_ages_13":"13","03_ages_14":"14","03_ages_15":"15","03_ages_16":"16","03_ages_17":"17","03_ages_18":"18","04":"No","05":"No","06":"Yes","06_ages_17":"17","07":"Yes","07_ages_1":"1","07_ages_2":"2","07_ages_3":"3","07_ages_4":"4","07_ages_5":"5","07_ages_6":"6","07_ages_7":"7","07_ages_8":"8","07_ages_9":"9","07_ages_10":"10","07_ages_11":"11","07_ages_12":"12","07_ages_13":"13","07_ages_14":"14","07_ages_15":"15","07_ages_16":"16","07_ages_17":"17","07_ages_18":"18","08":"Yes","08_ages_1":"1","08_ages_2":"2","08_ages_3":"3","08_ages_4":"4","08_ages_5":"5","08_ages_6":"6","08_ages_7":"7","08_ages_8":"8","08_ages_9":"9","08_ages_10":"10","08_ages_11":"11","08_ages_12":"12","08_ages_13":"13","08_ages_14":"14","08_ages_15":"15","08_ages_16":"16","08_ages_17":"17","08_ages_18":"18"},"rt":90460,"item_order":[0,1,2,3,4,5,6,7],"radio_events":[5380.199999988079,7184.900000035763,11220.600000023842,15776.5,20478.100000023842,22922.30000001192,32371.400000035763,36766.40000003576],"checkbox_events":[26279.600000023842,43979.40000003576,45395.80000001192,46135.40000003576,46879.90000003576,47790.19999998808,48600.19999998808,49353.5,49869.30000001192,50548.40000003576,51199.30000001192,51844.30000001192,53286.30000001192,54451.69999998808,55229.60000002384,56137.5,56794.40000003576,57390.30000001192,58636.5,61322.30000001192,61968.5,63390.30000001192,64107.19999998808,64308.80000001192,64987.5,65647.80000001192,66492.40000003576,67407.5,68058.60000002384,68825.5,69508.69999998808,70421,71367,72603.40000003576,73434.80000001192,74337.80000001192,75030.30000001192,75767.69999998808,76410.60000002384,78303.69999998808,79117.5,79709.69999998808,80338.5,80940.40000003576,81614.60000002384,82340.5,83055.80000001192,83764.5,84527.90000003576,85338.80000001192,85942.19999998808,86523.60000002384,87127.30000001192,87825.69999998808,88474.90000003576,89191.60000002384,89792.40000003576],"key_events":[],"mouse_events":[5380.199999988079,7184.900000035763,11220.600000023842,15776.5,20478.100000023842,22922.30000001192,24806.30000001192,26279.600000023842,31142.19999998808,32371.400000035763,36766.40000003576,43979.40000003576,44688.5,45395.80000001192,46135.40000003576,46879.90000003576,47790.19999998808,48600.19999998808,49353.5,49869.30000001192,50548.40000003576,51199.30000001192,51844.30000001192,52622.19999998808,53286.30000001192,53947.19999998808,54451.69999998808,55229.60000002384,56137.5,56794.40000003576,57390.30000001192,58021.60000002384,58636.5,61322.30000001192,61968.5,62765.60000002384,63390.30000001192,64107.19999998808,64308.80000001192,64987.5,65647.80000001192,66492.40000003576,67407.5,68058.60000002384,68825.5,69508.69999998808,70421,71367,72603.40000003576,73434.80000001192,74337.80000001192,75030.30000001192,75767.69999998808,76410.60000002384,78303.69999998808,79117.5,79709.69999998808,80338.5,80940.40000003576,81614.60000002384,82340.5,83055.80000001192,83764.5,84527.90000003576,85338.80000001192,85942.19999998808,86523.60000002384,87127.30000001192,87825.69999998808,88474.90000003576,89191.60000002384,89792.40000003576,90454.69999998808],"honeypot":0,"survey":"mace","page":10,"trial_type":"survey-mace","trial_index":18,"time_elapsed":1010741,"internal_node_id":"0.0-18.0","task_version":"prescreen-v0.3","browser_interactions":0,"instructed":0},{"rt":2039.300000011921,"trial_type":"mental-health-alert","trial_index":19,"time_elapsed":1012785,"internal_node_id":"0.0-19.0","task_version":"prescreen-v0.3","interactions":"[]"}]