[{"view_history":[{"page_index":0,"viewing_time":2119.0000000000005},{"page_index":1,"viewing_time":992.9999999999991},{"page_index":2,"viewing_time":818.0000000000005},{"page_index":3,"viewing_time":1468}],"rt":5401,"trial_type":"instructions","trial_index":0,"time_elapsed":5409,"internal_node_id":"0.0-0.0","task_version":"prescreen-v0.3"},{"rt":24097,"responses":{"age":"26","gender-categorical":"Female","gender-free-response":"","ethnicity":"Not Hispanic or Latino","race":["White"],"education":"Associate degree"},"trial_type":"survey-demo","trial_index":1,"time_elapsed":29515,"internal_node_id":"0.0-1.0","task_version":"prescreen-v0.3"},{"responses":{"Q06":"0","Q19":"0","Q17":"0","Q05":"0","Q13":"0","Q03":"0","Q21":"3","Q04":"0","Q14":"0","Q11":"2","Q02":"0","Q01":"0","Q12":"0","Q18":"0","Q20":"0","Q16":"0","Q07":"0","Q15":"0","Q09":"3","Q10":"2","Q08":"1"},"rt":186456.00000000003,"item_order":[5,18,16,4,12,2,20,3,13,10,1,0,11,17,19,15,6,14,8,9,7],"radio_events":[94241,100154,104326,109916,118116,122032,126111.00000000003,135657,137036,140875,144300,145822,149887,151995,159063.00000000003,163636,168041,171728,177724.00000000003,181119,185400],"key_events":[],"mouse_events":[94241,100154,102547,104326,109916,117314,118116,122032,126111.00000000003,126668,135657,137036,140875,144300,145822,149887,151995,152868,159063.00000000003,163636,168041,171728,177724.00000000003,181119,185400,186441],"straightlining":0.7619047619047619,"zigzagging":0.25,"honeypot":0,"survey":"sns","trial_type":"survey-template","trial_index":2,"time_elapsed":215986,"internal_node_id":"0.0-2.0","task_version":"prescreen-v0.3","browser_interactions":0,"infrequency":0},{"responses":{"Q09":"2","Q13":"0","Q07":"2","Q02":"3","Q03":"3","Q12":"3","Q01":"3","Q11":"2","Q06":"3","Q10":"3","Q08":"3","Q05":"3","Q04":"3"},"rt":59286,"item_order":[8,12,6,1,2,11,0,10,5,9,7,4,3],"radio_events":[19253.00000000003,22010,27488,28446,33030,39180,40103,46703.00000000006,48546,52486,53976,55563,56885,58384],"key_events":[],"mouse_events":[19253.00000000003,22010,25509.00000000003,27488,28446,33030,39180,40103,40659,46703.00000000006,48546,52486,53976,55563,56885,58384,59274],"straightlining":0.6923076923076923,"zigzagging":0.25,"honeypot":0,"survey":"bisbas","trial_type":"survey-template","trial_index":3,"time_elapsed":275281,"internal_node_id":"0.0-3.0","task_version":"prescreen-v0.3","browser_interactions":0,"infrequency":0},{"responses":{"Q01":"4","Q02":"2","Q03":"3"},"rt":17799.99999999994,"radio_events":[5466.999999999942,11517.999999999942,16800.99999999994],"key_events":[],"mouse_events":[5466.999999999942,11517.999999999942,16800.99999999994,17794.99999999994],"survey":"map","page":1,"trial_type":"survey-map","trial_index":4,"time_elapsed":293099,"internal_node_id":"0.0-4.0","task_version":"prescreen-v0.3","browser_interactions":0},{"responses":{"Q04":"2","Q05":"2","Q06":"3"},"rt":9678,"radio_events":[5017,6940,8952],"key_events":[],"mouse_events":[5017,6940,8952,9673],"survey":"map","page":2,"trial_type":"survey-map","trial_index":5,"time_elapsed":302789,"internal_node_id":"0.0-5.0","task_version":"prescreen-v0.3","browser_interactions":0},{"responses":{"Q07":"4","Q08":"4","Q09":"4"},"rt":11375,"radio_events":[5207.000000000058,7243,10617],"key_events":[],"mouse_events":[5207.000000000058,7243,9238,10617,11369],"survey":"map","page":3,"trial_type":"survey-map","trial_index":6,"time_elapsed":314174,"internal_node_id":"0.0-6.0","task_version":"prescreen-v0.3","browser_interactions":0},{"responses":{"Q10":"4","Q11":"3","Q12":"4","Q13":"4","Q16":"0","Q14":"4","Q15":"3"},"rt":31892,"radio_events":[3430,7962.000000000058,11374,13458,15683,21314,24982,30789.00000000006],"key_events":[],"mouse_events":[3430,7962.000000000058,11374,13458,15683,16428,21314,24982,30789.00000000006,31884],"survey":"map","page":4,"trial_type":"survey-map","trial_index":7,"time_elapsed":346077,"internal_node_id":"0.0-7.0","task_version":"prescreen-v0.3","browser_interactions":0,"infrequency":0},{"view_history":[{"page_index":0,"viewing_time":1629.0000000000582},{"page_index":1,"viewing_time":1050.9999999999418}],"rt":2680,"trial_type":"instructions","trial_index":8,"time_elapsed":348762,"internal_node_id":"0.0-8.0","task_version":"prescreen-v0.3"},{"responses":{"01":"No","02":"Yes","02_ages_8":"8","03":"No","04":"No","05":"No","06":"No"},"rt":65637,"item_order":[0,1,2,3,4,5],"radio_events":[10180,13102.000000000058,20946,22565,24000,29928],"checkbox_events":[16213],"key_events":[],"mouse_events":[0,10180,13102.000000000058,16213,20946,22565,24000,24865,29928,30608,65625],"honeypot":0,"survey":"mace","page":1,"trial_type":"survey-mace","trial_index":9,"time_elapsed":414411,"internal_node_id":"0.0-9.0","task_version":"prescreen-v0.3","browser_interactions":0},{"responses":{"01":"No","02":"No","03":"No","04":"No","05":"No","06":"No","07":"No","08":"No"},"rt":17220,"item_order":[0,1,2,3,4,5,6,7],"radio_events":[2665,4041,5595,6702,8073,11216,15229,16318],"checkbox_events":[],"key_events":[],"mouse_events":[2665,4041,5595,6702,8073,11216,12362,15229,16318,17208],"honeypot":0,"survey":"mace","page":2,"trial_type":"survey-mace","trial_index":10,"time_elapsed":431640,"internal_node_id":"0.0-10.0","task_version":"prescreen-v0.3","browser_interactions":0},{"responses":{"01":"No","02":"No","03":"No","04":"No"},"rt":12422,"item_order":[0,1,2,3],"radio_events":[7641.000000000058,8735.000000000058,10242.000000000058,11492.000000000058],"checkbox_events":[],"key_events":[],"mouse_events":[7641.000000000058,8735.000000000058,10242.000000000058,11492.000000000058,12414],"honeypot":0,"survey":"mace","page":3,"trial_type":"survey-mace","trial_index":11,"time_elapsed":444069,"internal_node_id":"0.0-11.0","task_version":"prescreen-v0.3","browser_interactions":0},{"responses":{"01":"No","02":"No"},"rt":3978,"item_order":[0,1],"radio_events":[2291,3197],"checkbox_events":[],"key_events":[],"mouse_events":[2291,3197,3973],"honeypot":0,"survey":"mace","page":4,"trial_type":"survey-mace","trial_index":12,"time_elapsed":448053,"internal_node_id":"0.0-12.0","task_version":"prescreen-v0.3","browser_interactions":0},{"responses":{"01":"No","02":"No","03":"No","04":"No","05":"No"},"rt":9988.999999999942,"item_order":[0,1,2,3,4],"radio_events":[3887,5548.999999999942,6904,7858.999999999942,9108.999999999942],"checkbox_events":[],"key_events":[],"mouse_events":[3887,5548.999999999942,6904,7858.999999999942,9108.999999999942,9978.999999999942],"honeypot":0,"survey":"mace","page":5,"trial_type":"survey-mace","trial_index":13,"time_elapsed":458051,"internal_node_id":"0.0-13.0","task_version":"prescreen-v0.3","browser_interactions":0},{"responses":{"01":"Yes","01_ages_12":"12","02":"Yes","02_ages_10":"10","03":"Yes","03_ages_10":"10","04":"Yes","04_ages_4":"4","05":"No"},"rt":43649,"item_order":[0,1,2,3,4],"radio_events":[10243,14545.000000000058,20702,36781,42689.00000000006],"checkbox_events":[11578,16224,21961.00000000006,37916],"key_events":[],"mouse_events":[10243,11578,14545.000000000058,16224,17691,20702,21961.00000000006,22875,36781,37916,38861,42689.00000000006,43635],"honeypot":0,"survey":"mace","page":6,"trial_type":"survey-mace","trial_index":14,"time_elapsed":501708,"internal_node_id":"0.0-14.0","task_version":"prescreen-v0.3","browser_interactions":0},{"responses":{"01":"No","02":"No","03":"No","04":"No","05":"No","06":"No","07":"No"},"rt":33745.00000000012,"item_order":[0,1,2,3,4,5,6],"radio_events":[5313,11128.999999999942,12712.000000000058,14075,19731.00000000006,30256,32862],"checkbox_events":[],"key_events":[],"mouse_events":[5313,11128.999999999942,12712.000000000058,14075,15349.999999999942,19731.00000000006,29254,30256,32245.000000000116,32862,33735],"honeypot":0,"survey":"mace","page":7,"trial_type":"survey-mace","trial_index":15,"time_elapsed":535463,"internal_node_id":"0.0-15.0","task_version":"prescreen-v0.3","browser_interactions":0},{"responses":{"01":"Yes","01_ages_11":"11","01_ages_12":"12","01_ages_13":"13","01_ages_14":"14","01_ages_15":"15","01_ages_16":"16","01_ages_17":"17","01_ages_18":"18","02":"Yes","02_ages_9":"9","02_ages_10":"10","02_ages_11":"11","02_ages_12":"12","02_ages_13":"13","02_ages_14":"14","02_ages_15":"15","02_ages_16":"16","02_ages_17":"17","03":"Yes","03_ages_12":"12","03_ages_13":"13","03_ages_14":"14","03_ages_15":"15","03_ages_16":"16","03_ages_17":"17","03_ages_18":"18","04":"No"},"rt":132448,"item_order":[0,1,2,3],"radio_events":[61334,81576,111366.00000000012,131447],"checkbox_events":[74095,82934,89129,90548,91201,91907,92421,92909.00000000012,93606,96106,96827,98235,99308.00000000012,100439,101841,102796,103236.00000000012,103773,105159.00000000012,106073,106569,118537,120039.00000000012,120680,121185,121754,122290,122931],"key_events":[],"mouse_events":[61334,74095,81576,82934,89129,90548,91201,91907,92421,92909.00000000012,93606,96106,96827,98235,99308.00000000012,100439,101841,102796,103236.00000000012,103773,104318.00000000012,105159.00000000012,106073,106569,107166,111366.00000000012,112941,118537,120039.00000000012,120680,121185,121754,122290,122931,131447,132437],"honeypot":0,"survey":"mace","page":8,"trial_type":"survey-mace","trial_index":16,"time_elapsed":667923,"internal_node_id":"0.0-16.0","task_version":"prescreen-v0.3","browser_interactions":0},{"responses":{"01":"Yes","01_ages_1":"1","01_ages_2":"2","01_ages_3":"3","01_ages_4":"4","01_ages_5":"5","01_ages_6":"6","01_ages_7":"7","01_ages_8":"8","01_ages_9":"9","01_ages_10":"10","01_ages_11":"11","01_ages_12":"12","01_ages_13":"13","01_ages_14":"14","01_ages_15":"15","01_ages_16":"16","01_ages_17":"17","01_ages_18":"18","02":"Yes","02_ages_1":"1","02_ages_2":"2","02_ages_3":"3","02_ages_4":"4","02_ages_5":"5","02_ages_6":"6","02_ages_7":"7","02_ages_8":"8","02_ages_9":"9","02_ages_10":"10","02_ages_11":"11","02_ages_12":"12","02_ages_13":"13","02_ages_14":"14","02_ages_15":"15","02_ages_16":"16","02_ages_17":"17","02_ages_18":"18","03":"Yes","03_ages_1":"1","03_ages_2":"2","03_ages_3":"3","03_ages_4":"4","03_ages_5":"5","03_ages_6":"6","03_ages_7":"7","03_ages_8":"8","03_ages_9":"9","03_ages_10":"10","03_ages_11":"11","03_ages_12":"12","03_ages_13":"13","03_ages_14":"14","03_ages_15":"15","03_ages_16":"16","03_ages_17":"17","03_ages_18":"18","04":"Yes","04_ages_1":"1","04_ages_2":"2","04_ages_3":"3","04_ages_4":"4","04_ages_5":"5","04_ages_6":"6","04_ages_7":"7","04_ages_8":"8","04_ages_9":"9","04_ages_10":"10","04_ages_11":"11","04_ages_12":"12","04_ages_13":"13","04_ages_14":"14","04_ages_15":"15","04_ages_16":"16","04_ages_17":"17","04_ages_18":"18"},"rt":80738,"item_order":[0,1,2,3],"radio_events":[3121,21277,23962,45978],"checkbox_events":[6219,6788,7294,7775.000000000116,8175,9433,10394,10948,12077,12632,13264,13768,14575,15785.000000000116,16505,17212,18405.000000000116,19078.000000000116,28159,29136.000000000116,29625,30274,31031,32089,32907,33836,34974,35687,36525.00000000012,37335,38305,39162,39763,41298,42147,42949,48227.00000000012,48764,49340,50149,50883,51491,52244,53552,54104,54761.00000000012,55558,56537,57178,57811,58869,61117,61967,62567,63909,64565,65263,65888,66465,67828.00000000012,68613,69483,70260,70909,71606,72359,73184.00000000012,73845,74503,75505,76290,76892],"key_events":[],"mouse_events":[3121,6219,6788,7294,7775.000000000116,8175,9433,10394,10948,11469,12077,12632,13264,13768,14575,15079,15785.000000000116,16505,17212,17820,18405.000000000116,19078.000000000116,21277,23962,24684.000000000116,28159,28591,29136.000000000116,29625,30274,31031,32089,32907,33836,34974,35687,36525.00000000012,37335,38305,39162,39763,40580,41298,42147,42949,45978,47601,48227.00000000012,48764,49340,50149,50883,51491,52244,52959,53552,54104,54761.00000000012,55558,56537,57178,57811,58869,61117,61967,62567,63909,64565,65263,65888,66465,67259,67828.00000000012,68613,69483,70260,70909,71606,72359,73184.00000000012,73845,74503,75505,76290,76892,78057,80727.00000000012],"honeypot":0,"survey":"mace","page":9,"trial_type":"survey-mace","trial_index":17,"time_elapsed":748671,"internal_node_id":"0.0-17.0","task_version":"prescreen-v0.3","browser_interactions":0},{"responses":{"01":"No","02":"No","03":"Yes","03_ages_9":"9","03_ages_10":"10","03_ages_11":"11","03_ages_12":"12","03_ages_13":"13","03_ages_14":"14","03_ages_15":"15","03_ages_16":"16","03_ages_17":"17","03_ages_18":"18","04":"Yes","04_ages_10":"10","04_ages_11":"11","04_ages_12":"12","04_ages_13":"13","04_ages_14":"14","04_ages_15":"15","04_ages_16":"16","05":"Yes","05_ages_15":"15","05_ages_16":"16","05_ages_17":"17","05_ages_18":"18","06":"Yes","06_ages_17":"17","07":"Yes","07_ages_1":"1","07_ages_2":"2","07_ages_3":"3","07_ages_4":"4","07_ages_5":"5","07_ages_6":"6","07_ages_7":"7","07_ages_8":"8","07_ages_9":"9","07_ages_10":"10","07_ages_11":"11","07_ages_12":"12","07_ages_13":"13","07_ages_14":"14","07_ages_15":"15","07_ages_16":"16","07_ages_17":"17","07_ages_18":"18","08":"Yes","08_ages_1":"1","08_ages_2":"2","08_ages_3":"3","08_ages_4":"4","08_ages_5":"5","08_ages_6":"6","08_ages_7":"7","08_ages_8":"8","08_ages_9":"9","08_ages_10":"10","08_ages_11":"11","08_ages_16":"16","08_ages_17":"17","08_ages_18":"18"},"rt":165994,"item_order":[0,1,2,3,4,5,6,7],"radio_events":[82502,84826,86918,100914.00000000012,112907,123148,130508,136102],"checkbox_events":[90553.00000000012,91050,91530,92480,93186,94058.00000000012,94989,95710,96311,96952.00000000012,103539.00000000012,104187,104797,105702.00000000012,106240,107791,108455,116515.00000000012,117036,117653,118479,125870,139496,140297,140950,141601.00000000012,142755.00000000012,143307,144093,144646,145222,145936,146983,148193,148787,149412,151223,151889,152691,153757,154715,155348,156311,156864,157408,158074,158587.00000000012,159874,160820,161557,162214,163104,164006,164920],"key_events":[],"mouse_events":[82502,84826,86918,87771,90553.00000000012,91050,91530,92480,93186,94058.00000000012,94989,95710,96311,96952.00000000012,100914.00000000012,103539.00000000012,104187,104797,105702.00000000012,106240,107791,108455,109192,112907,116515.00000000012,117036,117653,118479,119023,123148,125870,126776,130508,132692,136102,136873,139496,140297,140950,141601.00000000012,142081,142755.00000000012,143307,144093,144646,145222,145936,146983,148193,148787,149412,151223,151889,152691,153276,153757,154715,155348,156311,156864,157408,158074,158587.00000000012,159084,159874,160820,161557,162214,163104,164006,164920,165979],"honeypot":0,"survey":"mace","page":10,"trial_type":"survey-mace","trial_index":18,"time_elapsed":914679,"internal_node_id":"0.0-18.0","task_version":"prescreen-v0.3","browser_interactions":0,"instructed":0},{"rt":2436,"trial_type":"mental-health-alert","trial_index":19,"time_elapsed":917121,"internal_node_id":"0.0-19.0","task_version":"prescreen-v0.3","interactions":"[]"}]