[{"view_history":[{"page_index":0,"viewing_time":2689.2999999523163},{"page_index":1,"viewing_time":7012.299999952316},{"page_index":2,"viewing_time":3303},{"page_index":3,"viewing_time":1037.4000000953674}],"rt":14043.299999952316,"trial_type":"instructions","trial_index":0,"time_elapsed":14060,"internal_node_id":"0.0-0.0","task_version":"prescreen-v0.3"},{"rt":14062.5,"responses":{"age":"27","gender-categorical":"Female","gender-free-response":"","ethnicity":"Not Hispanic or Latino","race":["Asian","White"],"education":"Bachelor degree"},"trial_type":"survey-demo","trial_index":1,"time_elapsed":28134,"internal_node_id":"0.0-1.0","task_version":"prescreen-v0.3"},{"responses":{"Q15":"2","Q01":"2","Q14":"1","Q03":"0","Q04":"0","Q20":"0","Q09":"0","Q18":"0","Q05":"0","Q12":"0","Q02":"0","Q19":"0","Q21":"3","Q10":"0","Q07":"0","Q13":"2","Q17":"0","Q08":"1","Q16":"2","Q06":"0","Q11":"0"},"rt":104599.89999985695,"item_order":[14,0,13,2,3,19,8,17,4,11,1,18,20,9,6,12,16,7,15,5,10],"radio_events":[21498.799999952316,23769.799999952316,27969.39999985695,30198.39999985695,33760.299999952316,38080.89999985695,41785.39999985695,48862.200000047684,50989.200000047684,55922.700000047684,58581.39999985695,63257.700000047684,64256.799999952316,67690.39999985695,71510.29999995232,77066.59999990463,80053.70000004768,84310,87056.89999985695,92626.09999990463,96905,100434,103671.20000004768],"key_events":[],"mouse_events":[20684.700000047684,21498.799999952316,23769.799999952316,27969.39999985695,30198.39999985695,33760.299999952316,38080.89999985695,41785.39999985695,48862.200000047684,50989.200000047684,55922.700000047684,58581.39999985695,62244.59999990463,63257.700000047684,64256.799999952316,67690.39999985695,71510.29999995232,77066.59999990463,80053.70000004768,84310,87056.89999985695,92626.09999990463,96905,99427.5,100434,102238.59999990463,103671.20000004768,104594.39999985695],"straightlining":0.6666666666666666,"zigzagging":0.3,"honeypot":0,"survey":"sns","trial_type":"survey-template","trial_index":2,"time_elapsed":132744,"internal_node_id":"0.0-2.0","task_version":"prescreen-v0.3","browser_interactions":0,"infrequency":0},{"responses":{"Q07":"3","Q09":"3","Q03":"3","Q11":"3","Q01":"3","Q08":"3","Q02":"3","Q04":"3","Q10":"3","Q06":"3","Q13":"0","Q12":"1","Q05":"3"},"rt":41906.59999990463,"item_order":[6,8,2,10,0,7,1,3,9,5,12,11,4],"radio_events":[5764.299999952316,9422.599999904633,15404,17416.5,18838,19956.299999952316,21793.599999904633,24580.099999904633,26178,28334.200000047684,31584.700000047684,38828.59999990463,41305.200000047684],"key_events":[],"mouse_events":[5764.299999952316,9422.599999904633,13284.099999904633,14573.799999952316,15404,17416.5,18838,19956.299999952316,21793.599999904633,24580.099999904633,26178,28334.200000047684,31584.700000047684,38828.59999990463,41305.200000047684,41903.700000047684],"straightlining":0.8461538461538461,"zigzagging":0.16666666666666666,"honeypot":0,"survey":"bisbas","trial_type":"survey-template","trial_index":3,"time_elapsed":174658,"internal_node_id":"0.0-3.0","task_version":"prescreen-v0.3","browser_interactions":0,"infrequency":0},{"responses":{"Q01":"4","Q02":"4","Q03":"4"},"rt":13646.799999952316,"radio_events":[6097.100000143051,9491.900000095367,13036.299999952316],"key_events":[],"mouse_events":[6097.100000143051,8835.700000047684,9491.900000095367,13036.299999952316,13645.100000143051],"survey":"map","page":1,"trial_type":"survey-map","trial_index":4,"time_elapsed":188311,"internal_node_id":"0.0-4.0","task_version":"prescreen-v0.3","browser_interactions":0},{"responses":{"Q04":"4","Q05":"4","Q06":"4"},"rt":13052.799999952316,"radio_events":[7602.799999952316,8650,12355.099999904633],"key_events":[],"mouse_events":[5527.5,6982,7602.799999952316,8162.599999904633,8650,12355.099999904633,13051.5],"survey":"map","page":2,"trial_type":"survey-map","trial_index":5,"time_elapsed":201368,"internal_node_id":"0.0-5.0","task_version":"prescreen-v0.3","browser_interactions":0},{"responses":{"Q07":"4","Q08":"4","Q09":"4"},"rt":17056.799999952316,"radio_events":[7815.400000095367,12998.100000143051,16256.400000095367,16432],"key_events":[],"mouse_events":[7815.400000095367,12998.100000143051,16256.400000095367,16432,17055.400000095367],"survey":"map","page":3,"trial_type":"survey-map","trial_index":6,"time_elapsed":218428,"internal_node_id":"0.0-6.0","task_version":"prescreen-v0.3","browser_interactions":0},{"responses":{"Q10":"3","Q11":"2","Q12":"2","Q13":"3","Q16":"0","Q14":"4","Q15":"4"},"rt":26526.5,"radio_events":[3129.5,6350.199999809265,10535,14767.799999952316,18952.699999809265,22482.5,25775.699999809265],"key_events":[],"mouse_events":[3129.5,6350.199999809265,10535,14767.799999952316,17986.799999952316,18952.699999809265,22482.5,25775.699999809265,26524.299999952316],"survey":"map","page":4,"trial_type":"survey-map","trial_index":7,"time_elapsed":244960,"internal_node_id":"0.0-7.0","task_version":"prescreen-v0.3","browser_interactions":0,"infrequency":0},{"view_history":[{"page_index":0,"viewing_time":2308.9000000953674},{"page_index":1,"viewing_time":4472.700000047684}],"rt":6782.5,"trial_type":"instructions","trial_index":8,"time_elapsed":251745,"internal_node_id":"0.0-8.0","task_version":"prescreen-v0.3"},{"responses":{"01":"Yes","01_ages_5":"5","01_ages_6":"6","01_ages_7":"7","01_ages_8":"8","01_ages_9":"9","01_ages_10":"10","01_ages_11":"11","01_ages_12":"12","01_ages_13":"13","01_ages_14":"14","01_ages_15":"15","01_ages_16":"16","01_ages_17":"17","01_ages_18":"18","02":"Yes","02_ages_5":"5","02_ages_6":"6","02_ages_7":"7","02_ages_8":"8","02_ages_9":"9","02_ages_10":"10","02_ages_11":"11","02_ages_12":"12","02_ages_13":"13","02_ages_14":"14","02_ages_15":"15","02_ages_16":"16","02_ages_17":"17","02_ages_18":"18","03":"Yes","03_ages_5":"5","03_ages_6":"6","03_ages_7":"7","03_ages_8":"8","03_ages_9":"9","03_ages_10":"10","03_ages_11":"11","03_ages_12":"12","03_ages_13":"13","03_ages_14":"14","03_ages_15":"15","03_ages_16":"16","04":"No","05":"No","06":"Yes","06_ages_5":"5","06_ages_6":"6","06_ages_7":"7","06_ages_8":"8","06_ages_9":"9","06_ages_10":"10","06_ages_11":"11","06_ages_12":"12","06_ages_13":"13","06_ages_14":"14","06_ages_15":"15","06_ages_16":"16"},"rt":85131.5,"item_order":[0,1,2,3,4,5],"radio_events":[11602.700000047684,38740.5,51886.40000009537,70851.40000009537,72408.70000004768,74988.30000019073],"checkbox_events":[18551.60000014305,19085.700000047684,20080.10000014305,21434.5,27743.200000047684,28502.400000095367,29029.400000095367,29539.5,30147,30665.800000190735,31146.900000095367,31672.200000047684,32200,32638.700000047684,33646.60000014305,34555.10000014305,35392,36082.10000014305,40155.300000190735,41224.800000190735,41727,42279,43596.60000014305,44514.5,45560.800000190735,46104.300000190735,46710.5,47246.200000047684,47861.60000014305,48427.60000014305,48979.10000014305,49618.300000190735,54537.300000190735,58033.800000190735,58752.90000009537,59335.5,61220,61874.90000009537,62409.90000009537,62984.300000190735,63663.10000014305,64207,65587.90000009537,66115.10000014305,66746.20000004768,67290,76394.70000004768,77344.40000009537,77781.10000014305,78326.30000019073,79292.60000014305,80075.60000014305,80587,81121.40000009537,81681.10000014305,82201.10000014305,83166.40000009537,84100.70000004768],"key_events":[],"mouse_events":[0.10000014305114746,11602.700000047684,18551.60000014305,19085.700000047684,20080.10000014305,20691.200000047684,21434.5,27743.200000047684,28502.400000095367,29029.400000095367,29539.5,30147,30665.800000190735,31146.900000095367,31672.200000047684,32200,32638.700000047684,33125.700000047684,33646.60000014305,34147.60000014305,34555.10000014305,35392,36082.10000014305,38740.5,40155.300000190735,40761.700000047684,41224.800000190735,41727,42279,42765.40000009537,43596.60000014305,44514.5,45560.800000190735,46104.300000190735,46710.5,47246.200000047684,47861.60000014305,48427.60000014305,48979.10000014305,49618.300000190735,51886.40000009537,54537.300000190735,58033.800000190735,58752.90000009537,59335.5,61220,61874.90000009537,62409.90000009537,62984.300000190735,63663.10000014305,64207,64768.40000009537,65587.90000009537,66115.10000014305,66746.20000004768,67290,70851.40000009537,72408.70000004768,74988.30000019073,76394.70000004768,76866.30000019073,77344.40000009537,77781.10000014305,78326.30000019073,78823,79292.60000014305,80075.60000014305,80587,81121.40000009537,81681.10000014305,82201.10000014305,83166.40000009537,84100.70000004768,85124.60000014305],"honeypot":0,"survey":"mace","page":1,"trial_type":"survey-mace","trial_index":9,"time_elapsed":336885,"internal_node_id":"0.0-9.0","task_version":"prescreen-v0.3","browser_interactions":0},{"responses":{"01":"Yes","01_ages_5":"5","01_ages_6":"6","01_ages_7":"7","01_ages_8":"8","01_ages_9":"9","01_ages_10":"10","01_ages_11":"11","01_ages_12":"12","02":"No","03":"Yes","03_ages_5":"5","03_ages_6":"6","03_ages_7":"7","03_ages_8":"8","03_ages_9":"9","03_ages_10":"10","03_ages_11":"11","03_ages_12":"12","03_ages_13":"13","03_ages_14":"14","03_ages_15":"15","03_ages_16":"16","04":"No","05":"Yes","05_ages_5":"5","05_ages_6":"6","05_ages_7":"7","05_ages_8":"8","05_ages_9":"9","05_ages_10":"10","05_ages_11":"11","05_ages_12":"12","06":"No","07":"No","08":"No"},"rt":71013.60000014305,"item_order":[0,1,2,3,4,5,6,7],"radio_events":[16440.400000095367,36645.90000009537,37810.90000009537,48728,50814.60000014305,66229,67698.5,68536.40000009537],"checkbox_events":[18229.200000047684,18836.60000014305,19324.400000095367,20082.200000047684,20595,21114.400000095367,21607.200000047684,22104,23125.200000047684,23676.5,24274.400000095367,27997.5,28492.5,29482.799999952316,39576.700000047684,40095.700000047684,40640.200000047684,41956.90000009537,42420.10000014305,42931.700000047684,43475,43985.60000014305,44513.10000014305,45216,45679.200000047684,46190.299999952316,51996.40000009537,53219.299999952316,53674.10000014305,54136.700000047684,54656.10000014305,55210.200000047684,55758.799999952316,56263.40000009537,56820.90000009537,57667.10000014305,58778.700000047684,59719.799999952316,60933.90000009537,62315.700000047684],"key_events":[],"mouse_events":[16440.400000095367,18229.200000047684,18836.60000014305,19324.400000095367,20082.200000047684,20595,21114.400000095367,21607.200000047684,22104,22662.299999952316,23125.200000047684,23676.5,24274.400000095367,27429.299999952316,27997.5,28492.5,29482.799999952316,36645.90000009537,37810.90000009537,38939.90000009537,39576.700000047684,40095.700000047684,40640.200000047684,41137.200000047684,41956.90000009537,42420.10000014305,42931.700000047684,43475,43985.60000014305,44513.10000014305,45216,45679.200000047684,46190.299999952316,48728,50814.60000014305,51996.40000009537,52571.40000009537,53219.299999952316,53674.10000014305,54136.700000047684,54656.10000014305,55210.200000047684,55758.799999952316,56263.40000009537,56820.90000009537,57667.10000014305,58778.700000047684,59719.799999952316,60933.90000009537,61509,62315.700000047684,64632.299999952316,65606.5,66229,67233.10000014305,67698.5,68536.40000009537,71005.10000014305],"honeypot":0,"survey":"mace","page":2,"trial_type":"survey-mace","trial_index":10,"time_elapsed":407905,"internal_node_id":"0.0-10.0","task_version":"prescreen-v0.3","browser_interactions":0},{"responses":{"01":"Yes","01_ages_5":"5","01_ages_6":"6","01_ages_7":"7","01_ages_8":"8","01_ages_9":"9","01_ages_10":"10","01_ages_11":"11","01_ages_12":"12","01_ages_13":"13","01_ages_14":"14","01_ages_15":"15","01_ages_16":"16","01_ages_17":"17","01_ages_18":"18","02":"No","02_ages_5":"5","02_ages_6":"6","02_ages_7":"7","02_ages_8":"8","02_ages_9":"9","02_ages_10":"10","02_ages_11":"11","02_ages_12":"12","02_ages_13":"13","02_ages_14":"14","03":"No","04":"No"},"rt":29266.5,"item_order":[0,1,2,3],"radio_events":[3123.100000143051,17130.799999952316,24950.5,27731.10000014305,28655.5],"checkbox_events":[6117.5,6636.799999952316,7146,7627.299999952316,8594.200000047684,9044.700000047684,9544.200000047684,10064.100000143051,10614.299999952316,11124.799999952316,11620.5,12083.700000047684,12602.200000047684,13153.400000095367,18153.200000047684,18616.5,19103.5,19614.900000095367,20094.5,20606.10000014305,22051.200000047684,22529.299999952316,23524.200000047684,23983.400000095367],"key_events":[],"mouse_events":[3123.100000143051,6117.5,6636.799999952316,7146,7627.299999952316,8170.5,8594.200000047684,9044.700000047684,9544.200000047684,10064.100000143051,10614.299999952316,11124.799999952316,11620.5,12083.700000047684,12602.200000047684,13153.400000095367,17130.799999952316,18153.200000047684,18616.5,19103.5,19614.900000095367,20094.5,20606.10000014305,22051.200000047684,22529.299999952316,23057,23524.200000047684,23983.400000095367,24950.5,27731.10000014305,28655.5,29262.400000095367],"honeypot":0,"survey":"mace","page":3,"trial_type":"survey-mace","trial_index":11,"time_elapsed":437177,"internal_node_id":"0.0-11.0","task_version":"prescreen-v0.3","browser_interactions":0},{"responses":{"01":"No","02":"No"},"rt":3568.7000000476837,"item_order":[0,1],"radio_events":[1990.5,2674],"checkbox_events":[],"key_events":[],"mouse_events":[1990.5,2674,3567.2000000476837],"honeypot":0,"survey":"mace","page":4,"trial_type":"survey-mace","trial_index":12,"time_elapsed":440749,"internal_node_id":"0.0-12.0","task_version":"prescreen-v0.3","browser_interactions":0},{"responses":{"01":"Yes","01_ages_5":"5","01_ages_6":"6","01_ages_7":"7","01_ages_8":"8","01_ages_9":"9","01_ages_10":"10","01_ages_11":"11","01_ages_12":"12","01_ages_13":"13","01_ages_14":"14","01_ages_15":"15","01_ages_16":"16","02":"Yes","02_ages_5":"5","02_ages_6":"6","02_ages_7":"7","02_ages_8":"8","02_ages_9":"9","02_ages_10":"10","02_ages_11":"11","02_ages_12":"12","02_ages_13":"13","02_ages_14":"14","02_ages_15":"15","02_ages_16":"16","03":"Yes","03_ages_5":"5","03_ages_6":"6","03_ages_7":"7","03_ages_8":"8","03_ages_9":"9","03_ages_10":"10","03_ages_11":"11","03_ages_12":"12","04":"Yes","04_ages_5":"5","04_ages_6":"6","04_ages_7":"7","04_ages_8":"8","04_ages_9":"9","04_ages_10":"10","04_ages_11":"11","04_ages_12":"12","04_ages_13":"13","04_ages_14":"14","04_ages_15":"15","04_ages_16":"16","05":"No"},"rt":53825.800000190735,"item_order":[0,1,2,3,4],"radio_events":[2983.100000143051,13486.800000190735,27645.400000095367,39482.10000014305,53234.60000014305],"checkbox_events":[4277,4747.600000143051,5682.700000047684,6169.400000095367,6657.100000143051,7143.900000095367,7639.300000190735,8141.300000190735,8701.700000047684,9252.600000143051,9754.700000047684,11337.900000095367,16304.600000143051,16856.900000095367,17407.300000190735,18636.700000047684,19109.700000047684,19627,20138.300000190735,21096.200000047684,21639.900000095367,22147.700000047684,22710.10000014305,23286.700000047684,29243.300000190735,29738.10000014305,30321,30985,31686.60000014305,32285.400000095367,33547.5,34809.700000047684,43371.200000047684,43961.90000009537,44513.700000047684,44960.40000009537,45455.700000047684,46669.800000190735,47196.700000047684,47660.700000047684,48139.800000190735,48621.200000047684,49169.5,49672.90000009537],"key_events":[],"mouse_events":[2983.100000143051,4277,4747.600000143051,5226.900000095367,5682.700000047684,6169.400000095367,6657.100000143051,7143.900000095367,7639.300000190735,8141.300000190735,8701.700000047684,9252.600000143051,9754.700000047684,10322.600000143051,11337.900000095367,13486.800000190735,16304.600000143051,16856.900000095367,17407.300000190735,17894.700000047684,18636.700000047684,19109.700000047684,19627,20138.300000190735,20650.700000047684,21096.200000047684,21639.900000095367,22147.700000047684,22710.10000014305,23286.700000047684,27645.400000095367,29243.300000190735,29738.10000014305,30321,30985,31686.60000014305,32285.400000095367,33547.5,34809.700000047684,39482.10000014305,43371.200000047684,43961.90000009537,44513.700000047684,44960.40000009537,45455.700000047684,45919.200000047684,46669.800000190735,47196.700000047684,47660.700000047684,48139.800000190735,48621.200000047684,49169.5,49672.90000009537,52485.5,53234.60000014305,53818.5],"honeypot":0,"survey":"mace","page":5,"trial_type":"survey-mace","trial_index":13,"time_elapsed":494579,"internal_node_id":"0.0-13.0","task_version":"prescreen-v0.3","browser_interactions":0},{"responses":{"01":"Yes","01_ages_8":"8","01_ages_9":"9","01_ages_10":"10","01_ages_11":"11","01_ages_12":"12","01_ages_13":"13","01_ages_14":"14","01_ages_15":"15","01_ages_16":"16","01_ages_17":"17","01_ages_18":"18","02":"Yes","02_ages_8":"8","02_ages_9":"9","02_ages_10":"10","02_ages_11":"11","02_ages_12":"12","02_ages_13":"13","02_ages_14":"14","02_ages_15":"15","02_ages_16":"16","02_ages_17":"17","02_ages_18":"18","03":"No","04":"No","05":"Yes","05_ages_8":"8","05_ages_9":"9","05_ages_10":"10","05_ages_11":"11","05_ages_12":"12","05_ages_13":"13","05_ages_14":"14","05_ages_15":"15","05_ages_16":"16","05_ages_17":"17","05_ages_18":"18"},"rt":50133.799999952316,"item_order":[0,1,2,3,4],"radio_events":[10920.400000095367,25145.099999904633,36150.299999952316,37294.90000009537,39544.700000047684],"checkbox_events":[12582.299999952316,13054.200000047684,13549.099999904633,14021.400000095367,14490.599999904633,15009.400000095367,15529.299999952316,16535.400000095367,16983.700000047684,17485.900000095367,17964.599999904633,18436.099999904633,18955,19458.700000047684,20384.599999904633,21718.799999952316,22916.299999952316,25847.5,26813.799999952316,27277.5,27740.599999904633,28268.5,29242.099999904633,29793.599999904633,30384.299999952316,30970.099999904633,31519,32101.700000047684,41326.700000047684,41823.40000009537,43457.700000047684,43984.700000047684,45095.200000047684,45638.40000009537,46125.40000009537,46628,47642.799999952316,48602.5,49599.799999952316],"key_events":[],"mouse_events":[10920.400000095367,12582.299999952316,13054.200000047684,13549.099999904633,14021.400000095367,14490.599999904633,15009.400000095367,15529.299999952316,16024.200000047684,16535.400000095367,16983.700000047684,17485.900000095367,17964.599999904633,18436.099999904633,18955,19458.700000047684,20384.599999904633,20848.299999952316,21718.799999952316,22294.200000047684,22916.299999952316,25145.099999904633,25847.5,26327.700000047684,26813.799999952316,27277.5,27740.599999904633,28268.5,28780.299999952316,29242.099999904633,29793.599999904633,30384.299999952316,30970.099999904633,31519,32101.700000047684,36150.299999952316,37294.90000009537,39544.700000047684,41326.700000047684,41823.40000009537,42396.799999952316,43003,43457.700000047684,43984.700000047684,44584.5,45095.200000047684,45638.40000009537,46125.40000009537,46628,47143.299999952316,47642.799999952316,48602.5,49599.799999952316,50128.09999990463],"honeypot":0,"survey":"mace","page":6,"trial_type":"survey-mace","trial_index":14,"time_elapsed":544718,"internal_node_id":"0.0-14.0","task_version":"prescreen-v0.3","browser_interactions":0},{"responses":{"01":"No","02":"No","03":"Yes","03_ages_6":"6","03_ages_7":"7","03_ages_8":"8","03_ages_9":"9","03_ages_10":"10","03_ages_11":"11","03_ages_12":"12","03_ages_13":"13","03_ages_14":"14","03_ages_15":"15","03_ages_16":"16","03_ages_17":"17","03_ages_18":"18","04":"Yes","04_ages_6":"6","04_ages_7":"7","04_ages_8":"8","04_ages_9":"9","04_ages_10":"10","05":"No","06":"No","07":"No"},"rt":37237.700000047684,"item_order":[0,1,2,3,4,5,6],"radio_events":[5106.299999952316,6887.700000047684,7649,23651.700000047684,33572.10000014305,35553.5,36263.299999952316],"checkbox_events":[12382.200000047684,12878.700000047684,13436.900000095367,14394.799999952316,14825.900000095367,15345.200000047684,15864.299999952316,16384,16942.700000047684,17934.5,18364.799999952316,19628.900000095367,20417,21008.400000095367,21503.799999952316,25495.60000014305,25985,27014.200000047684,27901.60000014305,28707.299999952316],"key_events":[],"mouse_events":[3461.4000000953674,5106.299999952316,6887.700000047684,7649,12382.200000047684,12878.700000047684,13436.900000095367,13911.900000095367,14394.799999952316,14825.900000095367,15345.200000047684,15864.299999952316,16384,16942.700000047684,17470.200000047684,17934.5,18364.799999952316,19628.900000095367,20417,21008.400000095367,21503.799999952316,23651.700000047684,25495.60000014305,25985,26527.10000014305,27014.200000047684,27470.700000047684,27901.60000014305,28707.299999952316,33572.10000014305,34729.40000009537,35553.5,36263.299999952316,37229.799999952316],"honeypot":0,"survey":"mace","page":7,"trial_type":"survey-mace","trial_index":15,"time_elapsed":581961,"internal_node_id":"0.0-15.0","task_version":"prescreen-v0.3","browser_interactions":0},{"responses":{"01":"No","02":"No","03":"No","04":"No"},"rt":16499.60000014305,"item_order":[0,1,2,3],"radio_events":[5441.799999952316,8682.900000095367,13739.299999952316,14369.900000095367],"checkbox_events":[],"key_events":[],"mouse_events":[5441.799999952316,8682.900000095367,13739.299999952316,14369.900000095367,16495],"honeypot":0,"survey":"mace","page":8,"trial_type":"survey-mace","trial_index":16,"time_elapsed":598467,"internal_node_id":"0.0-16.0","task_version":"prescreen-v0.3","browser_interactions":0},{"responses":{"01":"Yes","01_ages_1":"1","01_ages_2":"2","01_ages_3":"3","01_ages_4":"4","01_ages_5":"5","01_ages_6":"6","01_ages_7":"7","01_ages_8":"8","01_ages_9":"9","01_ages_10":"10","01_ages_11":"11","01_ages_12":"12","01_ages_13":"13","01_ages_14":"14","01_ages_15":"15","01_ages_16":"16","01_ages_17":"17","01_ages_18":"18","02":"Yes","02_ages_1":"1","02_ages_2":"2","02_ages_3":"3","02_ages_4":"4","02_ages_5":"5","02_ages_6":"6","02_ages_7":"7","02_ages_8":"8","02_ages_9":"9","02_ages_10":"10","02_ages_11":"11","02_ages_12":"12","02_ages_13":"13","02_ages_14":"14","02_ages_15":"15","02_ages_16":"16","02_ages_17":"17","02_ages_18":"18","03":"Yes","03_ages_1":"1","03_ages_2":"2","03_ages_3":"3","03_ages_4":"4","03_ages_5":"5","03_ages_6":"6","03_ages_7":"7","03_ages_8":"8","03_ages_9":"9","03_ages_10":"10","03_ages_11":"11","03_ages_12":"12","03_ages_13":"13","03_ages_14":"14","03_ages_15":"15","03_ages_16":"16","03_ages_17":"17","03_ages_18":"18","04":"Yes","04_ages_1":"1","04_ages_2":"2","04_ages_3":"3","04_ages_4":"4","04_ages_5":"5","04_ages_6":"6","04_ages_7":"7","04_ages_8":"8","04_ages_9":"9","04_ages_10":"10","04_ages_11":"11","04_ages_12":"12","04_ages_13":"13","04_ages_14":"14","04_ages_15":"15","04_ages_16":"16","04_ages_17":"17","04_ages_18":"18"},"rt":86564.5,"item_order":[0,1,2,3],"radio_events":[2201.5,44167.800000190735,58512.10000014305,74205.80000019073],"checkbox_events":[6633.700000047684,7129.300000190735,7975.900000095367,8734.800000190735,9222,9996.5,10492.400000095367,10986.900000095367,11467.300000190735,11985,12457.700000047684,12944.300000190735,13478.800000190735,13950.300000190735,14415,14972.5,15547.400000095367,16041.900000095367,45133.800000190735,46156.40000009537,46755,47330.60000014305,47865.10000014305,48355.10000014305,48840.700000047684,49351.40000009537,49838.60000014305,50341.700000047684,51459.700000047684,51938.5,52426,52929.300000190735,53440.300000190735,53952.40000009537,54462.800000190735,55350,59982.10000014305,60446.10000014305,60916.60000014305,61851,63087.700000047684,63953.700000047684,64406.10000014305,64893.300000190735,65388.60000014305,65916,66410.10000014305,67361.40000009537,68520.60000014305,69014.70000004768,69502.20000004768,70021,70516,71227.10000014305,75524.30000019073,75979.40000009537,76443.60000014305,76913.90000009537,77696.40000009537,78239.70000004768,78729.30000019073,79207.20000004768,79692.5,80180.30000019073,80699.20000004768,81170.80000019073,81674.20000004768,82696.30000019073,83152,83624,84118.20000004768,84677.20000004768],"key_events":[],"mouse_events":[2201.5,5787.300000190735,6633.700000047684,7129.300000190735,7975.900000095367,8734.800000190735,9222,9996.5,10492.400000095367,10986.900000095367,11467.300000190735,11985,12457.700000047684,12944.300000190735,13478.800000190735,13950.300000190735,14415,14972.5,15547.400000095367,16041.900000095367,44167.800000190735,45133.800000190735,46156.40000009537,46755,47330.60000014305,47865.10000014305,48355.10000014305,48840.700000047684,49351.40000009537,49838.60000014305,50341.700000047684,51459.700000047684,51938.5,52426,52929.300000190735,53440.300000190735,53952.40000009537,54462.800000190735,55350,58512.10000014305,59982.10000014305,60446.10000014305,60916.60000014305,61380.10000014305,61851,62402.40000009537,62617.40000009537,63087.700000047684,63498.5,63953.700000047684,64406.10000014305,64893.300000190735,65388.60000014305,65916,66410.10000014305,67361.40000009537,67791,68520.60000014305,69014.70000004768,69502.20000004768,70021,70516,71227.10000014305,74205.80000019073,75524.30000019073,75979.40000009537,76443.60000014305,76913.90000009537,77696.40000009537,78239.70000004768,78729.30000019073,79207.20000004768,79692.5,80180.30000019073,80699.20000004768,81170.80000019073,81674.20000004768,82210.20000004768,82696.30000019073,83152,83624,84118.20000004768,84677.20000004768,86561.20000004768],"honeypot":0,"survey":"mace","page":9,"trial_type":"survey-mace","trial_index":17,"time_elapsed":685036,"internal_node_id":"0.0-17.0","task_version":"prescreen-v0.3","browser_interactions":0},{"responses":{"01":"No","02":"No","03":"No","04":"No","05":"No","06":"Yes","06_ages_17":"17","07":"Yes","07_ages_1":"1","07_ages_2":"2","07_ages_3":"3","07_ages_4":"4","07_ages_5":"5","07_ages_6":"6","07_ages_7":"7","07_ages_8":"8","07_ages_9":"9","07_ages_10":"10","07_ages_11":"11","07_ages_12":"12","07_ages_13":"13","07_ages_14":"14","07_ages_15":"15","07_ages_16":"16","07_ages_17":"17","07_ages_18":"18","08":"Yes","08_ages_1":"1","08_ages_2":"2","08_ages_3":"3","08_ages_4":"4","08_ages_5":"5","08_ages_6":"6","08_ages_7":"7","08_ages_8":"8","08_ages_9":"9","08_ages_10":"10","08_ages_11":"11","08_ages_12":"12","08_ages_13":"13","08_ages_14":"14","08_ages_17":"17","08_ages_18":"18"},"rt":52262.40000009537,"item_order":[0,1,2,3,4,5,6,7],"radio_events":[5429.700000047684,6448.5,8175.799999952316,11714.299999952316,13479.299999952316,16808.400000095367,22017.60000014305,38516.60000014305],"checkbox_events":[19101.299999952316,27343.10000014305,27838.700000047684,28318.10000014305,28748.900000095367,29737.60000014305,30186.200000047684,30650.5,31202.5,31671.60000014305,32151,33088.299999952316,33583.200000047684,34069.200000047684,34595.200000047684,35577.299999952316,36280.40000009537,36768.200000047684,37422.10000014305,42078.40000009537,42589.90000009537,43132.799999952316,44450.200000047684,44913.799999952316,45433.299999952316,45926.60000014305,46432.200000047684,47653.5,48148.200000047684,48636.5,49154.200000047684,49721.799999952316,50272.60000014305,51110.799999952316,51574.5],"key_events":[],"mouse_events":[5429.700000047684,6448.5,8175.799999952316,11714.299999952316,13479.299999952316,16082.700000047684,16808.400000095367,18463.10000014305,19101.299999952316,22017.60000014305,27343.10000014305,27838.700000047684,28318.10000014305,28748.900000095367,29275.900000095367,29737.60000014305,30186.200000047684,30650.5,31202.5,31671.60000014305,32151,32622.299999952316,33088.299999952316,33583.200000047684,34069.200000047684,34595.200000047684,35186.200000047684,35577.299999952316,36280.40000009537,36768.200000047684,37422.10000014305,38516.60000014305,42078.40000009537,42589.90000009537,43132.799999952316,43628,44450.200000047684,44913.799999952316,45433.299999952316,45926.60000014305,46432.200000047684,46879.60000014305,47653.5,48148.200000047684,48636.5,49154.200000047684,49721.799999952316,50272.60000014305,51110.799999952316,51574.5,52254.60000014305],"honeypot":0,"survey":"mace","page":10,"trial_type":"survey-mace","trial_index":18,"time_elapsed":737304,"internal_node_id":"0.0-18.0","task_version":"prescreen-v0.3","browser_interactions":0,"instructed":0},{"rt":3268.0999999046326,"trial_type":"mental-health-alert","trial_index":19,"time_elapsed":740576,"internal_node_id":"0.0-19.0","task_version":"prescreen-v0.3","interactions":"[{\"event\":\"blur\",\"trial\":0,\"time\":4426},{\"event\":\"focus\",\"trial\":0,\"time\":6243}]"}]