[{"view_history":[{"page_index":0,"viewing_time":26942.79999999702},{"page_index":1,"viewing_time":8479},{"page_index":2,"viewing_time":6174.600000008941},{"page_index":3,"viewing_time":1938}],"rt":43535.40000000596,"trial_type":"instructions","trial_index":0,"time_elapsed":43548,"internal_node_id":"0.0-0.0","task_version":"prescreen-v0.3"},{"rt":20821.5,"responses":{"age":"28","gender-categorical":"Female","gender-free-response":"","ethnicity":"Not Hispanic or Latino","race":["White"],"education":"Bachelor degree"},"trial_type":"survey-demo","trial_index":1,"time_elapsed":64377,"internal_node_id":"0.0-1.0","task_version":"prescreen-v0.3"},{"responses":{"Q11":"0","Q06":"1","Q09":"1","Q02":"0","Q03":"0","Q08":"0","Q04":"1","Q16":"2","Q20":"0","Q14":"1","Q07":"0","Q12":"0","Q18":"0","Q01":"0","Q19":"1","Q10":"0","Q15":"2","Q17":"1","Q21":"3","Q05":"0","Q13":"2"},"rt":212566,"item_order":[10,5,8,1,2,7,3,15,19,13,6,11,17,0,18,9,14,16,20,4,12],"radio_events":[15307.39999999106,23534.89999999106,32139.20000000298,37553.29999999702,41187.20000000298,45095.09999999404,52567,76353.20000000298,80257,98847.20000000298,113647.09999999404,142482.89999999106,150604.79999999702,152088.89999999106,163163.09999999404,169845.20000000298,179611.09999999404,187898.89999999106,196039.09999999404,206033,211265.09999999404],"key_events":[],"mouse_events":[15307.39999999106,23534.89999999106,32139.20000000298,37553.29999999702,41187.20000000298,45095.09999999404,52567,76353.20000000298,80257,98245,98847.20000000298,113647.09999999404,142482.89999999106,149391.20000000298,150604.79999999702,152088.89999999106,163163.09999999404,169845.20000000298,179611.09999999404,187898.89999999106,196039.09999999404,206033,211265.09999999404,212561.59999999404],"straightlining":0.5238095238095238,"zigzagging":0.5,"honeypot":0,"survey":"sns","trial_type":"survey-template","trial_index":2,"time_elapsed":276950,"internal_node_id":"0.0-2.0","task_version":"prescreen-v0.3","browser_interactions":0,"infrequency":0},{"responses":{"Q09":"1","Q05":"2","Q13":"0","Q02":"2","Q12":"1","Q01":"2","Q08":"3","Q04":"3","Q06":"3","Q11":"1","Q07":"3","Q10":"0","Q03":"2"},"rt":181594.60000000894,"item_order":[8,4,12,1,11,0,7,3,5,10,6,9,2],"radio_events":[57293.80000001192,62891.60000000894,67711.70000000298,80643.70000000298,95387.70000000298,99749.60000000894,110963.70000000298,121397.80000001192,143351.60000000894,156777.60000000894,161971.60000000894,166057.60000000894,180479.60000000894],"key_events":[],"mouse_events":[57293.80000001192,62891.60000000894,67711.70000000298,80643.70000000298,95387.70000000298,99749.60000000894,110963.70000000298,121397.80000001192,143351.60000000894,156777.60000000894,161971.60000000894,166057.60000000894,180479.60000000894,181591.70000000298],"straightlining":0.3076923076923077,"zigzagging":0.4166666666666667,"honeypot":0,"survey":"bisbas","trial_type":"survey-template","trial_index":3,"time_elapsed":458549,"internal_node_id":"0.0-3.0","task_version":"prescreen-v0.3","browser_interactions":0,"infrequency":0},{"responses":{"Q01":"4","Q02":"3","Q03":"3"},"rt":146640.5,"radio_events":[24511.10000000894,88588.90000000596,145216.90000000596],"key_events":[],"mouse_events":[24511.10000000894,88588.90000000596,145216.90000000596,146638.90000000596],"survey":"map","page":1,"trial_type":"survey-map","trial_index":4,"time_elapsed":605193,"internal_node_id":"0.0-4.0","task_version":"prescreen-v0.3","browser_interactions":0},{"responses":{"Q04":"4","Q05":"2","Q06":"3"},"rt":126288.89999999106,"radio_events":[91887.5,98157.59999999404,124141.59999999404],"key_events":[],"mouse_events":[91887.5,98157.59999999404,124141.59999999404,126287.5],"survey":"map","page":2,"trial_type":"survey-map","trial_index":5,"time_elapsed":731485,"internal_node_id":"0.0-5.0","task_version":"prescreen-v0.3","browser_interactions":0},{"responses":{"Q07":"4","Q08":"4","Q09":"4"},"rt":24337.20000000298,"radio_events":[12426,17179.90000000596,22877.90000000596],"key_events":[],"mouse_events":[12426,17179.90000000596,22277.79999999702,22877.90000000596,24335.79999999702],"survey":"map","page":3,"trial_type":"survey-map","trial_index":6,"time_elapsed":755824,"internal_node_id":"0.0-6.0","task_version":"prescreen-v0.3","browser_interactions":0},{"responses":{"Q10":"4","Q11":"4","Q12":"2","Q13":"3","Q16":"0","Q14":"3","Q15":"3"},"rt":112834.59999999404,"radio_events":[13544,26125.89999999106,33425.89999999106,57395.89999999106,65381.79999999702,73791.79999999702,95357.79999999702],"key_events":[],"mouse_events":[13544,26125.89999999106,33425.89999999106,57395.89999999106,65381.79999999702,73791.79999999702,95357.79999999702,112831.79999999702],"survey":"map","page":4,"trial_type":"survey-map","trial_index":7,"time_elapsed":868662,"internal_node_id":"0.0-7.0","task_version":"prescreen-v0.3","browser_interactions":0,"infrequency":0},{"view_history":[{"page_index":0,"viewing_time":4004.199999988079},{"page_index":1,"viewing_time":7038.100000008941}],"rt":11043.29999999702,"trial_type":"instructions","trial_index":8,"time_elapsed":879707,"internal_node_id":"0.0-8.0","task_version":"prescreen-v0.3"},{"responses":{"01":"No","02":"No","03":"No","04":"No","05":"No","06":"No"},"rt":37952.60000000894,"item_order":[0,1,2,3,4,5],"radio_events":[13415.90000000596,18833.40000000596,24605.40000000596,26684.60000000894,28383.20000000298,30519.30000001192],"checkbox_events":[],"key_events":[],"mouse_events":[0,13415.90000000596,18833.40000000596,24605.40000000596,26684.60000000894,28383.20000000298,30519.30000001192,37945.70000000298],"honeypot":0,"survey":"mace","page":1,"trial_type":"survey-mace","trial_index":9,"time_elapsed":917653,"internal_node_id":"0.0-9.0","task_version":"prescreen-v0.3","browser_interactions":0},{"responses":{"01":"No","02":"No","03":"Yes","03_ages_2":"2","03_ages_3":"3","03_ages_4":"4","03_ages_5":"5","03_ages_6":"6","03_ages_7":"7","04":"No","05":"Yes","05_ages_5":"5","05_ages_6":"6","06":"No","07":"No","08":"No"},"rt":42134.5,"item_order":[0,1,2,3,4,5,6,7],"radio_events":[3181.4000000059605,5093.600000008941,7615.70000000298,24021.60000000894,27582.90000000596,34419.5,37493.5,40403.60000000894],"checkbox_events":[14834,15758,16405.70000000298,17019.70000000298,18059.60000000894,19315.60000000894,29737.5,30945.70000000298],"key_events":[],"mouse_events":[3181.4000000059605,5093.600000008941,7615.70000000298,14834,15758,16405.70000000298,17019.70000000298,18059.60000000894,19315.60000000894,24021.60000000894,27582.90000000596,29737.5,30401.60000000894,30945.70000000298,34419.5,37493.5,40403.60000000894,42125.90000000596],"honeypot":0,"survey":"mace","page":2,"trial_type":"survey-mace","trial_index":10,"time_elapsed":959779,"internal_node_id":"0.0-10.0","task_version":"prescreen-v0.3","browser_interactions":0},{"responses":{"01":"No","02":"No","03":"No","04":"No"},"rt":14637.20000000298,"item_order":[0,1,2,3],"radio_events":[9216.40000000596,10542.40000000596,11958.300000011921,12890.20000000298],"checkbox_events":[],"key_events":[],"mouse_events":[9216.40000000596,10542.40000000596,11958.300000011921,12890.20000000298,14632.40000000596],"honeypot":0,"survey":"mace","page":3,"trial_type":"survey-mace","trial_index":11,"time_elapsed":974420,"internal_node_id":"0.0-11.0","task_version":"prescreen-v0.3","browser_interactions":0},{"responses":{"01":"No","02":"No"},"rt":14919.90000000596,"item_order":[0,1],"radio_events":[10129.20000000298,13019.20000000298],"checkbox_events":[],"key_events":[],"mouse_events":[4159.20000000298,10129.20000000298,13019.20000000298,14917.20000000298],"honeypot":0,"survey":"mace","page":4,"trial_type":"survey-mace","trial_index":12,"time_elapsed":989342,"internal_node_id":"0.0-12.0","task_version":"prescreen-v0.3","browser_interactions":0},{"responses":{"01":"No","02":"No","03":"No","04":"No","05":"No"},"rt":30263.80000001192,"item_order":[0,1,2,3,4],"radio_events":[16317.800000011921,20608,22281.90000000596,26931.70000000298,27745.80000001192],"checkbox_events":[],"key_events":[],"mouse_events":[16317.800000011921,20608,22281.90000000596,25303.80000001192,26931.70000000298,27745.80000001192,30257.80000001192],"honeypot":0,"survey":"mace","page":5,"trial_type":"survey-mace","trial_index":13,"time_elapsed":1019609,"internal_node_id":"0.0-13.0","task_version":"prescreen-v0.3","browser_interactions":0},{"responses":{"01":"No","02":"Yes","02_ages_13":"13","02_ages_14":"14","03":"Yes","03_ages_13":"13","03_ages_14":"14","03_ages_15":"15","04":"Yes","04_ages_13":"13","04_ages_14":"14","04_ages_15":"15","05":"No"},"rt":44214.60000000894,"item_order":[0,1,2,3,4],"radio_events":[15546.20000000298,16522,29838,36414,43304],"checkbox_events":[23930.10000000894,24668.20000000298,31380,31916.10000000894,32876,37824.10000000894,38976,39973.90000000596],"key_events":[],"mouse_events":[15546.20000000298,16522,23930.10000000894,24668.20000000298,29838,31380,31916.10000000894,32876,36414,37824.10000000894,38400.10000000894,38976,39973.90000000596,43304,44208.60000000894],"honeypot":0,"survey":"mace","page":6,"trial_type":"survey-mace","trial_index":14,"time_elapsed":1063826,"internal_node_id":"0.0-14.0","task_version":"prescreen-v0.3","browser_interactions":0},{"responses":{"01":"No","02":"No","03":"No","04":"No","05":"No","06":"No","07":"No"},"rt":32909.09999999404,"item_order":[0,1,2,3,4,5,6],"radio_events":[17071,19520.79999999702,23731,26212.90000000596,29234.79999999702,30878.90000000596,32124.79999999702],"checkbox_events":[],"key_events":[],"mouse_events":[17071,19520.79999999702,23731,26212.90000000596,29234.79999999702,30878.90000000596,32124.79999999702,32901.09999999404],"honeypot":0,"survey":"mace","page":7,"trial_type":"survey-mace","trial_index":15,"time_elapsed":1096739,"internal_node_id":"0.0-15.0","task_version":"prescreen-v0.3","browser_interactions":0},{"responses":{"01":"No","02":"Yes","02_ages_5":"5","02_ages_6":"6","02_ages_7":"7","02_ages_8":"8","02_ages_9":"9","02_ages_10":"10","02_ages_11":"11","02_ages_12":"12","02_ages_13":"13","02_ages_14":"14","02_ages_15":"15","02_ages_16":"16","02_ages_17":"17","02_ages_18":"18","03":"No","04":"No"},"rt":42572.60000000894,"item_order":[0,1,2,3],"radio_events":[12715.70000000298,15717.70000000298,34865.70000000298,41407.70000000298],"checkbox_events":[18654.90000000596,21493.70000000298,22809.80000001192,23425.60000000894,24031.70000000298,24559.80000001192,25327.70000000298,26279.80000001192,26891.60000000894,27889.80000001192,28785.70000000298,29425.70000000298,30041.70000000298,30799.80000001192],"key_events":[],"mouse_events":[12715.70000000298,15717.70000000298,18654.90000000596,21493.70000000298,22809.80000001192,23425.60000000894,24031.70000000298,24559.80000001192,25327.70000000298,26279.80000001192,26891.60000000894,27441.5,27889.80000001192,28401.80000001192,28785.70000000298,29425.70000000298,30041.70000000298,30799.80000001192,34865.70000000298,41407.70000000298,42567.80000001192],"honeypot":0,"survey":"mace","page":8,"trial_type":"survey-mace","trial_index":16,"time_elapsed":1139314,"internal_node_id":"0.0-16.0","task_version":"prescreen-v0.3","browser_interactions":0},{"responses":{"01":"Yes","01_ages_1":"1","01_ages_2":"2","01_ages_3":"3","01_ages_4":"4","01_ages_5":"5","01_ages_6":"6","01_ages_7":"7","01_ages_8":"8","01_ages_9":"9","01_ages_10":"10","01_ages_11":"11","01_ages_12":"12","01_ages_13":"13","01_ages_14":"14","01_ages_15":"15","01_ages_16":"16","01_ages_17":"17","01_ages_18":"18","02":"Yes","02_ages_1":"1","02_ages_2":"2","02_ages_3":"3","02_ages_4":"4","02_ages_5":"5","02_ages_6":"6","02_ages_7":"7","02_ages_8":"8","02_ages_9":"9","02_ages_10":"10","02_ages_11":"11","02_ages_12":"12","02_ages_13":"13","02_ages_14":"14","02_ages_15":"15","02_ages_16":"16","02_ages_17":"17","02_ages_18":"18","03":"Yes","03_ages_1":"1","03_ages_2":"2","03_ages_3":"3","03_ages_4":"4","03_ages_5":"5","03_ages_6":"6","03_ages_7":"7","03_ages_8":"8","03_ages_9":"9","03_ages_10":"10","03_ages_11":"11","03_ages_12":"12","03_ages_13":"13","03_ages_14":"14","03_ages_15":"15","03_ages_16":"16","03_ages_17":"17","03_ages_18":"18","04":"Yes","04_ages_1":"1","04_ages_2":"2","04_ages_3":"3","04_ages_4":"4","04_ages_5":"5","04_ages_6":"6","04_ages_7":"7","04_ages_8":"8","04_ages_9":"9","04_ages_10":"10","04_ages_11":"11","04_ages_12":"12","04_ages_13":"13","04_ages_14":"14","04_ages_15":"15","04_ages_16":"16","04_ages_17":"17","04_ages_18":"18"},"rt":81150,"item_order":[0,1,2,3],"radio_events":[9118.5,29717,46138.70000000298,63169],"checkbox_events":[12921,14155.10000000894,14731.10000000894,15330.79999999702,15867,16873.20000000298,17441,18113.10000000894,18853.10000000894,19525.10000000894,20083.20000000298,20827,21595.10000000894,22251.20000000298,22628.10000000894,23677,24221.20000000298,25093.10000000894,25661.10000000894,26371,30885,31641,32257,33071.20000000298,33567.20000000298,34719,35611,36441.10000000894,36977.10000000894,37513.10000000894,38073.10000000894,38600.90000000596,39190.90000000596,40147,40706.90000000596,41219,41851.10000000894,42521.10000000894,47139,47731,48375,48965.10000000894,49613,50285,50805.10000000894,51477.10000000894,52077,52782.90000000596,53558.90000000596,54678.90000000596,55214.79999999702,55782.90000000596,56309,56849,57521.10000000894,58153.10000000894,64913.10000000894,65468.90000000596,68420.90000000596,69076.5,69631.10000000894,70135,70615.10000000894,71639,72654.79999999702,73612.70000000298,74440.90000000596,75112.90000000596,75721,76351,77926.90000000596,78946.90000000596,79569.10000000894,80265.10000000894],"key_events":[],"mouse_events":[9118.5,12921,13535,14155.10000000894,14731.10000000894,15330.79999999702,15867,16459,16873.20000000298,17441,18113.10000000894,18853.10000000894,19525.10000000894,20083.20000000298,20827,21595.10000000894,22251.20000000298,22628.10000000894,23677,24221.20000000298,25093.10000000894,25661.10000000894,26371,29717,30885,31641,32257,33071.20000000298,33567.20000000298,34167,34719,35611,36441.10000000894,36977.10000000894,37513.10000000894,38073.10000000894,38600.90000000596,39190.90000000596,39715,40147,40706.90000000596,41219,41851.10000000894,42521.10000000894,46138.70000000298,47139,47731,48375,48965.10000000894,49613,50285,50805.10000000894,51477.10000000894,52077,52782.90000000596,53558.90000000596,54190.79999999702,54678.90000000596,55214.79999999702,55782.90000000596,56309,56849,57521.10000000894,58153.10000000894,63169,64913.10000000894,65468.90000000596,68420.90000000596,69076.5,69631.10000000894,70135,70615.10000000894,71174.79999999702,71639,72199,72654.79999999702,73612.70000000298,74440.90000000596,75112.90000000596,75721,76351,76983,77926.90000000596,78455.10000000894,78946.90000000596,79569.10000000894,80265.10000000894,81145.10000000894],"honeypot":0,"survey":"mace","page":9,"trial_type":"survey-mace","trial_index":17,"time_elapsed":1220466,"internal_node_id":"0.0-17.0","task_version":"prescreen-v0.3","browser_interactions":0},{"responses":{"01":"No","02":"No","03":"No","04":"No","05":"Yes","05_ages_5":"5","05_ages_6":"6","05_ages_7":"7","05_ages_8":"8","05_ages_9":"9","05_ages_10":"10","05_ages_11":"11","05_ages_12":"12","05_ages_13":"13","05_ages_14":"14","05_ages_15":"15","05_ages_16":"16","05_ages_17":"17","05_ages_18":"18","06":"Yes","06_ages_17":"17","07":"Yes","07_ages_1":"1","07_ages_2":"2","07_ages_3":"3","07_ages_4":"4","07_ages_5":"5","07_ages_6":"6","07_ages_7":"7","07_ages_8":"8","07_ages_9":"9","07_ages_10":"10","07_ages_11":"11","07_ages_12":"12","07_ages_13":"13","07_ages_14":"14","07_ages_15":"15","07_ages_16":"16","07_ages_17":"17","07_ages_18":"18","08":"Yes","08_ages_1":"1","08_ages_2":"2","08_ages_3":"3","08_ages_4":"4","08_ages_5":"5","08_ages_6":"6","08_ages_7":"7","08_ages_8":"8","08_ages_9":"9","08_ages_10":"10","08_ages_11":"11","08_ages_12":"12","08_ages_13":"13","08_ages_14":"14","08_ages_15":"15","08_ages_16":"16","08_ages_17":"17","08_ages_18":"18"},"rt":103565.19999998808,"item_order":[0,1,2,3,4,5,6,7],"radio_events":[6730.29999999702,8410.199999988079,14434.5,18474.59999999404,25238.5,46922.5,73094.29999999702,89236.39999999106],"checkbox_events":[33502.5,34110.59999999404,35124.5,35724.5,36312.39999999106,37056.39999999106,37646.5,39126.39999999106,39726.29999999702,40450.59999999404,41040.5,41640.39999999106,42208.5,43000.39999999106,69320.5,75752.5,76448.5,77056.29999999702,77828.39999999106,79122.39999999106,79642.39999999106,80610.29999999702,81226.5,81764.39999999106,82284.5,82836.59999999404,83380.39999999106,83948.39999999106,84924.09999999404,85450.39999999106,85958.39999999106,86550.59999999404,87070.5,91608.39999999106,92222.29999999702,92718.29999999702,93230.39999999106,93782.39999999106,94682.39999999106,95256.5,95808.5,96296.39999999106,96888.39999999106,97384.39999999106,97944.5,98708.5,99186.5,99738.29999999702,100418.29999999702,101346.39999999106,101970.39999999106],"key_events":[],"mouse_events":[6730.29999999702,8410.199999988079,14434.5,18474.59999999404,25238.5,33502.5,34110.59999999404,34700.59999999404,35124.5,35724.5,36312.39999999106,37056.39999999106,37646.5,39126.39999999106,39726.29999999702,40450.59999999404,41040.5,41640.39999999106,42208.5,43000.39999999106,46922.5,69320.5,73094.29999999702,75752.5,76448.5,77056.29999999702,77828.39999999106,78786.39999999106,79122.39999999106,79642.39999999106,80162.59999999404,80610.29999999702,81226.5,81764.39999999106,82284.5,82836.59999999404,83380.39999999106,83948.39999999106,84476.19999998808,84924.09999999404,85450.39999999106,85958.39999999106,86550.59999999404,87070.5,88828.5,89236.39999999106,91608.39999999106,92222.29999999702,92718.29999999702,93230.39999999106,93782.39999999106,94258.5,94682.39999999106,95256.5,95808.5,96296.39999999106,96888.39999999106,97384.39999999106,97944.5,98708.5,99186.5,99738.29999999702,100418.29999999702,100938.59999999404,101346.39999999106,101970.39999999106,103556.59999999404],"honeypot":0,"survey":"mace","page":10,"trial_type":"survey-mace","trial_index":18,"time_elapsed":1324033,"internal_node_id":"0.0-18.0","task_version":"prescreen-v0.3","browser_interactions":0,"instructed":0},{"rt":22177.40000000596,"trial_type":"mental-health-alert","trial_index":19,"time_elapsed":1346212,"internal_node_id":"0.0-19.0","task_version":"prescreen-v0.3","interactions":"[]"}]