[{"view_history":[{"page_index":0,"viewing_time":3791.5999999940395},{"page_index":1,"viewing_time":3448.1000000089407},{"page_index":2,"viewing_time":4719.5},{"page_index":3,"viewing_time":1392.2000000029802}],"rt":13352,"trial_type":"instructions","trial_index":0,"time_elapsed":13364,"internal_node_id":"0.0-0.0","task_version":"prescreen-v0.3"},{"rt":16468.70000000298,"responses":{"age":"31","gender-categorical":"Male","gender-free-response":"","ethnicity":"Not Hispanic or Latino","race":["White"],"education":"Master degree or higher","siblings":"2"},"trial_type":"survey-demo","trial_index":1,"time_elapsed":29836,"internal_node_id":"0.0-1.0","task_version":"prescreen-v0.3"},{"responses":{"Q06":"1","Q14":"1","Q10":"0","Q18":"1","Q09":"0","Q13":"2","Q02":"0","Q21":"3","Q15":"1","Q07":"2","Q12":"1","Q08":"1","Q20":"0","Q16":"2","Q05":"2","Q19":"1","Q03":"0","Q17":"0","Q11":"0","Q04":"1","Q01":"0"},"rt":121445.20000000298,"item_order":[5,13,9,17,8,12,1,20,14,6,11,7,19,15,4,18,2,16,10,3,0],"radio_events":[18340.5,25828.39999999106,28019.70000000298,31923.89999999106,36012,37964,41355.89999999106,44740.09999999404,56331.59999999404,67459.79999999702,72323.79999999702,74963.29999999702,76347.39999999106,81892,92651.59999999404,95723.70000000298,104395.70000000298,107628.20000000298,109340.20000000298,111700.39999999106,117788.89999999106,120419.29999999702],"key_events":[],"mouse_events":[18340.5,25828.39999999106,28019.70000000298,31923.89999999106,36012,37964,41355.89999999106,44740.09999999404,56331.59999999404,65563.59999999404,67459.79999999702,72323.79999999702,74963.29999999702,76347.39999999106,81892,92651.59999999404,95723.70000000298,104395.70000000298,107628.20000000298,109340.20000000298,111700.39999999106,117788.89999999106,120419.29999999702,121444.09999999404],"straightlining":0.38095238095238093,"zigzagging":0.55,"honeypot":0,"survey":"sns","trial_type":"survey-template","trial_index":2,"time_elapsed":151285,"internal_node_id":"0.0-2.0","task_version":"prescreen-v0.3","browser_interactions":0,"infrequency":0},{"responses":{"Q10":"2","Q06":"3","Q02":"1","Q08":"2","Q13":"0","Q01":"2","Q04":"2","Q11":"2","Q07":"3","Q09":"2","Q12":"2","Q03":"2","Q05":"2"},"rt":62742.70000000298,"item_order":[9,5,1,7,12,0,3,10,6,8,11,2,4],"radio_events":[7332.70000000298,9756.79999999702,10597.09999999404,13613,15516.90000000596,18660.70000000298,22021.09999999404,27572.59999999404,31596.59999999404,36852.79999999702,39852.5,43764.79999999702,50028.59999999404,57836.79999999702,61444.70000000298],"key_events":[],"mouse_events":[7332.70000000298,9756.79999999702,10597.09999999404,13613,15516.90000000596,18660.70000000298,22021.09999999404,27572.59999999404,31596.59999999404,36852.79999999702,39852.5,43764.79999999702,50028.59999999404,57836.79999999702,61444.70000000298,62741.59999999404],"straightlining":0.6923076923076923,"zigzagging":0.3333333333333333,"honeypot":0,"survey":"bisbas","trial_type":"survey-template","trial_index":3,"time_elapsed":214030,"internal_node_id":"0.0-3.0","task_version":"prescreen-v0.3","browser_interactions":0,"infrequency":0},{"responses":{"Q01":"3","Q02":"2","Q03":"3"},"rt":20915.20000000298,"radio_events":[8018.9000000059605,15730.60000000894,19970.40000000596],"key_events":[],"mouse_events":[4074.300000011921,4811,8018.9000000059605,15730.60000000894,19970.40000000596,20914.70000000298],"survey":"map","page":1,"trial_type":"survey-map","trial_index":4,"time_elapsed":234948,"internal_node_id":"0.0-4.0","task_version":"prescreen-v0.3","browser_interactions":0},{"responses":{"Q04":"3","Q05":"3","Q06":"3"},"rt":10390.29999999702,"radio_events":[5709.5,7413.70000000298,9205.59999999404],"key_events":[],"mouse_events":[5709.5,7413.70000000298,9205.59999999404,10389.79999999702],"survey":"map","page":2,"trial_type":"survey-map","trial_index":5,"time_elapsed":245339,"internal_node_id":"0.0-5.0","task_version":"prescreen-v0.3","browser_interactions":0},{"responses":{"Q07":"4","Q08":"4","Q09":"3"},"rt":26006.59999999404,"radio_events":[11205.89999999106,14861.89999999106,22502.20000000298],"key_events":[],"mouse_events":[11205.89999999106,14861.89999999106,22502.20000000298,26006.20000000298],"survey":"map","page":3,"trial_type":"survey-map","trial_index":6,"time_elapsed":271347,"internal_node_id":"0.0-6.0","task_version":"prescreen-v0.3","browser_interactions":0},{"responses":{"Q10":"2","Q11":"2","Q12":"3","Q13":"3","Q16":"0","Q14":"3","Q15":"3"},"rt":34190.59999999404,"radio_events":[5678.20000000298,7894,11269.89999999106,13998.70000000298,22773.79999999702,27509.70000000298,33582.09999999404],"key_events":[],"mouse_events":[5678.20000000298,7894,11269.89999999106,13998.70000000298,22773.79999999702,27509.70000000298,33582.09999999404,34189.79999999702],"survey":"map","page":4,"trial_type":"survey-map","trial_index":7,"time_elapsed":305540,"internal_node_id":"0.0-7.0","task_version":"prescreen-v0.3","browser_interactions":0,"infrequency":0},{"view_history":[{"page_index":0,"viewing_time":2085.7000000029802},{"page_index":1,"viewing_time":4064.0999999940395}],"rt":6150.4000000059605,"trial_type":"instructions","trial_index":8,"time_elapsed":311691,"internal_node_id":"0.0-8.0","task_version":"prescreen-v0.3"},{"responses":{"01":"Yes","01_ages_14":"14","01_ages_15":"15","01_ages_16":"16","02":"Yes","02_ages_13":"13","02_ages_14":"14","02_ages_15":"15","02_ages_16":"16","03":"No","04":"No","05":"No","06":"No"},"rt":37181.70000000298,"item_order":[0,1,2,3,4,5],"radio_events":[8763,23155.09999999404,30259,32042.79999999702,34899.20000000298,36563.09999999404],"checkbox_events":[16851.29999999702,17299.20000000298,17715.59999999404,24915.5,25490.89999999106,25907.5,26458.89999999106],"key_events":[],"mouse_events":[0,4291.29999999702,6875.20000000298,8763,16851.29999999702,17299.20000000298,17715.59999999404,23155.09999999404,24915.5,25490.89999999106,25907.5,26458.89999999106,30259,32042.79999999702,34899.20000000298,36563.09999999404,37179.39999999106],"honeypot":0,"survey":"mace","page":1,"trial_type":"survey-mace","trial_index":9,"time_elapsed":348879,"internal_node_id":"0.0-9.0","task_version":"prescreen-v0.3","browser_interactions":0},{"responses":{"01":"No","02":"No","03":"Yes","03_ages_3":"3","03_ages_4":"4","03_ages_5":"5","04":"No","05":"No","06":"No","07":"No","08":"No"},"rt":24261.39999999106,"item_order":[0,1,2,3,4,5,6,7],"radio_events":[2922.7999999970198,6858.70000000298,8058.399999991059,14218.59999999404,18923,19762.5,20834.20000000298,22314.39999999106],"checkbox_events":[11034.5,11682.59999999404,12234.39999999106],"key_events":[],"mouse_events":[2922.7999999970198,6858.70000000298,8058.399999991059,11034.5,11682.59999999404,12234.39999999106,14218.59999999404,17482.29999999702,18923,19762.5,20834.20000000298,22314.39999999106,24258.29999999702],"honeypot":0,"survey":"mace","page":2,"trial_type":"survey-mace","trial_index":10,"time_elapsed":373143,"internal_node_id":"0.0-10.0","task_version":"prescreen-v0.3","browser_interactions":0},{"responses":{"01":"No","02":"No","03":"No","04":"No"},"rt":12428.40000000596,"item_order":[0,1,2,3],"radio_events":[3106.4000000059605,9002.5,10802.70000000298,11938.70000000298],"checkbox_events":[],"key_events":[],"mouse_events":[3106.4000000059605,9002.5,10802.70000000298,11938.70000000298,12426.70000000298],"honeypot":0,"survey":"mace","page":3,"trial_type":"survey-mace","trial_index":11,"time_elapsed":385573,"internal_node_id":"0.0-11.0","task_version":"prescreen-v0.3","browser_interactions":0},{"responses":{"01":"No","02":"No"},"rt":21357.70000000298,"item_order":[0,1],"radio_events":[9837.20000000298,17324.20000000298],"checkbox_events":[],"key_events":[],"mouse_events":[9837.20000000298,17324.20000000298,21357],"honeypot":0,"survey":"mace","page":4,"trial_type":"survey-mace","trial_index":12,"time_elapsed":406932,"internal_node_id":"0.0-12.0","task_version":"prescreen-v0.3","browser_interactions":0},{"responses":{"01":"No","02":"No","03":"No","04":"No","05":"No"},"rt":19119.80000001192,"item_order":[0,1,2,3,4],"radio_events":[6805.600000008941,8477.20000000298,14045.300000011921,16821.90000000596,18405.60000000894],"checkbox_events":[],"key_events":[],"mouse_events":[6805.600000008941,8477.20000000298,14045.300000011921,16821.90000000596,18405.60000000894,19117.90000000596],"honeypot":0,"survey":"mace","page":5,"trial_type":"survey-mace","trial_index":13,"time_elapsed":426054,"internal_node_id":"0.0-13.0","task_version":"prescreen-v0.3","browser_interactions":0},{"responses":{"01":"Yes","01_ages_13":"13","01_ages_14":"14","01_ages_15":"15","01_ages_16":"16","01_ages_17":"17","01_ages_18":"18","02":"Yes","02_ages_13":"13","02_ages_14":"14","02_ages_15":"15","02_ages_16":"16","02_ages_17":"17","02_ages_18":"18","03":"Yes","03_ages_13":"13","03_ages_14":"14","03_ages_15":"15","03_ages_16":"16","03_ages_17":"17","03_ages_18":"18","04":"No","05":"Yes","05_ages_16":"16","05_ages_17":"17","05_ages_18":"18"},"rt":40501.5,"item_order":[0,1,2,3,4],"radio_events":[7075.70000000298,18107.5,26090.89999999106,32292.59999999404,34475.59999999404],"checkbox_events":[11907.79999999702,12491.29999999702,13227.5,13675.39999999106,14211.29999999702,14979.59999999404,19283.79999999702,19819.70000000298,20539,22611.5,23067.09999999404,23723.09999999404,27147.29999999702,27563.20000000298,28027.20000000298,29755.29999999702,30323.20000000298,31595.29999999702,36419.5,37275.09999999404,38563.70000000298,39163.09999999404,40003.70000000298],"key_events":[],"mouse_events":[7075.70000000298,11907.79999999702,12491.29999999702,13227.5,13675.39999999106,14211.29999999702,14979.59999999404,18107.5,19283.79999999702,19819.70000000298,20539,22611.5,23067.09999999404,23723.09999999404,26090.89999999106,27147.29999999702,27563.20000000298,28027.20000000298,29755.29999999702,30323.20000000298,30891.39999999106,31595.29999999702,32292.59999999404,34475.59999999404,36419.5,37275.09999999404,38563.70000000298,39163.09999999404,40003.70000000298,40499.59999999404],"honeypot":0,"survey":"mace","page":6,"trial_type":"survey-mace","trial_index":14,"time_elapsed":466558,"internal_node_id":"0.0-14.0","task_version":"prescreen-v0.3","browser_interactions":0},{"responses":{"01":"No","02":"No","03":"No","04":"No","05":"No","06":"No","07":"No"},"rt":18918.09999999404,"item_order":[0,1,2,3,4,5,6],"radio_events":[6803.199999988079,8411.5,11211.59999999404,13194.699999988079,14691.199999988079,15571.199999988079,17139.69999998808,18411.09999999404],"checkbox_events":[],"key_events":[],"mouse_events":[6803.199999988079,8411.5,11211.59999999404,13194.699999988079,14691.199999988079,15571.199999988079,17139.69999998808,18411.09999999404,18915.29999999702],"honeypot":0,"survey":"mace","page":7,"trial_type":"survey-mace","trial_index":15,"time_elapsed":485478,"internal_node_id":"0.0-15.0","task_version":"prescreen-v0.3","browser_interactions":0},{"responses":{"01":"No","02":"No","03":"Yes","03_ages_10":"10","03_ages_11":"11","03_ages_12":"12","03_ages_13":"13","03_ages_14":"14","03_ages_15":"15","03_ages_16":"16","03_ages_17":"17","03_ages_18":"18","04":"Yes","04_ages_14":"14","04_ages_15":"15","04_ages_16":"16","04_ages_17":"17","04_ages_18":"18"},"rt":29596.20000000298,"item_order":[0,1,2,3],"radio_events":[7290.79999999702,8178.70000000298,11810.60000000894,22298.60000000894],"checkbox_events":[14603.29999999702,15202.40000000596,15714.5,16107.10000000894,16634.60000000894,17026.60000000894,17402.79999999702,17762.60000000894,18162.60000000894,24602.70000000298,25434.10000000894,26523.20000000298,26914.60000000894,27483,28042.60000000894,28402.79999999702],"key_events":[],"mouse_events":[6274.4000000059605,7290.79999999702,8178.70000000298,11810.60000000894,14603.29999999702,15202.40000000596,15714.5,16107.10000000894,16634.60000000894,17026.60000000894,17402.79999999702,17762.60000000894,18162.60000000894,22298.60000000894,24602.70000000298,25434.10000000894,26523.20000000298,26914.60000000894,27483,28042.60000000894,28402.79999999702,29594.70000000298],"honeypot":0,"survey":"mace","page":8,"trial_type":"survey-mace","trial_index":16,"time_elapsed":515076,"internal_node_id":"0.0-16.0","task_version":"prescreen-v0.3","browser_interactions":0},{"responses":{"01":"Yes","01_ages_1":"1","01_ages_2":"2","01_ages_3":"3","01_ages_4":"4","01_ages_5":"5","01_ages_6":"6","01_ages_7":"7","01_ages_8":"8","01_ages_9":"9","01_ages_10":"10","01_ages_11":"11","01_ages_12":"12","01_ages_13":"13","01_ages_14":"14","01_ages_15":"15","01_ages_16":"16","01_ages_17":"17","01_ages_18":"18","02":"Yes","02_ages_1":"1","02_ages_2":"2","02_ages_3":"3","02_ages_4":"4","02_ages_5":"5","02_ages_6":"6","02_ages_7":"7","02_ages_8":"8","02_ages_9":"9","02_ages_10":"10","02_ages_11":"11","02_ages_12":"12","02_ages_13":"13","02_ages_14":"14","02_ages_15":"15","02_ages_16":"16","02_ages_17":"17","02_ages_18":"18","03":"Yes","03_ages_1":"1","03_ages_2":"2","03_ages_3":"3","03_ages_4":"4","03_ages_5":"5","03_ages_6":"6","03_ages_7":"7","03_ages_8":"8","03_ages_9":"9","03_ages_10":"10","03_ages_11":"11","03_ages_12":"12","03_ages_13":"13","03_ages_14":"14","03_ages_15":"15","03_ages_16":"16","03_ages_17":"17","03_ages_18":"18","04":"Yes","04_ages_1":"1","04_ages_2":"2","04_ages_3":"3","04_ages_4":"4","04_ages_5":"5","04_ages_6":"6","04_ages_7":"7","04_ages_8":"8","04_ages_9":"9","04_ages_10":"10","04_ages_11":"11","04_ages_12":"12","04_ages_13":"13","04_ages_14":"14","04_ages_15":"15","04_ages_16":"16","04_ages_17":"17","04_ages_18":"18"},"rt":60365.89999999106,"item_order":[0,1,2,3],"radio_events":[2748.3999999910593,21683.59999999404,22484,26772.20000000298],"checkbox_events":[4804.29999999702,5164.20000000298,5860.20000000298,6308.29999999702,7804.0999999940395,8612.5,9124.29999999702,9588.39999999106,10196.29999999702,10732.39999999106,11228.5,12532.70000000298,13084.70000000298,13604.09999999404,14211.89999999106,14796.59999999404,15299.89999999106,15915.79999999702,28468,28947.79999999702,31100.59999999404,31483.89999999106,33692.29999999702,34188.59999999404,34644.20000000298,34980.09999999404,35340.20000000298,35676.29999999702,36204.09999999404,36724.20000000298,37092.29999999702,37700.39999999106,38052,38395.89999999106,39316.20000000298,39836.79999999702,40332.09999999404,40820.09999999404,41196,41564.20000000298,42004.59999999404,42348.20000000298,42972.79999999702,43612.59999999404,44197.20000000298,44636.39999999106,45139.89999999106,45500.09999999404,46077,46732.29999999702,47252.29999999702,48180.39999999106,48596.29999999702,48932,50404.79999999702,50780.89999999106,52372.39999999106,52780.09999999404,53172.29999999702,53708.29999999702,54229,54780.39999999106,55316.79999999702,55668.29999999702,56428.5,56828.89999999106,57212.79999999702,57604.09999999404,57996,58428.39999999106,58948.29999999702,59508.59999999404],"key_events":[],"mouse_events":[2748.3999999910593,4804.29999999702,5164.20000000298,5860.20000000298,6308.29999999702,6820.79999999702,7804.0999999940395,8612.5,9124.29999999702,9588.39999999106,10196.29999999702,10732.39999999106,11228.5,12028.09999999404,12532.70000000298,13084.70000000298,13604.09999999404,14211.89999999106,14796.59999999404,15299.89999999106,15915.79999999702,21683.59999999404,22484,26772.20000000298,28468,28947.79999999702,30612.5,31100.59999999404,31483.89999999106,33692.29999999702,34188.59999999404,34644.20000000298,34980.09999999404,35340.20000000298,35676.29999999702,36204.09999999404,36724.20000000298,37092.29999999702,37700.39999999106,38052,38395.89999999106,38740.39999999106,39316.20000000298,39836.79999999702,40332.09999999404,40820.09999999404,41196,41564.20000000298,42004.59999999404,42348.20000000298,42644.5,42972.79999999702,43284.20000000298,43612.59999999404,44197.20000000298,44636.39999999106,45139.89999999106,45500.09999999404,46077,46732.29999999702,47252.29999999702,48180.39999999106,48596.29999999702,48932,50404.79999999702,50780.89999999106,51324.09999999404,52372.39999999106,52780.09999999404,53172.29999999702,53708.29999999702,54229,54780.39999999106,55316.79999999702,55668.29999999702,56428.5,56828.89999999106,57212.79999999702,57604.09999999404,57996,58428.39999999106,58948.29999999702,59508.59999999404,60364.39999999106],"honeypot":0,"survey":"mace","page":9,"trial_type":"survey-mace","trial_index":17,"time_elapsed":575444,"internal_node_id":"0.0-17.0","task_version":"prescreen-v0.3","browser_interactions":0},{"responses":{"01":"No","02":"No","03":"No","04":"No","05":"Yes","05_ages_14":"14","05_ages_15":"15","05_ages_16":"16","05_ages_17":"17","05_ages_18":"18","06":"Yes","06_ages_17":"17","07":"Yes","07_ages_1":"1","07_ages_2":"2","07_ages_3":"3","07_ages_4":"4","07_ages_5":"5","07_ages_6":"6","07_ages_7":"7","07_ages_8":"8","07_ages_9":"9","07_ages_10":"10","07_ages_11":"11","07_ages_12":"12","07_ages_13":"13","07_ages_14":"14","07_ages_15":"15","07_ages_16":"16","07_ages_17":"17","07_ages_18":"18","08":"Yes","08_ages_1":"1","08_ages_2":"2","08_ages_3":"3","08_ages_4":"4","08_ages_5":"5","08_ages_6":"6","08_ages_7":"7","08_ages_8":"8","08_ages_9":"9","08_ages_10":"10","08_ages_11":"11","08_ages_12":"12","08_ages_13":"13","08_ages_14":"14","08_ages_15":"15","08_ages_16":"16","08_ages_17":"17","08_ages_18":"18"},"rt":55837.89999999106,"item_order":[0,1,2,3,4,5,6,7],"radio_events":[3387.8999999910593,4419.5999999940395,6507.5,11611.59999999404,12636,18259.79999999702,26011.59999999404,41324],"checkbox_events":[14492,14948,15292.20000000298,15796.39999999106,16347.70000000298,19435.79999999702,27891.70000000298,28483.59999999404,28851.70000000298,29371.59999999404,29716.89999999106,30092.59999999404,30787.79999999702,31155.5,31548.70000000298,32003.70000000298,32635.79999999702,33851.20000000298,34268.09999999404,34747.59999999404,35124.09999999404,36827.89999999106,37220.79999999702,37803.59999999404,42451.79999999702,42955.89999999106,43500.09999999404,44011.59999999404,44507.79999999702,45012.39999999106,45516.5,45884.5,46275.39999999106,46748.39999999106,47315.39999999106,48773.29999999702,49563.79999999702,50236,51099.79999999702,51603.5,52803.59999999404,53363.70000000298],"key_events":[],"mouse_events":[3387.8999999910593,4419.5999999940395,6507.5,9011.59999999404,10915.70000000298,11611.59999999404,12636,14492,14948,15292.20000000298,15796.39999999106,16347.70000000298,18259.79999999702,19435.79999999702,26011.59999999404,27891.70000000298,28483.59999999404,28851.70000000298,29371.59999999404,29716.89999999106,30092.59999999404,30787.79999999702,31155.5,31548.70000000298,32003.70000000298,32635.79999999702,33851.20000000298,34268.09999999404,34747.59999999404,35124.09999999404,35523.89999999106,36827.89999999106,37220.79999999702,37803.59999999404,41324,42451.79999999702,42955.89999999106,43500.09999999404,44011.59999999404,44507.79999999702,45012.39999999106,45516.5,45884.5,46275.39999999106,46748.39999999106,47315.39999999106,48773.29999999702,49563.79999999702,50236,51099.79999999702,51603.5,52004.59999999404,52355.79999999702,52803.59999999404,53363.70000000298,55835.79999999702],"honeypot":0,"survey":"mace","page":10,"trial_type":"survey-mace","trial_index":18,"time_elapsed":631285,"internal_node_id":"0.0-18.0","task_version":"prescreen-v0.3","browser_interactions":0,"instructed":0},{"rt":10764.29999999702,"trial_type":"mental-health-alert","trial_index":19,"time_elapsed":642050,"internal_node_id":"0.0-19.0","task_version":"prescreen-v0.3","interactions":"[]"}]