[{"view_history":[{"page_index":0,"viewing_time":1992},{"page_index":1,"viewing_time":2047},{"page_index":2,"viewing_time":1719},{"page_index":3,"viewing_time":928}],"rt":6686,"trial_type":"instructions","trial_index":0,"time_elapsed":6688,"internal_node_id":"0.0-0.0","task_version":"prescreen-v0.3"},{"rt":9268,"responses":{"age":"24","gender-categorical":"Male","gender-free-response":"","ethnicity":"Not Hispanic or Latino","race":["White"],"education":"Bachelor degree"},"trial_type":"survey-demo","trial_index":1,"time_elapsed":15962,"internal_node_id":"0.0-1.0","task_version":"prescreen-v0.3"},{"responses":{"Q05":"2","Q06":"1","Q10":"1","Q11":"1","Q13":"1","Q14":"2","Q17":"2","Q18":"2","Q03":"1","Q04":"2","Q19":"2","Q09":"2","Q16":"2","Q08":"2","Q02":"0","Q01":"1","Q12":"2","Q15":"2","Q21":"2","Q20":"0","Q07":"1"},"rt":82534,"item_order":[4,5,9,10,12,13,16,17,2,3,18,8,15,7,1,0,11,14,20,19,6],"radio_events":[8962,13493,17958,20442,23087,25548,27823,33570,35387,40059,44751,47086,51549,54241,58206,60760,62272,67972,72799,75375,77921,81707],"key_events":[],"mouse_events":[8962,13493,17958,20442,23087,25548,27823,33570,35387,39554,40059,44751,47086,51549,53516,54241,58206,60760,62272,67618,67972,72799,75375,77921,81707,82533],"straightlining":0.5714285714285714,"zigzagging":0.35,"honeypot":0,"survey":"sns","trial_type":"survey-template","trial_index":2,"time_elapsed":98500,"internal_node_id":"0.0-2.0","task_version":"prescreen-v0.3","browser_interactions":0,"infrequency":0.5},{"responses":{"Q04":"3","Q02":"2","Q09":"1","Q10":"2","Q08":"2","Q03":"3","Q05":"2","Q12":"1","Q11":"1","Q07":"2","Q06":"2","Q13":"0","Q01":"3"},"rt":61611,"item_order":[3,1,8,9,7,2,4,11,10,6,5,12,0],"radio_events":[5293,7807,12202,15643,20139,25475,27610,31946,37898,40439,43626,46462,59741,60581],"key_events":[],"mouse_events":[5293,7228,7807,12202,15643,20139,25080,25475,27610,31946,37898,40439,43626,46462,59741,60581,61610],"straightlining":0.46153846153846156,"zigzagging":0.6666666666666666,"honeypot":0,"survey":"bisbas","trial_type":"survey-template","trial_index":3,"time_elapsed":160115,"internal_node_id":"0.0-3.0","task_version":"prescreen-v0.3","browser_interactions":0,"infrequency":0},{"responses":{"Q01":"4","Q02":"2","Q03":"3"},"rt":13401,"radio_events":[4715,8156,12782],"key_events":[],"mouse_events":[4715,8156,12782,13400],"survey":"map","page":1,"trial_type":"survey-map","trial_index":4,"time_elapsed":173518,"internal_node_id":"0.0-4.0","task_version":"prescreen-v0.3","browser_interactions":0},{"responses":{"Q04":"2","Q05":"3","Q06":"2"},"rt":17186,"radio_events":[7085,10204,16678],"key_events":[],"mouse_events":[7085,10204,16678,17185],"survey":"map","page":2,"trial_type":"survey-map","trial_index":5,"time_elapsed":190705,"internal_node_id":"0.0-5.0","task_version":"prescreen-v0.3","browser_interactions":0},{"responses":{"Q07":"4","Q08":"4","Q09":"2"},"rt":11771,"radio_events":[5055,8274,11251],"key_events":[],"mouse_events":[4300,5055,8274,11251,11770],"survey":"map","page":3,"trial_type":"survey-map","trial_index":6,"time_elapsed":202477,"internal_node_id":"0.0-6.0","task_version":"prescreen-v0.3","browser_interactions":0},{"responses":{"Q10":"2","Q11":"1","Q12":"1","Q13":"0","Q16":"0","Q14":"2","Q15":"1"},"rt":31892,"radio_events":[4187,6169,12371,21079,24841,27610,31072],"key_events":[],"mouse_events":[4187,6169,11794,12371,20528,21079,24841,27610,31072,31891],"survey":"map","page":4,"trial_type":"survey-map","trial_index":7,"time_elapsed":234371,"internal_node_id":"0.0-7.0","task_version":"prescreen-v0.3","browser_interactions":0,"infrequency":0},{"view_history":[{"page_index":0,"viewing_time":2088},{"page_index":1,"viewing_time":3678}],"rt":5766,"trial_type":"instructions","trial_index":8,"time_elapsed":240138,"internal_node_id":"0.0-8.0","task_version":"prescreen-v0.3"},{"responses":{"01":"Yes","01_ages_5":"5","01_ages_6":"6","01_ages_7":"7","01_ages_8":"8","01_ages_9":"9","01_ages_10":"10","01_ages_11":"11","01_ages_12":"12","01_ages_13":"13","01_ages_14":"14","01_ages_15":"15","01_ages_16":"16","01_ages_17":"17","01_ages_18":"18","02":"Yes","02_ages_7":"7","02_ages_8":"8","02_ages_9":"9","02_ages_10":"10","02_ages_11":"11","02_ages_12":"12","02_ages_13":"13","02_ages_14":"14","03":"No","04":"No","05":"No","06":"Yes","06_ages_5":"5","06_ages_6":"6","06_ages_7":"7","06_ages_8":"8","06_ages_9":"9","06_ages_10":"10"},"rt":48789,"item_order":[0,1,2,3,4,5],"radio_events":[6629,21175,36994,38454,39988,43751],"checkbox_events":[10453,11128,11682,12038,12618,12989,13471,13915,14397,14769,15266,15656,16122,16721,26160,26610,27210,27614,28065,28515,28963,29417,29821,30285,30793,31317,32531,32839,33296,34088,44980,45299,45596,46050,47249,48083],"key_events":[],"mouse_events":[2,6629,9769,10453,10837,11128,11682,12038,12618,12989,13471,13915,14397,14769,15266,15656,16122,16721,21175,26160,26610,26935,27210,27614,28065,28515,28963,29417,29821,30285,30793,31317,32531,32839,33296,34088,36994,38454,39988,43751,44980,45299,45596,46050,47249,48083,48787],"honeypot":0,"survey":"mace","page":1,"trial_type":"survey-mace","trial_index":9,"time_elapsed":288934,"internal_node_id":"0.0-9.0","task_version":"prescreen-v0.3","browser_interactions":0},{"responses":{"01":"No","02":"No","03":"No","04":"No","05":"No","06":"No","07":"No","08":"No"},"rt":24908,"item_order":[0,1,2,3,4,5,6,7],"radio_events":[2781,13056,14365,15582,19603,22112,23286,24220],"checkbox_events":[],"key_events":[],"mouse_events":[2781,13056,14365,15582,19603,22112,23286,24220,24906],"honeypot":0,"survey":"mace","page":2,"trial_type":"survey-mace","trial_index":10,"time_elapsed":313848,"internal_node_id":"0.0-10.0","task_version":"prescreen-v0.3","browser_interactions":0},{"responses":{"01":"No","02":"No","03":"No","04":"No"},"rt":12171,"item_order":[0,1,2,3],"radio_events":[6509,7565,10048,11629],"checkbox_events":[],"key_events":[],"mouse_events":[6509,7565,8841,10048,11629,12170],"honeypot":0,"survey":"mace","page":3,"trial_type":"survey-mace","trial_index":11,"time_elapsed":326024,"internal_node_id":"0.0-11.0","task_version":"prescreen-v0.3","browser_interactions":0},{"responses":{"01":"No","02":"No"},"rt":9209,"item_order":[0,1],"radio_events":[6099,8275],"checkbox_events":[],"key_events":[],"mouse_events":[6099,8275,9208],"honeypot":0,"survey":"mace","page":4,"trial_type":"survey-mace","trial_index":12,"time_elapsed":335234,"internal_node_id":"0.0-12.0","task_version":"prescreen-v0.3","browser_interactions":0},{"responses":{"01":"No","02":"No","03":"No","04":"No","05":"No"},"rt":18589,"item_order":[0,1,2,3,4],"radio_events":[11668,13119,14979,17134,18161],"checkbox_events":[],"key_events":[],"mouse_events":[11668,13119,14979,17134,18161,18588],"honeypot":0,"survey":"mace","page":5,"trial_type":"survey-mace","trial_index":13,"time_elapsed":353827,"internal_node_id":"0.0-13.0","task_version":"prescreen-v0.3","browser_interactions":0},{"responses":{"01":"Yes","01_ages_5":"5","01_ages_6":"6","01_ages_7":"7","01_ages_8":"8","01_ages_9":"9","01_ages_10":"10","01_ages_11":"11","01_ages_12":"12","01_ages_13":"13","01_ages_14":"14","01_ages_15":"15","02":"Yes","02_ages_5":"5","02_ages_6":"6","02_ages_7":"7","02_ages_8":"8","02_ages_9":"9","02_ages_10":"10","03":"No","04":"No","05":"No"},"rt":55842,"item_order":[0,1,2,3,4],"radio_events":[5345,16190,22795,53488,55499],"checkbox_events":[6753,7970,8350,8859,9304,9712,10184,11450,12104,12574,13020,17174,17505,17982,18288,18711,19165],"key_events":[],"mouse_events":[5345,6753,6988,7345,7669,7970,8350,8859,9304,9712,10184,11450,12104,12574,13020,16190,17174,17505,17982,18288,18711,19165,22795,27798,53488,54903,55499,55841],"honeypot":0,"survey":"mace","page":6,"trial_type":"survey-mace","trial_index":14,"time_elapsed":409674,"internal_node_id":"0.0-14.0","task_version":"prescreen-v0.3","browser_interactions":0},{"responses":{"01":"No","02":"No","03":"Yes","03_ages_6":"6","03_ages_7":"7","03_ages_8":"8","03_ages_9":"9","03_ages_10":"10","04":"No","05":"No","06":"No","07":"No"},"rt":18502,"item_order":[0,1,2,3,4,5,6],"radio_events":[3548,4698,8274,13661,15887,17237,17893],"checkbox_events":[9608,9921,11487,11790,12270],"key_events":[],"mouse_events":[3548,4698,8274,9608,9921,11487,11790,12270,13661,15887,17237,17893,18500],"honeypot":0,"survey":"mace","page":7,"trial_type":"survey-mace","trial_index":15,"time_elapsed":428181,"internal_node_id":"0.0-15.0","task_version":"prescreen-v0.3","browser_interactions":0},{"responses":{"01":"No","02":"No","03":"No","04":"No"},"rt":19274,"item_order":[0,1,2,3],"radio_events":[7631,8880,15857,18325,18905],"checkbox_events":[],"key_events":[],"mouse_events":[7631,8880,15857,18325,18905,19273],"honeypot":0,"survey":"mace","page":8,"trial_type":"survey-mace","trial_index":16,"time_elapsed":447458,"internal_node_id":"0.0-16.0","task_version":"prescreen-v0.3","browser_interactions":0},{"responses":{"01":"Yes","01_ages_1":"1","01_ages_2":"2","01_ages_3":"3","01_ages_4":"4","01_ages_5":"5","01_ages_6":"6","01_ages_7":"7","01_ages_8":"8","01_ages_9":"9","01_ages_10":"10","01_ages_11":"11","01_ages_12":"12","01_ages_13":"13","01_ages_14":"14","01_ages_15":"15","01_ages_16":"16","01_ages_17":"17","01_ages_18":"18","02":"Yes","02_ages_1":"1","02_ages_2":"2","02_ages_3":"3","02_ages_4":"4","02_ages_5":"5","02_ages_6":"6","02_ages_7":"7","02_ages_8":"8","02_ages_9":"9","02_ages_10":"10","02_ages_11":"11","02_ages_12":"12","02_ages_13":"13","02_ages_14":"14","02_ages_15":"15","02_ages_16":"16","02_ages_17":"17","02_ages_18":"18","03":"Yes","03_ages_1":"1","03_ages_2":"2","03_ages_3":"3","03_ages_4":"4","03_ages_5":"5","03_ages_6":"6","03_ages_7":"7","03_ages_8":"8","03_ages_9":"9","03_ages_10":"10","03_ages_11":"11","03_ages_12":"12","03_ages_13":"13","03_ages_14":"14","03_ages_15":"15","03_ages_16":"16","03_ages_17":"17","03_ages_18":"18","04":"Yes","04_ages_1":"1","04_ages_2":"2","04_ages_3":"3","04_ages_4":"4","04_ages_5":"5","04_ages_6":"6","04_ages_7":"7","04_ages_8":"8","04_ages_9":"9","04_ages_10":"10","04_ages_11":"11","04_ages_12":"12","04_ages_13":"13","04_ages_14":"14","04_ages_15":"15","04_ages_16":"16","04_ages_17":"17","04_ages_18":"18"},"rt":52176,"item_order":[0,1,2,3],"radio_events":[4145,18517,28918,42454],"checkbox_events":[6006,6363,6753,7264,7721,8284,8680,9050,9680,10069,10501,10965,11432,11948,12431,13018,13468,13985,19478,19827,20205,20587,20990,21346,21821,22182,22585,23089,23454,23817,24336,24677,25031,25372,25890,26478,31051,31468,31781,32180,32577,33042,33675,34041,34384,34798,35277,35596,36069,36626,37029,37591,38161,38442,43299,43920,44285,44652,45162,45561,46216,46719,47228,47707,48256,48788,49245,49813,50362,51070,51486,51829],"key_events":[],"mouse_events":[4145,5589,6006,6363,6753,7264,7721,8284,8680,9050,9680,10069,10501,10965,11432,11948,12431,13018,13468,13985,18517,19478,19827,20205,20587,20990,21346,21821,22182,22585,23089,23454,23817,24336,24677,25031,25372,25890,26203,26478,28918,31051,31468,31781,32180,32577,33042,33411,33675,34041,34384,34798,35277,35596,36069,36626,37029,37591,37887,38161,38442,42454,43299,43920,44285,44652,45162,45561,46216,46719,47228,47707,48256,48788,49245,49813,50362,51070,51486,51829,52175],"honeypot":0,"survey":"mace","page":9,"trial_type":"survey-mace","trial_index":17,"time_elapsed":499640,"internal_node_id":"0.0-17.0","task_version":"prescreen-v0.3","browser_interactions":0},{"responses":{"01":"No","02":"No","03":"No","04":"No","05":"No","06":"Yes","06_ages_17":"17","07":"Yes","07_ages_1":"1","07_ages_2":"2","07_ages_3":"3","07_ages_4":"4","07_ages_5":"5","07_ages_6":"6","07_ages_7":"7","07_ages_8":"8","07_ages_9":"9","07_ages_10":"10","07_ages_11":"11","07_ages_12":"12","07_ages_13":"13","07_ages_14":"14","07_ages_15":"15","07_ages_16":"16","07_ages_17":"17","07_ages_18":"18","08":"Yes","08_ages_1":"1","08_ages_2":"2","08_ages_3":"3","08_ages_4":"4","08_ages_5":"5","08_ages_6":"6","08_ages_7":"7","08_ages_8":"8","08_ages_9":"9","08_ages_10":"10","08_ages_11":"11","08_ages_12":"12","08_ages_13":"13","08_ages_14":"14","08_ages_15":"15","08_ages_16":"16","08_ages_17":"17","08_ages_18":"18"},"rt":38241,"item_order":[0,1,2,3,4,5,6,7],"radio_events":[3683,4208,6335,7553,8928,11242,15651,29342],"checkbox_events":[12751,17732,18097,19115,20073,20426,21371,21808,22294,22740,23180,23640,24095,24664,25050,25606,26134,27148,27620,30462,30791,31227,31608,32078,32422,32836,33270,33808,34187,34556,34938,35644,36082,36486,36914,37438,37816],"key_events":[],"mouse_events":[3683,4208,6335,7553,8928,11242,12751,15651,17732,18097,18501,19115,20073,20426,21371,21808,22294,22740,23180,23640,24095,24664,25050,25606,26134,27148,27620,29342,30462,30791,31227,31608,32078,32422,32836,33270,33808,34187,34556,34938,35321,35644,36082,36486,36914,37438,37816,38239],"honeypot":0,"survey":"mace","page":10,"trial_type":"survey-mace","trial_index":18,"time_elapsed":537887,"internal_node_id":"0.0-18.0","task_version":"prescreen-v0.3","browser_interactions":0,"instructed":0},{"rt":2739,"trial_type":"mental-health-alert","trial_index":19,"time_elapsed":540627,"internal_node_id":"0.0-19.0","task_version":"prescreen-v0.3","interactions":"[{\"event\":\"focus\",\"trial\":0,\"time\":2}]"}]