[{"view_history":[{"page_index":0,"viewing_time":1632.2999999970198},{"page_index":1,"viewing_time":1991.2999999970198},{"page_index":2,"viewing_time":2289.7000000029802},{"page_index":3,"viewing_time":814.6000000089407}],"rt":6728.9000000059605,"trial_type":"instructions","trial_index":0,"time_elapsed":6748,"internal_node_id":"0.0-0.0","task_version":"prescreen-v0.3"},{"rt":11343.60000000894,"responses":{"age":"22","gender-categorical":"Rather not say","gender-free-response":"","ethnicity":"Rather not say","race":["Rather not say"],"education":"Rather not say","siblings":"1"},"trial_type":"survey-demo","trial_index":1,"time_elapsed":18102,"internal_node_id":"0.0-1.0","task_version":"prescreen-v0.3"},{"responses":{"Q13":"2","Q05":"2","Q09":"1","Q04":"2","Q15":"2","Q07":"0","Q12":"1","Q08":"1","Q18":"1","Q17":"1","Q10":"1","Q03":"1","Q02":"1","Q16":"2","Q11":"1","Q01":"2","Q21":"2","Q19":"1","Q20":"1","Q06":"1","Q14":"3"},"rt":60447.40000000596,"item_order":[12,4,8,3,14,6,11,7,17,16,9,2,1,15,10,0,20,18,19,5,13],"radio_events":[14690.60000000894,17900.5,20601.80000001192,24244.40000000596,24576.20000000298,26509.80000001192,29678,34211.60000000894,34770.10000000894,37976.70000000298,39114.20000000298,40113.70000000298,40644.80000001192,43758.30000001192,47393.90000000596,48338.5,49878.40000000596,54087.5,56914.90000000596,57835.10000000894,59190.10000000894,59843.60000000894],"key_events":[],"mouse_events":[13916.800000011921,14690.60000000894,15738.60000000894,17900.5,20601.80000001192,22123.5,22873.60000000894,24244.40000000596,24576.20000000298,26509.80000001192,29678,30357.5,32920.60000000894,34211.60000000894,34770.10000000894,37976.70000000298,39114.20000000298,40113.70000000298,40644.80000001192,41654.5,43758.30000001192,46554.60000000894,47393.90000000596,48338.5,49878.40000000596,53611.10000000894,54087.5,55594.40000000596,56914.90000000596,57835.10000000894,59190.10000000894,59843.60000000894,60440.70000000298],"straightlining":0.5714285714285714,"zigzagging":0.35,"honeypot":0,"survey":"sns","trial_type":"survey-template","trial_index":2,"time_elapsed":78566,"internal_node_id":"0.0-2.0","task_version":"prescreen-v0.3","browser_interactions":0,"infrequency":0.5},{"responses":{"Q06":"2","Q07":"2","Q05":"2","Q13":"0","Q02":"2","Q11":"1","Q01":"2","Q12":"1","Q08":"1","Q04":"2","Q10":"2","Q03":"2","Q09":"1"},"rt":31148.59999999404,"item_order":[5,6,4,12,1,10,0,11,7,3,9,2,8],"radio_events":[2237.5,2769.7000000029802,5324.9000000059605,7002.4000000059605,9953.5,11823.09999999404,13071.90000000596,16860.5,19730.5,22214.09999999404,25567.79999999702,28124.20000000298,30485.20000000298],"key_events":[],"mouse_events":[2237.5,2769.7000000029802,3809,4655.70000000298,5324.9000000059605,6049.5999999940395,7002.4000000059605,8573.09999999404,9953.5,10549.90000000596,11823.09999999404,13071.90000000596,16860.5,19730.5,22214.09999999404,24752.79999999702,25567.79999999702,28124.20000000298,30485.20000000298,31145.70000000298],"straightlining":0.6153846153846154,"zigzagging":0.4166666666666667,"honeypot":0,"survey":"bisbas","trial_type":"survey-template","trial_index":3,"time_elapsed":109725,"internal_node_id":"0.0-3.0","task_version":"prescreen-v0.3","browser_interactions":0,"infrequency":0},{"responses":{"Q01":"3","Q02":"2","Q03":"2"},"rt":8172,"radio_events":[4332.70000000298,5486.600000008941,7639.5],"key_events":[],"mouse_events":[4332.70000000298,5486.600000008941,7639.5,8170.600000008941],"survey":"map","page":1,"trial_type":"survey-map","trial_index":4,"time_elapsed":117907,"internal_node_id":"0.0-4.0","task_version":"prescreen-v0.3","browser_interactions":0},{"responses":{"Q04":"2","Q05":"2","Q06":"2"},"rt":5729.70000000298,"radio_events":[2867.2999999970198,4191.70000000298,4947.5],"key_events":[],"mouse_events":[2867.2999999970198,4191.70000000298,4947.5,5728.600000008941],"survey":"map","page":2,"trial_type":"survey-map","trial_index":5,"time_elapsed":123645,"internal_node_id":"0.0-5.0","task_version":"prescreen-v0.3","browser_interactions":0},{"responses":{"Q07":"1","Q08":"0","Q09":"3"},"rt":14513.5,"radio_events":[10523.29999999702,12416.199999988079,14028.29999999702],"key_events":[],"mouse_events":[10523.29999999702,12416.199999988079,14028.29999999702,14512.09999999404],"survey":"map","page":3,"trial_type":"survey-map","trial_index":6,"time_elapsed":138165,"internal_node_id":"0.0-6.0","task_version":"prescreen-v0.3","browser_interactions":0},{"responses":{"Q10":"2","Q11":"3","Q12":"2","Q13":"2","Q16":"0","Q14":"2","Q15":"2"},"rt":19105.59999999404,"radio_events":[2326.7999999970198,4246.5,6937.79999999702,9486.89999999106,13887.09999999404,16966.20000000298,18338.5],"key_events":[],"mouse_events":[2326.7999999970198,4246.5,6937.79999999702,9486.89999999106,13260,13887.09999999404,16966.20000000298,18338.5,19102.89999999106],"survey":"map","page":4,"trial_type":"survey-map","trial_index":7,"time_elapsed":157280,"internal_node_id":"0.0-7.0","task_version":"prescreen-v0.3","browser_interactions":0,"infrequency":0},{"view_history":[{"page_index":0,"viewing_time":1434.2000000029802},{"page_index":1,"viewing_time":1353.2999999970198}],"rt":2787.9000000059605,"trial_type":"instructions","trial_index":8,"time_elapsed":160075,"internal_node_id":"0.0-8.0","task_version":"prescreen-v0.3"},{"responses":{"01":"No","02":"No","03":"No","04":"No","05":"No","06":"No"},"rt":17773.60000000894,"item_order":[0,1,2,3,4,5],"radio_events":[11350.29999999702,12686.20000000298,14168.79999999702,15135.90000000596,16289.10000000894,16942],"checkbox_events":[],"key_events":[],"mouse_events":[0.29999999701976776,11350.29999999702,12686.20000000298,14168.79999999702,15135.90000000596,16289.10000000894,16942,17765.70000000298],"honeypot":0,"survey":"mace","page":1,"trial_type":"survey-mace","trial_index":9,"time_elapsed":177859,"internal_node_id":"0.0-9.0","task_version":"prescreen-v0.3","browser_interactions":0},{"responses":{"01":"No","02":"No","03":"No","04":"No","05":"No","06":"No","07":"No","08":"No"},"rt":11643.90000000596,"item_order":[0,1,2,3,4,5,6,7],"radio_events":[4996.70000000298,5495.800000011921,6592.800000011921,7278.100000008941,8392.20000000298,9817.70000000298,10711.800000011921,11122.70000000298],"checkbox_events":[],"key_events":[],"mouse_events":[4996.70000000298,5495.800000011921,6592.800000011921,7278.100000008941,8392.20000000298,9817.70000000298,10711.800000011921,11122.70000000298,11631.800000011921],"honeypot":0,"survey":"mace","page":2,"trial_type":"survey-mace","trial_index":10,"time_elapsed":189513,"internal_node_id":"0.0-10.0","task_version":"prescreen-v0.3","browser_interactions":0},{"responses":{"01":"No","02":"No","03":"No","04":"No"},"rt":14197.40000000596,"item_order":[0,1,2,3],"radio_events":[2711.2000000029802,12901.79999999702,13401.20000000298,13731.29999999702],"checkbox_events":[],"key_events":[],"mouse_events":[2711.2000000029802,10443.29999999702,10893.60000000894,11459.20000000298,12103.60000000894,12514.5,12901.79999999702,13401.20000000298,13731.29999999702,14191.60000000894],"honeypot":0,"survey":"mace","page":3,"trial_type":"survey-mace","trial_index":11,"time_elapsed":203721,"internal_node_id":"0.0-11.0","task_version":"prescreen-v0.3","browser_interactions":0},{"responses":{"01":"No","02":"No"},"rt":5512.600000008941,"item_order":[0,1],"radio_events":[4439.100000008941,4898.29999999702],"checkbox_events":[],"key_events":[],"mouse_events":[4439.100000008941,4898.29999999702,5509.9000000059605],"honeypot":0,"survey":"mace","page":4,"trial_type":"survey-mace","trial_index":12,"time_elapsed":209241,"internal_node_id":"0.0-12.0","task_version":"prescreen-v0.3","browser_interactions":0},{"responses":{"01":"No","02":"No","03":"No","04":"No","05":"No"},"rt":12006.70000000298,"item_order":[0,1,2,3,4],"radio_events":[6285.0999999940395,6975.79999999702,8532.40000000596,9306.70000000298,11434],"checkbox_events":[],"key_events":[],"mouse_events":[6285.0999999940395,6975.79999999702,8073.5999999940395,8532.40000000596,9306.70000000298,10208.09999999404,11434,11999.09999999404],"honeypot":0,"survey":"mace","page":5,"trial_type":"survey-mace","trial_index":13,"time_elapsed":221258,"internal_node_id":"0.0-13.0","task_version":"prescreen-v0.3","browser_interactions":0},{"responses":{"01":"Yes","01_ages_10":"10","01_ages_13":"13","01_ages_14":"14","02":"Yes","02_ages_14":"14","02_ages_15":"15","02_ages_16":"16","02_ages_17":"17","02_ages_18":"18","03":"No","04":"Yes","04_ages_16":"16","04_ages_17":"17","05":"No"},"rt":40614.70000000298,"item_order":[0,1,2,3,4],"radio_events":[6787.800000011921,24218.10000000894,36246.10000000894,36818.20000000298,40123.40000000596],"checkbox_events":[14416.40000000596,14746.70000000298,18388.80000001192,19091,19503.80000001192,29967.90000000596,30418.60000000894,30870.60000000894,31354.60000000894,31789.20000000298,37963.5,38462.80000001192],"key_events":[],"mouse_events":[6787.800000011921,14416.40000000596,14746.70000000298,18388.80000001192,19091,19503.80000001192,24218.10000000894,29967.90000000596,30418.60000000894,30870.60000000894,31354.60000000894,31789.20000000298,35561,36246.10000000894,36818.20000000298,37963.5,38462.80000001192,40123.40000000596,40607.80000001192],"honeypot":0,"survey":"mace","page":6,"trial_type":"survey-mace","trial_index":14,"time_elapsed":261883,"internal_node_id":"0.0-14.0","task_version":"prescreen-v0.3","browser_interactions":0},{"responses":{"01":"Yes","01_ages_12":"12","01_ages_13":"13","02":"No","03":"No","04":"No","05":"No","06":"No","07":"No"},"rt":18124.70000000298,"item_order":[0,1,2,3,4,5,6],"radio_events":[4843.70000000298,10011.5,12607,15532.40000000596,16524.40000000596,16894.40000000596,17515.70000000298],"checkbox_events":[6289.300000011921,6795,7069.100000008941,7713.20000000298],"key_events":[],"mouse_events":[4055.7000000029802,4843.70000000298,6289.300000011921,6795,7069.100000008941,7713.20000000298,10011.5,11993.70000000298,12607,13935.5,14895.10000000894,15532.40000000596,16015.300000011921,16524.40000000596,16894.40000000596,17515.70000000298,18112.20000000298],"honeypot":0,"survey":"mace","page":7,"trial_type":"survey-mace","trial_index":15,"time_elapsed":280021,"internal_node_id":"0.0-15.0","task_version":"prescreen-v0.3","browser_interactions":0},{"responses":{"01":"No","02":"No","03":"Yes","03_ages_15":"15","03_ages_16":"16","03_ages_17":"17","03_ages_18":"18","04":"No"},"rt":27306,"item_order":[0,1,2,3],"radio_events":[7517.70000000298,13670.70000000298,17813.30000001192,26583.20000000298],"checkbox_events":[22682.5,23102.60000000894,23479.90000000596,23827.10000000894],"key_events":[],"mouse_events":[7517.70000000298,13670.70000000298,17813.30000001192,22682.5,23102.60000000894,23479.90000000596,23827.10000000894,25446.40000000596,26149,26583.20000000298,27300.10000000894],"honeypot":0,"survey":"mace","page":8,"trial_type":"survey-mace","trial_index":16,"time_elapsed":307337,"internal_node_id":"0.0-16.0","task_version":"prescreen-v0.3","browser_interactions":0},{"responses":{"01":"Yes","01_ages_1":"1","01_ages_2":"2","01_ages_3":"3","01_ages_4":"4","01_ages_5":"5","01_ages_6":"6","01_ages_7":"7","01_ages_8":"8","01_ages_9":"9","01_ages_10":"10","01_ages_11":"11","01_ages_12":"12","01_ages_13":"13","01_ages_14":"14","01_ages_15":"15","01_ages_16":"16","01_ages_17":"17","01_ages_18":"18","02":"Yes","02_ages_1":"1","02_ages_2":"2","02_ages_3":"3","02_ages_4":"4","02_ages_5":"5","02_ages_6":"6","02_ages_7":"7","02_ages_8":"8","02_ages_9":"9","02_ages_10":"10","02_ages_11":"11","02_ages_12":"12","02_ages_13":"13","02_ages_14":"14","02_ages_15":"15","02_ages_16":"16","02_ages_17":"17","02_ages_18":"18","03":"Yes","03_ages_1":"1","03_ages_2":"2","03_ages_3":"3","03_ages_4":"4","03_ages_5":"5","03_ages_6":"6","03_ages_7":"7","03_ages_8":"8","03_ages_9":"9","03_ages_10":"10","03_ages_11":"11","03_ages_12":"12","03_ages_13":"13","03_ages_14":"14","03_ages_15":"15","03_ages_16":"16","03_ages_17":"17","03_ages_18":"18","04":"Yes","04_ages_1":"1","04_ages_2":"2","04_ages_3":"3","04_ages_4":"4","04_ages_5":"5","04_ages_6":"6","04_ages_7":"7","04_ages_8":"8","04_ages_9":"9","04_ages_10":"10","04_ages_11":"11","04_ages_12":"12","04_ages_13":"13","04_ages_14":"14","04_ages_15":"15","04_ages_16":"16","04_ages_17":"17","04_ages_18":"18"},"rt":59543.70000000298,"item_order":[0,1,2,3],"radio_events":[2395.2999999970198,18250.39999999106,27270.09999999404,48374.29999999702],"checkbox_events":[5372.0999999940395,5709.70000000298,6039.0999999940395,6450.5,7619.29999999702,7934.5,8335.89999999106,8823.79999999702,9158.70000000298,9909.59999999404,11189.79999999702,11510.79999999702,12551.70000000298,12881.39999999106,14150.20000000298,14534.89999999106,14867.09999999404,15172.59999999404,15987,16326,16672.09999999404,19355.5,19628.20000000298,20724.09999999404,21168.5,21782.29999999702,22175,22587.89999999106,22916.70000000298,23328.20000000298,23674.39999999106,24029.79999999702,24385.29999999702,24836.70000000298,25545.59999999404,26474.20000000298,28245,28577.09999999404,28956,29389.70000000298,29891.29999999702,31083,31640.29999999702,32276.5,33067.09999999404,33380.20000000298,34275.89999999106,34678.59999999404,34994.59999999404,35347.59999999404,35717.5,36097.20000000298,38393.79999999702,39240.70000000298,39525.89999999106,39845.79999999702,40941.89999999106,41538,44804.09999999404,45085.70000000298,45545.79999999702,46599.70000000298,47004.5,47376.5,49946.09999999404,50235.79999999702,50792.09999999404,51227.70000000298,51953.20000000298,52292,52661.20000000298,53090.29999999702,53404.20000000298,54015.59999999404,54292.20000000298,54894.59999999404,55693.5,56007.09999999404,56361,56796.89999999106,57724.09999999404,58054.59999999404,58682.79999999702,59103.29999999702],"key_events":[],"mouse_events":[2395.2999999970198,4482.5,4724.899999991059,5073.5,5372.0999999940395,5709.70000000298,6039.0999999940395,6450.5,6830.20000000298,7288.29999999702,7619.29999999702,7934.5,8335.89999999106,8823.79999999702,9158.70000000298,9634.20000000298,9909.59999999404,10254,10584.70000000298,10917.20000000298,11189.79999999702,11510.79999999702,11947.59999999404,12551.70000000298,12881.39999999106,13317.79999999702,13826.79999999702,14150.20000000298,14534.89999999106,14867.09999999404,15172.59999999404,15987,16326,16672.09999999404,18250.39999999106,19355.5,19628.20000000298,19952,20467.79999999702,20724.09999999404,21168.5,21498.70000000298,21782.29999999702,22175,22587.89999999106,22916.70000000298,23328.20000000298,23674.39999999106,24029.79999999702,24385.29999999702,24836.70000000298,25263.89999999106,25545.59999999404,25876.59999999404,26474.20000000298,27270.09999999404,28245,28577.09999999404,28956,29389.70000000298,29891.29999999702,30293.09999999404,30704.89999999106,31083,31640.29999999702,32276.5,32711,33067.09999999404,33380.20000000298,33687.79999999702,34017.09999999404,34275.89999999106,34678.59999999404,34994.59999999404,35347.59999999404,35717.5,36097.20000000298,36411.89999999106,38393.79999999702,39240.70000000298,39525.89999999106,39845.79999999702,40941.89999999106,41538,44804.09999999404,45085.70000000298,45545.79999999702,46599.70000000298,47004.5,47376.5,48374.29999999702,49501.20000000298,49946.09999999404,50235.79999999702,50792.09999999404,51227.70000000298,51597.20000000298,51953.20000000298,52292,52661.20000000298,53090.29999999702,53404.20000000298,54015.59999999404,54292.20000000298,54894.59999999404,55248.5,55693.5,56007.09999999404,56361,56796.89999999106,57127.5,57724.09999999404,58054.59999999404,58682.79999999702,59103.29999999702,59537.79999999702],"honeypot":0,"survey":"mace","page":9,"trial_type":"survey-mace","trial_index":17,"time_elapsed":366892,"internal_node_id":"0.0-17.0","task_version":"prescreen-v0.3","browser_interactions":0},{"responses":{"01":"No","02":"No","03":"No","04":"No","05":"No","06":"Yes","06_ages_17":"17","07":"Yes","07_ages_1":"1","07_ages_2":"2","07_ages_3":"3","07_ages_4":"4","07_ages_5":"5","07_ages_6":"6","07_ages_7":"7","07_ages_8":"8","07_ages_9":"9","07_ages_10":"10","07_ages_11":"11","07_ages_12":"12","07_ages_13":"13","07_ages_14":"14","07_ages_15":"15","07_ages_16":"16","07_ages_17":"17","07_ages_18":"18","08":"Yes","08_ages_1":"1","08_ages_2":"2","08_ages_3":"3","08_ages_4":"4","08_ages_5":"5","08_ages_6":"6","08_ages_7":"7","08_ages_8":"8","08_ages_9":"9","08_ages_10":"10","08_ages_11":"11","08_ages_12":"12","08_ages_13":"13","08_ages_14":"14","08_ages_15":"15","08_ages_16":"16","08_ages_17":"17","08_ages_18":"18"},"rt":37058.20000000298,"item_order":[0,1,2,3,4,5,6,7],"radio_events":[2759.2000000029802,3547.7000000029802,4637.0999999940395,5443.9000000059605,7166.4000000059605,11302.79999999702,13221,25479.79999999702],"checkbox_events":[9318.90000000596,14833,15326.59999999404,16146,16544,17041.5,17452.59999999404,18307.29999999702,18782,19661,19952.09999999404,20735,21087.79999999702,21474.70000000298,21902.09999999404,22337.29999999702,23788.5,24063.29999999702,24771.40000000596,27351.90000000596,27995.29999999702,28625.59999999404,28987.5,29397.40000000596,29832.20000000298,30280.29999999702,30638.20000000298,31413.09999999404,32171.5,32477.90000000596,33203.20000000298,33509.29999999702,33935.79999999702,34573.90000000596,35411.09999999404,35792.09999999404,36217.40000000596],"key_events":[],"mouse_events":[2419.7999999970198,2759.2000000029802,3547.7000000029802,4637.0999999940395,5443.9000000059605,7166.4000000059605,9318.90000000596,11302.79999999702,13221,14833,15326.59999999404,16146,16544,17041.5,17452.59999999404,17823.29999999702,18307.29999999702,18782,19204.5,19661,19952.09999999404,20315.20000000298,20735,21087.79999999702,21474.70000000298,21902.09999999404,22337.29999999702,22732.90000000596,23240.59999999404,23788.5,24063.29999999702,24499.29999999702,24771.40000000596,25479.79999999702,26915.90000000596,27351.90000000596,27643.70000000298,27995.29999999702,28625.59999999404,28987.5,29397.40000000596,29832.20000000298,30280.29999999702,30638.20000000298,31034.79999999702,31413.09999999404,31760.20000000298,32171.5,32477.90000000596,32863.79999999702,33203.20000000298,33509.29999999702,33935.79999999702,34281.59999999404,34573.90000000596,34968.40000000596,35411.09999999404,35792.09999999404,36217.40000000596,37046.29999999702],"honeypot":0,"survey":"mace","page":10,"trial_type":"survey-mace","trial_index":18,"time_elapsed":403960,"internal_node_id":"0.0-18.0","task_version":"prescreen-v0.3","browser_interactions":0,"instructed":0},{"rt":1937.7000000029802,"trial_type":"mental-health-alert","trial_index":19,"time_elapsed":405900,"internal_node_id":"0.0-19.0","task_version":"prescreen-v0.3","interactions":"[]"}]