[{"view_history":[{"page_index":0,"viewing_time":3343.10000000149},{"page_index":1,"viewing_time":4341.0999999996275},{"page_index":2,"viewing_time":3375.199999999255},{"page_index":3,"viewing_time":1001.3000000007451}],"rt":12061.200000001118,"trial_type":"instructions","trial_index":0,"time_elapsed":12072,"internal_node_id":"0.0-0.0","task_version":"prescreen-v0.3"},{"rt":12383.400000000373,"responses":{"age":"42","gender-categorical":"Male","gender-free-response":"","ethnicity":"Hispanic or Latino","race":["Rather not say"],"education":"Master degree or higher","siblings":"1"},"trial_type":"survey-demo","trial_index":1,"time_elapsed":24459,"internal_node_id":"0.0-1.0","task_version":"prescreen-v0.3"},{"responses":{"Q15":"2","Q01":"2","Q17":"2","Q03":"2","Q13":"2","Q16":"2","Q12":"1","Q09":"2","Q20":"1","Q19":"2","Q06":"1","Q04":"3","Q07":"2","Q14":"1","Q08":"2","Q11":"2","Q02":"2","Q21":"3","Q18":"2","Q05":"1","Q10":"1"},"rt":88401,"item_order":[14,0,16,2,12,15,11,8,19,18,5,3,6,13,7,10,1,20,17,4,9],"radio_events":[9129.900000000373,10333,12808.400000000373,15002.200000001118,20188.400000000373,23293.400000000373,26139.5,29998.300000000745,32934.90000000037,38458.70000000112,43048.90000000037,46041.40000000037,50575.40000000037,57517,60520.60000000149,63152.5,66055.80000000075,68924.10000000149,72760.80000000075,76079.5,83324.70000000112,87644.60000000149],"key_events":[],"mouse_events":[9129.900000000373,10333,12808.400000000373,15002.200000001118,15722.60000000149,18715.10000000149,20188.400000000373,20987.5,23293.400000000373,26139.5,29998.300000000745,31911.5,32934.90000000037,38458.70000000112,43048.90000000037,46041.40000000037,50575.40000000037,57517,60520.60000000149,63152.5,66055.80000000075,68924.10000000149,72760.80000000075,76079.5,83324.70000000112,87644.60000000149,88398.80000000075],"straightlining":0.6190476190476191,"zigzagging":0.55,"honeypot":0,"survey":"sns","trial_type":"survey-template","trial_index":2,"time_elapsed":112864,"internal_node_id":"0.0-2.0","task_version":"prescreen-v0.3","browser_interactions":0,"infrequency":0},{"responses":{"Q05":"2","Q10":"2","Q11":"2","Q02":"2","Q01":"3","Q13":"0","Q12":"2","Q03":"2","Q07":"3","Q06":"3","Q04":"2","Q09":"2","Q08":"2"},"rt":47055.199999999255,"item_order":[4,9,10,1,0,12,11,2,6,5,3,8,7],"radio_events":[4066.199999999255,5270.199999999255,13313.799999998882,15946.400000000373,20153.799999998882,22539.400000000373,28626.199999999255,32709,37085.40000000037,39459.199999999255,41923.40000000037,44454.29999999888,46456.79999999888],"key_events":[],"mouse_events":[4066.199999999255,5270.199999999255,11682.400000000373,12211.5,13313.799999998882,15946.400000000373,17487.699999999255,18241.099999999627,20153.799999998882,21841.599999999627,22539.400000000373,28163.900000000373,28626.199999999255,32709,36208,37085.40000000037,39459.199999999255,41923.40000000037,44454.29999999888,45737.199999999255,46456.79999999888,47053.29999999888],"straightlining":0.6923076923076923,"zigzagging":0.3333333333333333,"honeypot":0,"survey":"bisbas","trial_type":"survey-template","trial_index":3,"time_elapsed":159922,"internal_node_id":"0.0-3.0","task_version":"prescreen-v0.3","browser_interactions":0,"infrequency":0},{"responses":{"Q01":"2","Q02":"1","Q03":"1"},"rt":11436.300000000745,"radio_events":[3751.5999999996275,7115.5999999996275,10603],"key_events":[],"mouse_events":[3751.5999999996275,4617.9000000003725,7115.5999999996275,9680.5,10603,11435.599999999627],"survey":"map","page":1,"trial_type":"survey-map","trial_index":4,"time_elapsed":171362,"internal_node_id":"0.0-4.0","task_version":"prescreen-v0.3","browser_interactions":0},{"responses":{"Q04":"1","Q05":"1","Q06":"1"},"rt":11235.900000000373,"radio_events":[6105.300000000745,8805.300000000745,10380.700000001118],"key_events":[],"mouse_events":[6105.300000000745,8231.800000000745,8805.300000000745,10380.700000001118,11235.300000000745],"survey":"map","page":2,"trial_type":"survey-map","trial_index":5,"time_elapsed":182600,"internal_node_id":"0.0-5.0","task_version":"prescreen-v0.3","browser_interactions":0},{"responses":{"Q07":"4","Q08":"4","Q09":"4"},"rt":19212.800000000745,"radio_events":[6522,12226.300000000745,18233.800000000745],"key_events":[],"mouse_events":[6522,12226.300000000745,18233.800000000745,19212.200000001118],"survey":"map","page":3,"trial_type":"survey-map","trial_index":6,"time_elapsed":201815,"internal_node_id":"0.0-6.0","task_version":"prescreen-v0.3","browser_interactions":0},{"responses":{"Q10":"0","Q11":"1","Q12":"2","Q13":"2","Q16":"0","Q14":"1","Q15":"1"},"rt":37202.59999999963,"radio_events":[10167,12777.599999999627,16039.599999999627,19223.400000000373,22249.700000001118,32409,36200.59999999963],"key_events":[],"mouse_events":[10167,12777.599999999627,16039.599999999627,19223.400000000373,22249.700000001118,32409,36200.59999999963,37201.5],"survey":"map","page":4,"trial_type":"survey-map","trial_index":7,"time_elapsed":239020,"internal_node_id":"0.0-7.0","task_version":"prescreen-v0.3","browser_interactions":0,"infrequency":0},{"view_history":[{"page_index":0,"viewing_time":2336.2999999988824},{"page_index":1,"viewing_time":4860.0999999996275}],"rt":7197,"trial_type":"instructions","trial_index":8,"time_elapsed":246219,"internal_node_id":"0.0-8.0","task_version":"prescreen-v0.3"},{"responses":{"01":"Yes","01_ages_11":"11","01_ages_12":"12","01_ages_13":"13","01_ages_14":"14","01_ages_15":"15","01_ages_16":"16","01_ages_17":"17","01_ages_18":"18","02":"Yes","02_ages_11":"11","02_ages_12":"12","02_ages_13":"13","02_ages_14":"14","02_ages_15":"15","02_ages_16":"16","02_ages_17":"17","02_ages_18":"18","03":"Yes","03_ages_15":"15","03_ages_16":"16","03_ages_17":"17","03_ages_18":"18","04":"Yes","04_ages_13":"13","05":"No","06":"Yes","06_ages_8":"8","06_ages_9":"9","06_ages_10":"10","06_ages_11":"11","06_ages_12":"12","06_ages_13":"13","06_ages_14":"14","06_ages_15":"15","06_ages_16":"16","06_ages_17":"17","06_ages_18":"18"},"rt":61661.800000000745,"item_order":[0,1,2,3,4,5],"radio_events":[8466.599999999627,26680.900000000373,36209.70000000112,40946.300000000745,48765.20000000112,52173.800000000745],"checkbox_events":[17129.400000000373,17669.300000000745,18220.599999999627,18592,18940.599999999627,19356.700000001118,19930.700000001118,21922.099999999627,28098.099999999627,28975.800000000745,30832.099999999627,31349.599999999627,31788.200000001118,32159.5,32655.900000000373,33341,38032.40000000037,38594.70000000112,39135,39674.59999999963,46604.90000000037,54896.59999999963,55425.20000000112,55863.90000000037,56268.70000000112,56764,57123.70000000112,57720.40000000037,58271.70000000112,59430.300000000745,60195.09999999963,60690.300000000745],"key_events":[],"mouse_events":[0.09999999962747097,8466.599999999627,17129.400000000373,17669.300000000745,18220.599999999627,18592,18940.599999999627,19356.700000001118,19930.700000001118,21922.099999999627,26680.900000000373,28098.099999999627,28975.800000000745,30832.099999999627,31349.599999999627,31788.200000001118,32159.5,32655.900000000373,33341,36209.70000000112,38032.40000000037,38594.70000000112,39135,39674.59999999963,40946.300000000745,46604.90000000037,48765.20000000112,52173.800000000745,54896.59999999963,55425.20000000112,55863.90000000037,56268.70000000112,56764,57123.70000000112,57720.40000000037,58271.70000000112,59081.90000000037,59430.300000000745,60195.09999999963,60690.300000000745,61658.5],"honeypot":0,"survey":"mace","page":1,"trial_type":"survey-mace","trial_index":9,"time_elapsed":307866,"internal_node_id":"0.0-9.0","task_version":"prescreen-v0.3","browser_interactions":0},{"responses":{"01":"No","02":"No","03":"Yes","03_ages_8":"8","03_ages_9":"9","03_ages_10":"10","03_ages_11":"11","03_ages_12":"12","03_ages_13":"13","03_ages_14":"14","03_ages_15":"15","03_ages_16":"16","03_ages_17":"17","04":"No","05":"No","06":"No","07":"Yes","07_ages_6":"6","07_ages_7":"7","07_ages_8":"8","07_ages_9":"9","07_ages_10":"10","08":"No"},"rt":47855.20000000112,"item_order":[0,1,2,3,4,5,6,7],"radio_events":[3288.10000000149,4874.60000000149,6337,16957.400000000373,19330.800000000745,21164.60000000149,22514.700000001118,26013.60000000149,46983.90000000037],"checkbox_events":[7630.60000000149,8159.800000000745,9115.800000000745,9588.10000000149,10173.10000000149,10623.700000001118,11320.800000000745,11804.60000000149,12445.900000000373,13019.300000000745,28769.800000000745,29309.800000000745,30007.700000001118,30648.800000000745,31132.400000000373,31469.900000000373,32291.400000000373,33033.90000000037,33956.40000000037,34496.300000000745,35475.10000000149,35981.60000000149,36521.5,39616.60000000149,40436.20000000112,41021.20000000112,41527.60000000149,42056.60000000149,42664.10000000149,43305.20000000112,44070.10000000149],"key_events":[],"mouse_events":[3288.10000000149,4874.60000000149,6337,7630.60000000149,8159.800000000745,8733.5,9115.800000000745,9588.10000000149,10173.10000000149,10623.700000001118,11320.800000000745,11804.60000000149,12445.900000000373,13019.300000000745,16957.400000000373,19330.800000000745,21164.60000000149,22514.700000001118,26013.60000000149,28769.800000000745,29309.800000000745,30007.700000001118,30648.800000000745,31132.400000000373,31469.900000000373,32291.400000000373,33033.90000000037,33956.40000000037,34496.300000000745,34912.800000000745,35475.10000000149,35981.60000000149,36521.5,39616.60000000149,40088.10000000149,40436.20000000112,41021.20000000112,41527.60000000149,42056.60000000149,42664.10000000149,43305.20000000112,44070.10000000149,46983.90000000037,47850.90000000037],"honeypot":0,"survey":"mace","page":2,"trial_type":"survey-mace","trial_index":10,"time_elapsed":355723,"internal_node_id":"0.0-10.0","task_version":"prescreen-v0.3","browser_interactions":0},{"responses":{"01":"No","02":"No","03":"No","04":"No"},"rt":15248.699999999255,"item_order":[0,1,2,3],"radio_events":[8732.5,11803.699999999255,13536.599999999627,14728.900000000373],"checkbox_events":[],"key_events":[],"mouse_events":[8732.5,11803.699999999255,13536.599999999627,14728.900000000373,15246.5],"honeypot":0,"survey":"mace","page":3,"trial_type":"survey-mace","trial_index":11,"time_elapsed":370975,"internal_node_id":"0.0-11.0","task_version":"prescreen-v0.3","browser_interactions":0},{"responses":{"01":"No","02":"No"},"rt":7544.5999999996275,"item_order":[0,1],"radio_events":[5293.0999999996275,6947.0999999996275],"checkbox_events":[],"key_events":[],"mouse_events":[5293.0999999996275,6947.0999999996275,7543.299999998882],"honeypot":0,"survey":"mace","page":4,"trial_type":"survey-mace","trial_index":12,"time_elapsed":378523,"internal_node_id":"0.0-12.0","task_version":"prescreen-v0.3","browser_interactions":0},{"responses":{"01":"No","02":"No","03":"No","04":"No","05":"No"},"rt":21677.5,"item_order":[0,1,2,3,4],"radio_events":[5260.299999998882,6790.4000000003725,9727.099999999627,11459.5,19671.900000000373],"checkbox_events":[],"key_events":[],"mouse_events":[5260.299999998882,6790.4000000003725,7926.9000000003725,9727.099999999627,11459.5,13451.5,19671.900000000373,21674.699999999255],"honeypot":0,"survey":"mace","page":5,"trial_type":"survey-mace","trial_index":13,"time_elapsed":400203,"internal_node_id":"0.0-13.0","task_version":"prescreen-v0.3","browser_interactions":0},{"responses":{"01":"No","02":"Yes","02_ages_7":"7","02_ages_8":"8","02_ages_9":"9","02_ages_10":"10","02_ages_11":"11","02_ages_12":"12","02_ages_13":"13","02_ages_14":"14","02_ages_15":"15","02_ages_16":"16","03":"Yes","03_ages_7":"7","03_ages_8":"8","03_ages_9":"9","03_ages_10":"10","03_ages_11":"11","03_ages_12":"12","03_ages_13":"13","03_ages_14":"14","04":"Yes","04_ages_7":"7","04_ages_8":"8","04_ages_9":"9","04_ages_10":"10","04_ages_11":"11","04_ages_12":"12","04_ages_13":"13","04_ages_14":"14","04_ages_15":"15","04_ages_16":"16","04_ages_17":"17","05":"Yes","05_ages_7":"7","05_ages_8":"8","05_ages_9":"9","05_ages_10":"10","05_ages_11":"11","05_ages_12":"12","05_ages_13":"13","05_ages_14":"14","05_ages_15":"15","05_ages_16":"16"},"rt":87849.5,"item_order":[0,1,2,3,4],"radio_events":[29952.700000001118,31718.900000000373,48999.40000000037,62994.300000000745,72906.20000000112],"checkbox_events":[34801.5,35375.40000000037,35860.20000000112,36367.09999999963,36826.40000000037,39042.800000000745,39740.5,41900.5,42586.800000000745,43835.20000000112,52858.20000000112,53353.300000000745,53893.20000000112,54343.40000000037,55085.70000000112,55614.59999999963,56064.5,57741,64041.09999999963,64536,64941.09999999963,65503.70000000112,66032.5,66527.20000000112,66988.59999999963,67708.80000000075,68653.70000000112,69036.20000000112,69846,74042.40000000037,74571.40000000037,75145.09999999963,75752.59999999963,76765.09999999963,77192.59999999963,81906.5,82739.09999999963,86484.90000000037,86957.90000000037],"key_events":[],"mouse_events":[29952.700000001118,31718.900000000373,34801.5,35375.40000000037,35860.20000000112,36367.09999999963,36826.40000000037,39042.800000000745,39740.5,41900.5,42586.800000000745,43835.20000000112,48999.40000000037,52858.20000000112,53353.300000000745,53893.20000000112,54343.40000000037,55085.70000000112,55614.59999999963,56064.5,56683.20000000112,57741,62994.300000000745,64041.09999999963,64536,64941.09999999963,65503.70000000112,66032.5,66527.20000000112,66988.59999999963,67708.80000000075,68653.70000000112,69036.20000000112,69846,72906.20000000112,74042.40000000037,74571.40000000037,75145.09999999963,75752.59999999963,76247.80000000075,76765.09999999963,77192.59999999963,81906.5,82739.09999999963,86484.90000000037,86957.90000000037,87846.80000000075],"honeypot":0,"survey":"mace","page":6,"trial_type":"survey-mace","trial_index":14,"time_elapsed":488055,"internal_node_id":"0.0-14.0","task_version":"prescreen-v0.3","browser_interactions":0},{"responses":{"01":"No","02":"No","03":"Yes","03_ages_7":"7","03_ages_8":"8","03_ages_9":"9","03_ages_10":"10","03_ages_11":"11","03_ages_12":"12","03_ages_13":"13","03_ages_14":"14","03_ages_15":"15","03_ages_16":"16","03_ages_17":"17","04":"No","05":"No","06":"No","07":"No"},"rt":32274.400000000373,"item_order":[0,1,2,3,4,5,6],"radio_events":[8036.800000000745,9893.10000000149,12052.900000000373,26532.400000000373,28962.200000001118,30301,31605.900000000373],"checkbox_events":[13583.300000000745,14978.10000000149,15563.300000000745,16103.400000000373,16699.5,17374.400000000373,17880.60000000149,18904.60000000149,20266.10000000149,21008.10000000149,24023.400000000373],"key_events":[],"mouse_events":[8036.800000000745,9893.10000000149,12052.900000000373,13583.300000000745,14101.10000000149,14978.10000000149,15563.300000000745,16103.400000000373,16699.5,17374.400000000373,17880.60000000149,18904.60000000149,20266.10000000149,20615,21008.10000000149,24023.400000000373,26532.400000000373,28962.200000001118,30301,31605.900000000373,32270.5],"honeypot":0,"survey":"mace","page":7,"trial_type":"survey-mace","trial_index":15,"time_elapsed":520333,"internal_node_id":"0.0-15.0","task_version":"prescreen-v0.3","browser_interactions":0},{"responses":{"01":"No","02":"Yes","02_ages_1":"1","02_ages_2":"2","02_ages_3":"3","02_ages_4":"4","02_ages_5":"5","02_ages_6":"6","02_ages_7":"7","02_ages_8":"8","02_ages_9":"9","02_ages_10":"10","02_ages_11":"11","02_ages_12":"12","02_ages_13":"13","02_ages_14":"14","02_ages_15":"15","02_ages_16":"16","02_ages_17":"17","02_ages_18":"18","03":"No","04":"No"},"rt":37423.699999999255,"item_order":[0,1,2,3],"radio_events":[9284.400000000373,13311.799999998882,31672.099999999627,33697.5,36813.59999999963],"checkbox_events":[16417.199999999255,16878.199999999255,17452.099999999627,18306.900000000373,18914.299999998882,19432.199999999255,20050.699999999255,20726,21198.400000000373,21603.5,22121.199999999255,22661.099999999627,23223.5,24112,24596,25090.799999998882,25619.900000000373,28319.400000000373],"key_events":[],"mouse_events":[9284.400000000373,13311.799999998882,16417.199999999255,16878.199999999255,17452.099999999627,18306.900000000373,18914.299999998882,19432.199999999255,20050.699999999255,20726,21198.400000000373,21603.5,22121.199999999255,22661.099999999627,23223.5,24112,24596,25090.799999998882,25619.900000000373,27689.799999998882,28319.400000000373,31672.099999999627,33697.5,36813.59999999963,37421.29999999888],"honeypot":0,"survey":"mace","page":8,"trial_type":"survey-mace","trial_index":16,"time_elapsed":557759,"internal_node_id":"0.0-16.0","task_version":"prescreen-v0.3","browser_interactions":0},{"responses":{"01":"Yes","01_ages_1":"1","01_ages_2":"2","01_ages_3":"3","01_ages_4":"4","01_ages_5":"5","01_ages_6":"6","01_ages_7":"7","01_ages_8":"8","01_ages_9":"9","01_ages_10":"10","01_ages_11":"11","01_ages_12":"12","01_ages_13":"13","01_ages_14":"14","01_ages_15":"15","01_ages_16":"16","01_ages_17":"17","01_ages_18":"18","02":"Yes","02_ages_1":"1","02_ages_2":"2","02_ages_3":"3","02_ages_4":"4","02_ages_5":"5","02_ages_6":"6","02_ages_7":"7","02_ages_8":"8","02_ages_9":"9","02_ages_10":"10","02_ages_11":"11","02_ages_12":"12","02_ages_13":"13","02_ages_14":"14","02_ages_15":"15","02_ages_16":"16","02_ages_17":"17","02_ages_18":"18","03":"Yes","03_ages_1":"1","03_ages_2":"2","03_ages_3":"3","03_ages_4":"4","03_ages_5":"5","03_ages_6":"6","03_ages_7":"7","03_ages_8":"8","03_ages_9":"9","03_ages_10":"10","03_ages_11":"11","03_ages_12":"12","03_ages_13":"13","03_ages_14":"14","03_ages_15":"15","03_ages_16":"16","03_ages_17":"17","03_ages_18":"18","04":"Yes","04_ages_1":"1","04_ages_2":"2","04_ages_3":"3","04_ages_4":"4","04_ages_5":"5","04_ages_6":"6","04_ages_7":"7","04_ages_8":"8","04_ages_9":"9","04_ages_10":"10","04_ages_11":"11","04_ages_12":"12","04_ages_13":"13","04_ages_14":"14","04_ages_15":"15","04_ages_16":"16","04_ages_17":"17","04_ages_18":"18"},"rt":63132.50000000186,"item_order":[0,1,2,3],"radio_events":[5022.800000000745,23743.300000000745,39122.300000000745,51542.800000000745],"checkbox_events":[10794.200000001118,11863.300000000745,12403,12909.400000000373,13460.700000001118,14068,14472.900000000373,15597.800000000745,16160.599999999627,16678,17330.700000001118,17972,18545.5,19547.200000001118,19996.800000000745,20491.900000000373,20852,21695.800000000745,25183.5,25858.5,26342.300000000745,26915.800000000745,27287,27793.5,28918.599999999627,29537.099999999627,30201.300000000745,30786,31539.599999999627,32102.300000000745,32968.40000000037,33598.40000000037,34138.300000000745,34959.800000000745,35522.20000000112,36433.40000000037,40123.70000000112,40742.59999999963,41158.5,41563.90000000037,42418.800000000745,42992.5,43364,43791,44196.20000000112,44623.70000000112,45152.59999999963,45670.300000000745,46052.40000000037,46469.09999999963,46975.20000000112,47357.90000000037,48010.20000000112,49270.20000000112,52454,53163,53668.90000000037,54141.300000000745,54658.90000000037,55266.5,56560.50000000186,57145.29999999888,58090.09999999963,58495.09999999963,58934.09999999963,59428.70000000112,59822.90000000037,60250.40000000037,61105.29999999888,61533.09999999963,62027.79999999888,62601.29999999888],"key_events":[],"mouse_events":[5022.800000000745,10794.200000001118,11863.300000000745,12403,12909.400000000373,13460.700000001118,14068,14472.900000000373,15597.800000000745,16160.599999999627,16678,17330.700000001118,17972,18545.5,19547.200000001118,19996.800000000745,20491.900000000373,20852,21695.800000000745,23743.300000000745,25183.5,25858.5,26342.300000000745,26915.800000000745,27287,27793.5,28164.700000001118,28918.599999999627,29537.099999999627,30201.300000000745,30786,31539.599999999627,32102.300000000745,32597.400000000373,32968.40000000037,33598.40000000037,34138.300000000745,34959.800000000745,35522.20000000112,36433.40000000037,39122.300000000745,40123.70000000112,40742.59999999963,41158.5,41563.90000000037,41979.70000000112,42418.800000000745,42992.5,43364,43791,44196.20000000112,44623.70000000112,45152.59999999963,45670.300000000745,46052.40000000037,46469.09999999963,46975.20000000112,47357.90000000037,48010.20000000112,48415.20000000112,49270.20000000112,51542.800000000745,52454,52791.59999999963,53163,53668.90000000037,54141.300000000745,54658.90000000037,55266.5,55851.50000000186,56560.50000000186,57145.29999999888,58090.09999999963,58495.09999999963,58934.09999999963,59428.70000000112,59822.90000000037,60250.40000000037,60723.00000000186,61105.29999999888,61533.09999999963,62027.79999999888,62601.29999999888,63130.29999999888],"honeypot":0,"survey":"mace","page":9,"trial_type":"survey-mace","trial_index":17,"time_elapsed":620894,"internal_node_id":"0.0-17.0","task_version":"prescreen-v0.3","browser_interactions":0},{"responses":{"01":"No","02":"No","03":"No","04":"No","05":"No","06":"Yes","06_ages_17":"17","07":"Yes","07_ages_1":"1","07_ages_2":"2","07_ages_3":"3","07_ages_4":"4","07_ages_5":"5","07_ages_6":"6","07_ages_7":"7","07_ages_8":"8","07_ages_9":"9","07_ages_10":"10","07_ages_11":"11","07_ages_12":"12","07_ages_13":"13","07_ages_14":"14","07_ages_15":"15","07_ages_16":"16","07_ages_17":"17","07_ages_18":"18","08":"No"},"rt":34413.39999999851,"item_order":[0,1,2,3,4,5,6,7],"radio_events":[2401.39999999851,3526.5,4820.199999999255,6744.29999999702,10467.89999999851,14124.29999999702,16576.599999997765,32934.39999999851],"checkbox_events":[11896.79999999702,20086.89999999851,20953,21515.099999997765,22663.39999999851,23112.89999999851,23506.79999999702,23934.199999999255,24474.199999999255,25003,25408,25835.5,26263.099999997765,26837,27939.599999997765,28547.39999999851,29165.699999999255,29897.099999997765,30774.599999997765],"key_events":[],"mouse_events":[2401.39999999851,3526.5,4820.199999999255,6744.29999999702,10467.89999999851,11896.79999999702,14124.29999999702,16576.599999997765,20086.89999999851,20953,21515.099999997765,22663.39999999851,23112.89999999851,23506.79999999702,23934.199999999255,24474.199999999255,25003,25408,25835.5,26263.099999997765,26837,27580.099999997765,27939.599999997765,28547.39999999851,29165.699999999255,29897.099999997765,30774.599999997765,32934.39999999851,34409],"honeypot":0,"survey":"mace","page":10,"trial_type":"survey-mace","trial_index":18,"time_elapsed":655312,"internal_node_id":"0.0-18.0","task_version":"prescreen-v0.3","browser_interactions":0,"instructed":0},{"rt":3286.5,"trial_type":"mental-health-alert","trial_index":19,"time_elapsed":658602,"internal_node_id":"0.0-19.0","task_version":"prescreen-v0.3","interactions":"[]"}]