[{"view_history":[{"page_index":0,"viewing_time":3080.2000000011176},{"page_index":1,"viewing_time":4615.89999999851},{"page_index":2,"viewing_time":6099.700000001118},{"page_index":3,"viewing_time":1931.5999999996275}],"rt":15728.300000000745,"trial_type":"instructions","trial_index":0,"time_elapsed":15767,"internal_node_id":"0.0-0.0","task_version":"prescreen-v0.3"},{"rt":16362.099999999627,"responses":{"age":"27","gender-categorical":"Female","gender-free-response":"","ethnicity":"Not Hispanic or Latino","race":["White"],"education":"Bachelor degree"},"trial_type":"survey-demo","trial_index":1,"time_elapsed":32137,"internal_node_id":"0.0-1.0","task_version":"prescreen-v0.3"},{"responses":{"Q04":"2","Q16":"2","Q10":"0","Q21":"3","Q03":"1","Q17":"1","Q14":"3","Q12":"2","Q20":"0","Q02":"1","Q05":"1","Q19":"1","Q01":"0","Q18":"2","Q08":"2","Q15":"2","Q09":"2","Q13":"3","Q11":"0","Q07":"2","Q06":"0"},"rt":147459,"item_order":[3,15,9,20,2,16,13,11,19,1,4,18,0,17,7,14,8,12,10,6,5],"radio_events":[14186.700000001118,24862.200000001118,31977.700000001118,36497.60000000149,40194.20000000112,44466.40000000037,48850.40000000037,62445.90000000037,65025.70000000112,70201.70000000112,79938.20000000112,96021.70000000112,101689.60000000149,105370.20000000112,110914.10000000149,113525.80000000075,118814.10000000149,125498.10000000149,128350.60000000149,132222.30000000075,139521.80000000075,145590.1000000015],"key_events":[],"mouse_events":[14186.700000001118,24862.200000001118,31977.700000001118,36497.60000000149,40194.20000000112,44466.40000000037,48850.40000000037,62445.90000000037,65025.70000000112,70201.70000000112,79938.20000000112,96021.70000000112,101689.60000000149,105370.20000000112,110914.10000000149,113525.80000000075,118814.10000000149,125498.10000000149,128350.60000000149,132222.30000000075,139521.80000000075,145590.1000000015,147457.40000000037],"straightlining":0.38095238095238093,"zigzagging":0.3,"honeypot":0,"survey":"sns","trial_type":"survey-template","trial_index":2,"time_elapsed":179615,"internal_node_id":"0.0-2.0","task_version":"prescreen-v0.3","browser_interactions":0,"infrequency":0},{"responses":{"Q12":"1","Q06":"2","Q02":"2","Q04":"3","Q08":"1","Q07":"0","Q03":"2","Q10":"1","Q09":"0","Q11":"1","Q05":"2","Q01":"3","Q13":"0"},"rt":93374.5,"item_order":[11,5,1,3,7,6,2,9,8,10,4,0,12],"radio_events":[17604.60000000149,23240.800000000745,28232.700000001118,33752.60000000149,38392.40000000037,45744.60000000149,60656.800000000745,65216.70000000112,67576.5,71968.80000000075,77272.60000000149,78740.30000000075,83316.70000000112,85488.5,88860.60000000149],"key_events":[],"mouse_events":[17604.60000000149,23240.800000000745,26892.60000000149,28232.700000001118,33752.60000000149,38392.40000000037,45000.20000000112,45744.60000000149,60656.800000000745,65216.70000000112,67576.5,71968.80000000075,77272.60000000149,78740.30000000075,83316.70000000112,85488.5,88860.60000000149,93372.80000000075],"straightlining":0.3076923076923077,"zigzagging":0.75,"honeypot":0,"survey":"bisbas","trial_type":"survey-template","trial_index":3,"time_elapsed":272996,"internal_node_id":"0.0-3.0","task_version":"prescreen-v0.3","browser_interactions":0,"infrequency":0},{"responses":{"Q01":"4","Q02":"3","Q03":"3"},"rt":31766.800000000745,"radio_events":[10814.900000000373,23474.400000000373,27690.400000000373],"key_events":[],"mouse_events":[10814.900000000373,23474.400000000373,27690.400000000373,31766.300000000745],"survey":"map","page":1,"trial_type":"survey-map","trial_index":4,"time_elapsed":304769,"internal_node_id":"0.0-4.0","task_version":"prescreen-v0.3","browser_interactions":0},{"responses":{"Q04":"2","Q05":"1","Q06":"1"},"rt":19004.299999998882,"radio_events":[4186.699999999255,7754.799999998882,11031.299999998882,16319.400000000373],"key_events":[],"mouse_events":[4186.699999999255,7754.799999998882,11031.299999998882,16319.400000000373,19003.5],"survey":"map","page":2,"trial_type":"survey-map","trial_index":5,"time_elapsed":323777,"internal_node_id":"0.0-5.0","task_version":"prescreen-v0.3","browser_interactions":0},{"responses":{"Q07":"1","Q08":"4","Q09":"3"},"rt":20148.900000000373,"radio_events":[10568.099999999627,16040.099999999627,19172.099999999627],"key_events":[],"mouse_events":[9943.599999999627,10568.099999999627,16040.099999999627,19172.099999999627,20148.199999999255],"survey":"map","page":3,"trial_type":"survey-map","trial_index":6,"time_elapsed":343929,"internal_node_id":"0.0-6.0","task_version":"prescreen-v0.3","browser_interactions":0},{"responses":{"Q10":"2","Q11":"3","Q12":"1","Q13":"2","Q16":"0","Q14":"2","Q15":"2"},"rt":34861.09999999963,"radio_events":[6000.299999998882,9004.699999999255,14916.199999999255,18560.699999999255,21516,25499.699999999255,30172.89999999851,33895.699999999255],"key_events":[],"mouse_events":[6000.299999998882,9004.699999999255,14916.199999999255,18560.699999999255,21516,25499.699999999255,30172.89999999851,33895.699999999255,34860.29999999888],"survey":"map","page":4,"trial_type":"survey-map","trial_index":7,"time_elapsed":378793,"internal_node_id":"0.0-7.0","task_version":"prescreen-v0.3","browser_interactions":0,"infrequency":0},{"view_history":[{"page_index":0,"viewing_time":2108.7999999988824},{"page_index":1,"viewing_time":4730.60000000149}],"rt":6840,"trial_type":"instructions","trial_index":8,"time_elapsed":385636,"internal_node_id":"0.0-8.0","task_version":"prescreen-v0.3"},{"responses":{"01":"No","02":"No","03":"No","04":"No","05":"No","06":"No"},"rt":40091,"item_order":[0,1,2,3,4,5],"radio_events":[8694.699999999255,11362.699999999255,16266.099999999627,18510.400000000373,21553.599999999627,36865.699999999255,39130.40000000037],"checkbox_events":[],"key_events":[],"mouse_events":[0,8694.699999999255,11362.699999999255,16266.099999999627,18510.400000000373,21553.599999999627,36865.699999999255,39130.40000000037,40086.699999999255],"honeypot":0,"survey":"mace","page":1,"trial_type":"survey-mace","trial_index":9,"time_elapsed":425743,"internal_node_id":"0.0-9.0","task_version":"prescreen-v0.3","browser_interactions":2},{"responses":{"01":"No","02":"No","03":"No","04":"No","05":"No","06":"No","07":"No","08":"No"},"rt":25903,"item_order":[0,1,2,3,4,5,6,7],"radio_events":[2539.199999999255,4970.5,6590.5,15938.900000000373,18318.5,19422.5,21434.400000000373,25238.599999999627],"checkbox_events":[],"key_events":[],"mouse_events":[2539.199999999255,4970.5,6590.5,15938.900000000373,18318.5,19422.5,21434.400000000373,22518.5,24278.300000000745,25238.599999999627,25900.099999999627],"honeypot":0,"survey":"mace","page":2,"trial_type":"survey-mace","trial_index":10,"time_elapsed":451650,"internal_node_id":"0.0-10.0","task_version":"prescreen-v0.3","browser_interactions":0},{"responses":{"01":"No","02":"No","03":"No","04":"No"},"rt":10977.599999999627,"item_order":[0,1,2,3],"radio_events":[3358,8844.799999998882,9548.099999999627,10448.099999999627],"checkbox_events":[],"key_events":[],"mouse_events":[3358,7540.699999999255,8844.799999998882,9548.099999999627,10448.099999999627,10976.199999999255],"honeypot":0,"survey":"mace","page":3,"trial_type":"survey-mace","trial_index":11,"time_elapsed":462630,"internal_node_id":"0.0-11.0","task_version":"prescreen-v0.3","browser_interactions":0},{"responses":{"01":"Yes","01_ages_15":"15","01_ages_16":"16","01_ages_17":"17","01_ages_18":"18","02":"Yes","02_ages_15":"15","02_ages_16":"16","02_ages_17":"17","02_ages_18":"18"},"rt":54966.800000000745,"item_order":[0,1],"radio_events":[5469.200000001118,23577.599999999627,29538.200000001118],"checkbox_events":[27585.400000000373,28226.5,28624.5,30741.099999999627,31461.5,31925.200000001118,53217.20000000112,54000.70000000112],"key_events":[],"mouse_events":[5469.200000001118,23577.599999999627,27585.400000000373,28226.5,28624.5,29538.200000001118,30741.099999999627,31461.5,31925.200000001118,53217.20000000112,54000.70000000112,54965.40000000037],"honeypot":0,"survey":"mace","page":4,"trial_type":"survey-mace","trial_index":12,"time_elapsed":517598,"internal_node_id":"0.0-12.0","task_version":"prescreen-v0.3","browser_interactions":0},{"responses":{"01":"No","02":"No","03":"No","04":"No","05":"No"},"rt":19803.799999998882,"item_order":[0,1,2,3,4],"radio_events":[9530.099999999627,12431.099999999627,15466.5,17343.89999999851,19126.5],"checkbox_events":[],"key_events":[],"mouse_events":[9530.099999999627,12431.099999999627,15466.5,17343.89999999851,19126.5,19801.599999999627],"honeypot":0,"survey":"mace","page":5,"trial_type":"survey-mace","trial_index":13,"time_elapsed":537406,"internal_node_id":"0.0-13.0","task_version":"prescreen-v0.3","browser_interactions":0},{"responses":{"01":"No","02":"Yes","02_ages_15":"15","02_ages_16":"16","02_ages_17":"17","02_ages_18":"18","03":"Yes","03_ages_17":"17","03_ages_18":"18","04":"No","05":"No"},"rt":45244.09999999963,"item_order":[0,1,2,3,4],"radio_events":[8267.900000000373,20783.900000000373,35823.59999999963,42475.5,44581],"checkbox_events":[21999,22483.099999999627,23332,24483.599999999627,37139.79999999888,37683.59999999963],"key_events":[],"mouse_events":[8267.900000000373,20783.900000000373,21999,22483.099999999627,23332,23939.5,24483.599999999627,35823.59999999963,37139.79999999888,37683.59999999963,42475.5,44581,45241.59999999963],"honeypot":0,"survey":"mace","page":6,"trial_type":"survey-mace","trial_index":14,"time_elapsed":582654,"internal_node_id":"0.0-14.0","task_version":"prescreen-v0.3","browser_interactions":0},{"responses":{"01":"No","02":"Yes","02_ages_15":"15","02_ages_16":"16","02_ages_17":"17","02_ages_18":"18","03":"No","04":"No","05":"No","06":"Yes","06_ages_15":"15","06_ages_16":"16","06_ages_17":"17","06_ages_18":"18","07":"Yes","07_ages_15":"15","07_ages_16":"16","07_ages_17":"17","07_ages_18":"18"},"rt":30820.599999999627,"item_order":[0,1,2,3,4,5,6],"radio_events":[6040,7831.0999999996275,14184,15675.699999999255,17783.5,19903.89999999851,25296.89999999851],"checkbox_events":[8795,9627.699999999255,10107.699999999255,10715.599999999627,21419.599999999627,21883.099999999627,22491.5,23115.5,27571.799999998882,28147.89999999851,28819.099999999627,29559.199999999255],"key_events":[],"mouse_events":[6040,7831.0999999996275,8795,9627.699999999255,10107.699999999255,10715.599999999627,14184,15675.699999999255,17783.5,19903.89999999851,20971.599999999627,21419.599999999627,21883.099999999627,22491.5,23115.5,25296.89999999851,27571.799999998882,28147.89999999851,28819.099999999627,29559.199999999255,30815.799999998882],"honeypot":0,"survey":"mace","page":7,"trial_type":"survey-mace","trial_index":15,"time_elapsed":613479,"internal_node_id":"0.0-15.0","task_version":"prescreen-v0.3","browser_interactions":0},{"responses":{"01":"Yes","01_ages_12":"12","01_ages_13":"13","01_ages_14":"14","01_ages_15":"15","01_ages_16":"16","01_ages_17":"17","01_ages_18":"18","02":"No","03":"No","04":"Yes","04_ages_11":"11","04_ages_12":"12","04_ages_13":"13","04_ages_14":"14","04_ages_15":"15","04_ages_16":"16","04_ages_17":"17","04_ages_18":"18"},"rt":61600.60000000149,"item_order":[0,1,2,3],"radio_events":[9850,35994,42473.70000000112,46393.800000000745],"checkbox_events":[15786,16457.60000000149,17193.800000000745,17753.60000000149,18329.400000000373,18701.5,19229.60000000149,50365.70000000112,50781.90000000037,51677.70000000112,52269.60000000149,53251,53762.40000000037,54161.800000000745,55073.60000000149],"key_events":[],"mouse_events":[9850,15786,16457.60000000149,17193.800000000745,17753.60000000149,18329.400000000373,18701.5,19229.60000000149,35641.60000000149,35994,42473.70000000112,46393.800000000745,50365.70000000112,50781.90000000037,51165.90000000037,51677.70000000112,52269.60000000149,53251,53762.40000000037,54161.800000000745,55073.60000000149,61597.800000000745],"honeypot":0,"survey":"mace","page":8,"trial_type":"survey-mace","trial_index":16,"time_elapsed":675084,"internal_node_id":"0.0-16.0","task_version":"prescreen-v0.3","browser_interactions":2},{"responses":{"01":"Yes","01_ages_1":"1","01_ages_2":"2","01_ages_3":"3","01_ages_4":"4","01_ages_5":"5","01_ages_6":"6","01_ages_7":"7","01_ages_8":"8","01_ages_9":"9","01_ages_10":"10","01_ages_11":"11","01_ages_12":"12","01_ages_13":"13","01_ages_14":"14","01_ages_15":"15","01_ages_16":"16","01_ages_17":"17","01_ages_18":"18","02":"No","03":"No","04":"Yes","04_ages_1":"1","04_ages_2":"2","04_ages_3":"3","04_ages_4":"4","04_ages_5":"5","04_ages_6":"6","04_ages_7":"7","04_ages_8":"8","04_ages_9":"9","04_ages_10":"10","04_ages_11":"11","04_ages_12":"12"},"rt":77015.90000000037,"item_order":[0,1,2,3],"radio_events":[6712.300000000745,44584.800000000745,53457,57320.800000000745,61661.699999999255],"checkbox_events":[14520.900000000373,14937,15560.400000000373,15880.400000000373,16281.599999999627,16760.800000000745,17501.099999999627,17997,19133.099999999627,19788.699999999255,21488.400000000373,22432.199999999255,22857,23621.099999999627,23989.599999999627,24389.199999999255,24836.800000000745,25237.099999999627,26425.199999999255,27000.900000000373,31361.099999999627,32713,68304.19999999925,68849.09999999963,69456.69999999925,70357,70852.09999999963,71252.90000000037,71765.09999999963,72212.59999999963,72612.80000000075,73601.40000000037,74112.90000000037,74880.80000000075,75441,75906],"key_events":[],"mouse_events":[6712.300000000745,14520.900000000373,14937,15560.400000000373,15880.400000000373,16281.599999999627,16760.800000000745,17501.099999999627,17997,18428.900000000373,19133.099999999627,19788.699999999255,21488.400000000373,22432.199999999255,22857,23238.099999999627,23621.099999999627,23989.599999999627,24389.199999999255,24836.800000000745,25237.099999999627,26425.199999999255,27000.900000000373,31361.099999999627,32281,32713,44025,44584.800000000745,53457,57320.800000000745,61661.699999999255,68304.19999999925,68849.09999999963,69456.69999999925,69825,70357,70852.09999999963,71252.90000000037,71765.09999999963,72212.59999999963,72612.80000000075,73601.40000000037,74112.90000000037,74880.80000000075,75441,75906,77013],"honeypot":0,"survey":"mace","page":9,"trial_type":"survey-mace","trial_index":17,"time_elapsed":752105,"internal_node_id":"0.0-17.0","task_version":"prescreen-v0.3","browser_interactions":0},{"responses":{"01":"No","02":"No","03":"Yes","03_ages_12":"12","03_ages_13":"13","03_ages_14":"14","03_ages_15":"15","03_ages_16":"16","03_ages_17":"17","03_ages_18":"18","04":"Yes","04_ages_9":"9","04_ages_10":"10","04_ages_11":"11","04_ages_12":"12","04_ages_13":"13","04_ages_14":"14","04_ages_15":"15","04_ages_16":"16","04_ages_17":"17","04_ages_18":"18","05":"No","06":"Yes","06_ages_17":"17","07":"No","08":"No"},"rt":56348,"item_order":[0,1,2,3,4,5,6,7],"radio_events":[5375.4000000003725,18135.099999999627,19371.900000000373,34583,45062.90000000037,47795.59999999963,51879.59999999963,53587.09999999963],"checkbox_events":[24239.599999999627,24899.5,25267.599999999627,25907.199999999255,26277.599999999627,26724.099999999627,27719.400000000373,36530.90000000037,36947.40000000037,37603.59999999963,38007.40000000037,38615.40000000037,39175.59999999963,39863.5,40583.40000000037,41179.699999999255,41867.5,49111.199999999255],"key_events":[],"mouse_events":[5375.4000000003725,18135.099999999627,19371.900000000373,24239.599999999627,24899.5,25267.599999999627,25907.199999999255,26277.599999999627,26724.099999999627,27719.400000000373,34583,36530.90000000037,36947.40000000037,37283.40000000037,37603.59999999963,38007.40000000037,38615.40000000037,39175.59999999963,39863.5,40583.40000000037,41179.699999999255,41867.5,45062.90000000037,47795.59999999963,49111.199999999255,51879.59999999963,53587.09999999963,56343.40000000037],"honeypot":0,"survey":"mace","page":10,"trial_type":"survey-mace","trial_index":18,"time_elapsed":808458,"internal_node_id":"0.0-18.0","task_version":"prescreen-v0.3","browser_interactions":0,"instructed":0},{"rt":2723.39999999851,"trial_type":"mental-health-alert","trial_index":19,"time_elapsed":811184,"internal_node_id":"0.0-19.0","task_version":"prescreen-v0.3","interactions":"[{\"event\":\"blur\",\"trial\":9,\"time\":411223},{\"event\":\"focus\",\"trial\":9,\"time\":422431},{\"event\":\"blur\",\"trial\":16,\"time\":645306},{\"event\":\"focus\",\"trial\":16,\"time\":647839}]"}]