[{"view_history":[{"page_index":0,"viewing_time":2901.199999988079},{"page_index":1,"viewing_time":3669.899999976158},{"page_index":2,"viewing_time":4220.100000023842},{"page_index":3,"viewing_time":1704.6000000238419}],"rt":12496.699999988079,"trial_type":"instructions","trial_index":0,"time_elapsed":12512,"internal_node_id":"0.0-0.0","task_version":"prescreen-v0.3"},{"rt":14042.300000011921,"responses":{"age":"41","gender-categorical":"Female","gender-free-response":"","ethnicity":"Not Hispanic or Latino","race":["Black or African American","White"],"education":"Bachelor degree"},"trial_type":"survey-demo","trial_index":1,"time_elapsed":26561,"internal_node_id":"0.0-1.0","task_version":"prescreen-v0.3"},{"responses":{"Q20":"0","Q10":"0","Q02":"0","Q03":"1","Q18":"1","Q07":"0","Q09":"1","Q15":"2","Q17":"1","Q04":"0","Q19":"0","Q21":"3","Q12":"1","Q11":"0","Q05":"1","Q01":"1","Q06":"0","Q14":"2","Q16":"1","Q08":"1","Q13":"2"},"rt":110032.5,"item_order":[19,9,1,2,17,6,8,14,16,3,18,20,11,10,4,0,5,13,15,7,12],"radio_events":[4780,7925.5,13259.700000047684,15611.600000023842,23605.80000001192,29157.400000035763,31828,38733.80000001192,40723.200000047684,47693.90000003576,53928.10000002384,58371.30000001192,64909.5,67367.80000001192,70567.40000003576,76218.30000001192,80841.5,89197.20000004768,98001.70000004768,100515.70000004768,105939.60000002384,109431.70000004768],"key_events":[4780,7925.5,12776.100000023842,13259.700000047684,15611.600000023842,21055.5,21951.100000023842,22393,23605.80000001192,27907.200000047684,28753.30000001192,29157.400000035763,31828,38399.700000047684,38733.80000001192,40723.200000047684,45063.700000047684,45748.200000047684,46585.60000002384,47693.90000003576,51109.10000002384,52264.10000002384,53351.30000001192,53928.10000002384,57658.60000002384,58371.30000001192,63198.30000001192,63693.40000003576,64425.40000003576,64909.5,67367.80000001192,70567.40000003576,76218.30000001192,80056.10000002384,80841.5,89197.20000004768,97244.20000004768,97716.60000002384,98001.70000004768,100071.90000003576,100515.70000004768,105939.60000002384,108654.40000003576,109025,109431.70000004768,110031.20000004768],"mouse_events":[],"straightlining":0.42857142857142855,"zigzagging":0.6,"honeypot":0,"survey":"sns","trial_type":"survey-template","trial_index":2,"time_elapsed":136600,"internal_node_id":"0.0-2.0","task_version":"prescreen-v0.3","browser_interactions":0,"infrequency":0},{"responses":{"Q11":"2","Q07":"3","Q01":"2","Q03":"2","Q02":"2","Q09":"1","Q08":"2","Q05":"2","Q06":"3","Q12":"1","Q04":"2","Q10":"1","Q13":"0"},"rt":102941.60000002384,"item_order":[10,6,0,2,1,8,7,4,5,11,3,9,12],"radio_events":[12016.5,14286.800000011921,17418.600000023842,24062.5,28096.5,37149,39697.30000001192,44812.60000002384,49414.40000003576,55192.19999998808,95090.5,97969.30000001192,101864.30000001192],"key_events":[11136.600000023842,12016.5,14286.800000011921,17418.600000023842,24062.5,28096.5,37149,39697.30000001192,44812.60000002384,49414.40000003576,51674.60000002384,55192.19999998808,95090.5,97969.30000001192,100070.69999998808,101134.80000001192,101864.30000001192,102940.90000003576],"mouse_events":[],"straightlining":0.5384615384615384,"zigzagging":0.6666666666666666,"honeypot":0,"survey":"bisbas","trial_type":"survey-template","trial_index":3,"time_elapsed":239546,"internal_node_id":"0.0-3.0","task_version":"prescreen-v0.3","browser_interactions":0,"infrequency":0},{"responses":{"Q01":"3","Q02":"3","Q03":"3"},"rt":22453.100000023842,"radio_events":[9343,12090.800000011921,18400.900000035763,21776.600000023842],"key_events":[7187.700000047684,9343,12090.800000011921,17203.600000023842,17488.200000047684,17988.600000023842,18400.900000035763,21776.600000023842,22452.700000047684],"mouse_events":[],"survey":"map","page":1,"trial_type":"survey-map","trial_index":4,"time_elapsed":262003,"internal_node_id":"0.0-4.0","task_version":"prescreen-v0.3","browser_interactions":0},{"responses":{"Q04":"3","Q05":"3","Q06":"3"},"rt":13353.899999976158,"radio_events":[7285.600000023842,10014.100000023842,12778.199999988079],"key_events":[7285.600000023842,10014.100000023842,11657.600000023842,12375.899999976158,12778.199999988079,13353.600000023842],"mouse_events":[],"survey":"map","page":2,"trial_type":"survey-map","trial_index":5,"time_elapsed":275360,"internal_node_id":"0.0-5.0","task_version":"prescreen-v0.3","browser_interactions":0},{"responses":{"Q07":"2","Q08":"3","Q09":"3"},"rt":14498.899999976158,"radio_events":[6340.800000011921,9608.899999976158,13203.699999988079],"key_events":[4010.5,5488.899999976158,6340.800000011921,9608.899999976158,13203.699999988079,14498.600000023842],"mouse_events":[],"survey":"map","page":3,"trial_type":"survey-map","trial_index":6,"time_elapsed":289862,"internal_node_id":"0.0-6.0","task_version":"prescreen-v0.3","browser_interactions":0},{"responses":{"Q10":"2","Q11":"2","Q12":"0","Q13":"1","Q16":"0","Q14":"2","Q15":"1"},"rt":41135.40000003576,"radio_events":[4446.600000023842,7158.400000035763,8294.699999988079,21413.900000035763,25580.69999998808,29052.30000001192,35814.60000002384,40364.5],"key_events":[3800.699999988079,4446.600000023842,7158.400000035763,7912,8294.699999988079,18858,20418.400000035763,21413.900000035763,25152.100000023842,25580.69999998808,29052.30000001192,35814.60000002384,38372.69999998808,38872.69999998808,40364.5,41134.90000003576],"mouse_events":[],"survey":"map","page":4,"trial_type":"survey-map","trial_index":7,"time_elapsed":331001,"internal_node_id":"0.0-7.0","task_version":"prescreen-v0.3","browser_interactions":0,"infrequency":0},{"view_history":[{"page_index":0,"viewing_time":2836.300000011921},{"page_index":1,"viewing_time":3029.099999964237}],"rt":5866,"trial_type":"instructions","trial_index":8,"time_elapsed":336871,"internal_node_id":"0.0-8.0","task_version":"prescreen-v0.3"},{"responses":{"01":"No","02":"No","03":"No","04":"No","05":"No","06":"No"},"rt":42713.90000003576,"item_order":[0,1,2,3,4,5],"radio_events":[5952.5,10752.100000023842,13282,14636,15735.700000047684,19779.900000035763,34947,37546.200000047684],"checkbox_events":[],"key_events":[0,3062,5952.5,10752.100000023842,13282,14636,15735.700000047684,19779.900000035763,34947,37546.200000047684,42710.5],"mouse_events":[],"honeypot":0,"survey":"mace","page":1,"trial_type":"survey-mace","trial_index":9,"time_elapsed":379590,"internal_node_id":"0.0-9.0","task_version":"prescreen-v0.3","browser_interactions":0},{"responses":{"01":"No","02":"No","03":"Yes","03_ages_5":"5","03_ages_6":"6","03_ages_7":"7","03_ages_8":"8","03_ages_9":"9","03_ages_10":"10","03_ages_11":"11","03_ages_12":"12","04":"No","05":"No","06":"No","07":"No","08":"No"},"rt":41769.39999997616,"item_order":[0,1,2,3,4,5,6,7],"radio_events":[2997.099999964237,5229.199999988079,7185.099999964237,29459.5,34087.39999997616,35820.59999996424,36996.89999997616,39157],"checkbox_events":[13154.899999976158,13766.800000011921,14403.099999964237,14964.899999976158,15621.599999964237,16023.099999964237,16435.30000001192,16983.69999998808,18273.599999964237,19836.80000001192,21185.599999964237,22375.30000001192,22979.399999976158,23494.899999976158,24373.30000001192,25985],"key_events":[2997.099999964237,5229.199999988079,6789.5,7185.099999964237,13154.899999976158,13766.800000011921,14403.099999964237,14964.899999976158,15621.599999964237,16023.099999964237,16435.30000001192,16983.69999998808,18273.599999964237,19836.80000001192,21185.599999964237,21633.19999998808,22375.30000001192,22979.399999976158,23494.899999976158,24373.30000001192,25985,29459.5,34087.39999997616,35820.59999996424,36996.89999997616,38307.59999996424,39157,41767.09999996424],"mouse_events":[],"honeypot":0,"survey":"mace","page":2,"trial_type":"survey-mace","trial_index":10,"time_elapsed":421368,"internal_node_id":"0.0-10.0","task_version":"prescreen-v0.3","browser_interactions":0},{"responses":{"01":"No","02":"No","03":"No","04":"No"},"rt":10858.399999976158,"item_order":[0,1,2,3],"radio_events":[2954.699999988079,6867.5,7735.5,9554.899999976158],"checkbox_events":[],"key_events":[2954.699999988079,5352.5,6867.5,7735.5,8597.399999976158,8999.399999976158,9554.899999976158,10857.099999964237],"mouse_events":[],"honeypot":0,"survey":"mace","page":3,"trial_type":"survey-mace","trial_index":11,"time_elapsed":432230,"internal_node_id":"0.0-11.0","task_version":"prescreen-v0.3","browser_interactions":0},{"responses":{"01":"No","02":"No"},"rt":7905.5,"item_order":[0,1],"radio_events":[1908.800000011921,5189],"checkbox_events":[],"key_events":[1908.800000011921,4633.400000035763,5189,7904.800000011921],"mouse_events":[],"honeypot":0,"survey":"mace","page":4,"trial_type":"survey-mace","trial_index":12,"time_elapsed":440139,"internal_node_id":"0.0-12.0","task_version":"prescreen-v0.3","browser_interactions":0},{"responses":{"01":"No","02":"No","03":"No","04":"No","05":"No"},"rt":21280.599999964237,"item_order":[0,1,2,3,4],"radio_events":[5185.699999988079,8689.699999988079,11785.799999952316,13912,16563.5],"checkbox_events":[],"key_events":[5185.699999988079,8689.699999988079,11785.799999952316,13912,16563.5,21279.099999964237],"mouse_events":[],"honeypot":0,"survey":"mace","page":5,"trial_type":"survey-mace","trial_index":13,"time_elapsed":461424,"internal_node_id":"0.0-13.0","task_version":"prescreen-v0.3","browser_interactions":0},{"responses":{"01":"No","02":"No","03":"No","04":"No","05":"No"},"rt":15798.699999988079,"item_order":[0,1,2,3,4],"radio_events":[7331.599999964237,9911.699999988079,12759.699999988079,13616.899999976158,15273.099999964237],"checkbox_events":[],"key_events":[7331.599999964237,9911.699999988079,12759.699999988079,13616.899999976158,15273.099999964237,15797.300000011921],"mouse_events":[],"honeypot":0,"survey":"mace","page":6,"trial_type":"survey-mace","trial_index":14,"time_elapsed":477227,"internal_node_id":"0.0-14.0","task_version":"prescreen-v0.3","browser_interactions":0},{"responses":{"01":"No","02":"No","03":"No","04":"No","05":"No","06":"No","07":"No"},"rt":13626.899999976158,"item_order":[0,1,2,3,4,5,6],"radio_events":[3667.899999976158,5232.299999952316,6577.599999964237,8205.799999952316,9425.5,11139.899999976158,11881.199999988079],"checkbox_events":[],"key_events":[3667.899999976158,5232.299999952316,6577.599999964237,8205.799999952316,9425.5,11139.899999976158,11881.199999988079,13623.099999964237],"mouse_events":[],"honeypot":0,"survey":"mace","page":7,"trial_type":"survey-mace","trial_index":15,"time_elapsed":490859,"internal_node_id":"0.0-15.0","task_version":"prescreen-v0.3","browser_interactions":0},{"responses":{"01":"No","02":"No","03":"No","04":"No"},"rt":15033.699999988079,"item_order":[0,1,2,3],"radio_events":[8421.699999988079,10340.5,12378.199999988079,14232.5],"checkbox_events":[],"key_events":[8421.699999988079,10340.5,12378.199999988079,14232.5,15032.5],"mouse_events":[],"honeypot":0,"survey":"mace","page":8,"trial_type":"survey-mace","trial_index":16,"time_elapsed":505899,"internal_node_id":"0.0-16.0","task_version":"prescreen-v0.3","browser_interactions":0},{"responses":{"01":"Yes","01_ages_1":"1","01_ages_2":"2","01_ages_3":"3","01_ages_4":"4","01_ages_5":"5","01_ages_6":"6","01_ages_7":"7","01_ages_8":"8","01_ages_9":"9","01_ages_10":"10","01_ages_11":"11","01_ages_12":"12","01_ages_13":"13","01_ages_14":"14","01_ages_15":"15","01_ages_16":"16","01_ages_17":"17","01_ages_18":"18","02":"Yes","02_ages_1":"1","02_ages_2":"2","02_ages_3":"3","02_ages_4":"4","02_ages_5":"5","02_ages_6":"6","02_ages_7":"7","02_ages_8":"8","02_ages_9":"9","02_ages_10":"10","02_ages_11":"11","02_ages_12":"12","02_ages_13":"13","02_ages_14":"14","02_ages_15":"15","02_ages_16":"16","02_ages_17":"17","02_ages_18":"18","03":"Yes","03_ages_1":"1","03_ages_2":"2","03_ages_3":"3","03_ages_4":"4","03_ages_5":"5","03_ages_6":"6","03_ages_7":"7","03_ages_8":"8","03_ages_9":"9","03_ages_10":"10","03_ages_11":"11","03_ages_12":"12","03_ages_13":"13","03_ages_14":"14","03_ages_15":"15","03_ages_16":"16","03_ages_17":"17","03_ages_18":"18","04":"Yes","04_ages_1":"1","04_ages_2":"2","04_ages_3":"3","04_ages_4":"4","04_ages_5":"5","04_ages_6":"6","04_ages_7":"7","04_ages_8":"8","04_ages_9":"9","04_ages_10":"10","04_ages_11":"11","04_ages_12":"12","04_ages_13":"13","04_ages_14":"14","04_ages_15":"15","04_ages_16":"16","04_ages_17":"17","04_ages_18":"18"},"rt":122210.69999998808,"item_order":[0,1,2,3],"radio_events":[4436,20301,38108.60000002384,63164.39999997616],"checkbox_events":[7966,8540.399999976158,9105.5,9740.300000011921,11428.100000023842,11953.600000023842,12436.399999976158,12802.199999988079,13216.699999988079,14582,15180.5,16210.100000023842,16730.30000001192,17119.100000023842,17658.5,18036.30000001192,18405.899999976158,18898.19999998808,23049.899999976158,23572.19999998808,24012.80000001192,24430.80000001192,24894.30000001192,25282.30000001192,26116.19999998808,26914.30000001192,29408.100000023842,40203.69999998808,40745,42011.69999998808,42758.5,43289.80000001192,43732,44200.10000002384,44612.19999998808,44977.80000001192,45780.10000002384,46240.80000001192,47158.10000002384,47584.89999997616,48089.69999998808,48888.10000002384,49417.80000001192,49858,50336,52365.10000002384,53198.5,54729.80000001192,55632.39999997616,56153.30000001192,56542.10000002384,56934.10000002384,57303.89999997616,58066,58984.19999998808,59444.19999998808,64118.10000002384,64950.19999998808,65666,66158.10000002384,67406,67974,68443.30000001192,68902.30000001192,69418.10000002384,70081.89999997616,70558.80000001192,71130.69999998808,71598.30000001192,72045.10000002384,118464.5,119098.5,119678.39999997616,120164.39999997616],"key_events":[4436,6542.699999988079,7966,8540.399999976158,9105.5,9740.300000011921,10241.300000011921,10745.600000023842,11428.100000023842,11953.600000023842,12436.399999976158,12802.199999988079,13216.699999988079,13592.300000011921,14260.100000023842,14582,15180.5,15793.300000011921,16210.100000023842,16730.30000001192,17119.100000023842,17658.5,18036.30000001192,18405.899999976158,18898.19999998808,20301,23049.899999976158,23572.19999998808,24012.80000001192,24430.80000001192,24894.30000001192,25282.30000001192,26116.19999998808,26914.30000001192,29408.100000023842,38108.60000002384,39467.39999997616,40203.69999998808,40745,41122,41527.60000002384,42011.69999998808,42758.5,43289.80000001192,43732,44200.10000002384,44612.19999998808,44977.80000001192,45469.5,45780.10000002384,46240.80000001192,46836,47158.10000002384,47584.89999997616,48089.69999998808,48512.30000001192,48888.10000002384,49417.80000001192,49858,50336,52365.10000002384,53198.5,54729.80000001192,55283.5,55632.39999997616,56153.30000001192,56542.10000002384,56934.10000002384,57303.89999997616,57674.19999998808,58066,58678.89999997616,58984.19999998808,59444.19999998808,63164.39999997616,64118.10000002384,64472.30000001192,64950.19999998808,65360.10000002384,65666,66158.10000002384,66576.39999997616,67035.80000001192,67406,67974,68443.30000001192,68902.30000001192,69418.10000002384,70081.89999997616,70558.80000001192,71130.69999998808,71598.30000001192,72045.10000002384,72524.5,118464.5,119098.5,119678.39999997616,120164.39999997616,120783.10000002384,122208.60000002384],"mouse_events":[],"honeypot":0,"survey":"mace","page":9,"trial_type":"survey-mace","trial_index":17,"time_elapsed":628115,"internal_node_id":"0.0-17.0","task_version":"prescreen-v0.3","browser_interactions":0},{"responses":{"01":"No","02":"No","03":"No","04":"No","05":"No","06":"Yes","06_ages_17":"17","07":"Yes","07_ages_1":"1","07_ages_2":"2","07_ages_3":"3","07_ages_4":"4","07_ages_5":"5","07_ages_6":"6","07_ages_7":"7","07_ages_8":"8","07_ages_9":"9","07_ages_10":"10","07_ages_11":"11","07_ages_12":"12","07_ages_13":"13","07_ages_14":"14","07_ages_15":"15","07_ages_16":"16","07_ages_17":"17","07_ages_18":"18","08":"Yes","08_ages_1":"1","08_ages_2":"2","08_ages_3":"3","08_ages_4":"4","08_ages_5":"5","08_ages_6":"6","08_ages_7":"7","08_ages_8":"8","08_ages_9":"9","08_ages_10":"10","08_ages_11":"11","08_ages_12":"12","08_ages_13":"13","08_ages_14":"14","08_ages_15":"15","08_ages_16":"16","08_ages_17":"17","08_ages_18":"18"},"rt":38636.90000003576,"item_order":[0,1,2,3,4,5,6,7],"radio_events":[2734,3806.199999988079,5736.100000023842,7151.600000023842,9341.900000035763,10338.100000023842,14082.600000023842,26690.400000035763],"checkbox_events":[11862.5,15793.699999988079,16334.900000035763,16814.30000001192,17298,18300.5,18816.19999998808,19364.600000023842,19805.5,20210.30000001192,20678.30000001192,21122.400000035763,21540.100000023842,21947.900000035763,22394.30000001192,23156,23612.19999998808,24053.600000023842,24582,28865.80000001192,29273.900000035763,29644,30057.80000001192,30450.100000023842,31203.80000001192,31634.400000035763,32198.80000001192,32976.40000003576,33452.30000001192,34262.30000001192,34754,35151.90000003576,35567.90000003576,35970.10000002384,37288.90000003576,37680.80000001192,38094.30000001192],"key_events":[2734,3806.199999988079,5736.100000023842,7151.600000023842,8282.300000011921,9341.900000035763,10338.100000023842,11862.5,14082.600000023842,15793.699999988079,16334.900000035763,16814.30000001192,17298,17862.69999998808,18300.5,18816.19999998808,19364.600000023842,19805.5,20210.30000001192,20678.30000001192,21122.400000035763,21540.100000023842,21947.900000035763,22394.30000001192,22813.80000001192,23156,23612.19999998808,24053.600000023842,24582,25219.600000023842,26690.400000035763,28865.80000001192,29273.900000035763,29644,30057.80000001192,30450.100000023842,30828.30000001192,31203.80000001192,31634.400000035763,32198.80000001192,32976.40000003576,33452.30000001192,33916.30000001192,34262.30000001192,34754,35151.90000003576,35567.90000003576,35970.10000002384,37288.90000003576,37680.80000001192,38094.30000001192,38634.60000002384],"mouse_events":[],"honeypot":0,"survey":"mace","page":10,"trial_type":"survey-mace","trial_index":18,"time_elapsed":666759,"internal_node_id":"0.0-18.0","task_version":"prescreen-v0.3","browser_interactions":0,"instructed":0},{"rt":7231.200000047684,"trial_type":"mental-health-alert","trial_index":19,"time_elapsed":673994,"internal_node_id":"0.0-19.0","task_version":"prescreen-v0.3","interactions":"[]"}]