[{"view_history":[{"page_index":0,"viewing_time":1711.6000000014901},{"page_index":1,"viewing_time":1688.1000000014901},{"page_index":2,"viewing_time":1411.7999999970198},{"page_index":3,"viewing_time":873.8000000044703}],"rt":5685.70000000298,"trial_type":"instructions","trial_index":0,"time_elapsed":5698,"internal_node_id":"0.0-0.0","task_version":"prescreen-v0.3"},{"rt":16739.89999999851,"responses":{"age":"21","gender-categorical":"Male","gender-free-response":"","ethnicity":"Not Hispanic or Latino","race":["White"],"education":"High school","siblings":"5"},"trial_type":"survey-demo","trial_index":1,"time_elapsed":22442,"internal_node_id":"0.0-1.0","task_version":"prescreen-v0.3"},{"responses":{"Q15":"2","Q01":"0","Q17":"0","Q20":"0","Q14":"0","Q10":"0","Q05":"1","Q19":"1","Q13":"0","Q04":"0","Q18":"0","Q11":"0","Q03":"0","Q08":"0","Q12":"1","Q02":"0","Q21":"3","Q16":"1","Q09":"0","Q07":"2","Q06":"1"},"rt":125508,"item_order":[14,0,16,19,13,9,4,18,12,3,17,10,2,7,11,1,20,15,8,6,5],"radio_events":[39795.60000000149,42078.20000000298,44912.30000000447,49200.30000000447,53595.20000000298,54792.30000000447,57147.39999999851,64245.39999999851,67271.20000000298,71962.30000000447,75495.20000000298,79785.39999999851,81664.30000000447,85057.30000000447,91700.20000000298,93755.30000000447,98686.30000000447,105045.30000000447,114764.39999999851,119607.39999999851,121255.20000000298,124978.20000000298],"key_events":[],"mouse_events":[39795.60000000149,42078.20000000298,44912.30000000447,49200.30000000447,52828.20000000298,53595.20000000298,54792.30000000447,57147.39999999851,64245.39999999851,67271.20000000298,69381.30000000447,71962.30000000447,75495.20000000298,79785.39999999851,81664.30000000447,85057.30000000447,91700.20000000298,93755.30000000447,95016.20000000298,98686.30000000447,105045.30000000447,114764.39999999851,119607.39999999851,121255.20000000298,124978.20000000298,125506.39999999851],"straightlining":0.6190476190476191,"zigzagging":0.35,"honeypot":0,"survey":"sns","trial_type":"survey-template","trial_index":2,"time_elapsed":147957,"internal_node_id":"0.0-2.0","task_version":"prescreen-v0.3","browser_interactions":2,"infrequency":0},{"responses":{"Q08":"3","Q10":"3","Q07":"3","Q03":"2","Q04":"3","Q05":"3","Q13":"0","Q02":"1","Q01":"3","Q12":"2","Q09":"2","Q11":"2","Q06":"3"},"rt":77035.5,"item_order":[7,9,6,2,3,4,12,1,0,11,8,10,5],"radio_events":[7240.39999999851,9956.79999999702,14463.60000000149,18022.5,21611.60000000149,24339.39999999851,29474.5,52096.60000000149,56378.5,61083.5,64938.39999999851,73475.5,76454.5],"key_events":[],"mouse_events":[7240.39999999851,9956.79999999702,14463.60000000149,17594.5,18022.5,21611.60000000149,24339.39999999851,29474.5,52096.60000000149,56378.5,61083.5,64938.39999999851,73475.5,76454.5,77034.60000000149],"straightlining":0.5384615384615384,"zigzagging":0.5,"honeypot":0,"survey":"bisbas","trial_type":"survey-template","trial_index":3,"time_elapsed":224998,"internal_node_id":"0.0-3.0","task_version":"prescreen-v0.3","browser_interactions":2,"infrequency":0},{"responses":{"Q01":"4","Q02":"3","Q03":"3"},"rt":19633.39999999851,"radio_events":[4920,5811.89999999851,6796.19999999553,11325,18996.79999999702],"key_events":[],"mouse_events":[4920,5811.89999999851,6796.19999999553,10944.89999999851,11325,18996.79999999702,19632.89999999851],"survey":"map","page":1,"trial_type":"survey-map","trial_index":4,"time_elapsed":244636,"internal_node_id":"0.0-4.0","task_version":"prescreen-v0.3","browser_interactions":0},{"responses":{"Q04":"3","Q05":"3","Q06":"4"},"rt":52942.89999999851,"radio_events":[50083.5,50925.39999999851,52278.29999999702],"key_events":[],"mouse_events":[50083.5,50925.39999999851,51921.19999999553,52278.29999999702,52942.29999999702],"survey":"map","page":2,"trial_type":"survey-map","trial_index":5,"time_elapsed":297583,"internal_node_id":"0.0-5.0","task_version":"prescreen-v0.3","browser_interactions":2},{"responses":{"Q07":"4","Q08":"3","Q09":"3"},"rt":14242.10000000149,"radio_events":[3360.7000000029802,3926.60000000149,9627.70000000298,10639.60000000149,11183.70000000298,13708.70000000298],"key_events":[],"mouse_events":[3360.7000000029802,3926.60000000149,9627.70000000298,10371.39999999851,10639.60000000149,11183.70000000298,11927.60000000149,12406.60000000149,13708.70000000298,14241.60000000149],"survey":"map","page":3,"trial_type":"survey-map","trial_index":6,"time_elapsed":311829,"internal_node_id":"0.0-6.0","task_version":"prescreen-v0.3","browser_interactions":0},{"responses":{"Q10":"4","Q11":"3","Q12":"3","Q13":"3","Q16":"0","Q14":"4","Q15":"3"},"rt":45167.19999999553,"radio_events":[18366.39999999851,19660.29999999702,22264.5,25524.29999999702,29843.89999999851,40142.29999999702,43889.29999999702],"key_events":[],"mouse_events":[18366.39999999851,19660.29999999702,22264.5,25524.29999999702,29843.89999999851,38376.5,40142.29999999702,41569.5,43889.29999999702,45166.39999999851],"survey":"map","page":4,"trial_type":"survey-map","trial_index":7,"time_elapsed":357000,"internal_node_id":"0.0-7.0","task_version":"prescreen-v0.3","browser_interactions":2,"infrequency":0},{"view_history":[{"page_index":0,"viewing_time":2702.2000000029802},{"page_index":1,"viewing_time":3044.7999999970198}],"rt":5747.5,"trial_type":"instructions","trial_index":8,"time_elapsed":362751,"internal_node_id":"0.0-8.0","task_version":"prescreen-v0.3"},{"responses":{"01":"No","02":"No","03":"No","04":"No","05":"No","06":"No"},"rt":17334.89999999851,"item_order":[0,1,2,3,4,5],"radio_events":[7367.69999999553,9877.5,12435.59999999404,13442.5,15601.5,16823.5],"checkbox_events":[],"key_events":[],"mouse_events":[0.09999999403953552,7367.69999999553,9564.39999999851,9877.5,11757.39999999851,12435.59999999404,13442.5,15601.5,16395.5,16823.5,17332.69999999553],"honeypot":0,"survey":"mace","page":1,"trial_type":"survey-mace","trial_index":9,"time_elapsed":380091,"internal_node_id":"0.0-9.0","task_version":"prescreen-v0.3","browser_interactions":0},{"responses":{"01":"No","02":"No","03":"No","04":"No","05":"No","06":"No","07":"No","08":"No"},"rt":15033.80000000447,"item_order":[0,1,2,3,4,5,6,7],"radio_events":[3651.9000000059605,5331,5921.9000000059605,6593.80000000447,7665.9000000059605,8686.80000000447,9843.70000000298,10658.80000000447],"checkbox_events":[],"key_events":[],"mouse_events":[3651.9000000059605,4287.80000000447,5331,5921.9000000059605,6593.80000000447,7665.9000000059605,8686.80000000447,9843.70000000298,10658.80000000447,15031],"honeypot":0,"survey":"mace","page":2,"trial_type":"survey-mace","trial_index":10,"time_elapsed":395131,"internal_node_id":"0.0-10.0","task_version":"prescreen-v0.3","browser_interactions":0},{"responses":{"01":"No","02":"No","03":"No","04":"No"},"rt":7772.60000000149,"item_order":[0,1,2,3],"radio_events":[3093.10000000149,4997.10000000149,6269.10000000149,7290.20000000298],"checkbox_events":[],"key_events":[],"mouse_events":[3093.10000000149,3639.10000000149,4997.10000000149,6269.10000000149,7290.20000000298,7771.10000000149],"honeypot":0,"survey":"mace","page":3,"trial_type":"survey-mace","trial_index":11,"time_elapsed":402908,"internal_node_id":"0.0-11.0","task_version":"prescreen-v0.3","browser_interactions":0},{"responses":{"01":"No","02":"No"},"rt":13370.89999999851,"item_order":[0,1],"radio_events":[3215.2000000029802,3826.89999999851],"checkbox_events":[],"key_events":[],"mouse_events":[3215.2000000029802,3826.89999999851,13370],"honeypot":0,"survey":"mace","page":4,"trial_type":"survey-mace","trial_index":12,"time_elapsed":416284,"internal_node_id":"0.0-12.0","task_version":"prescreen-v0.3","browser_interactions":0},{"responses":{"01":"No","02":"No","03":"No","04":"No","05":"No"},"rt":16718.39999999851,"item_order":[0,1,2,3,4],"radio_events":[9407.80000000447,10491.89999999851,12791.70000000298,13913.60000000149,15348.70000000298],"checkbox_events":[],"key_events":[],"mouse_events":[8456.60000000149,9090.60000000149,9407.80000000447,10491.89999999851,12791.70000000298,13913.60000000149,14513.60000000149,14981.60000000149,15348.70000000298,16716.80000000447],"honeypot":0,"survey":"mace","page":5,"trial_type":"survey-mace","trial_index":13,"time_elapsed":433007,"internal_node_id":"0.0-13.0","task_version":"prescreen-v0.3","browser_interactions":0},{"responses":{"01":"No","02":"No","03":"No","04":"No","05":"No"},"rt":17831.20000000298,"item_order":[0,1,2,3,4],"radio_events":[6446.5,7363.60000000149,11486.70000000298,16245.5,17162.60000000149],"checkbox_events":[],"key_events":[],"mouse_events":[6446.5,7363.60000000149,11486.70000000298,16245.5,16850.29999999702,17162.60000000149,17829.5],"honeypot":0,"survey":"mace","page":6,"trial_type":"survey-mace","trial_index":14,"time_elapsed":450843,"internal_node_id":"0.0-14.0","task_version":"prescreen-v0.3","browser_interactions":0},{"responses":{"01":"No","02":"No","03":"No","04":"No","05":"No","06":"No","07":"No"},"rt":10603.80000000447,"item_order":[0,1,2,3,4,5,6],"radio_events":[2960.3000000044703,4287.30000000447,5480.20000000298,6652.30000000447,7529.10000000149,9002.30000000447,9656.30000000447],"checkbox_events":[],"key_events":[],"mouse_events":[2960.3000000044703,3541,4287.30000000447,5480.20000000298,6652.30000000447,7529.10000000149,8599.20000000298,9002.30000000447,9656.30000000447,10601.30000000447],"honeypot":0,"survey":"mace","page":7,"trial_type":"survey-mace","trial_index":15,"time_elapsed":461452,"internal_node_id":"0.0-15.0","task_version":"prescreen-v0.3","browser_interactions":0},{"responses":{"01":"No","02":"No","03":"No","04":"No"},"rt":19746.10000000149,"item_order":[0,1,2,3],"radio_events":[15190.80000000447,16072.70000000298,18098.60000000149,19081.80000000447],"checkbox_events":[],"key_events":[],"mouse_events":[15190.80000000447,16072.70000000298,16835.70000000298,18098.60000000149,18754.60000000149,19081.80000000447,19744.70000000298],"honeypot":0,"survey":"mace","page":8,"trial_type":"survey-mace","trial_index":16,"time_elapsed":481202,"internal_node_id":"0.0-16.0","task_version":"prescreen-v0.3","browser_interactions":0},{"responses":{"01":"Yes","01_ages_15":"15","01_ages_18":"18","02":"Yes","02_ages_15":"15","02_ages_18":"18","03":"No","04":"No"},"rt":42350.60000000149,"item_order":[0,1,2,3],"radio_events":[4343.79999999702,18178.89999999851,33521,35333.89999999851,41705.89999999851],"checkbox_events":[12134.10000000149,12816,13454.79999999702,14492,22870,24781],"key_events":[],"mouse_events":[4343.79999999702,12134.10000000149,12816,13454.79999999702,14492,18178.89999999851,22870,24781,33521,35333.89999999851,41380.69999999553,41705.89999999851,42349.29999999702],"honeypot":0,"survey":"mace","page":9,"trial_type":"survey-mace","trial_index":17,"time_elapsed":523558,"internal_node_id":"0.0-17.0","task_version":"prescreen-v0.3","browser_interactions":0},{"responses":{"01":"No","02":"No","03":"No","04":"No","05":"Yes","05_ages_13":"13","06":"Yes","06_ages_17":"17","07":"Yes","07_ages_7":"7","07_ages_8":"8","07_ages_9":"9","07_ages_10":"10","07_ages_11":"11","07_ages_12":"12","07_ages_13":"13","07_ages_14":"14","07_ages_15":"15","07_ages_16":"16","07_ages_17":"17","07_ages_18":"18","08":"Yes","08_ages_6":"6","08_ages_7":"7","08_ages_8":"8","08_ages_9":"9","08_ages_10":"10","08_ages_11":"11","08_ages_12":"12","08_ages_13":"13","08_ages_14":"14","08_ages_15":"15","08_ages_16":"16","08_ages_17":"17","08_ages_18":"18"},"rt":59035.10000000149,"item_order":[0,1,2,3,4,5,6,7],"radio_events":[6877.60000000149,11732.5,12782.5,16705.5,18409.5,20268.29999999702,23545.39999999851,33433.5,48302],"checkbox_events":[8419.39999999851,30414.39999999851,34926.5,35223.39999999851,35939,36261.39999999851,36930.39999999851,37524.39999999851,38082.29999999702,38863.29999999702,39546.5,40321.29999999702,40916.5,41257.39999999851,41858.29999999702,42538.29999999702,43259.19999999553,44562.5,44917.39999999851,45509.19999999553,45794.5,46142.39999999851,50424.29999999702,51071.39999999851,51468.19999999553,51862.39999999851,52209.39999999851,52812.39999999851,53828.19999999553,54228.39999999851,54750.5,55116.5,55541.39999999851,56084.29999999702,56457.29999999702],"key_events":[],"mouse_events":[6877.60000000149,8419.39999999851,11732.5,12782.5,16705.5,17477.69999999553,18409.5,20268.29999999702,23545.39999999851,30065.39999999851,30414.39999999851,33433.5,34926.5,35223.39999999851,35571.5,35939,36261.39999999851,36587.29999999702,36930.39999999851,37236.69999999553,37524.39999999851,37838.39999999851,38082.29999999702,38863.29999999702,39546.5,40321.29999999702,40916.5,41257.39999999851,41858.29999999702,42167.39999999851,42538.29999999702,42937.60000000149,43259.19999999553,43996.60000000149,44562.5,44917.39999999851,45263.39999999851,45509.19999999553,45794.5,46142.39999999851,48302,49763.29999999702,50424.29999999702,50759.60000000149,51071.39999999851,51468.19999999553,51862.39999999851,52209.39999999851,52607,52812.39999999851,53336.60000000149,53614.29999999702,53828.19999999553,54228.39999999851,54750.5,55116.5,55541.39999999851,56084.29999999702,56457.29999999702,59032.69999999553],"honeypot":0,"survey":"mace","page":10,"trial_type":"survey-mace","trial_index":18,"time_elapsed":582598,"internal_node_id":"0.0-18.0","task_version":"prescreen-v0.3","browser_interactions":0,"instructed":0},{"rt":2199.5,"trial_type":"mental-health-alert","trial_index":19,"time_elapsed":584801,"internal_node_id":"0.0-19.0","task_version":"prescreen-v0.3","interactions":"[{\"event\":\"blur\",\"trial\":2,\"time\":24929},{\"event\":\"focus\",\"trial\":2,\"time\":54780},{\"event\":\"blur\",\"trial\":3,\"time\":178301},{\"event\":\"focus\",\"trial\":3,\"time\":191780},{\"event\":\"blur\",\"trial\":5,\"time\":246531},{\"event\":\"focus\",\"trial\":5,\"time\":288327},{\"event\":\"blur\",\"trial\":7,\"time\":314979},{\"event\":\"focus\",\"trial\":7,\"time\":326018}]"}]