[{"view_history":[{"page_index":0,"viewing_time":2092},{"page_index":1,"viewing_time":1822},{"page_index":2,"viewing_time":1785},{"page_index":3,"viewing_time":836}],"rt":6536,"trial_type":"instructions","trial_index":0,"time_elapsed":6543,"internal_node_id":"0.0-0.0","task_version":"prescreen-v0.3"},{"rt":10495,"responses":{"age":"18","gender-categorical":"Female","gender-free-response":"","ethnicity":"Not Hispanic or Latino","race":["Asian"],"education":"High school"},"trial_type":"survey-demo","trial_index":1,"time_elapsed":17045,"internal_node_id":"0.0-1.0","task_version":"prescreen-v0.3"},{"responses":{"Q19":"0","Q09":"0","Q07":"0","Q15":"1","Q08":"1","Q20":"1","Q12":"1","Q04":"0","Q21":"3","Q18":"0","Q05":"0","Q06":"2","Q16":"1","Q11":"0","Q02":"0","Q17":"0","Q10":"0","Q01":"0","Q03":"0","Q14":"0","Q13":"0"},"rt":157423,"item_order":[18,8,6,14,7,19,11,3,20,17,4,5,15,10,1,16,9,0,2,13,12],"radio_events":[29701,38518,41457,63071,71316,73519,79215,86894,90451,93890.00000000001,106031.99999999999,111722.00000000003,121467,126885,131922,137652,143350,149174.00000000003,149882,153360,155245],"key_events":[],"mouse_events":[29701,38518,41457,63071,71316,73519,79215,86894,90451,93890.00000000001,106031.99999999999,111722.00000000003,121467,126885,131922,137272,137652,143350,148197,149174.00000000003,149882,153360,155245,157411],"straightlining":0.6666666666666666,"zigzagging":0.3,"honeypot":0,"survey":"sns","trial_type":"survey-template","trial_index":2,"time_elapsed":174478,"internal_node_id":"0.0-2.0","task_version":"prescreen-v0.3","browser_interactions":0,"infrequency":0},{"responses":{"Q11":"3","Q13":"0","Q01":"2","Q08":"3","Q07":"3","Q02":"2","Q05":"3","Q10":"2","Q06":"3","Q04":"2","Q03":"1","Q12":"2","Q09":"3"},"rt":57239,"item_order":[10,12,0,7,6,1,4,9,5,3,2,11,8],"radio_events":[18776.00000000003,20573,24426,25826,28682,30647,32629,40689,43682,45416,48122,52792,55043,56755],"key_events":[],"mouse_events":[18776.00000000003,20573,24426,25826,28682,30647,32629,39249,40689,43682,45416,48122,52792,55043,56755,57233],"straightlining":0.46153846153846156,"zigzagging":0.8333333333333334,"honeypot":0,"survey":"bisbas","trial_type":"survey-template","trial_index":3,"time_elapsed":231703,"internal_node_id":"0.0-3.0","task_version":"prescreen-v0.3","browser_interactions":0,"infrequency":0},{"responses":{"Q01":"2","Q02":"2","Q03":"4"},"rt":37512.99999999997,"radio_events":[12554,18281.99999999997,20519.99999999997,22175,36697.99999999997],"key_events":[],"mouse_events":[12554,18281.99999999997,20519.99999999997,22175,36697.99999999997,37509.00000000003],"survey":"map","page":1,"trial_type":"survey-map","trial_index":4,"time_elapsed":269221,"internal_node_id":"0.0-4.0","task_version":"prescreen-v0.3","browser_interactions":0},{"responses":{"Q04":"4","Q05":"1","Q06":"3"},"rt":13231,"radio_events":[5526,7315.000000000058,11869],"key_events":[],"mouse_events":[3853,5526,7315.000000000058,11869,13229],"survey":"map","page":2,"trial_type":"survey-map","trial_index":5,"time_elapsed":282456,"internal_node_id":"0.0-5.0","task_version":"prescreen-v0.3","browser_interactions":0},{"responses":{"Q07":"3","Q08":"0","Q09":"3"},"rt":10619,"radio_events":[6463,7880,9917.000000000058],"key_events":[],"mouse_events":[6463,7880,9917.000000000058,10617],"survey":"map","page":3,"trial_type":"survey-map","trial_index":6,"time_elapsed":293081,"internal_node_id":"0.0-6.0","task_version":"prescreen-v0.3","browser_interactions":0},{"responses":{"Q10":"2","Q11":"2","Q12":"3","Q13":"3","Q16":"0","Q14":"4","Q15":"4"},"rt":23113,"radio_events":[5343.000000000058,8494,11256,12990,15840,19780,22359],"key_events":[],"mouse_events":[5343.000000000058,8494,11256,12990,15840,19780,21848,22359,23107],"survey":"map","page":4,"trial_type":"survey-map","trial_index":7,"time_elapsed":316197,"internal_node_id":"0.0-7.0","task_version":"prescreen-v0.3","browser_interactions":0,"infrequency":0},{"view_history":[{"page_index":0,"viewing_time":1916},{"page_index":1,"viewing_time":2411}],"rt":4327,"trial_type":"instructions","trial_index":8,"time_elapsed":320527,"internal_node_id":"0.0-8.0","task_version":"prescreen-v0.3"},{"responses":{"01":"No","02":"No","03":"No","04":"No","05":"No","06":"Yes","06_ages_4":"4","06_ages_5":"5","06_ages_6":"6","06_ages_7":"7","06_ages_8":"8","06_ages_9":"9","06_ages_10":"10","06_ages_11":"11","06_ages_12":"12","06_ages_13":"13","06_ages_14":"14","06_ages_15":"15","06_ages_16":"16","06_ages_17":"17","06_ages_18":"18"},"rt":40893.00000000006,"item_order":[0,1,2,3,4,5],"radio_events":[7431,11903,14299,15461,21349,22854],"checkbox_events":[26824,30692,31067,31560,32434.00000000006,33032,33501,34161,34694,35236,35682,36406,36859,37846,40131.00000000006],"key_events":[],"mouse_events":[0,7431,11903,14299,15461,21349,22854,26824,30692,31067,31560,31998,32434.00000000006,33032,33501,34161,34694,35236,35682,36406,36859,37400,37846,40131.00000000006,40886],"honeypot":0,"survey":"mace","page":1,"trial_type":"survey-mace","trial_index":9,"time_elapsed":361440,"internal_node_id":"0.0-9.0","task_version":"prescreen-v0.3","browser_interactions":0},{"responses":{"01":"Yes","01_ages_12":"12","01_ages_14":"14","01_ages_15":"15","02":"No","03":"Yes","03_ages_4":"4","03_ages_5":"5","03_ages_6":"6","03_ages_7":"7","03_ages_8":"8","03_ages_9":"9","03_ages_10":"10","03_ages_11":"11","03_ages_12":"12","03_ages_13":"13","03_ages_14":"14","03_ages_15":"15","04":"No","05":"Yes","05_ages_8":"8","06":"No","07":"No","08":"No"},"rt":58638,"item_order":[0,1,2,3,4,5,6,7],"radio_events":[3489,21538,24268,43805.00000000006,44778,55829.00000000006,56696,57802],"checkbox_events":[9712,13548.000000000058,14893,25748,26122,26576,27132.00000000006,28009,28740,29298.00000000006,30005,30633,31072.00000000006,31597,32400,49972],"key_events":[],"mouse_events":[3489,9712,13548.000000000058,14893,21538,23428,24268,25748,26122,26576,27132.00000000006,28009,28740,29298.00000000006,30005,30633,31072.00000000006,31597,32400,34129,43805.00000000006,44778,49972,55829.00000000006,56696,57802,58630],"honeypot":0,"survey":"mace","page":2,"trial_type":"survey-mace","trial_index":10,"time_elapsed":420086,"internal_node_id":"0.0-10.0","task_version":"prescreen-v0.3","browser_interactions":0},{"responses":{"01":"No","02":"No","03":"No","04":"No"},"rt":5467.999999999942,"item_order":[0,1,2,3],"radio_events":[1930,2777.999999999942,3887.999999999942,4876.999999999942],"checkbox_events":[],"key_events":[],"mouse_events":[1930,2777.999999999942,3887.999999999942,4876.999999999942,5463.999999999942],"honeypot":0,"survey":"mace","page":3,"trial_type":"survey-mace","trial_index":11,"time_elapsed":425564,"internal_node_id":"0.0-11.0","task_version":"prescreen-v0.3","browser_interactions":0},{"responses":{"01":"No","02":"No"},"rt":3274,"item_order":[0,1],"radio_events":[1806,2658],"checkbox_events":[],"key_events":[],"mouse_events":[1806,2658,3271],"honeypot":0,"survey":"mace","page":4,"trial_type":"survey-mace","trial_index":12,"time_elapsed":428842,"internal_node_id":"0.0-12.0","task_version":"prescreen-v0.3","browser_interactions":0},{"responses":{"01":"No","02":"No","03":"No","04":"No","05":"No"},"rt":9079,"item_order":[0,1,2,3,4],"radio_events":[4649.999999999942,5293,6270.999999999942,7026.999999999942,8052.999999999942],"checkbox_events":[],"key_events":[],"mouse_events":[4649.999999999942,5293,6270.999999999942,7026.999999999942,8052.999999999942,9072.999999999942],"honeypot":0,"survey":"mace","page":5,"trial_type":"survey-mace","trial_index":13,"time_elapsed":437924,"internal_node_id":"0.0-13.0","task_version":"prescreen-v0.3","browser_interactions":0},{"responses":{"01":"No","02":"No","03":"No","04":"No","05":"No"},"rt":8439,"item_order":[0,1,2,3,4],"radio_events":[4112,5114,5847,6754,7694],"checkbox_events":[],"key_events":[],"mouse_events":[4112,5114,5847,6754,7694,8434],"honeypot":0,"survey":"mace","page":6,"trial_type":"survey-mace","trial_index":14,"time_elapsed":446367,"internal_node_id":"0.0-14.0","task_version":"prescreen-v0.3","browser_interactions":0},{"responses":{"01":"No","02":"No","03":"No","04":"No","05":"No","06":"No","07":"No"},"rt":8338,"item_order":[0,1,2,3,4,5,6],"radio_events":[1335,2268.000000000058,3174,3985,5003,6189,7797.000000000058],"checkbox_events":[],"key_events":[],"mouse_events":[1335,2268.000000000058,3174,3985,5003,6189,6945,7797.000000000058,8330],"honeypot":0,"survey":"mace","page":7,"trial_type":"survey-mace","trial_index":15,"time_elapsed":454710,"internal_node_id":"0.0-15.0","task_version":"prescreen-v0.3","browser_interactions":0},{"responses":{"01":"No","02":"Yes","02_ages_8":"8","02_ages_9":"9","02_ages_10":"10","02_ages_11":"11","02_ages_12":"12","02_ages_13":"13","02_ages_14":"14","03":"Yes","03_ages_8":"8","03_ages_9":"9","03_ages_10":"10","03_ages_11":"11","03_ages_12":"12","03_ages_13":"13","03_ages_14":"14","03_ages_15":"15","03_ages_16":"16","03_ages_17":"17","03_ages_18":"18","04":"No"},"rt":41989.99999999994,"item_order":[0,1,2,3],"radio_events":[9459,13923.999999999942,15841.999999999942,20202.99999999994],"checkbox_events":[25788.99999999994,26234.99999999994,26616.99999999994,27117.99999999994,27603.99999999994,28176.99999999994,31717.99999999994,32632.99999999994,33229.99999999994,33642.99999999994,34597.99999999994,35281.99999999994,36866.99999999994,37884.99999999994,38441.99999999994,38912.99999999994,39563.99999999994,40128.99999999994],"key_events":[],"mouse_events":[8839,9459,13923.999999999942,15841.999999999942,20202.99999999994,25788.99999999994,26234.99999999994,26616.99999999994,27117.99999999994,27603.99999999994,28176.99999999994,31717.99999999994,32147.99999999994,32632.99999999994,33229.99999999994,33642.99999999994,34151.99999999994,34597.99999999994,35281.99999999994,36866.99999999994,37884.99999999994,38441.99999999994,38912.99999999994,39563.99999999994,40128.99999999994,41983],"honeypot":0,"survey":"mace","page":8,"trial_type":"survey-mace","trial_index":16,"time_elapsed":496707,"internal_node_id":"0.0-16.0","task_version":"prescreen-v0.3","browser_interactions":0},{"responses":{"01":"No","02":"No","03":"No","04":"No"},"rt":5990,"item_order":[0,1,2,3],"radio_events":[1698,2867,3735,5485],"checkbox_events":[],"key_events":[],"mouse_events":[1698,2867,3735,4960,5485,5987],"honeypot":0,"survey":"mace","page":9,"trial_type":"survey-mace","trial_index":17,"time_elapsed":502704,"internal_node_id":"0.0-17.0","task_version":"prescreen-v0.3","browser_interactions":0},{"responses":{"01":"No","02":"No","03":"No","04":"No","05":"No","06":"Yes","06_ages_17":"17","07":"Yes","07_ages_1":"1","07_ages_2":"2","07_ages_3":"3","07_ages_4":"4","07_ages_5":"5","07_ages_6":"6","07_ages_7":"7","07_ages_8":"8","07_ages_9":"9","07_ages_10":"10","07_ages_11":"11","07_ages_12":"12","07_ages_13":"13","07_ages_14":"14","07_ages_15":"15","07_ages_16":"16","07_ages_17":"17","07_ages_18":"18","08":"Yes","08_ages_1":"1","08_ages_2":"2","08_ages_3":"3","08_ages_4":"4","08_ages_5":"5","08_ages_6":"6","08_ages_7":"7","08_ages_8":"8","08_ages_9":"9","08_ages_10":"10","08_ages_11":"11","08_ages_12":"12","08_ages_13":"13","08_ages_14":"14","08_ages_15":"15","08_ages_16":"16","08_ages_17":"17","08_ages_18":"18"},"rt":44481,"item_order":[0,1,2,3,4,5,6,7],"radio_events":[2013.0000000000582,3223,4295.999999999942,5338,7710.000000000058,9300.999999999942,12962,14704,16805],"checkbox_events":[10988,18260,18698,19295,19732,20337,20800,22040,23075,23584,24212,24713,25646,26146,27101,27730,28351,28899,29607,32552,33030,33506,34787.00000000012,35281,35750,36246,36729,37406,37996,38631,39554,40039,40527,41750,42412.00000000012,42930,43572],"key_events":[],"mouse_events":[2013.0000000000582,3223,4295.999999999942,5338,7710.000000000058,9300.999999999942,10988,12962,13701.000000000058,14704,16805,18260,18698,19295,19732,20337,20800,22040,22589,23075,23584,24212,24713,25215.000000000116,25646,26146,27101,27730,28351,28899,29607,32552,33030,33506,34095,34787.00000000012,35281,35750,36246,36729,37406,37996,38631,39180,39554,40039,40527,41750,42412.00000000012,42930,43572,44473],"honeypot":0,"survey":"mace","page":10,"trial_type":"survey-mace","trial_index":18,"time_elapsed":547193,"internal_node_id":"0.0-18.0","task_version":"prescreen-v0.3","browser_interactions":0,"instructed":0},{"rt":3811,"trial_type":"mental-health-alert","trial_index":19,"time_elapsed":551009,"internal_node_id":"0.0-19.0","task_version":"prescreen-v0.3","interactions":"[]"}]