[{"view_history":[{"page_index":0,"viewing_time":5683.199999999721},{"page_index":1,"viewing_time":7314.399999999907},{"page_index":2,"viewing_time":3285.100000000093},{"page_index":3,"viewing_time":1793.7000000001863}],"rt":18078.19999999972,"trial_type":"instructions","trial_index":0,"time_elapsed":18096,"internal_node_id":"0.0-0.0","task_version":"prescreen-v0.3"},{"rt":30738.299999999814,"responses":{"age":"36","gender-categorical":"Male","gender-free-response":"","ethnicity":"Not Hispanic or Latino","race":["Black or African American"],"education":"High school","siblings":"3"},"trial_type":"survey-demo","trial_index":1,"time_elapsed":48852,"internal_node_id":"0.0-1.0","task_version":"prescreen-v0.3"},{"responses":{"Q02":"2","Q09":"1","Q01":"3","Q20":"2","Q03":"2","Q21":"3","Q05":"2","Q10":"0","Q08":"2","Q11":"1","Q12":"0","Q13":"2","Q19":"2","Q07":"2","Q04":"1","Q06":"2","Q16":"2","Q18":"2","Q17":"2","Q15":"3","Q14":"2"},"rt":103452.29999999981,"item_order":[1,8,0,19,2,20,4,9,7,10,11,12,18,6,3,5,15,17,16,14,13],"radio_events":[5862.799999999814,9683.599999999627,13265.5,17911.399999999907,22597.099999999627,25825.099999999627,38532.69999999972,41134.299999999814,47662.09999999963,50771.299999999814,54792.19999999972,60713.19999999972,63230.59999999963,66752.29999999981,74152.29999999981,79640.79999999981,83902.79999999981,88077.59999999963,92788.29999999981,95279,99357.59999999963,102098.29999999981],"key_events":[],"mouse_events":[5862.799999999814,9683.599999999627,13265.5,17911.399999999907,21654.5,22597.099999999627,25825.099999999627,38532.69999999972,41134.299999999814,47662.09999999963,49977.19999999972,50771.299999999814,54792.19999999972,60713.19999999972,63230.59999999963,66752.29999999981,74152.29999999981,79640.79999999981,83223.19999999972,83902.79999999981,88077.59999999963,92788.29999999981,95279,99357.59999999963,102098.29999999981,103448.3999999999],"straightlining":0.6190476190476191,"zigzagging":0.5,"honeypot":0,"survey":"sns","trial_type":"survey-template","trial_index":2,"time_elapsed":152329,"internal_node_id":"0.0-2.0","task_version":"prescreen-v0.3","browser_interactions":0,"infrequency":0},{"responses":{"Q12":"1","Q03":"2","Q05":"3","Q04":"2","Q06":"2","Q13":"0","Q07":"3","Q01":"3","Q09":"1","Q11":"2","Q08":"2","Q10":"2","Q02":"3"},"rt":51823.5,"item_order":[11,2,4,3,5,12,6,0,8,10,7,9,1],"radio_events":[6853,11781,14469.299999999814,15623.799999999814,19186,23975.299999999814,26031.100000000093,31018.5,36973.19999999972,38502.39999999991,43535.89999999991,46181.19999999972,48713.19999999972,51160.60000000009],"key_events":[],"mouse_events":[5719.199999999721,6853,11175,11781,14469.299999999814,15623.799999999814,19186,23975.299999999814,26031.100000000093,31018.5,36973.19999999972,38502.39999999991,43535.89999999991,46181.19999999972,48713.19999999972,51160.60000000009,51818.299999999814],"straightlining":0.46153846153846156,"zigzagging":0.5,"honeypot":0,"survey":"bisbas","trial_type":"survey-template","trial_index":3,"time_elapsed":204169,"internal_node_id":"0.0-3.0","task_version":"prescreen-v0.3","browser_interactions":0,"infrequency":0},{"responses":{"Q01":"2","Q02":"1","Q03":"4"},"rt":23763.899999999907,"radio_events":[10487.799999999814,18439,23169.600000000093],"key_events":[],"mouse_events":[10487.799999999814,17160.399999999907,18439,22705.600000000093,23169.600000000093,23761.600000000093],"survey":"map","page":1,"trial_type":"survey-map","trial_index":4,"time_elapsed":227945,"internal_node_id":"0.0-4.0","task_version":"prescreen-v0.3","browser_interactions":0},{"responses":{"Q04":"2","Q05":"3","Q06":"3"},"rt":15244.399999999907,"radio_events":[5452.899999999907,8029.800000000279,11614.80000000028,14549.600000000093],"key_events":[],"mouse_events":[5452.899999999907,8029.800000000279,11614.80000000028,14549.600000000093,15240.80000000028],"survey":"map","page":2,"trial_type":"survey-map","trial_index":5,"time_elapsed":243200,"internal_node_id":"0.0-5.0","task_version":"prescreen-v0.3","browser_interactions":0},{"responses":{"Q07":"1","Q08":"1","Q09":"1"},"rt":16058.899999999907,"radio_events":[5213.399999999907,11793.100000000093,15115.399999999907],"key_events":[],"mouse_events":[5213.399999999907,11793.100000000093,15115.399999999907,16057.899999999907],"survey":"map","page":3,"trial_type":"survey-map","trial_index":6,"time_elapsed":259269,"internal_node_id":"0.0-6.0","task_version":"prescreen-v0.3","browser_interactions":0},{"responses":{"Q10":"2","Q11":"0","Q12":"0","Q13":"0","Q16":"0","Q14":"1","Q15":"1"},"rt":34368,"radio_events":[3507.1999999997206,6524.799999999814,13393.399999999907,21212.399999999907,23959.799999999814,31059.099999999627,33494.799999999814],"key_events":[],"mouse_events":[3507.1999999997206,6524.799999999814,13393.399999999907,21212.399999999907,23959.799999999814,31059.099999999627,33494.799999999814,34362.5],"survey":"map","page":4,"trial_type":"survey-map","trial_index":7,"time_elapsed":293648,"internal_node_id":"0.0-7.0","task_version":"prescreen-v0.3","browser_interactions":0,"infrequency":0},{"view_history":[{"page_index":0,"viewing_time":2392.2999999998137},{"page_index":1,"viewing_time":6240.799999999814}],"rt":8635.19999999972,"trial_type":"instructions","trial_index":8,"time_elapsed":302289,"internal_node_id":"0.0-8.0","task_version":"prescreen-v0.3"},{"responses":{"01":"Yes","01_ages_9":"9","01_ages_10":"10","01_ages_11":"11","01_ages_12":"12","01_ages_13":"13","01_ages_14":"14","01_ages_15":"15","01_ages_16":"16","02":"Yes","02_ages_13":"13","02_ages_16":"16","02_ages_18":"18","03":"Yes","03_ages_4":"4","03_ages_5":"5","03_ages_6":"6","03_ages_7":"7","03_ages_8":"8","03_ages_9":"9","03_ages_10":"10","03_ages_11":"11","03_ages_12":"12","03_ages_13":"13","03_ages_14":"14","03_ages_15":"15","03_ages_16":"16","04":"No","05":"No","06":"Yes","06_ages_4":"4","06_ages_5":"5","06_ages_6":"6","06_ages_7":"7","06_ages_8":"8","06_ages_9":"9","06_ages_10":"10","06_ages_11":"11","06_ages_12":"12","06_ages_13":"13","06_ages_14":"14","06_ages_15":"15","06_ages_16":"16"},"rt":97876,"item_order":[0,1,2,3,4,5],"radio_events":[12550,37858.80000000028,50630.30000000028,65464.700000000186,72124.30000000028,79354.6000000001,87780],"checkbox_events":[20958,22326.30000000028,24034.5,24442.200000000186,25239.30000000028,26115.5,26447.200000000186,27603.5,32449.5,33945,40551.700000000186,45323.10000000009,46432.90000000037,53470.60000000009,55054.60000000009,56007.40000000037,56653.200000000186,57078.60000000009,57443.700000000186,57998.5,58749.60000000009,59160.60000000009,60294.700000000186,60794.40000000037,61320.5,61717.5,62183.90000000037,62824.30000000028,89897.6000000001,90645.90000000037,91017.40000000037,91331.5,91943.6000000001,92263,92602,92968,93292.40000000037,93601.80000000028,93913.90000000037,94330.30000000028,94607,94949.20000000019,95381,95689.5,96074.40000000037,96466.20000000019,96775.80000000028],"key_events":[],"mouse_events":[0.3000000002793968,12550,20958,22326.30000000028,24034.5,24442.200000000186,25239.30000000028,26115.5,26447.200000000186,27603.5,32449.5,33945,37858.80000000028,40551.700000000186,45323.10000000009,46432.90000000037,50630.30000000028,53470.60000000009,55054.60000000009,56007.40000000037,56653.200000000186,57078.60000000009,57443.700000000186,57998.5,58749.60000000009,59160.60000000009,60294.700000000186,60794.40000000037,61320.5,61717.5,62183.90000000037,62824.30000000028,65464.700000000186,72124.30000000028,79354.6000000001,87780,89897.6000000001,90645.90000000037,91017.40000000037,91331.5,91943.6000000001,92263,92602,92968,93292.40000000037,93601.80000000028,93913.90000000037,94330.30000000028,94607,94949.20000000019,95381,95689.5,96074.40000000037,96466.20000000019,96775.80000000028,97857.5],"honeypot":0,"survey":"mace","page":1,"trial_type":"survey-mace","trial_index":9,"time_elapsed":400189,"internal_node_id":"0.0-9.0","task_version":"prescreen-v0.3","browser_interactions":0},{"responses":{"01":"Yes","01_ages_8":"8","01_ages_9":"9","01_ages_10":"10","01_ages_11":"11","01_ages_12":"12","01_ages_13":"13","01_ages_14":"14","02":"No","03":"Yes","03_ages_4":"4","03_ages_5":"5","03_ages_6":"6","03_ages_7":"7","03_ages_8":"8","03_ages_9":"9","03_ages_10":"10","03_ages_11":"11","03_ages_12":"12","03_ages_13":"13","03_ages_14":"14","03_ages_15":"15","03_ages_16":"16","04":"No","05":"Yes","05_ages_4":"4","05_ages_5":"5","05_ages_6":"6","05_ages_7":"7","05_ages_8":"8","05_ages_9":"9","05_ages_10":"10","05_ages_11":"11","05_ages_12":"12","05_ages_13":"13","05_ages_14":"14","05_ages_15":"15","05_ages_16":"16","06":"No","07":"No","08":"No"},"rt":56705.80000000028,"item_order":[0,1,2,3,4,5,6,7],"radio_events":[8464.80000000028,21134.399999999907,23180,34245.5,38669.30000000028,50153.10000000009,52057.700000000186,55640.5],"checkbox_events":[12019.5,12343.200000000186,12642.700000000186,13063.399999999907,13844.80000000028,14922.399999999907,15229.100000000093,24878.5,25171.899999999907,25436.200000000186,26418.700000000186,26681.5,26911.200000000186,27238.80000000028,27493.30000000028,27736.80000000028,28006.80000000028,28288,28588.700000000186,28941.399999999907,29375.899999999907,29757.80000000028,40326.89999999991,40677.700000000186,41002.5,41296.80000000028,42332.10000000009,42663.39999999991,42957.30000000028,43266.89999999991,43596,43977.39999999991,44544.60000000009,45090.30000000028,45611.89999999991],"key_events":[],"mouse_events":[8464.80000000028,12019.5,12343.200000000186,12642.700000000186,13063.399999999907,13844.80000000028,14922.399999999907,15229.100000000093,21134.399999999907,23180,24878.5,25171.899999999907,25436.200000000186,26159.700000000186,26418.700000000186,26681.5,26911.200000000186,27238.80000000028,27493.30000000028,27736.80000000028,28006.80000000028,28288,28588.700000000186,28941.399999999907,29375.899999999907,29757.80000000028,34245.5,38669.30000000028,40326.89999999991,40677.700000000186,41002.5,41296.80000000028,42332.10000000009,42663.39999999991,42957.30000000028,43266.89999999991,43596,43977.39999999991,44544.60000000009,45090.30000000028,45611.89999999991,50153.10000000009,52057.700000000186,55640.5,56698.30000000028],"honeypot":0,"survey":"mace","page":2,"trial_type":"survey-mace","trial_index":10,"time_elapsed":456907,"internal_node_id":"0.0-10.0","task_version":"prescreen-v0.3","browser_interactions":0},{"responses":{"01":"Yes","01_ages_7":"7","01_ages_8":"8","01_ages_9":"9","01_ages_10":"10","01_ages_11":"11","01_ages_12":"12","02":"No","03":"No","04":"No"},"rt":17403.700000000186,"item_order":[0,1,2,3],"radio_events":[4939.5,15270.200000000186,16255.600000000093,16632.299999999814],"checkbox_events":[9168,9481.799999999814,10506.100000000093,11027.100000000093,11290.399999999907,11863.100000000093],"key_events":[],"mouse_events":[4939.5,9168,9481.799999999814,10506.100000000093,11027.100000000093,11290.399999999907,11863.100000000093,15270.200000000186,16255.600000000093,16632.299999999814,17392.399999999907],"honeypot":0,"survey":"mace","page":3,"trial_type":"survey-mace","trial_index":11,"time_elapsed":474326,"internal_node_id":"0.0-11.0","task_version":"prescreen-v0.3","browser_interactions":0},{"responses":{"01":"No","02":"No"},"rt":6955.800000000279,"item_order":[0,1],"radio_events":[3071.7000000001863,4447.700000000186],"checkbox_events":[],"key_events":[],"mouse_events":[3071.7000000001863,4447.700000000186,6953.600000000093],"honeypot":0,"survey":"mace","page":4,"trial_type":"survey-mace","trial_index":12,"time_elapsed":481292,"internal_node_id":"0.0-12.0","task_version":"prescreen-v0.3","browser_interactions":0},{"responses":{"01":"Yes","01_ages_14":"14","01_ages_15":"15","01_ages_16":"16","01_ages_17":"17","01_ages_18":"18","02":"No","03":"No","04":"Yes","04_ages_14":"14","04_ages_15":"15","04_ages_16":"16","04_ages_17":"17","04_ages_18":"18","05":"No"},"rt":38836.39999999991,"item_order":[0,1,2,3,4],"radio_events":[8734.19999999972,22806,27996.69999999972,30878.600000000093,37966.5],"checkbox_events":[10770,11071.899999999907,11409.600000000093,11959.69999999972,12679.299999999814,32408.899999999907,32723.100000000093,33029.39999999991,33457.19999999972,33839.5,34209.5,34645.5],"key_events":[],"mouse_events":[8734.19999999972,10770,11071.899999999907,11409.600000000093,11959.69999999972,12679.299999999814,22806,27996.69999999972,30878.600000000093,32408.899999999907,32723.100000000093,33029.39999999991,33457.19999999972,33839.5,34209.5,34645.5,37966.5,38824.19999999972],"honeypot":0,"survey":"mace","page":5,"trial_type":"survey-mace","trial_index":13,"time_elapsed":520140,"internal_node_id":"0.0-13.0","task_version":"prescreen-v0.3","browser_interactions":0},{"responses":{"01":"Yes","01_ages_9":"9","01_ages_10":"10","01_ages_11":"11","01_ages_12":"12","01_ages_13":"13","01_ages_14":"14","01_ages_15":"15","01_ages_16":"16","01_ages_17":"17","02":"Yes","02_ages_11":"11","02_ages_12":"12","02_ages_13":"13","02_ages_14":"14","02_ages_15":"15","02_ages_16":"16","02_ages_17":"17","02_ages_18":"18","03":"No","04":"No","05":"Yes","05_ages_8":"8","05_ages_9":"9","05_ages_10":"10","05_ages_11":"11","05_ages_12":"12","05_ages_13":"13","05_ages_14":"14","05_ages_15":"15","05_ages_16":"16","05_ages_17":"17","05_ages_18":"18"},"rt":50999.700000000186,"item_order":[0,1,2,3,4],"radio_events":[8256.30000000028,21717.80000000028,37552.30000000028,40448.80000000028,42159],"checkbox_events":[13389,13723.5,14272.5,15078.5,15494.899999999907,15898.80000000028,17075.399999999907,17576.399999999907,18689.600000000093,24809.80000000028,25129.5,25675.100000000093,26240.5,26953.399999999907,27423.80000000028,28390,28893.700000000186,46530.89999999991,46976.700000000186,47368,47756.5,48071.89999999991,48461.10000000009,48835.89999999991,49228.80000000028,49533.89999999991,50300.39999999991,50611.39999999991],"key_events":[],"mouse_events":[8256.30000000028,13389,13723.5,14272.5,15078.5,15494.899999999907,15898.80000000028,17075.399999999907,17576.399999999907,18689.600000000093,21717.80000000028,24809.80000000028,25129.5,25675.100000000093,26240.5,26953.399999999907,27423.80000000028,28390,28893.700000000186,37552.30000000028,40448.80000000028,42159,46530.89999999991,46976.700000000186,47368,47756.5,48071.89999999991,48461.10000000009,48835.89999999991,49228.80000000028,49533.89999999991,50300.39999999991,50611.39999999991,50994.10000000009],"honeypot":0,"survey":"mace","page":6,"trial_type":"survey-mace","trial_index":14,"time_elapsed":571155,"internal_node_id":"0.0-14.0","task_version":"prescreen-v0.3","browser_interactions":0},{"responses":{"01":"No","02":"No","03":"Yes","03_ages_6":"6","03_ages_7":"7","03_ages_8":"8","03_ages_9":"9","03_ages_10":"10","03_ages_11":"11","03_ages_12":"12","03_ages_13":"13","03_ages_14":"14","03_ages_15":"15","03_ages_16":"16","03_ages_17":"17","03_ages_18":"18","04":"Yes","04_ages_10":"10","05":"No","06":"No","07":"No"},"rt":33454.19999999972,"item_order":[0,1,2,3,4,5,6],"radio_events":[5730,8781.099999999627,10416.19999999972,23660.099999999627,31063,32127.299999999814,32586.599999999627],"checkbox_events":[13070.69999999972,13336.899999999907,13779.5,14223.599999999627,14717.799999999814,15251.799999999814,16123.299999999814,16617.5,16978,17398.5,17762.399999999907,18139.19999999972,18478,25772.599999999627],"key_events":[],"mouse_events":[5730,8781.099999999627,10416.19999999972,13070.69999999972,13336.899999999907,13779.5,14223.599999999627,14717.799999999814,15251.799999999814,16123.299999999814,16617.5,16978,17398.5,17762.399999999907,18139.19999999972,18478,23660.099999999627,25772.599999999627,31063,32127.299999999814,32586.599999999627,33447.09999999963],"honeypot":0,"survey":"mace","page":7,"trial_type":"survey-mace","trial_index":15,"time_elapsed":604633,"internal_node_id":"0.0-15.0","task_version":"prescreen-v0.3","browser_interactions":0},{"responses":{"01":"No","02":"No","03":"No","04":"No"},"rt":19373.299999999814,"item_order":[0,1,2,3],"radio_events":[16932.600000000093,17897.899999999907,18440.100000000093,18864.399999999907],"checkbox_events":[],"key_events":[],"mouse_events":[16031.399999999907,16932.600000000093,17623.19999999972,17897.899999999907,18440.100000000093,18864.399999999907,19362.299999999814],"honeypot":0,"survey":"mace","page":8,"trial_type":"survey-mace","trial_index":16,"time_elapsed":624016,"internal_node_id":"0.0-16.0","task_version":"prescreen-v0.3","browser_interactions":0},{"responses":{"01":"Yes","01_ages_1":"1","01_ages_2":"2","01_ages_3":"3","01_ages_4":"4","01_ages_5":"5","01_ages_6":"6","01_ages_7":"7","01_ages_8":"8","01_ages_9":"9","01_ages_10":"10","01_ages_11":"11","01_ages_12":"12","01_ages_13":"13","01_ages_14":"14","01_ages_15":"15","01_ages_16":"16","01_ages_17":"17","01_ages_18":"18","02":"Yes","02_ages_10":"10","02_ages_11":"11","03":"Yes","03_ages_1":"1","03_ages_2":"2","03_ages_3":"3","03_ages_4":"4","03_ages_5":"5","03_ages_6":"6","03_ages_7":"7","03_ages_8":"8","03_ages_9":"9","03_ages_10":"10","03_ages_11":"11","03_ages_12":"12","03_ages_13":"13","03_ages_14":"14","03_ages_15":"15","03_ages_16":"16","03_ages_17":"17","03_ages_18":"18","04":"Yes","04_ages_1":"1","04_ages_2":"2","04_ages_3":"3","04_ages_4":"4","04_ages_5":"5","04_ages_6":"6","04_ages_7":"7","04_ages_8":"8","04_ages_9":"9","04_ages_10":"10","04_ages_11":"11","04_ages_12":"12","04_ages_13":"13","04_ages_14":"14","04_ages_15":"15","04_ages_16":"16","04_ages_17":"17","04_ages_18":"18"},"rt":63202.60000000009,"item_order":[0,1,2,3],"radio_events":[2813,23021.5,34708.90000000037,37365.90000000037,40028.90000000037],"checkbox_events":[10319.400000000373,10609.600000000093,10900.700000000186,11207.900000000373,11483.80000000028,11766.900000000373,12011.900000000373,12852.200000000186,13166.80000000028,13726.30000000028,14093.600000000093,14417.100000000093,14749.700000000186,15118.700000000186,15447.80000000028,15799.900000000373,16122.100000000093,16432.400000000373,26970.30000000028,29799.200000000186,41604.60000000009,42419.200000000186,43351.10000000009,43648.200000000186,44096.30000000028,44426.10000000009,45278.30000000028,45508.90000000037,45771.700000000186,46064.5,46300.5,46801.80000000028,47276.200000000186,47633.5,48036.700000000186,48397.5,49039.90000000037,50020.10000000009,54285.700000000186,54711.30000000028,55032.700000000186,55345.10000000009,55612.5,55857.40000000037,56114.10000000009,56467,57047.30000000028,57438.90000000037,57811.200000000186,58092.10000000009,58460.30000000028,58746.200000000186,59018.700000000186,59292.700000000186,59606.30000000028,59894,60181.30000000028,60497.60000000009,60726.80000000028,60928.700000000186,61154.90000000037,61379.200000000186,61650.200000000186,61968.90000000037,62307.90000000037,62611.60000000009],"key_events":[],"mouse_events":[2813,10319.400000000373,10609.600000000093,10900.700000000186,11207.900000000373,11483.80000000028,11766.900000000373,12011.900000000373,12852.200000000186,13166.80000000028,13726.30000000028,14093.600000000093,14417.100000000093,14749.700000000186,15118.700000000186,15447.80000000028,15799.900000000373,16122.100000000093,16432.400000000373,23021.5,26970.30000000028,29799.200000000186,34708.90000000037,37365.90000000037,40028.90000000037,41048.700000000186,41604.60000000009,42419.200000000186,43040.40000000037,43351.10000000009,43648.200000000186,44096.30000000028,44426.10000000009,45278.30000000028,45508.90000000037,45771.700000000186,46064.5,46300.5,46801.80000000028,47276.200000000186,47633.5,48036.700000000186,48397.5,49039.90000000037,50020.10000000009,54285.700000000186,54711.30000000028,55032.700000000186,55345.10000000009,55612.5,55857.40000000037,56114.10000000009,56467,57047.30000000028,57438.90000000037,57811.200000000186,58092.10000000009,58460.30000000028,58746.200000000186,59018.700000000186,59292.700000000186,59606.30000000028,59894,60181.30000000028,60497.60000000009,60726.80000000028,60928.700000000186,61154.90000000037,61379.200000000186,61650.200000000186,61968.90000000037,62307.90000000037,62611.60000000009,63197.90000000037],"honeypot":0,"survey":"mace","page":9,"trial_type":"survey-mace","trial_index":17,"time_elapsed":687228,"internal_node_id":"0.0-17.0","task_version":"prescreen-v0.3","browser_interactions":0},{"responses":{"01":"No","02":"No","03":"No","04":"Yes","04_ages_8":"8","04_ages_9":"9","04_ages_10":"10","04_ages_11":"11","04_ages_12":"12","04_ages_13":"13","04_ages_14":"14","04_ages_15":"15","04_ages_16":"16","05":"No","06":"Yes","06_ages_17":"17","07":"Yes","07_ages_5":"5","07_ages_6":"6","07_ages_7":"7","07_ages_8":"8","07_ages_9":"9","07_ages_10":"10","07_ages_11":"11","07_ages_12":"12","07_ages_13":"13","07_ages_14":"14","07_ages_15":"15","07_ages_16":"16","07_ages_17":"17","07_ages_18":"18","08":"Yes","08_ages_5":"5","08_ages_6":"6","08_ages_7":"7","08_ages_8":"8","08_ages_9":"9","08_ages_10":"10","08_ages_11":"11","08_ages_12":"12","08_ages_13":"13","08_ages_14":"14","08_ages_15":"15"},"rt":49683.200000000186,"item_order":[0,1,2,3,4,5,6,7],"radio_events":[3183,3716,6630.4000000003725,8432,21240.100000000093,23765.100000000093,30806.700000000186,41386.200000000186],"checkbox_events":[12672.400000000373,13209.30000000028,13722.100000000093,14567.80000000028,14901.100000000093,15216.200000000186,16108.80000000028,16445.900000000373,17194.900000000373,25115.30000000028,32436.900000000373,33143,33468.10000000009,33817.700000000186,34631.10000000009,34933.80000000028,35456.80000000028,35718.80000000028,36030.5,36355.40000000037,37318.40000000037,37610.60000000009,37876.700000000186,38213.90000000037,43610.80000000028,43928.200000000186,44185.5,44459,45059.40000000037,45322.60000000009,45602.700000000186,45953.5,46278.200000000186,46494.80000000028,46986.80000000028,47346.10000000009,47629.40000000037,47883.60000000009,49033.60000000009],"key_events":[],"mouse_events":[3183,3716,6630.4000000003725,8432,12672.400000000373,13209.30000000028,13722.100000000093,14567.80000000028,14901.100000000093,15216.200000000186,16108.80000000028,16445.900000000373,17194.900000000373,21240.100000000093,23765.100000000093,25115.30000000028,30806.700000000186,32436.900000000373,33143,33468.10000000009,33817.700000000186,34631.10000000009,34933.80000000028,35456.80000000028,35718.80000000028,36030.5,36355.40000000037,37318.40000000037,37610.60000000009,37876.700000000186,38213.90000000037,41386.200000000186,43610.80000000028,43928.200000000186,44185.5,44459,45059.40000000037,45322.60000000009,45602.700000000186,45953.5,46278.200000000186,46494.80000000028,46986.80000000028,47346.10000000009,47629.40000000037,47883.60000000009,49033.60000000009,49662.10000000009],"honeypot":0,"survey":"mace","page":10,"trial_type":"survey-mace","trial_index":18,"time_elapsed":736933,"internal_node_id":"0.0-18.0","task_version":"prescreen-v0.3","browser_interactions":0,"instructed":0},{"rt":5681.600000000093,"trial_type":"mental-health-alert","trial_index":19,"time_elapsed":742620,"internal_node_id":"0.0-19.0","task_version":"prescreen-v0.3","interactions":"[{\"event\":\"blur\",\"trial\":1,\"time\":29335},{\"event\":\"focus\",\"trial\":1,\"time\":32378}]"}]