[{"view_history":[{"page_index":0,"viewing_time":8780.60000000149},{"page_index":1,"viewing_time":5239.39999999851},{"page_index":2,"viewing_time":9739},{"page_index":3,"viewing_time":3381}],"rt":27142.79999999702,"trial_type":"instructions","trial_index":0,"time_elapsed":27264,"internal_node_id":"0.0-0.0","task_version":"prescreen-v0.3"},{"rt":28334.5,"responses":{"age":"23","gender-categorical":"Male","gender-free-response":"","ethnicity":"Not Hispanic or Latino","race":["White"],"education":"Bachelor degree"},"trial_type":"survey-demo","trial_index":1,"time_elapsed":55621,"internal_node_id":"0.0-1.0","task_version":"prescreen-v0.3"},{"responses":{"Q07":"2","Q14":"0","Q13":"1","Q20":"0","Q19":"1","Q11":"2","Q15":"2","Q16":"3","Q01":"1","Q06":"1","Q12":"2","Q05":"1","Q17":"2","Q18":"1","Q09":"2","Q04":"1","Q21":"2","Q08":"2","Q10":"2","Q03":"1","Q02":"2"},"rt":159127.5,"item_order":[6,13,12,19,18,10,14,15,0,5,11,4,16,17,8,3,20,7,9,2,1],"radio_events":[14214.19999999553,16616.89999999851,23202.59999999404,31925,36243.39999999851,44674.29999999702,49664.5,55583.59999999404,88027.5,92084.5,95582.89999999851,114131.19999999553,121299.19999999553,123463,125613.59999999404,136144.5,138532.29999999702,143391.79999999702,146756.59999999404,150821.59999999404,154114.69999999553,157420.29999999702],"key_events":[],"mouse_events":[14214.19999999553,16616.89999999851,23202.59999999404,26357.09999999404,30455.89999999851,31925,36243.39999999851,44674.29999999702,48199.29999999702,49664.5,55583.59999999404,88027.5,92084.5,95582.89999999851,114131.19999999553,115867.39999999851,118855.19999999553,120248.29999999702,121299.19999999553,123463,125613.59999999404,136144.5,138532.29999999702,143391.79999999702,146756.59999999404,150821.59999999404,154114.69999999553,156056.59999999404,157420.29999999702,159116.59999999404],"straightlining":0.47619047619047616,"zigzagging":0.7,"honeypot":0,"survey":"sns","trial_type":"survey-template","trial_index":2,"time_elapsed":214782,"internal_node_id":"0.0-2.0","task_version":"prescreen-v0.3","browser_interactions":0,"infrequency":0.5},{"responses":{"Q06":"2","Q08":"1","Q04":"1","Q10":"2","Q11":"2","Q05":"1","Q01":"2","Q13":"2","Q03":"1","Q09":"2","Q07":"2","Q02":"1","Q12":"2"},"rt":60893.39999999851,"item_order":[5,7,3,9,10,4,0,12,2,8,6,1,11],"radio_events":[25850.70000000298,27498.80000000447,29392.60000000149,32129.5,33346.30000000447,34851.89999999851,36564.89999999851,45349.39999999851,46841.10000000149,51143.39999999851,52667.20000000298,55239.30000000447,58868.60000000149],"key_events":[],"mouse_events":[25850.70000000298,27498.80000000447,29392.60000000149,30709.20000000298,32129.5,33346.30000000447,34851.89999999851,36564.89999999851,43644.80000000447,45349.39999999851,46841.10000000149,49196.20000000298,51143.39999999851,52667.20000000298,55239.30000000447,58868.60000000149,60885.60000000149],"straightlining":0.6153846153846154,"zigzagging":0.6666666666666666,"honeypot":0,"survey":"bisbas","trial_type":"survey-template","trial_index":3,"time_elapsed":275686,"internal_node_id":"0.0-3.0","task_version":"prescreen-v0.3","browser_interactions":0,"infrequency":1},{"responses":{"Q01":"2","Q02":"1","Q03":"2"},"rt":20018.79999999702,"radio_events":[7545.39999999851,14777.69999999553,18534.79999999702],"key_events":[],"mouse_events":[7545.39999999851,14777.69999999553,18534.79999999702,20015.19999999553],"survey":"map","page":1,"trial_type":"survey-map","trial_index":4,"time_elapsed":295720,"internal_node_id":"0.0-4.0","task_version":"prescreen-v0.3","browser_interactions":0},{"responses":{"Q04":"1","Q05":"1","Q06":"2"},"rt":21504.5,"radio_events":[11822.39999999851,17041.29999999702,20065.69999999553],"key_events":[],"mouse_events":[11822.39999999851,17041.29999999702,20065.69999999553,21501.19999999553],"survey":"map","page":2,"trial_type":"survey-map","trial_index":5,"time_elapsed":317239,"internal_node_id":"0.0-5.0","task_version":"prescreen-v0.3","browser_interactions":0},{"responses":{"Q07":"3","Q08":"2","Q09":"1"},"rt":20854.10000000149,"radio_events":[12737.60000000149,15884.69999999553,19144.89999999851],"key_events":[],"mouse_events":[12737.60000000149,15884.69999999553,19144.89999999851,20848.79999999702],"survey":"map","page":3,"trial_type":"survey-map","trial_index":6,"time_elapsed":338102,"internal_node_id":"0.0-6.0","task_version":"prescreen-v0.3","browser_interactions":0},{"responses":{"Q10":"1","Q11":"2","Q12":"1","Q13":"2","Q16":"2","Q14":"1","Q15":"2"},"rt":80755.69999999553,"radio_events":[17991.29999999702,20383.5,22788,42793.5,47674.29999999702,58936.19999999553,68561.89999999851,75251.89999999851],"key_events":[],"mouse_events":[15860.79999999702,17991.29999999702,19576.5,20383.5,22788,42793.5,46551.29999999702,47674.29999999702,58936.19999999553,68561.89999999851,75251.89999999851,80749.5],"survey":"map","page":4,"trial_type":"survey-map","trial_index":7,"time_elapsed":418875,"internal_node_id":"0.0-7.0","task_version":"prescreen-v0.3","browser_interactions":0,"infrequency":1},{"view_history":[{"page_index":0,"viewing_time":6907.79999999702},{"page_index":1,"viewing_time":8107.5}],"rt":15020.10000000149,"trial_type":"instructions","trial_index":8,"time_elapsed":433899,"internal_node_id":"0.0-8.0","task_version":"prescreen-v0.3"},{"responses":{"01":"Yes","01_ages_13":"13","01_ages_15":"15","02":"Yes","02_ages_12":"12","02_ages_13":"13","02_ages_15":"15","03":"No","04":"No","05":"No","06":"Yes","06_ages_7":"7","06_ages_10":"10","06_ages_13":"13"},"rt":89315.20000000298,"item_order":[0,1,2,3,4,5],"radio_events":[13764.29999999702,31240.89999999851,65925.89999999851,70306.60000000149,73692.5,77020.60000000149],"checkbox_events":[19442.60000000149,21916.79999999702,34517.39999999851,38038,39714.29999999702,82473.5,84030.10000000149,85430.39999999851],"key_events":[],"mouse_events":[0.29999999701976776,13764.29999999702,19442.60000000149,21916.79999999702,24799.89999999851,31240.89999999851,34517.39999999851,37653.20000000298,38038,39714.29999999702,65925.89999999851,70306.60000000149,73692.5,77020.60000000149,82473.5,84030.10000000149,85430.39999999851,89302.29999999702],"honeypot":0,"survey":"mace","page":1,"trial_type":"survey-mace","trial_index":9,"time_elapsed":523250,"internal_node_id":"0.0-9.0","task_version":"prescreen-v0.3","browser_interactions":0},{"responses":{"01":"No","02":"No","03":"Yes","03_ages_6":"6","03_ages_9":"9","03_ages_12":"12","03_ages_14":"14","04":"No","05":"Yes","05_ages_6":"6","05_ages_9":"9","06":"No","07":"No","08":"Yes","08_ages_12":"12","08_ages_15":"15"},"rt":64281.60000000149,"item_order":[0,1,2,3,4,5,6,7],"radio_events":[6593.89999999851,9718.29999999702,12799.29999999702,28270.79999999702,32443.60000000149,45363.39999999851,48750.70000000298,56442.5],"checkbox_events":[15313.70000000298,16793.39999999851,18351.20000000298,19669,35672.79999999702,37557.79999999702,38654.70000000298,40544.20000000298,58260.10000000149,59900.79999999702],"key_events":[],"mouse_events":[6593.89999999851,9718.29999999702,12799.29999999702,15313.70000000298,16793.39999999851,18351.20000000298,19669,28270.79999999702,32443.60000000149,35672.79999999702,37557.79999999702,38654.70000000298,40544.20000000298,45363.39999999851,47604.70000000298,48750.70000000298,56442.5,58260.10000000149,59900.79999999702,64267.89999999851],"honeypot":0,"survey":"mace","page":2,"trial_type":"survey-mace","trial_index":10,"time_elapsed":587547,"internal_node_id":"0.0-10.0","task_version":"prescreen-v0.3","browser_interactions":0},{"responses":{"01":"Yes","01_ages_10":"10","01_ages_13":"13","02":"No","03":"No","04":"No"},"rt":23705.10000000149,"item_order":[0,1,2,3],"radio_events":[7739.19999999553,17697.10000000149,20299.69999999553,22534],"checkbox_events":[9198.89999999851,10705.19999999553],"key_events":[],"mouse_events":[7739.19999999553,9198.89999999851,10705.19999999553,17697.10000000149,20299.69999999553,22534,23694.10000000149],"honeypot":0,"survey":"mace","page":3,"trial_type":"survey-mace","trial_index":11,"time_elapsed":611264,"internal_node_id":"0.0-11.0","task_version":"prescreen-v0.3","browser_interactions":0},{"responses":{"01":"No","02":"No"},"rt":14861.29999999702,"item_order":[0,1],"radio_events":[11089.5,13634.39999999851],"checkbox_events":[],"key_events":[],"mouse_events":[11089.5,13634.39999999851,14855.29999999702],"honeypot":0,"survey":"mace","page":4,"trial_type":"survey-mace","trial_index":12,"time_elapsed":626137,"internal_node_id":"0.0-12.0","task_version":"prescreen-v0.3","browser_interactions":0},{"responses":{"01":"No","02":"No","03":"No","04":"No","05":"No"},"rt":39293.39999999851,"item_order":[0,1,2,3,4],"radio_events":[20867.60000000149,24411.79999999702,27856.5,31554.60000000149,37801.19999999553],"checkbox_events":[],"key_events":[],"mouse_events":[20867.60000000149,24411.79999999702,27856.5,31554.60000000149,37801.19999999553,39282],"honeypot":0,"survey":"mace","page":5,"trial_type":"survey-mace","trial_index":13,"time_elapsed":665447,"internal_node_id":"0.0-13.0","task_version":"prescreen-v0.3","browser_interactions":0},{"responses":{"01":"Yes","01_ages_13":"13","02":"Yes","02_ages_7":"7","02_ages_13":"13","03":"Yes","03_ages_9":"9","03_ages_13":"13","04":"Yes","04_ages_9":"9","05":"No"},"rt":56389.10000000149,"item_order":[0,1,2,3,4],"radio_events":[6953.60000000149,17846.90000000596,34461.90000000596,36681,44568.10000000149,47188.70000000298],"checkbox_events":[10074.80000000447,20204.10000000149,23620.10000000149,38314.40000000596,49398.90000000596,51003.70000000298],"key_events":[],"mouse_events":[6953.60000000149,9696.70000000298,10074.80000000447,17846.90000000596,20204.10000000149,23620.10000000149,34461.90000000596,36681,38314.40000000596,44568.10000000149,47188.70000000298,49398.90000000596,51003.70000000298,56377.30000000447],"honeypot":0,"survey":"mace","page":6,"trial_type":"survey-mace","trial_index":14,"time_elapsed":721846,"internal_node_id":"0.0-14.0","task_version":"prescreen-v0.3","browser_interactions":0},{"responses":{"01":"No","02":"Yes","02_ages_12":"12","03":"Yes","03_ages_9":"9","03_ages_13":"13","04":"No","05":"No","06":"No","07":"No"},"rt":51177.89999999851,"item_order":[0,1,2,3,4,5,6],"radio_events":[14708.10000000149,18808,25552.89999999851,39517.29999999702,45131.60000000149,47855.19999999553,49908.10000000149],"checkbox_events":[21415,28090.60000000149,29991.39999999851],"key_events":[],"mouse_events":[14708.10000000149,18808,21415,25552.89999999851,28090.60000000149,29991.39999999851,39517.29999999702,45131.60000000149,47855.19999999553,49908.10000000149,51161.29999999702],"honeypot":0,"survey":"mace","page":7,"trial_type":"survey-mace","trial_index":15,"time_elapsed":773042,"internal_node_id":"0.0-15.0","task_version":"prescreen-v0.3","browser_interactions":0},{"responses":{"01":"No","02":"No","03":"Yes","03_ages_13":"13","03_ages_14":"14","03_ages_15":"15","04":"No"},"rt":40596.60000000149,"item_order":[0,1,2,3],"radio_events":[16211.79999999702,18944.60000000149,23477.5,39296.60000000149],"checkbox_events":[27432.79999999702,30825.20000000298,32186],"key_events":[],"mouse_events":[16211.79999999702,18944.60000000149,23477.5,27432.79999999702,30825.20000000298,32186,39296.60000000149,40585.5],"honeypot":0,"survey":"mace","page":8,"trial_type":"survey-mace","trial_index":16,"time_elapsed":813653,"internal_node_id":"0.0-16.0","task_version":"prescreen-v0.3","browser_interactions":0},{"responses":{"01":"Yes","01_ages_5":"5","01_ages_6":"6","01_ages_7":"7","01_ages_8":"8","01_ages_9":"9","01_ages_10":"10","01_ages_11":"11","01_ages_12":"12","01_ages_13":"13","01_ages_14":"14","01_ages_15":"15","01_ages_16":"16","02":"Yes","02_ages_6":"6","02_ages_7":"7","02_ages_8":"8","02_ages_9":"9","02_ages_10":"10","03":"Yes","03_ages_5":"5","03_ages_6":"6","03_ages_7":"7","03_ages_8":"8","03_ages_9":"9","03_ages_10":"10","04":"Yes","04_ages_7":"7","04_ages_8":"8","04_ages_9":"9","04_ages_10":"10","04_ages_11":"11","04_ages_12":"12","04_ages_13":"13"},"rt":95657,"item_order":[0,1,2,3],"radio_events":[6912,36074.39999999851,56383.39999999851,75293.79999999702],"checkbox_events":[11283,15142.59999999404,16512.69999999553,18066.19999999553,19191,20322.19999999553,21824.09999999404,23158.89999999851,24583.19999999553,27021.39999999851,28686.19999999553,30550.19999999553,39357.29999999702,40439.29999999702,42512.59999999404,43624.39999999851,44653.79999999702,58520,59559.59999999404,60571.59999999404,62942.19999999553,64321.89999999851,65607.19999999553,77739.59999999404,78944.09999999404,80520.5,81641.19999999553,83451.19999999553,84882,86002.29999999702,87056.69999999553,88227.59999999404,89591.69999999553,90551.79999999702],"key_events":[],"mouse_events":[6912,11283,12338.09999999404,15142.59999999404,16512.69999999553,18066.19999999553,19191,20322.19999999553,21824.09999999404,23158.89999999851,24583.19999999553,27021.39999999851,28686.19999999553,30550.19999999553,36074.39999999851,39357.29999999702,40439.29999999702,41401.29999999702,42512.59999999404,43624.39999999851,44653.79999999702,56383.39999999851,58520,59559.59999999404,60571.59999999404,61672.19999999553,62942.19999999553,64321.89999999851,65607.19999999553,75293.79999999702,77739.59999999404,78944.09999999404,80520.5,81641.19999999553,83451.19999999553,84882,86002.29999999702,87056.69999999553,88227.59999999404,89591.69999999553,90551.79999999702,95650.5],"honeypot":0,"survey":"mace","page":9,"trial_type":"survey-mace","trial_index":17,"time_elapsed":909327,"internal_node_id":"0.0-17.0","task_version":"prescreen-v0.3","browser_interactions":0},{"responses":{"01":"No","02":"No","03":"No","04":"Yes","04_ages_11":"11","04_ages_12":"12","04_ages_13":"13","05":"No","06":"Yes","06_ages_17":"17","07":"Yes","07_ages_10":"10","07_ages_11":"11","07_ages_12":"12","07_ages_13":"13","07_ages_17":"17","07_ages_18":"18","08":"Yes","08_ages_5":"5","08_ages_6":"6","08_ages_7":"7","08_ages_8":"8","08_ages_9":"9","08_ages_10":"10","08_ages_11":"11","08_ages_12":"12","08_ages_13":"13","08_ages_14":"14"},"rt":84170.60000000149,"item_order":[0,1,2,3,4,5,6,7],"radio_events":[4896.10000000149,8022.29999999702,12852.20000000298,15985.5,36988.20000000298,42641.60000000149,50775.39999999851,67536],"checkbox_events":[18365.29999999702,18747.29999999702,20254,21312.79999999702,22365.29999999702,45775.60000000149,52787.20000000298,53745.10000000149,54742.5,55632.10000000149,57361.39999999851,58392.20000000298,70122.10000000149,71063.89999999851,72041.60000000149,72968.70000000298,73932.70000000298,74858.5,75853.29999999702,77037.89999999851,78115.10000000149,79099.10000000149],"key_events":[],"mouse_events":[4896.10000000149,8022.29999999702,12852.20000000298,15985.5,18365.29999999702,18747.29999999702,20254,21312.79999999702,22365.29999999702,36988.20000000298,42641.60000000149,45775.60000000149,50775.39999999851,52787.20000000298,53745.10000000149,54742.5,55632.10000000149,57361.39999999851,58392.20000000298,67536,70122.10000000149,71063.89999999851,72041.60000000149,72968.70000000298,73932.70000000298,74858.5,75853.29999999702,77037.89999999851,78115.10000000149,79099.10000000149,84152.29999999702],"honeypot":0,"survey":"mace","page":10,"trial_type":"survey-mace","trial_index":18,"time_elapsed":993512,"internal_node_id":"0.0-18.0","task_version":"prescreen-v0.3","browser_interactions":0,"instructed":0},{"rt":9823.80000000447,"trial_type":"mental-health-alert","trial_index":19,"time_elapsed":1003344,"internal_node_id":"0.0-19.0","task_version":"prescreen-v0.3","interactions":"[]"}]