[{"view_history":[{"page_index":0,"viewing_time":4842.5},{"page_index":1,"viewing_time":3798.2999999523163},{"page_index":2,"viewing_time":4565.600000023842},{"page_index":3,"viewing_time":1289.6000000238419}],"rt":14496.899999976158,"trial_type":"instructions","trial_index":0,"time_elapsed":14501,"internal_node_id":"0.0-0.0","task_version":"prescreen-v0.3"},{"rt":14812.099999964237,"responses":{"age":"22","gender-categorical":"Female","gender-free-response":"","ethnicity":"Not Hispanic or Latino","race":["White"],"education":"Some college"},"trial_type":"survey-demo","trial_index":1,"time_elapsed":29317,"internal_node_id":"0.0-1.0","task_version":"prescreen-v0.3"},{"responses":{"Q08":"3","Q20":"0","Q01":"2","Q10":"1","Q19":"0","Q07":"1","Q21":"3","Q17":"2","Q05":"1","Q12":"3","Q15":"3","Q14":"3","Q02":"2","Q13":"2","Q09":"3","Q11":"2","Q06":"1","Q18":"2","Q16":"3","Q03":"2","Q04":"3"},"rt":88352.59999996424,"item_order":[7,19,0,9,18,6,20,16,4,11,14,13,1,12,8,10,5,17,15,2,3],"radio_events":[5303.5,7601.599999964237,10415.099999964237,16567.099999964237,24207.30000001192,28991.599999964237,34629.09999996424,39003,46355.59999996424,49240.89999997616,54198.89999997616,57653.19999998808,60357.39999997616,64393.30000001192,67227.30000001192,69911.39999997616,72639.19999998808,76661.30000001192,80319.19999998808,83913,86647.39999997616],"key_events":[],"mouse_events":[5303.5,7601.599999964237,10415.099999964237,16567.099999964237,24207.30000001192,28991.599999964237,34629.09999996424,39003,46355.59999996424,49240.89999997616,54198.89999997616,57653.19999998808,60357.39999997616,64393.30000001192,67227.30000001192,69911.39999997616,72639.19999998808,76661.30000001192,80319.19999998808,83913,86647.39999997616,88351.09999996424],"straightlining":0.38095238095238093,"zigzagging":0.7,"honeypot":0,"survey":"sns","trial_type":"survey-template","trial_index":2,"time_elapsed":117673,"internal_node_id":"0.0-2.0","task_version":"prescreen-v0.3","browser_interactions":0,"infrequency":0},{"responses":{"Q10":"2","Q05":"2","Q09":"1","Q04":"3","Q13":"0","Q08":"2","Q07":"3","Q12":"1","Q06":"1","Q02":"3","Q03":"3","Q01":"3","Q11":"1"},"rt":58128.5,"item_order":[9,4,8,3,12,7,6,11,5,1,2,0,10],"radio_events":[5403.199999988079,9679.099999964237,11891.5,16443.19999998808,20445.30000001192,32861.5,34964.89999997616,43137.39999997616,45625.30000001192,47673.39999997616,50301.39999997616,52413,56837.39999997616],"key_events":[],"mouse_events":[5403.199999988079,9679.099999964237,11891.5,16443.19999998808,20445.30000001192,32861.5,34964.89999997616,43137.39999997616,45625.30000001192,47673.39999997616,50301.39999997616,52413,56837.39999997616,58127.39999997616],"straightlining":0.38461538461538464,"zigzagging":0.25,"honeypot":0,"survey":"bisbas","trial_type":"survey-template","trial_index":3,"time_elapsed":175805,"internal_node_id":"0.0-3.0","task_version":"prescreen-v0.3","browser_interactions":0,"infrequency":0},{"responses":{"Q01":"2","Q02":"1","Q03":"2"},"rt":16092.199999988079,"radio_events":[6800.199999988079,11639.099999964237,15103],"key_events":[],"mouse_events":[6800.199999988079,11639.099999964237,15103,16091.5],"survey":"map","page":1,"trial_type":"survey-map","trial_index":4,"time_elapsed":191900,"internal_node_id":"0.0-4.0","task_version":"prescreen-v0.3","browser_interactions":0},{"responses":{"Q04":"2","Q05":"2","Q06":"3"},"rt":19074.5,"radio_events":[11759.899999976158,14783.599999964237,18176],"key_events":[],"mouse_events":[1689.3999999761581,11759.899999976158,14783.599999964237,18176,19073.80000001192],"survey":"map","page":2,"trial_type":"survey-map","trial_index":5,"time_elapsed":210976,"internal_node_id":"0.0-5.0","task_version":"prescreen-v0.3","browser_interactions":0},{"responses":{"Q07":"1","Q08":"0","Q09":"3"},"rt":11431.600000023842,"radio_events":[3241.300000011921,6297.600000023842,9473],"key_events":[],"mouse_events":[3241.300000011921,6297.600000023842,9473,11430.800000011921],"survey":"map","page":3,"trial_type":"survey-map","trial_index":6,"time_elapsed":222409,"internal_node_id":"0.0-6.0","task_version":"prescreen-v0.3","browser_interactions":0},{"responses":{"Q10":"0","Q11":"1","Q12":"2","Q13":"1","Q16":"0","Q14":"2","Q15":"1"},"rt":31655.19999998808,"radio_events":[4531.699999988079,7960.199999988079,13966.100000023842,17504,22822,26330.19999998808,30276.19999998808],"key_events":[],"mouse_events":[4531.699999988079,7960.199999988079,13966.100000023842,17504,22822,26330.19999998808,30276.19999998808,31654.100000023842],"survey":"map","page":4,"trial_type":"survey-map","trial_index":7,"time_elapsed":254066,"internal_node_id":"0.0-7.0","task_version":"prescreen-v0.3","browser_interactions":0,"infrequency":0},{"view_history":[{"page_index":0,"viewing_time":3277.300000011921},{"page_index":1,"viewing_time":3437.099999964237}],"rt":6715.199999988079,"trial_type":"instructions","trial_index":8,"time_elapsed":260782,"internal_node_id":"0.0-8.0","task_version":"prescreen-v0.3"},{"responses":{"01":"Yes","01_ages_8":"8","01_ages_9":"9","01_ages_10":"10","01_ages_11":"11","01_ages_12":"12","01_ages_13":"13","01_ages_14":"14","01_ages_15":"15","01_ages_16":"16","01_ages_17":"17","02":"Yes","02_ages_9":"9","02_ages_10":"10","02_ages_11":"11","02_ages_12":"12","02_ages_13":"13","02_ages_14":"14","02_ages_15":"15","02_ages_16":"16","02_ages_17":"17","03":"No","04":"Yes","04_ages_12":"12","04_ages_13":"13","04_ages_14":"14","04_ages_15":"15","04_ages_16":"16","04_ages_17":"17","05":"No","06":"No"},"rt":67450.90000003576,"item_order":[0,1,2,3,4,5],"radio_events":[8276,23926.900000035763,45897.10000002384,55952.40000003576,63335.80000001192,66180.80000001192],"checkbox_events":[14364.800000011921,15130.800000011921,15775,16322.5,16849,17329,17864.80000001192,18398.600000023842,18924.600000023842,19962.100000023842,27052.5,27628.900000035763,28452.400000035763,28930.900000035763,29744.700000047684,30214.5,30684.80000001192,31162.600000023842,31858.80000001192,57490.40000003576,58036.80000001192,59289.40000003576,59834.60000002384,60592.10000002384,61692],"key_events":[],"mouse_events":[0.10000002384185791,8276,14364.800000011921,15130.800000011921,15775,16322.5,16849,17329,17864.80000001192,18398.600000023842,18924.600000023842,19488.100000023842,19962.100000023842,23926.900000035763,27052.5,27628.900000035763,28452.400000035763,28930.900000035763,29394.80000001192,29744.700000047684,30214.5,30684.80000001192,31162.600000023842,31858.80000001192,45897.10000002384,55952.40000003576,57490.40000003576,58036.80000001192,58554.5,59289.40000003576,59834.60000002384,60592.10000002384,61692,63335.80000001192,66180.80000001192,67449.10000002384],"honeypot":0,"survey":"mace","page":1,"trial_type":"survey-mace","trial_index":9,"time_elapsed":328239,"internal_node_id":"0.0-9.0","task_version":"prescreen-v0.3","browser_interactions":0},{"responses":{"01":"No","02":"No","03":"Yes","03_ages_3":"3","03_ages_4":"4","03_ages_5":"5","03_ages_6":"6","03_ages_7":"7","03_ages_8":"8","03_ages_9":"9","03_ages_10":"10","03_ages_11":"11","03_ages_12":"12","04":"No","05":"No","06":"No","07":"No","08":"No"},"rt":28018.900000035763,"item_order":[0,1,2,3,4,5,6,7],"radio_events":[5099.600000023842,7372.5,9283.400000035763,19972.19999998808,22694.100000023842,24515.80000001192,25860.100000023842,27041.80000001192],"checkbox_events":[11650,12356,13009.5,13443.199999988079,14202.5,14895,15776.600000023842,16258.900000035763,16756,17284.100000023842],"key_events":[],"mouse_events":[5099.600000023842,7372.5,9283.400000035763,11650,12356,13009.5,13443.199999988079,14202.5,14895,15377.5,15776.600000023842,16258.900000035763,16756,17284.100000023842,19972.19999998808,22694.100000023842,24515.80000001192,25860.100000023842,27041.80000001192,28016.19999998808],"honeypot":0,"survey":"mace","page":2,"trial_type":"survey-mace","trial_index":10,"time_elapsed":356262,"internal_node_id":"0.0-10.0","task_version":"prescreen-v0.3","browser_interactions":0},{"responses":{"01":"No","02":"No","03":"No","04":"No"},"rt":14504.100000023842,"item_order":[0,1,2,3],"radio_events":[3804.400000035763,8911.199999988079,11908.800000011921,13833.900000035763],"checkbox_events":[],"key_events":[],"mouse_events":[3804.400000035763,8911.199999988079,11908.800000011921,13833.900000035763,14502.600000023842],"honeypot":0,"survey":"mace","page":3,"trial_type":"survey-mace","trial_index":11,"time_elapsed":370769,"internal_node_id":"0.0-11.0","task_version":"prescreen-v0.3","browser_interactions":0},{"responses":{"01":"No","02":"No"},"rt":9187.199999988079,"item_order":[0,1],"radio_events":[7015.5,8472.199999988079],"checkbox_events":[],"key_events":[],"mouse_events":[7015.5,8472.199999988079,9186.300000011921],"honeypot":0,"survey":"mace","page":4,"trial_type":"survey-mace","trial_index":12,"time_elapsed":379959,"internal_node_id":"0.0-12.0","task_version":"prescreen-v0.3","browser_interactions":0},{"responses":{"01":"No","02":"No","03":"No","04":"Yes","04_ages_1":"1","04_ages_2":"2","04_ages_3":"3","04_ages_4":"4","04_ages_5":"5","04_ages_6":"6","04_ages_7":"7","04_ages_8":"8","04_ages_9":"9","04_ages_10":"10","04_ages_11":"11","05":"No"},"rt":27532.100000023842,"item_order":[0,1,2,3,4],"radio_events":[9392.300000011921,11040.300000011921,12484.300000011921,15459.600000023842,26396.200000047684],"checkbox_events":[17537,18233.600000023842,18638,19636.400000035763,20438,20992,21583.700000047684,22112.200000047684,22611.200000047684,23112.200000047684,23818],"key_events":[],"mouse_events":[9392.300000011921,11040.300000011921,12484.300000011921,15459.600000023842,17537,18233.600000023842,18638,19238.900000035763,19636.400000035763,20438,20992,21583.700000047684,22112.200000047684,22611.200000047684,23112.200000047684,23818,26396.200000047684,27530.30000001192],"honeypot":0,"survey":"mace","page":5,"trial_type":"survey-mace","trial_index":13,"time_elapsed":407494,"internal_node_id":"0.0-13.0","task_version":"prescreen-v0.3","browser_interactions":0},{"responses":{"01":"Yes","01_ages_8":"8","01_ages_9":"9","01_ages_10":"10","01_ages_11":"11","01_ages_12":"12","01_ages_13":"13","01_ages_14":"14","01_ages_15":"15","01_ages_16":"16","01_ages_17":"17","01_ages_18":"18","02":"Yes","02_ages_8":"8","02_ages_9":"9","02_ages_10":"10","02_ages_11":"11","02_ages_12":"12","02_ages_13":"13","02_ages_14":"14","02_ages_15":"15","02_ages_16":"16","02_ages_17":"17","02_ages_18":"18","03":"Yes","03_ages_13":"13","03_ages_14":"14","03_ages_15":"15","03_ages_16":"16","03_ages_17":"17","03_ages_18":"18","04":"Yes","04_ages_13":"13","04_ages_14":"14","04_ages_15":"15","04_ages_16":"16","04_ages_17":"17","04_ages_18":"18","05":"Yes","05_ages_10":"10","05_ages_11":"11","05_ages_12":"12","05_ages_13":"13","05_ages_14":"14"},"rt":50414.39999997616,"item_order":[0,1,2,3,4],"radio_events":[3757.099999964237,17314.599999964237,29901,36714.299999952316,45154.09999996424],"checkbox_events":[6438.799999952316,8238.5,9031.399999976158,9706.899999976158,10509.099999964237,11172.599999964237,12051,12640.199999988079,13347.099999964237,13957.099999964237,14714.699999988079,19258.399999976158,19878.69999998808,20591.099999964237,21042.5,21626.5,22118.799999952316,22721,23291.099999964237,23931,24517.099999964237,26071.299999952316,31582.399999976158,32782.299999952316,33292.59999996424,33975,34509.299999952316,35074.89999997616,37780.69999998808,38648.69999998808,39314.59999996424,39834.59999996424,40435.09999996424,41018.39999997616,46765,47358.89999997616,48040.89999997616,48590.59999996424,49186.59999996424],"key_events":[],"mouse_events":[3757.099999964237,6438.799999952316,7227,8238.5,9031.399999976158,9706.899999976158,10509.099999964237,11172.599999964237,12051,12640.199999988079,13347.099999964237,13957.099999964237,14714.699999988079,17314.599999964237,19258.399999976158,19878.69999998808,20591.099999964237,21042.5,21626.5,22118.799999952316,22721,23291.099999964237,23931,24517.099999964237,26071.299999952316,29901,31582.399999976158,32782.299999952316,33292.59999996424,33975,34509.299999952316,35074.89999997616,36714.299999952316,37780.69999998808,38648.69999998808,39314.59999996424,39834.59999996424,40435.09999996424,41018.39999997616,45154.09999996424,46765,47358.89999997616,48040.89999997616,48590.59999996424,49186.59999996424,50412.69999998808],"honeypot":0,"survey":"mace","page":6,"trial_type":"survey-mace","trial_index":14,"time_elapsed":457912,"internal_node_id":"0.0-14.0","task_version":"prescreen-v0.3","browser_interactions":2},{"responses":{"01":"No","02":"No","03":"Yes","03_ages_9":"9","03_ages_10":"10","03_ages_11":"11","03_ages_12":"12","04":"No","05":"No","06":"No","07":"No"},"rt":20397.5,"item_order":[0,1,2,3,4,5,6],"radio_events":[4471,6224.600000023842,7427.300000011921,15431.200000047684,17227.100000023842,18443.400000035763,19517.200000047684],"checkbox_events":[11844.400000035763,12542.600000023842,13078.300000011921,13774.100000023842],"key_events":[],"mouse_events":[4471,6224.600000023842,7427.300000011921,9427.300000011921,11844.400000035763,12542.600000023842,13078.300000011921,13774.100000023842,15431.200000047684,17227.100000023842,18443.400000035763,19517.200000047684,20395.400000035763],"honeypot":0,"survey":"mace","page":7,"trial_type":"survey-mace","trial_index":15,"time_elapsed":478313,"internal_node_id":"0.0-15.0","task_version":"prescreen-v0.3","browser_interactions":0},{"responses":{"01":"Yes","01_ages_7":"7","01_ages_8":"8","01_ages_9":"9","01_ages_10":"10","01_ages_11":"11","01_ages_12":"12","01_ages_13":"13","01_ages_14":"14","01_ages_15":"15","01_ages_16":"16","01_ages_17":"17","01_ages_18":"18","02":"Yes","02_ages_1":"1","02_ages_2":"2","02_ages_3":"3","02_ages_4":"4","02_ages_5":"5","02_ages_6":"6","02_ages_7":"7","02_ages_8":"8","02_ages_9":"9","02_ages_10":"10","02_ages_11":"11","02_ages_12":"12","02_ages_13":"13","02_ages_14":"14","02_ages_15":"15","02_ages_16":"16","02_ages_17":"17","02_ages_18":"18","03":"Yes","03_ages_1":"1","03_ages_2":"2","03_ages_3":"3","03_ages_4":"4","03_ages_5":"5","03_ages_6":"6","03_ages_7":"7","03_ages_8":"8","03_ages_9":"9","03_ages_10":"10","03_ages_11":"11","03_ages_12":"12","03_ages_13":"13","03_ages_14":"14","03_ages_15":"15","03_ages_16":"16","03_ages_17":"17","03_ages_18":"18","04":"Yes","04_ages_8":"8","04_ages_9":"9","04_ages_10":"10","04_ages_11":"11","04_ages_12":"12","04_ages_13":"13","04_ages_14":"14","04_ages_15":"15","04_ages_16":"16","04_ages_17":"17","04_ages_18":"18"},"rt":72063.5,"item_order":[0,1,2,3],"radio_events":[6350.100000023842,26327.399999976158,43925.80000001192,62468.5],"checkbox_events":[8693.600000023842,9506.199999988079,10344.100000023842,12260.100000023842,13102.300000011921,13648.300000011921,14112.300000011921,14668.5,16397.5,16897.100000023842,17386,17875.899999976158,18544.5,19043.100000023842,19770.399999976158,20452.399999976158,20956.19999998808,21522.30000001192,22227.399999976158,23463.30000001192,27604.100000023842,28566,29181.600000023842,29727.69999998808,30314.19999998808,31095.899999976158,31636.100000023842,32176.100000023842,32939.5,33530.30000001192,34028.19999998808,35888.10000002384,37066.19999998808,38114.10000002384,38743.69999998808,39356.19999998808,39985.5,40626.19999998808,45653.39999997616,47576,49223.80000001192,49907.19999998808,50455.60000002384,51075.89999997616,51595.80000001192,52176.60000002384,52699.80000001192,53286.10000002384,53916.30000001192,54582.19999998808,55125.60000002384,55788.19999998808,56306.19999998808,57097.39999997616,58728.19999998808,59646,61070.10000002384,61650.19999998808,64016,64611.39999997616,65106,65683.5,66304,66950,67693.19999998808,68850.19999998808,69618.19999998808,70366,70906.19999998808],"key_events":[],"mouse_events":[6350.100000023842,7699.800000011921,8693.600000023842,9506.199999988079,10344.100000023842,12260.100000023842,13102.300000011921,13648.300000011921,14112.300000011921,14668.5,15682.199999988079,16397.5,16897.100000023842,17386,17875.899999976158,18544.5,19043.100000023842,19770.399999976158,20452.399999976158,20956.19999998808,21522.30000001192,22227.399999976158,22904.100000023842,23463.30000001192,26327.399999976158,27604.100000023842,28566,29181.600000023842,29727.69999998808,30314.19999998808,31095.899999976158,31636.100000023842,32176.100000023842,32939.5,33530.30000001192,34028.19999998808,34888.10000002384,35888.10000002384,37066.19999998808,38114.10000002384,38743.69999998808,39356.19999998808,39985.5,40626.19999998808,43925.80000001192,45653.39999997616,46269.69999998808,47576,49223.80000001192,49907.19999998808,50455.60000002384,51075.89999997616,51595.80000001192,52176.60000002384,52699.80000001192,53286.10000002384,53916.30000001192,54582.19999998808,55125.60000002384,55788.19999998808,56306.19999998808,57097.39999997616,58728.19999998808,59646,60363,61070.10000002384,61650.19999998808,62468.5,64016,64611.39999997616,65106,65683.5,66304,66950,67693.19999998808,68850.19999998808,69618.19999998808,70366,70906.19999998808,72062.10000002384],"honeypot":0,"survey":"mace","page":8,"trial_type":"survey-mace","trial_index":16,"time_elapsed":550379,"internal_node_id":"0.0-16.0","task_version":"prescreen-v0.3","browser_interactions":0},{"responses":{"01":"Yes","01_ages_1":"1","01_ages_2":"2","01_ages_3":"3","01_ages_4":"4","01_ages_5":"5","01_ages_6":"6","01_ages_7":"7","01_ages_8":"8","01_ages_9":"9","01_ages_10":"10","01_ages_11":"11","01_ages_12":"12","01_ages_13":"13","01_ages_14":"14","01_ages_15":"15","01_ages_16":"16","01_ages_17":"17","01_ages_18":"18","02":"No","03":"No","04":"No"},"rt":26468.5,"item_order":[0,1,2,3],"radio_events":[4783.900000035763,21521.5,22849,24817.900000035763],"checkbox_events":[7971.800000011921,8757.800000011921,9493.900000035763,10005.900000035763,10565.900000035763,11079.700000047684,11547.700000047684,13122.700000047684,13556.600000023842,14455.300000011921,15033.5,15937.800000011921,16379.400000035763,17152.400000035763,17857.400000035763,18497.30000001192,19157.80000001192,19763.400000035763],"key_events":[],"mouse_events":[4783.900000035763,7971.800000011921,8757.800000011921,9493.900000035763,10005.900000035763,10565.900000035763,11079.700000047684,11547.700000047684,12507.600000023842,13122.700000047684,13556.600000023842,14455.300000011921,15033.5,15549.700000047684,15937.800000011921,16379.400000035763,17152.400000035763,17857.400000035763,18497.30000001192,19157.80000001192,19763.400000035763,21521.5,22849,24817.900000035763,26467.100000023842],"honeypot":0,"survey":"mace","page":9,"trial_type":"survey-mace","trial_index":17,"time_elapsed":576851,"internal_node_id":"0.0-17.0","task_version":"prescreen-v0.3","browser_interactions":0},{"responses":{"01":"No","02":"No","03":"Yes","03_ages_9":"9","03_ages_10":"10","03_ages_11":"11","03_ages_12":"12","03_ages_13":"13","03_ages_14":"14","03_ages_15":"15","03_ages_16":"16","03_ages_17":"17","03_ages_18":"18","04":"Yes","04_ages_5":"5","04_ages_6":"6","04_ages_7":"7","04_ages_8":"8","04_ages_9":"9","04_ages_10":"10","04_ages_11":"11","04_ages_12":"12","04_ages_13":"13","04_ages_14":"14","04_ages_15":"15","04_ages_16":"16","04_ages_17":"17","04_ages_18":"18","05":"Yes","05_ages_4":"4","05_ages_5":"5","05_ages_6":"6","05_ages_7":"7","05_ages_8":"8","05_ages_9":"9","05_ages_10":"10","05_ages_11":"11","05_ages_12":"12","05_ages_13":"13","05_ages_14":"14","05_ages_15":"15","05_ages_16":"16","05_ages_17":"17","05_ages_18":"18","06":"Yes","06_ages_17":"17","07":"No","08":"No"},"rt":41976.39999997616,"item_order":[0,1,2,3,4,5,6,7],"radio_events":[3025.399999976158,4497.399999976158,5769.5,13179.800000011921,25524.100000023842,35805.89999997616,39673.39999997616,41340.39999997616],"checkbox_events":[6773.399999976158,7227.199999988079,7671.699999988079,8139.199999988079,8871.899999976158,9331.600000023842,9950.199999988079,10415.199999988079,10919.600000023842,11392.800000011921,14935.800000011921,15449.899999976158,16155,16699.899999976158,17153.19999998808,17759.69999998808,19142.100000023842,19406.600000023842,19856.899999976158,20272.399999976158,20656.399999976158,21006.5,21389.600000023842,21739.19999998808,27574.600000023842,27906.899999976158,28323.899999976158,28706,29006.899999976158,29306.80000001192,29623.69999998808,29955.899999976158,30356,30740.30000001192,31107,31456.899999976158,31790,32107.19999998808,32440.399999976158,32773.5,33056.89999997616,37456],"key_events":[],"mouse_events":[3025.399999976158,4497.399999976158,5769.5,6773.399999976158,7227.199999988079,7671.699999988079,8139.199999988079,8871.899999976158,9331.600000023842,9950.199999988079,10415.199999988079,10919.600000023842,11392.800000011921,13179.800000011921,14935.800000011921,15449.899999976158,16155,16699.899999976158,17153.19999998808,17759.69999998808,19142.100000023842,19406.600000023842,19856.899999976158,20272.399999976158,20656.399999976158,21006.5,21389.600000023842,21739.19999998808,25524.100000023842,27574.600000023842,27906.899999976158,28323.899999976158,28706,29006.899999976158,29306.80000001192,29623.69999998808,29955.899999976158,30356,30740.30000001192,31107,31456.899999976158,31790,32107.19999998808,32440.399999976158,32773.5,33056.89999997616,35805.89999997616,37456,39673.39999997616,41340.39999997616,41974.10000002384],"honeypot":0,"survey":"mace","page":10,"trial_type":"survey-mace","trial_index":18,"time_elapsed":618831,"internal_node_id":"0.0-18.0","task_version":"prescreen-v0.3","browser_interactions":0,"instructed":0},{"rt":5015.5,"trial_type":"mental-health-alert","trial_index":19,"time_elapsed":623849,"internal_node_id":"0.0-19.0","task_version":"prescreen-v0.3","interactions":"[{\"event\":\"blur\",\"trial\":14,\"time\":449329},{\"event\":\"focus\",\"trial\":14,\"time\":450281}]"}]