[{"view_history":[{"page_index":0,"viewing_time":3538.100000023842},{"page_index":1,"viewing_time":8109.299999952316},{"page_index":2,"viewing_time":3977.899999976158},{"page_index":3,"viewing_time":1460}],"rt":17086.5,"trial_type":"instructions","trial_index":0,"time_elapsed":17117,"internal_node_id":"0.0-0.0","task_version":"prescreen-v0.3"},{"rt":13620.100000023842,"responses":{"age":"45","gender-categorical":"Female","gender-free-response":"","ethnicity":"Not Hispanic or Latino","race":["White"],"education":"High school"},"trial_type":"survey-demo","trial_index":1,"time_elapsed":30742,"internal_node_id":"0.0-1.0","task_version":"prescreen-v0.3"},{"responses":{"Q10":"0","Q11":"0","Q09":"1","Q16":"2","Q07":"0","Q02":"0","Q01":"1","Q03":"1","Q19":"1","Q18":"2","Q14":"3","Q13":"1","Q17":"0","Q06":"1","Q08":"1","Q04":"2","Q20":"2","Q05":"1","Q21":"0","Q15":"2","Q12":"1"},"rt":398696.5,"item_order":[9,10,8,15,6,1,0,2,18,17,13,12,16,5,7,3,19,4,20,14,11],"radio_events":[42121.799999952316,48551.799999952316,64727.199999928474,69757.5,77891.39999997616,80345.10000002384,87659.29999995232,107387.10000002384,119560.79999995232,123466.89999997616,138750.69999992847,166606.29999995232,167942.29999995232,179020.10000002384,186116.10000002384,196508,207236,212205.89999997616,228355.39999997616,235887.39999997616,254219.19999992847,284189,300526.7999999523,304284.6999999285,374192,379667.89999997616,385363.7999999523,397327.6999999285],"key_events":[],"mouse_events":[42121.799999952316,48551.799999952316,64727.199999928474,69757.5,77891.39999997616,80345.10000002384,87659.29999995232,107387.10000002384,119560.79999995232,123466.89999997616,138750.69999992847,166606.29999995232,167942.29999995232,179020.10000002384,186116.10000002384,196508,207236,212205.89999997616,228355.39999997616,235887.39999997616,254219.19999992847,284189,300526.7999999523,304284.6999999285,374192,379667.89999997616,385363.7999999523,397327.6999999285,398693.7999999523],"straightlining":0.42857142857142855,"zigzagging":0.55,"honeypot":0,"survey":"sns","trial_type":"survey-template","trial_index":2,"time_elapsed":429445,"internal_node_id":"0.0-2.0","task_version":"prescreen-v0.3","browser_interactions":0,"infrequency":1},{"responses":{"Q01":"2","Q06":"3","Q09":"2","Q02":"3","Q03":"3","Q13":"0","Q11":"2","Q07":"3","Q08":"3","Q10":"1","Q05":"3","Q12":"1","Q04":"3"},"rt":101784.59999990463,"item_order":[0,5,8,1,2,12,10,6,7,9,4,11,3],"radio_events":[11516.399999976158,18120.299999952316,36554,41188.09999990463,46666.09999990463,52222,58769.89999997616,74397.59999990463,80335.69999992847,86985.59999990463,91907.79999995232,97361.5,100729.39999997616],"key_events":[],"mouse_events":[11516.399999976158,18120.299999952316,36554,41188.09999990463,46666.09999990463,52222,58769.89999997616,74397.59999990463,80335.69999992847,86985.59999990463,91907.79999995232,97361.5,100729.39999997616,101783.59999990463],"straightlining":0.5384615384615384,"zigzagging":0.4166666666666667,"honeypot":0,"survey":"bisbas","trial_type":"survey-template","trial_index":3,"time_elapsed":531233,"internal_node_id":"0.0-3.0","task_version":"prescreen-v0.3","browser_interactions":0,"infrequency":0},{"responses":{"Q01":"2","Q02":"2","Q03":"1"},"rt":41695,"radio_events":[7239,17824.699999928474,32218.599999904633,40514.5],"key_events":[],"mouse_events":[7239,17824.699999928474,32218.599999904633,40514.5,41694.39999997616],"survey":"map","page":1,"trial_type":"survey-map","trial_index":4,"time_elapsed":572932,"internal_node_id":"0.0-4.0","task_version":"prescreen-v0.3","browser_interactions":0},{"responses":{"Q04":"2","Q05":"2","Q06":"2"},"rt":41977.200000047684,"radio_events":[10247,23350.899999976158,28506.899999976158,34804.799999952316,41046.700000047684],"key_events":[],"mouse_events":[10247,23350.899999976158,28506.899999976158,33961.10000002384,34804.799999952316,41046.700000047684,41976.799999952316],"survey":"map","page":2,"trial_type":"survey-map","trial_index":5,"time_elapsed":614911,"internal_node_id":"0.0-5.0","task_version":"prescreen-v0.3","browser_interactions":0},{"responses":{"Q07":"4","Q08":"2","Q09":"2"},"rt":61565.299999952316,"radio_events":[19077.399999976158,33289.199999928474,44869.10000002384,55509.39999997616,60432.89999997616],"key_events":[],"mouse_events":[19077.399999976158,33289.199999928474,44869.10000002384,55509.39999997616,60432.89999997616,61564.799999952316],"survey":"map","page":3,"trial_type":"survey-map","trial_index":6,"time_elapsed":676478,"internal_node_id":"0.0-6.0","task_version":"prescreen-v0.3","browser_interactions":0},{"responses":{"Q10":"3","Q11":"3","Q12":"0","Q13":"1","Q16":"0","Q14":"2","Q15":"2"},"rt":72953.89999997616,"radio_events":[5817.5,10575.299999952316,14513.5,23491.299999952316,43007,51279,56450.89999997616,72172.60000002384],"key_events":[],"mouse_events":[5817.5,10575.299999952316,14513.5,23491.299999952316,43007,51279,56450.89999997616,72172.60000002384,72952.69999992847],"survey":"map","page":4,"trial_type":"survey-map","trial_index":7,"time_elapsed":749435,"internal_node_id":"0.0-7.0","task_version":"prescreen-v0.3","browser_interactions":0,"infrequency":0},{"view_history":[{"page_index":0,"viewing_time":4006},{"page_index":1,"viewing_time":5069.900000095367}],"rt":9076.700000047684,"trial_type":"instructions","trial_index":8,"time_elapsed":758513,"internal_node_id":"0.0-8.0","task_version":"prescreen-v0.3"},{"responses":{"01":"No","02":"No","03":"No","04":"No","05":"No","06":"No"},"rt":37374.59999990463,"item_order":[0,1,2,3,4,5],"radio_events":[14854.299999952316,19931.799999952316,23963.899999976158,32807.799999952316,34089.699999928474,36629.799999952316],"checkbox_events":[],"key_events":[],"mouse_events":[0,14854.299999952316,19931.799999952316,23963.899999976158,32807.799999952316,34089.699999928474,36629.799999952316,37371.89999997616],"honeypot":0,"survey":"mace","page":1,"trial_type":"survey-mace","trial_index":9,"time_elapsed":795897,"internal_node_id":"0.0-9.0","task_version":"prescreen-v0.3","browser_interactions":0},{"responses":{"01":"No","02":"No","03":"No","04":"No","05":"Yes","05_ages_9":"9","05_ages_10":"10","06":"No","07":"No","08":"No"},"rt":75405.60000002384,"item_order":[0,1,2,3,4,5,6,7],"radio_events":[3264.100000023842,8102.299999952316,13814.100000023842,17518.100000023842,21564.100000023842,57891.799999952316,62421.60000002384,64173.39999997616],"checkbox_events":[36456.299999952316,37090.10000002384,43756,44694.10000002384,49061.700000047684,55265.60000002384],"key_events":[],"mouse_events":[3264.100000023842,8102.299999952316,13814.100000023842,17518.100000023842,21564.100000023842,36456.299999952316,37090.10000002384,43756,44694.10000002384,49061.700000047684,55265.60000002384,57891.799999952316,62421.60000002384,64173.39999997616,75401.29999995232],"honeypot":0,"survey":"mace","page":2,"trial_type":"survey-mace","trial_index":10,"time_elapsed":871306,"internal_node_id":"0.0-10.0","task_version":"prescreen-v0.3","browser_interactions":0},{"responses":{"01":"No","02":"No","03":"No","04":"No"},"rt":15082.100000023842,"item_order":[0,1,2,3],"radio_events":[4540.700000047684,9814.200000047684,12440.5,14416.299999952316],"checkbox_events":[],"key_events":[],"mouse_events":[4540.700000047684,9814.200000047684,12440.5,14416.299999952316,15080.200000047684],"honeypot":0,"survey":"mace","page":3,"trial_type":"survey-mace","trial_index":11,"time_elapsed":886391,"internal_node_id":"0.0-11.0","task_version":"prescreen-v0.3","browser_interactions":0},{"responses":{"01":"No","02":"No"},"rt":8905,"item_order":[0,1],"radio_events":[2471.7000000476837,8262],"checkbox_events":[],"key_events":[],"mouse_events":[2471.7000000476837,8262,8903.700000047684],"honeypot":0,"survey":"mace","page":4,"trial_type":"survey-mace","trial_index":12,"time_elapsed":895299,"internal_node_id":"0.0-12.0","task_version":"prescreen-v0.3","browser_interactions":2},{"responses":{"01":"No","02":"No","03":"No","04":"No","05":"No"},"rt":77010.60000002384,"item_order":[0,1,2,3,4],"radio_events":[67358.5,69680.60000002384,71398.39999997616,74360.39999997616,76454.20000004768],"checkbox_events":[],"key_events":[],"mouse_events":[67358.5,69680.60000002384,71398.39999997616,74360.39999997616,76454.20000004768,77008.39999997616],"honeypot":0,"survey":"mace","page":5,"trial_type":"survey-mace","trial_index":13,"time_elapsed":972313,"internal_node_id":"0.0-13.0","task_version":"prescreen-v0.3","browser_interactions":8},{"responses":{"01":"Yes","01_ages_14":"14","01_ages_15":"15","01_ages_16":"16","02":"Yes","02_ages_14":"14","02_ages_15":"15","02_ages_16":"16","03":"Yes","03_ages_14":"14","03_ages_15":"15","03_ages_16":"16","04":"No","05":"Yes","05_ages_14":"14","05_ages_15":"15","05_ages_16":"16"},"rt":81608.89999997616,"item_order":[0,1,2,3,4],"radio_events":[17214.399999976158,35880.299999952316,53867.89999997616,62361.89999997616,69243.89999997616,73605.89999997616],"checkbox_events":[42076.199999928474,42975.89999997616,43678,56179.799999952316,56806.09999990463,57509.89999997616,63752.09999990463,64469.59999990463,65619.69999992847,79261.69999992847,79941.59999990463,80465.89999997616],"key_events":[],"mouse_events":[17214.399999976158,20014.399999976158,35880.299999952316,42076.199999928474,42975.89999997616,43678,53867.89999997616,56179.799999952316,56806.09999990463,57509.89999997616,62361.89999997616,63752.09999990463,64469.59999990463,65619.69999992847,69243.89999997616,73605.89999997616,79261.69999992847,79941.59999990463,80465.89999997616,81606.19999992847],"honeypot":0,"survey":"mace","page":6,"trial_type":"survey-mace","trial_index":14,"time_elapsed":1053925,"internal_node_id":"0.0-14.0","task_version":"prescreen-v0.3","browser_interactions":0},{"responses":{"01":"No","02":"No","03":"Yes","03_ages_15":"15","03_ages_16":"16","04":"Yes","04_ages_15":"15","04_ages_16":"16","05":"No","06":"No","07":"No"},"rt":33108.60000002384,"item_order":[0,1,2,3,4,5,6],"radio_events":[5485.700000047684,8501.300000071526,12041.399999976158,20885.300000071526,28759.200000047684,30269.100000023842,32205.200000047684],"checkbox_events":[15619.100000023842,16393.399999976158,23009.600000023842,23729.600000023842],"key_events":[],"mouse_events":[5485.700000047684,8501.300000071526,12041.399999976158,15619.100000023842,16393.399999976158,20885.300000071526,23009.600000023842,23729.600000023842,28759.200000047684,30269.100000023842,32205.200000047684,33105.200000047684],"honeypot":0,"survey":"mace","page":7,"trial_type":"survey-mace","trial_index":15,"time_elapsed":1087037,"internal_node_id":"0.0-15.0","task_version":"prescreen-v0.3","browser_interactions":0},{"responses":{"01":"No","02":"Yes","02_ages_14":"14","02_ages_15":"15","02_ages_16":"16","02_ages_17":"17","02_ages_18":"18","03":"No","04":"Yes","04_ages_14":"14","04_ages_15":"15","04_ages_16":"16","04_ages_17":"17","04_ages_18":"18"},"rt":68137,"item_order":[0,1,2,3],"radio_events":[11071.200000047684,17299.200000047684,25035,54210.700000047684,59788.300000071526],"checkbox_events":[26284.900000095367,26675.100000023842,27486.800000071526,28019.100000023842,29096.700000047684,61680.60000002384,63774.40000009537,64734.60000002384,65368.40000009537,66462.5],"key_events":[],"mouse_events":[11071.200000047684,17299.200000047684,25035,26284.900000095367,26675.100000023842,27486.800000071526,28019.100000023842,28526.800000071526,29096.700000047684,54210.700000047684,59788.300000071526,61680.60000002384,62618.90000009537,63774.40000009537,64734.60000002384,65368.40000009537,65844.40000009537,66462.5,68134.60000002384],"honeypot":0,"survey":"mace","page":8,"trial_type":"survey-mace","trial_index":16,"time_elapsed":1155178,"internal_node_id":"0.0-16.0","task_version":"prescreen-v0.3","browser_interactions":0},{"responses":{"01":"Yes","01_ages_1":"1","01_ages_2":"2","01_ages_3":"3","01_ages_4":"4","01_ages_5":"5","01_ages_6":"6","01_ages_7":"7","01_ages_8":"8","01_ages_9":"9","01_ages_10":"10","01_ages_11":"11","01_ages_12":"12","01_ages_13":"13","02":"Yes","02_ages_13":"13","02_ages_14":"14","02_ages_15":"15","02_ages_16":"16","02_ages_17":"17","02_ages_18":"18","03":"Yes","03_ages_1":"1","03_ages_2":"2","03_ages_3":"3","03_ages_4":"4","03_ages_5":"5","03_ages_6":"6","03_ages_7":"7","03_ages_8":"8","03_ages_9":"9","03_ages_10":"10","03_ages_11":"11","03_ages_12":"12","03_ages_13":"13","04":"Yes","04_ages_1":"1","04_ages_2":"2","04_ages_3":"3","04_ages_4":"4","04_ages_5":"5","04_ages_6":"6","04_ages_7":"7","04_ages_8":"8","04_ages_9":"9","04_ages_10":"10","04_ages_11":"11","04_ages_12":"12","04_ages_13":"13"},"rt":103105.60000002384,"item_order":[0,1,2,3],"radio_events":[6846.300000071526,48401.90000009537,67553.80000007153,73045.60000002384,73833.60000002384,92031.40000009537],"checkbox_events":[22606.300000071526,23746.300000071526,24176.200000047684,25832.300000071526,26544.300000071526,26958.200000047684,28138,28802,29224,30224,30832.100000023842,31552.100000023842,32402.100000023842,54606,55247.90000009537,56817.90000009537,60005.60000002384,60825.800000071526,61584,78873.70000004768,79709.90000009537,80115.70000004768,80983.5,81709.60000002384,82437.60000002384,82843.5,83975.40000009537,84389.5,84991.5,85445.70000004768,85889.60000002384,86397.5,93781.40000009537,94555.5,96173.20000004768,96595.60000002384,97305.5,97797.5,98587.5,99289.60000002384,99853.10000002384,100477.40000009537,101157.5,101845.30000007153,102391.5],"key_events":[],"mouse_events":[6846.300000071526,22606.300000071526,23114.100000023842,23746.300000071526,24176.200000047684,25832.300000071526,26544.300000071526,26958.200000047684,28138,28802,29224,29614,30224,30832.100000023842,31552.100000023842,32402.100000023842,48401.90000009537,54606,55247.90000009537,55872.200000047684,56817.90000009537,60005.60000002384,60825.800000071526,61584,67553.80000007153,73045.60000002384,73833.60000002384,78873.70000004768,79709.90000009537,80115.70000004768,80983.5,81709.60000002384,82437.60000002384,82843.5,83975.40000009537,84389.5,84991.5,85445.70000004768,85889.60000002384,86397.5,92031.40000009537,93781.40000009537,94555.5,95009.30000007153,96173.20000004768,96595.60000002384,97305.5,97797.5,98587.5,99289.60000002384,99853.10000002384,100477.40000009537,101157.5,101845.30000007153,102391.5,103103.40000009537],"honeypot":0,"survey":"mace","page":9,"trial_type":"survey-mace","trial_index":17,"time_elapsed":1258286,"internal_node_id":"0.0-17.0","task_version":"prescreen-v0.3","browser_interactions":0},{"responses":{"01":"Yes","01_ages_14":"14","01_ages_15":"15","01_ages_16":"16","01_ages_17":"17","01_ages_18":"18","02":"No","03":"Yes","03_ages_14":"14","03_ages_15":"15","03_ages_16":"16","03_ages_17":"17","03_ages_18":"18","04":"Yes","04_ages_14":"14","04_ages_15":"15","04_ages_16":"16","04_ages_17":"17","04_ages_18":"18","05":"No","06":"Yes","06_ages_17":"17","07":"Yes","07_ages_1":"1","07_ages_2":"2","07_ages_3":"3","07_ages_4":"4","07_ages_5":"5","07_ages_6":"6","07_ages_7":"7","07_ages_8":"8","07_ages_9":"9","07_ages_10":"10","07_ages_11":"11","07_ages_12":"12","07_ages_13":"13","08":"No"},"rt":77928.89999997616,"item_order":[0,1,2,3,4,5,6,7],"radio_events":[5362.100000023842,13950.200000047684,17356.100000023842,24833.899999976158,34818,40615.60000002384,42085.700000047684,42999.60000002384,59837.39999997616,74285.20000004768],"checkbox_events":[7526.299999952316,8238.100000023842,8870,9503.799999952316,10042.200000047684,19662.100000023842,20183.899999976158,20675.899999976158,21130.200000047684,21863.899999976158,25731.899999976158,26537.700000047684,27067.5,27591.799999952316,28075.899999976158,44413.700000047684,44843.700000047684,45311.5,46617.5,47053.60000002384,47867.60000002384,49421.5,50569.5,51077.60000002384,51859.39999997616,52867.39999997616,53835.39999997616,55773.5,76073.20000004768],"key_events":[],"mouse_events":[5362.100000023842,7526.299999952316,8238.100000023842,8870,9503.799999952316,10042.200000047684,13950.200000047684,17356.100000023842,18630.100000023842,19662.100000023842,20183.899999976158,20675.899999976158,21130.200000047684,21863.899999976158,24833.899999976158,25731.899999976158,26537.700000047684,27067.5,27591.799999952316,28075.899999976158,34818,40615.60000002384,42085.700000047684,42999.60000002384,44413.700000047684,44843.700000047684,45311.5,45672.10000002384,46617.5,47053.60000002384,47508.10000002384,47867.60000002384,48531.5,49421.5,50569.5,51077.60000002384,51859.39999997616,52399.700000047684,52867.39999997616,53835.39999997616,55773.5,59837.39999997616,64141.60000002384,74285.20000004768,76073.20000004768,77925.5],"honeypot":0,"survey":"mace","page":10,"trial_type":"survey-mace","trial_index":18,"time_elapsed":1336219,"internal_node_id":"0.0-18.0","task_version":"prescreen-v0.3","browser_interactions":0,"instructed":0},{"rt":10027.100000023842,"trial_type":"mental-health-alert","trial_index":19,"time_elapsed":1346248,"internal_node_id":"0.0-19.0","task_version":"prescreen-v0.3","interactions":"[{\"event\":\"blur\",\"trial\":12,\"time\":890910},{\"event\":\"focus\",\"trial\":12,\"time\":893560},{\"event\":\"blur\",\"trial\":13,\"time\":899274},{\"event\":\"focus\",\"trial\":13,\"time\":899872},{\"event\":\"blur\",\"trial\":13,\"time\":901775},{\"event\":\"focus\",\"trial\":13,\"time\":904505},{\"event\":\"blur\",\"trial\":13,\"time\":904614},{\"event\":\"focus\",\"trial\":13,\"time\":909164},{\"event\":\"blur\",\"trial\":13,\"time\":909918},{\"event\":\"focus\",\"trial\":13,\"time\":958682}]"}]