[{"view_history":[{"page_index":0,"viewing_time":2716.7999999998137},{"page_index":1,"viewing_time":1984.5},{"page_index":2,"viewing_time":1985.2000000001863},{"page_index":3,"viewing_time":1945.7999999998137}],"rt":8632.799999999814,"trial_type":"instructions","trial_index":0,"time_elapsed":8643,"internal_node_id":"0.0-0.0","task_version":"prescreen-v0.3"},{"rt":21289.799999999814,"responses":{"age":"63","gender-categorical":"Male","gender-free-response":"","ethnicity":"Not Hispanic or Latino","race":["White"],"education":"Bachelor degree"},"trial_type":"survey-demo","trial_index":1,"time_elapsed":29936,"internal_node_id":"0.0-1.0","task_version":"prescreen-v0.3"},{"responses":{"Q04":"2","Q03":"1","Q13":"1","Q19":"0","Q17":"1","Q08":"2","Q11":"2","Q15":"2","Q16":"2","Q21":"3","Q01":"1","Q12":"2","Q20":"1","Q09":"1","Q02":"1","Q06":"1","Q14":"1","Q10":"2","Q18":"1","Q05":"2","Q07":"1"},"rt":158150.8999999999,"item_order":[3,2,12,18,16,7,10,14,15,20,0,11,19,8,1,5,13,9,17,4,6],"radio_events":[15641.5,22673.69999999972,31742.5,38920.39999999991,41094.10000000009,43941.60000000009,48293.60000000009,56032.89999999991,61452.5,69211.6000000001,76863.5,81342.5,85251.19999999972,88643.5,98080.5,103856.19999999972,112571.3999999999,117252.19999999972,122716.29999999981,128579.3999999999,140860.3999999999,147981.19999999972,155989.3999999999],"key_events":[],"mouse_events":[10793.69999999972,15260.5,15641.5,22673.69999999972,30578.69999999972,31742.5,38017.60000000009,38920.39999999991,41094.10000000009,43059.69999999972,43941.60000000009,48293.60000000009,56032.89999999991,61452.5,69211.6000000001,75686.3999999999,76863.5,81342.5,85251.19999999972,88643.5,95203.29999999981,98080.5,103134.6000000001,103856.19999999972,112571.3999999999,117252.19999999972,122716.29999999981,128579.3999999999,133473.1000000001,140860.3999999999,147196.8999999999,147981.19999999972,150409.3999999999,155989.3999999999,158149.1000000001],"straightlining":0.5238095238095238,"zigzagging":0.55,"honeypot":0,"survey":"sns","trial_type":"survey-template","trial_index":2,"time_elapsed":188092,"internal_node_id":"0.0-2.0","task_version":"prescreen-v0.3","browser_interactions":0,"infrequency":0},{"responses":{"Q05":"2","Q08":"2","Q09":"2","Q12":"2","Q07":"2","Q04":"2","Q10":"2","Q06":"2","Q03":"2","Q02":"2","Q01":"2","Q11":"2","Q13":"0"},"rt":128649,"item_order":[4,7,8,11,6,3,9,5,2,1,0,10,12],"radio_events":[12631.899999999907,17459.80000000028,22539.200000000186,86317.80000000028,89647.80000000028,93875,98337,101685.70000000019,107575.70000000019,111025.8999999999,113612.70000000019,122811.80000000028,126475.20000000019],"key_events":[],"mouse_events":[11068.200000000186,11892,12631.899999999907,17459.80000000028,22539.200000000186,86317.80000000028,88886,89647.80000000028,93875,96966.8999999999,98337,101685.70000000019,106834.8999999999,107575.70000000019,109481.8999999999,111025.8999999999,113612.70000000019,119743.80000000028,122811.80000000028,126475.20000000019,128647.8999999999],"straightlining":0.9230769230769231,"zigzagging":0,"honeypot":0,"survey":"bisbas","trial_type":"survey-template","trial_index":3,"time_elapsed":316744,"internal_node_id":"0.0-3.0","task_version":"prescreen-v0.3","browser_interactions":0,"infrequency":0},{"responses":{"Q01":"2","Q02":"3","Q03":"2"},"rt":24437.299999999814,"radio_events":[8051,12647.600000000093,16608.19999999972,22400.600000000093],"key_events":[],"mouse_events":[8051,12647.600000000093,16608.19999999972,22400.600000000093,24436.600000000093],"survey":"map","page":1,"trial_type":"survey-map","trial_index":4,"time_elapsed":341184,"internal_node_id":"0.0-4.0","task_version":"prescreen-v0.3","browser_interactions":0},{"responses":{"Q04":"2","Q05":"2","Q06":"2"},"rt":17166.30000000028,"radio_events":[7125,11434.200000000186,16025.200000000186],"key_events":[],"mouse_events":[7125,11434.200000000186,16025.200000000186,17166],"survey":"map","page":2,"trial_type":"survey-map","trial_index":5,"time_elapsed":358352,"internal_node_id":"0.0-5.0","task_version":"prescreen-v0.3","browser_interactions":0},{"responses":{"Q07":"3","Q08":"2","Q09":"2"},"rt":29351.100000000093,"radio_events":[9990.700000000186,16655.400000000373,27886.400000000373],"key_events":[],"mouse_events":[9990.700000000186,16655.400000000373,27886.400000000373,29350.700000000186],"survey":"map","page":3,"trial_type":"survey-map","trial_index":6,"time_elapsed":387704,"internal_node_id":"0.0-6.0","task_version":"prescreen-v0.3","browser_interactions":0},{"responses":{"Q10":"2","Q11":"1","Q12":"2","Q13":"2","Q16":"0","Q14":"2","Q15":"2"},"rt":69281.79999999981,"radio_events":[6171,36688,37990.69999999972,45809.799999999814,48937.799999999814,56201.89999999991,61957,68256.79999999981],"key_events":[],"mouse_events":[5631,6171,36688,37990.69999999972,44241.89999999991,45809.799999999814,48176.799999999814,48937.799999999814,56201.89999999991,61957,68256.79999999981,69280.8999999999],"survey":"map","page":4,"trial_type":"survey-map","trial_index":7,"time_elapsed":456988,"internal_node_id":"0.0-7.0","task_version":"prescreen-v0.3","browser_interactions":0,"infrequency":0},{"view_history":[{"page_index":0,"viewing_time":3086},{"page_index":1,"viewing_time":3963.100000000093}],"rt":7049.9000000003725,"trial_type":"instructions","trial_index":8,"time_elapsed":464039,"internal_node_id":"0.0-8.0","task_version":"prescreen-v0.3"},{"responses":{"01":"No","02":"No","03":"No","04":"No","05":"No","06":"No"},"rt":27726.299999999814,"item_order":[0,1,2,3,4,5],"radio_events":[8928.600000000093,13395.899999999907,17207.399999999907,19813.600000000093,21345.5,26360.299999999814],"checkbox_events":[],"key_events":[],"mouse_events":[0.10000000009313226,8928.600000000093,13395.899999999907,17207.399999999907,19813.600000000093,21345.5,26360.299999999814,27723.600000000093],"honeypot":0,"survey":"mace","page":1,"trial_type":"survey-mace","trial_index":9,"time_elapsed":491771,"internal_node_id":"0.0-9.0","task_version":"prescreen-v0.3","browser_interactions":0},{"responses":{"01":"No","02":"No","03":"Yes","03_ages_5":"5","03_ages_6":"6","03_ages_7":"7","03_ages_8":"8","03_ages_9":"9","03_ages_10":"10","03_ages_11":"11","03_ages_12":"12","04":"No","05":"Yes","05_ages_5":"5","05_ages_6":"6","05_ages_7":"7","05_ages_8":"8","05_ages_9":"9","05_ages_10":"10","05_ages_11":"11","05_ages_12":"12","06":"No","07":"No","08":"No"},"rt":57140.5,"item_order":[0,1,2,3,4,5,6,7],"radio_events":[4230.100000000093,6398.100000000093,10015.200000000186,29767.200000000186,37158.89999999991,51891.89999999991,53044.10000000009,55472.10000000009],"checkbox_events":[16038.399999999907,16982.100000000093,17703.100000000093,18305,20861.899999999907,21723.100000000093,23849.899999999907,24452,40930.200000000186,41450,42172.89999999991,42634,43597,44599.10000000009,45160.700000000186,46443],"key_events":[],"mouse_events":[4230.100000000093,6398.100000000093,10015.200000000186,16038.399999999907,16982.100000000093,17703.100000000093,18305,20179.30000000028,20861.899999999907,21723.100000000093,23849.899999999907,24452,29767.200000000186,37158.89999999991,40930.200000000186,41450,42172.89999999991,42634,43597,44599.10000000009,45160.700000000186,46443,51891.89999999991,53044.10000000009,54409.10000000009,55472.10000000009,57137.10000000009],"honeypot":0,"survey":"mace","page":2,"trial_type":"survey-mace","trial_index":10,"time_elapsed":548915,"internal_node_id":"0.0-10.0","task_version":"prescreen-v0.3","browser_interactions":0},{"responses":{"01":"No","02":"No","03":"No","04":"No"},"rt":20310.30000000028,"item_order":[0,1,2,3],"radio_events":[10473.700000000186,12178.5,15360.400000000373,17866.5],"checkbox_events":[],"key_events":[],"mouse_events":[10473.700000000186,12178.5,15360.400000000373,17866.5,20308.5],"honeypot":0,"survey":"mace","page":3,"trial_type":"survey-mace","trial_index":11,"time_elapsed":569228,"internal_node_id":"0.0-11.0","task_version":"prescreen-v0.3","browser_interactions":0},{"responses":{"01":"No","02":"No"},"rt":13327.700000000186,"item_order":[0,1],"radio_events":[8072.799999999814,11962.399999999907],"checkbox_events":[],"key_events":[],"mouse_events":[8072.799999999814,10077.5,11962.399999999907,13326.700000000186],"honeypot":0,"survey":"mace","page":4,"trial_type":"survey-mace","trial_index":12,"time_elapsed":582558,"internal_node_id":"0.0-12.0","task_version":"prescreen-v0.3","browser_interactions":0},{"responses":{"01":"No","02":"No","03":"No","04":"No","05":"No"},"rt":21505.200000000186,"item_order":[0,1,2,3,4],"radio_events":[8544.399999999907,12046.399999999907,15698.399999999907,17182.5,20742.399999999907],"checkbox_events":[],"key_events":[],"mouse_events":[8182.100000000093,8544.399999999907,12046.399999999907,15698.399999999907,17182.5,20742.399999999907,21503.30000000028],"honeypot":0,"survey":"mace","page":5,"trial_type":"survey-mace","trial_index":13,"time_elapsed":604066,"internal_node_id":"0.0-13.0","task_version":"prescreen-v0.3","browser_interactions":0},{"responses":{"01":"Yes","01_ages_13":"13","01_ages_14":"14","01_ages_15":"15","02":"Yes","02_ages_13":"13","02_ages_14":"14","02_ages_15":"15","03":"Yes","03_ages_13":"13","03_ages_14":"14","03_ages_15":"15","04":"Yes","04_ages_13":"13","04_ages_14":"14","04_ages_15":"15","05":"Yes","05_ages_13":"13","05_ages_14":"14","05_ages_15":"15"},"rt":74719.29999999981,"item_order":[0,1,2,3,4],"radio_events":[18737.100000000093,36099,50535.19999999972,57975.19999999972,68375.79999999981],"checkbox_events":[23114.299999999814,32025.899999999907,42305.19999999972,43387,44251.19999999972,45151.799999999814,52520.89999999991,53624.19999999972,55108,60283,61123.799999999814,62285.10000000009,70987.1000000001,71909.69999999972,72931.8999999999],"key_events":[],"mouse_events":[13194.19999999972,16930.899999999907,18737.100000000093,23114.299999999814,31003.19999999972,32025.899999999907,36099,42305.19999999972,43387,44251.19999999972,45151.799999999814,50535.19999999972,52520.89999999991,53624.19999999972,55108,57975.19999999972,60283,61123.799999999814,62285.10000000009,68375.79999999981,70185,70987.1000000001,71909.69999999972,72411.79999999981,72931.8999999999,74717.19999999972],"honeypot":0,"survey":"mace","page":6,"trial_type":"survey-mace","trial_index":14,"time_elapsed":678788,"internal_node_id":"0.0-14.0","task_version":"prescreen-v0.3","browser_interactions":0},{"responses":{"01":"No","02":"No","03":"Yes","03_ages_12":"12","03_ages_13":"13","03_ages_14":"14","04":"No","05":"No","06":"No","07":"No"},"rt":35314.69999999972,"item_order":[0,1,2,3,4,5,6],"radio_events":[8841.600000000093,12546.299999999814,17181.69999999972,26698.600000000093,29285.5,32263.100000000093,34210.60000000009],"checkbox_events":[19007.899999999907,19710.600000000093,20933.299999999814],"key_events":[],"mouse_events":[8841.600000000093,12546.299999999814,17181.69999999972,19007.899999999907,19710.600000000093,20933.299999999814,26698.600000000093,29285.5,31642.600000000093,32263.100000000093,33546.60000000009,34210.60000000009,35311.799999999814],"honeypot":0,"survey":"mace","page":7,"trial_type":"survey-mace","trial_index":15,"time_elapsed":714106,"internal_node_id":"0.0-15.0","task_version":"prescreen-v0.3","browser_interactions":0},{"responses":{"01":"No","02":"No","03":"Yes","03_ages_18":"18","04":"No"},"rt":288385.5,"item_order":[0,1,2,3],"radio_events":[11694,17593.899999999907,274532.6000000001,276276.1999999997,287060.6999999997],"checkbox_events":[282407.3999999999],"key_events":[24600.69999999972],"mouse_events":[11694,14602.100000000093,17593.899999999907,274532.6000000001,276276.1999999997,280963.5,281606.5,282407.3999999999,287060.6999999997,288384.2999999998],"honeypot":0,"survey":"mace","page":8,"trial_type":"survey-mace","trial_index":16,"time_elapsed":1002493,"internal_node_id":"0.0-16.0","task_version":"prescreen-v0.3","browser_interactions":0},{"responses":{"01":"Yes","01_ages_1":"1","01_ages_2":"2","01_ages_3":"3","01_ages_4":"4","01_ages_5":"5","01_ages_6":"6","01_ages_7":"7","01_ages_8":"8","01_ages_9":"9","01_ages_10":"10","01_ages_11":"11","01_ages_12":"12","01_ages_13":"13","01_ages_14":"14","01_ages_15":"15","01_ages_16":"16","01_ages_17":"17","01_ages_18":"18","02":"Yes","02_ages_1":"1","02_ages_2":"2","02_ages_3":"3","02_ages_4":"4","02_ages_5":"5","02_ages_6":"6","02_ages_7":"7","02_ages_8":"8","02_ages_9":"9","02_ages_10":"10","02_ages_11":"11","02_ages_12":"12","02_ages_13":"13","02_ages_14":"14","02_ages_15":"15","02_ages_16":"16","02_ages_17":"17","02_ages_18":"18","03":"Yes","03_ages_1":"1","03_ages_2":"2","03_ages_3":"3","03_ages_4":"4","03_ages_5":"5","03_ages_6":"6","03_ages_7":"7","03_ages_8":"8","03_ages_9":"9","03_ages_10":"10","03_ages_11":"11","03_ages_12":"12","03_ages_13":"13","03_ages_14":"14","03_ages_15":"15","03_ages_16":"16","03_ages_17":"17","03_ages_18":"18","04":"Yes","04_ages_1":"1","04_ages_2":"2","04_ages_3":"3","04_ages_4":"4","04_ages_5":"5","04_ages_6":"6","04_ages_7":"7","04_ages_8":"8","04_ages_9":"9","04_ages_10":"10","04_ages_11":"11","04_ages_12":"12","04_ages_13":"13","04_ages_14":"14","04_ages_15":"15","04_ages_16":"16","04_ages_17":"17","04_ages_18":"18"},"rt":131718.7999999998,"item_order":[0,1,2,3],"radio_events":[6737.0999999996275,38953.89999999991,77922.8999999999,106103.3999999999],"checkbox_events":[13648.099999999627,14430.799999999814,15835.099999999627,16756.599999999627,17861.899999999907,18903.19999999972,19384.899999999907,20948.69999999972,22452.799999999814,22914.799999999814,24838.599999999627,25581.899999999907,26264,27066,28087.799999999814,29111.899999999907,31356.69999999972,32200.799999999814,51207.89999999991,51909.39999999991,53395,54255.69999999972,55318.799999999814,56623.89999999991,57805.799999999814,58768,60151.89999999991,61436.89999999991,62157.19999999972,62659.799999999814,63881.89999999991,64825.59999999963,65748,66491.79999999981,68274.8999999999,69798.69999999972,80348.5,81211.79999999981,81711.69999999972,82414.69999999972,83275.8999999999,84119.3999999999,85141.8999999999,87062.8999999999,88106.79999999981,89229.59999999963,90171.8999999999,91335.5,93240.59999999963,94063.3999999999,94744.79999999981,96589.5,98093.79999999981,98876.69999999972,109553.79999999981,110334.79999999981,111098.5,112643.3999999999,113627.8999999999,114670.69999999972,115934.5,116976.5,117597.69999999972,119283.3999999999,120145.69999999972,121469.19999999972,122571.69999999972,123734.69999999972,125419.69999999972,126303.69999999972,127405.79999999981,128789.69999999972],"key_events":[],"mouse_events":[6737.0999999996275,13648.099999999627,14430.799999999814,15835.099999999627,16756.599999999627,17861.899999999907,18903.19999999972,19384.899999999907,20948.69999999972,22452.799999999814,22914.799999999814,24838.599999999627,25581.899999999907,26264,27066,28087.799999999814,29111.899999999907,30193.5,31356.69999999972,32200.799999999814,38953.89999999991,48920.799999999814,49542.799999999814,51207.89999999991,51909.39999999991,53395,54255.69999999972,55318.799999999814,56623.89999999991,57805.799999999814,58768,60151.89999999991,61436.89999999991,62157.19999999972,62659.799999999814,63881.89999999991,64825.59999999963,65748,66491.79999999981,68274.8999999999,69798.69999999972,77922.8999999999,80348.5,81211.79999999981,81711.69999999972,82414.69999999972,83275.8999999999,84119.3999999999,85141.8999999999,87062.8999999999,88106.79999999981,89229.59999999963,90171.8999999999,91335.5,92478.59999999963,93240.59999999963,94063.3999999999,94744.79999999981,96589.5,98093.79999999981,98876.69999999972,104851.5,106103.3999999999,108490.5,109553.79999999981,110334.79999999981,111098.5,112643.3999999999,113627.8999999999,114670.69999999972,115934.5,116976.5,117597.69999999972,118600.69999999972,119283.3999999999,120145.69999999972,121469.19999999972,122571.69999999972,123734.69999999972,125419.69999999972,126303.69999999972,127405.79999999981,128789.69999999972,131716.8999999999],"honeypot":0,"survey":"mace","page":9,"trial_type":"survey-mace","trial_index":17,"time_elapsed":1134216,"internal_node_id":"0.0-17.0","task_version":"prescreen-v0.3","browser_interactions":0},{"responses":{"01":"No","02":"No","03":"No","04":"No","05":"No","06":"Yes","06_ages_17":"17","07":"Yes","07_ages_1":"1","07_ages_2":"2","07_ages_3":"3","07_ages_4":"4","07_ages_5":"5","07_ages_6":"6","07_ages_7":"7","07_ages_8":"8","07_ages_9":"9","07_ages_10":"10","07_ages_11":"11","07_ages_12":"12","07_ages_13":"13","07_ages_14":"14","07_ages_15":"15","07_ages_16":"16","07_ages_17":"17","07_ages_18":"18","08":"Yes","08_ages_1":"1","08_ages_2":"2","08_ages_3":"3","08_ages_4":"4","08_ages_5":"5","08_ages_6":"6","08_ages_7":"7","08_ages_8":"8","08_ages_9":"9","08_ages_10":"10","08_ages_11":"11","08_ages_12":"12","08_ages_13":"13","08_ages_14":"14","08_ages_15":"15","08_ages_16":"16","08_ages_17":"17","08_ages_18":"18"},"rt":108329.29999999981,"item_order":[0,1,2,3,4,5,6,7],"radio_events":[22937.200000000186,26878.399999999907,30902.5,33569.5,37205.89999999991,44178.299999999814,53451.299999999814,84220.1000000001],"checkbox_events":[46422.5,56136.89999999991,59043,60186.299999999814,61228.299999999814,63012.89999999991,63956.10000000009,64558,65361.200000000186,66385.20000000019,68088,71840.29999999981,73022.20000000019,74066,75049.1000000001,76231.29999999981,76894.3999999999,77917.20000000019,79079.3999999999,86328,87790.3999999999,88293.1000000001,89374.6000000001,90337.20000000019,91220.20000000019,91722,92584.3999999999,93166.1000000001,94067,95389.8999999999,97055.20000000019,98720.29999999981,99523.1000000001,101828.20000000019,103352.1000000001,104217.1000000001,105439.20000000019],"key_events":[],"mouse_events":[22937.200000000186,26878.399999999907,30902.5,33569.5,37205.89999999991,44178.299999999814,46422.5,53451.299999999814,56136.89999999991,56640.200000000186,57280.200000000186,59043,60186.299999999814,61228.299999999814,62172.200000000186,63012.89999999991,63956.10000000009,64558,65361.200000000186,66385.20000000019,68088,71840.29999999981,73022.20000000019,74066,75049.1000000001,76231.29999999981,76894.3999999999,77917.20000000019,79079.3999999999,84220.1000000001,86328,87790.3999999999,88293.1000000001,89374.6000000001,89857.1000000001,90337.20000000019,91220.20000000019,91722,92584.3999999999,93166.1000000001,94067,94750.3999999999,95389.8999999999,97055.20000000019,98098.5,98720.29999999981,99523.1000000001,100505.29999999981,101828.20000000019,103352.1000000001,104217.1000000001,105439.20000000019,108326],"honeypot":0,"survey":"mace","page":10,"trial_type":"survey-mace","trial_index":18,"time_elapsed":1242549,"internal_node_id":"0.0-18.0","task_version":"prescreen-v0.3","browser_interactions":0,"instructed":0},{"rt":11864,"trial_type":"mental-health-alert","trial_index":19,"time_elapsed":1254414,"internal_node_id":"0.0-19.0","task_version":"prescreen-v0.3","interactions":"[]"}]