[{"view_history":[{"page_index":0,"viewing_time":27281},{"page_index":1,"viewing_time":9175},{"page_index":2,"viewing_time":22152},{"page_index":3,"viewing_time":16946}],"rt":75554,"trial_type":"instructions","trial_index":0,"time_elapsed":75573,"internal_node_id":"0.0-0.0","task_version":"prescreen-v0.3"},{"rt":48493,"responses":{"age":"32","gender-categorical":"Male","gender-free-response":"","ethnicity":"Not Hispanic or Latino","race":["White"],"education":"Bachelor degree"},"trial_type":"survey-demo","trial_index":1,"time_elapsed":124205,"internal_node_id":"0.0-1.0","task_version":"prescreen-v0.3"},{"responses":{"Q15":"1","Q03":"0","Q04":"0","Q12":"1","Q06":"2","Q21":"3","Q10":"2","Q14":"0","Q13":"0","Q11":"3","Q07":"2","Q19":"0","Q16":"0","Q17":"2","Q02":"1","Q05":"1","Q08":"1","Q18":"0","Q20":"0","Q01":"1","Q09":"2"},"rt":432741,"item_order":[14,2,3,11,5,20,9,13,12,10,6,18,15,16,1,4,7,17,19,0,8],"radio_events":[27642,32314,44891,57167,114490,123114,135587,151508,172714,183905,196069,276640,286776,300146,329160,342728,351265,362568,370904,382356,387704],"key_events":[],"mouse_events":[27642,32314,44891,57167,69898,70434,77675,78259,83443,84090,87012,113554,114490,123114,135587,151508,171841,172714,183905,196069,202185,276640,286776,300146,304248,329160,341936,342728,351265,362568,370904,382356,387704,432741],"straightlining":0.38095238095238093,"zigzagging":0.55,"honeypot":0,"survey":"sns","trial_type":"survey-template","trial_index":2,"time_elapsed":556981,"internal_node_id":"0.0-2.0","task_version":"prescreen-v0.3","browser_interactions":38,"infrequency":0},{"responses":{"Q08":"3","Q01":"2","Q12":"1","Q04":"2","Q09":"3","Q02":"2","Q10":"1","Q13":"0","Q11":"3","Q05":"3","Q06":"3","Q03":"3","Q07":"3"},"rt":172471,"item_order":[7,0,11,3,8,1,9,12,10,4,5,2,6],"radio_events":[40981,48610,59273,73922,84361,93673,104689,122128,134464,142432,150338,160553,170233],"key_events":[],"mouse_events":[6294,6762,9466,37722,39977,40981,48610,59273,73922,84361,93673,104689,108569,122128,133897,134464,142432,150338,160553,170233,172471],"straightlining":0.5384615384615384,"zigzagging":0.6666666666666666,"honeypot":0,"survey":"bisbas","trial_type":"survey-template","trial_index":3,"time_elapsed":729464,"internal_node_id":"0.0-3.0","task_version":"prescreen-v0.3","browser_interactions":26,"infrequency":0},{"responses":{"Q01":"2","Q02":"2","Q03":"2"},"rt":89512,"radio_events":[71117,79189,79846],"key_events":[],"mouse_events":[4894,48398,71117,78109,79189,79846,89511],"survey":"map","page":1,"trial_type":"survey-map","trial_index":4,"time_elapsed":818985,"internal_node_id":"0.0-4.0","task_version":"prescreen-v0.3","browser_interactions":4},{"responses":{"Q04":"4","Q05":"4","Q06":"4"},"rt":17567,"radio_events":[6949,10061,13149],"key_events":[],"mouse_events":[6949,10061,13149,17567],"survey":"map","page":2,"trial_type":"survey-map","trial_index":5,"time_elapsed":836561,"internal_node_id":"0.0-5.0","task_version":"prescreen-v0.3","browser_interactions":0},{"responses":{"Q07":"4","Q08":"4","Q09":"4"},"rt":20807,"radio_events":[12469,17942,18877],"key_events":[],"mouse_events":[12469,14397,17942,18877,20807],"survey":"map","page":3,"trial_type":"survey-map","trial_index":6,"time_elapsed":857377,"internal_node_id":"0.0-6.0","task_version":"prescreen-v0.3","browser_interactions":0},{"responses":{"Q10":"3","Q11":"3","Q12":"3","Q13":"3","Q16":"0","Q14":"3","Q15":"3"},"rt":148927,"radio_events":[62106,72218,88227,120538,127922,141506,145322],"key_events":[],"mouse_events":[6539,7050,20315,22594,27485,29331,31098,32956,35303,37002,62106,71282,72218,87735,88227,120538,127922,140226,141506,145322,148926],"survey":"map","page":4,"trial_type":"survey-map","trial_index":7,"time_elapsed":1006315,"internal_node_id":"0.0-7.0","task_version":"prescreen-v0.3","browser_interactions":8,"infrequency":0},{"view_history":[{"page_index":0,"viewing_time":5207},{"page_index":1,"viewing_time":18360}],"rt":23568,"trial_type":"instructions","trial_index":8,"time_elapsed":1029886,"internal_node_id":"0.0-8.0","task_version":"prescreen-v0.3"},{"responses":{"01":"No","02":"Yes","02_ages_7":"7","02_ages_8":"8","02_ages_9":"9","02_ages_10":"10","03":"No","04":"No","05":"No","06":"No"},"rt":103154,"item_order":[0,1,2,3,4,5],"radio_events":[31741,47678,78025,85400,90578,99350],"checkbox_events":[54063,56077,58661,60558],"key_events":[],"mouse_events":[0,7032,8886,9954,10934,12365,13546,31741,47678,54063,56077,58661,60558,76948,78025,85400,90578,99350,103154],"honeypot":0,"survey":"mace","page":1,"trial_type":"survey-mace","trial_index":9,"time_elapsed":1133063,"internal_node_id":"0.0-9.0","task_version":"prescreen-v0.3","browser_interactions":12},{"responses":{"01":"No","02":"No","03":"Yes","03_ages_4":"4","03_ages_5":"5","03_ages_6":"6","03_ages_7":"7","04":"No","05":"Yes","05_ages_7":"7","05_ages_8":"8","05_ages_9":"9","05_ages_10":"10","06":"No","07":"No","08":"No"},"rt":108381,"item_order":[0,1,2,3,4,5,6,7],"radio_events":[28799,41544,52283,74772,87184,100160,106926,107536],"checkbox_events":[57240,57696,58127,58808,89775,90264,90775,91327],"key_events":[],"mouse_events":[5099,6183,7432,9371,10432,11401,12456,13679,28799,40856,41544,52283,57240,57696,58127,58808,74772,87184,89775,90264,90775,91327,99615,100160,106926,107536,108381],"honeypot":0,"survey":"mace","page":2,"trial_type":"survey-mace","trial_index":10,"time_elapsed":1241461,"internal_node_id":"0.0-10.0","task_version":"prescreen-v0.3","browser_interactions":16},{"responses":{"01":"No","02":"No","03":"No","04":"No"},"rt":55648,"item_order":[0,1,2,3],"radio_events":[29629,44269,54629,55133],"checkbox_events":[],"key_events":[],"mouse_events":[3333,3589,5530,6502,7341,8423,28172,29069,29629,44269,54029,54629,55133,55648],"honeypot":0,"survey":"mace","page":3,"trial_type":"survey-mace","trial_index":11,"time_elapsed":1297118,"internal_node_id":"0.0-11.0","task_version":"prescreen-v0.3","browser_interactions":6},{"responses":{"01":"No","02":"No"},"rt":29970,"item_order":[0,1],"radio_events":[28590,29233],"checkbox_events":[],"key_events":[],"mouse_events":[4632,6070,28590,29233,29970],"honeypot":0,"survey":"mace","page":4,"trial_type":"survey-mace","trial_index":12,"time_elapsed":1327095,"internal_node_id":"0.0-12.0","task_version":"prescreen-v0.3","browser_interactions":4},{"responses":{"01":"No","02":"No","03":"No","04":"No","05":"No"},"rt":73278,"item_order":[0,1,2,3,4],"radio_events":[56489,57561,58298,58893,59474],"checkbox_events":[],"key_events":[],"mouse_events":[7825,9004,10217,11306,12401,14314,17003,18961,20521,22185,23425,56017,56489,57224,57561,58298,58893,59474,73278],"honeypot":0,"survey":"mace","page":5,"trial_type":"survey-mace","trial_index":13,"time_elapsed":1400385,"internal_node_id":"0.0-13.0","task_version":"prescreen-v0.3","browser_interactions":4},{"responses":{"01":"Yes","01_ages_7":"7","01_ages_8":"8","01_ages_9":"9","01_ages_10":"10","02":"No","03":"No","04":"No","05":"No"},"rt":98673,"item_order":[0,1,2,3,4],"radio_events":[25175,70213,87046,87798,95647],"checkbox_events":[29176,29830,30358,31200],"key_events":[],"mouse_events":[3951,5623,6902,8029,9438,24422,25175,29176,29830,30358,31200,70213,81918,87046,87798,95647,98673],"honeypot":0,"survey":"mace","page":6,"trial_type":"survey-mace","trial_index":14,"time_elapsed":1499070,"internal_node_id":"0.0-14.0","task_version":"prescreen-v0.3","browser_interactions":12},{"responses":{"01":"No","02":"No","03":"No","04":"No","05":"No","06":"No","07":"No"},"rt":22396,"item_order":[0,1,2,3,4,5,6],"radio_events":[6915,8586,10937,13778,16666,18235,18841],"checkbox_events":[],"key_events":[],"mouse_events":[6915,8586,10937,13778,16666,18235,18841,22396],"honeypot":0,"survey":"mace","page":7,"trial_type":"survey-mace","trial_index":15,"time_elapsed":1521477,"internal_node_id":"0.0-15.0","task_version":"prescreen-v0.3","browser_interactions":0},{"responses":{"01":"No","02":"Yes","02_ages_7":"7","02_ages_8":"8","02_ages_9":"9","02_ages_10":"10","02_ages_11":"11","02_ages_12":"12","02_ages_13":"13","02_ages_14":"14","02_ages_15":"15","02_ages_16":"16","02_ages_17":"17","02_ages_18":"18","03":"No","04":"Yes","04_ages_7":"7","04_ages_8":"8","04_ages_9":"9","04_ages_10":"10","04_ages_11":"11","04_ages_12":"12","04_ages_13":"13","04_ages_14":"14","04_ages_15":"15","04_ages_16":"16","04_ages_17":"17","04_ages_18":"18"},"rt":86095,"item_order":[0,1,2,3],"radio_events":[36925,37840,62845,70916],"checkbox_events":[41525,42220,43733,44174,44596,45117,46245,48708,49437,49915,50293,51804,74470,74956,76438,76828,77300,77717,78155,78605,79005,79484,79940,80844],"key_events":[],"mouse_events":[8724,9948,10991,11900,36925,37840,40413,41525,42220,42765,43733,44174,44596,45117,46245,48708,49437,49915,50293,50670,51804,62845,70916,74092,74470,74956,75404,75908,76438,76828,77300,77717,78155,78605,79005,79484,79940,80380,80844,86095],"honeypot":0,"survey":"mace","page":8,"trial_type":"survey-mace","trial_index":16,"time_elapsed":1607593,"internal_node_id":"0.0-16.0","task_version":"prescreen-v0.3","browser_interactions":6},{"responses":{"01":"Yes","01_ages_1":"1","01_ages_2":"2","01_ages_3":"3","01_ages_4":"4","01_ages_5":"5","01_ages_6":"6","01_ages_7":"7","01_ages_8":"8","01_ages_9":"9","01_ages_10":"10","01_ages_11":"11","01_ages_12":"12","01_ages_13":"13","01_ages_14":"14","01_ages_15":"15","01_ages_16":"16","01_ages_17":"17","01_ages_18":"18","02":"Yes","02_ages_1":"1","02_ages_2":"2","02_ages_3":"3","02_ages_4":"4","02_ages_5":"5","02_ages_6":"6","02_ages_7":"7","02_ages_8":"8","02_ages_9":"9","02_ages_10":"10","02_ages_11":"11","02_ages_12":"12","02_ages_13":"13","02_ages_14":"14","02_ages_15":"15","02_ages_16":"16","02_ages_17":"17","02_ages_18":"18","03":"Yes","03_ages_1":"1","03_ages_2":"2","03_ages_3":"3","03_ages_4":"4","03_ages_5":"5","03_ages_6":"6","03_ages_7":"7","03_ages_8":"8","03_ages_9":"9","03_ages_10":"10","03_ages_11":"11","03_ages_12":"12","03_ages_13":"13","03_ages_14":"14","03_ages_15":"15","03_ages_16":"16","03_ages_17":"17","03_ages_18":"18","04":"Yes","04_ages_1":"1","04_ages_2":"2","04_ages_3":"3","04_ages_4":"4","04_ages_5":"5","04_ages_6":"6","04_ages_7":"7","04_ages_8":"8","04_ages_9":"9","04_ages_10":"10","04_ages_11":"11","04_ages_12":"12","04_ages_13":"13","04_ages_14":"14","04_ages_15":"15","04_ages_16":"16","04_ages_17":"17","04_ages_18":"18"},"rt":265277,"item_order":[0,1,2,3],"radio_events":[178137,199879,239102,242846],"checkbox_events":[180967,181375,181679,182631,183400,183767,184095,185287,186023,186503,187186,187927,188352,188984,189775,190145,190711,191063,212527,213126,214319,214766,215216,215602,215982,216391,217392,217792,218366,218735,219743,220110,220494,220838,221208,222327,244046,244798,245319,246382,246822,247752,248245,248679,249070,249632,250766,251190,251694,252794,253155,253581,253999,254414,255953,256359,256843,257279,257678,258063,258414,258846,259278,259755,260518,261006,261663,262118,262735,263662,264462,264878],"key_events":[],"mouse_events":[7840,9202,10401,13513,178137,180967,181375,181679,182006,182631,183032,183400,183767,184095,184482,185287,185671,186023,186503,187186,187927,188352,188984,189775,190145,190711,191063,199879,212527,213126,213575,214319,214766,215216,215602,215982,216391,216767,217392,217792,218366,218735,219165,219743,220110,220494,220838,221208,221878,222327,239102,242846,244046,244335,244798,245319,245977,246382,246822,247367,247752,248245,248679,249070,249632,250176,250766,251190,251694,252120,252794,253155,253581,253999,254414,255953,256359,256843,257279,257678,258063,258414,258846,259278,259755,260518,261006,261663,262118,262735,263662,264462,264878,265277],"honeypot":0,"survey":"mace","page":9,"trial_type":"survey-mace","trial_index":17,"time_elapsed":1872884,"internal_node_id":"0.0-17.0","task_version":"prescreen-v0.3","browser_interactions":6},{"responses":{"01":"No","02":"No","03":"No","04":"No","05":"No","06":"Yes","06_ages_17":"17","07":"Yes","07_ages_1":"1","07_ages_2":"2","07_ages_3":"3","07_ages_4":"4","07_ages_5":"5","07_ages_6":"6","07_ages_7":"7","07_ages_8":"8","07_ages_9":"9","07_ages_10":"10","07_ages_11":"11","07_ages_12":"12","07_ages_13":"13","07_ages_14":"14","07_ages_15":"15","07_ages_16":"16","07_ages_17":"17","07_ages_18":"18","08":"Yes","08_ages_1":"1","08_ages_2":"2","08_ages_3":"3","08_ages_4":"4","08_ages_5":"5","08_ages_6":"6","08_ages_7":"7","08_ages_8":"8","08_ages_9":"9","08_ages_10":"10","08_ages_11":"11","08_ages_12":"12","08_ages_13":"13","08_ages_14":"14","08_ages_15":"15","08_ages_16":"16","08_ages_17":"17","08_ages_18":"18"},"rt":108378,"item_order":[0,1,2,3,4,5,6,7],"radio_events":[12486,18550,52095,55070,58102,61207,67470,69894,81445,83294],"checkbox_events":[14519,85238,85589,86150,86542,86893,87446,87927,88501,88901,89270,89829,90359,90735,91255,91775,92158,92535,93046,94734,95374,95750,96101,96653,97229,97703,100783,101192,101607,103583,104207,104614,105022,105454,105885,106327,106710],"key_events":[],"mouse_events":[12486,14519,18550,22919,24478,26006,27822,30006,31605,52095,55070,58102,61207,67470,69894,81445,83294,85238,85589,86150,86542,86893,87446,87927,88501,88901,89270,89829,90359,90735,91255,91775,92158,92535,93046,93838,94734,95374,95750,96101,96653,97229,97703,98294,99830,100430,100783,101192,101607,102054,102512,102997,103583,104207,104614,105022,105454,105885,106327,106710,108378],"honeypot":0,"survey":"mace","page":10,"trial_type":"survey-mace","trial_index":18,"time_elapsed":1981287,"internal_node_id":"0.0-18.0","task_version":"prescreen-v0.3","browser_interactions":4,"instructed":0},{"rt":4719,"trial_type":"mental-health-alert","trial_index":19,"time_elapsed":1986015,"internal_node_id":"0.0-19.0","task_version":"prescreen-v0.3","interactions":"[{\"event\":\"blur\",\"trial\":0,\"time\":6160},{\"event\":\"focus\",\"trial\":0,\"time\":7103},{\"event\":\"blur\",\"trial\":0,\"time\":11183},{\"event\":\"focus\",\"trial\":0,\"time\":26429},{\"event\":\"blur\",\"trial\":0,\"time\":30662},{\"event\":\"focus\",\"trial\":0,\"time\":34837},{\"event\":\"blur\",\"trial\":0,\"time\":40122},{\"event\":\"focus\",\"trial\":0,\"time\":57507},{\"event\":\"blur\",\"trial\":0,\"time\":63427},{\"event\":\"focus\",\"trial\":0,\"time\":74539},{\"event\":\"blur\",\"trial\":1,\"time\":101053},{\"event\":\"focus\",\"trial\":1,\"time\":115991},{\"event\":\"blur\",\"trial\":2,\"time\":213836},{\"event\":\"focus\",\"trial\":2,\"time\":235995},{\"event\":\"blur\",\"trial\":2,\"time\":239623},{\"event\":\"focus\",\"trial\":2,\"time\":245846},{\"event\":\"blur\",\"trial\":2,\"time\":248465},{\"event\":\"focus\",\"trial\":2,\"time\":255632},{\"event\":\"blur\",\"trial\":2,\"time\":260900},{\"event\":\"focus\",\"trial\":2,\"time\":271601},{\"event\":\"blur\",\"trial\":2,\"time\":282928},{\"event\":\"focus\",\"trial\":2,\"time\":294333},{\"event\":\"blur\",\"trial\":2,\"time\":298003},{\"event\":\"focus\",\"trial\":2,\"time\":306524},{\"event\":\"blur\",\"trial\":2,\"time\":309007},{\"event\":\"focus\",\"trial\":2,\"time\":317227},{\"event\":\"blur\",\"trial\":2,\"time\":329426},{\"event\":\"focus\",\"trial\":2,\"time\":345142},{\"event\":\"blur\",\"trial\":2,\"time\":349724},{\"event\":\"focus\",\"trial\":2,\"time\":376791},{\"event\":\"blur\",\"trial\":2,\"time\":385818},{\"event\":\"focus\",\"trial\":2,\"time\":397615},{\"event\":\"blur\",\"trial\":2,\"time\":401832},{\"event\":\"focus\",\"trial\":2,\"time\":407045},{\"event\":\"blur\",\"trial\":2,\"time\":416310},{\"event\":\"focus\",\"trial\":2,\"time\":422021},{\"event\":\"blur\",\"trial\":2,\"time\":431496},{\"event\":\"focus\",\"trial\":2,\"time\":450271},{\"event\":\"blur\",\"trial\":2,\"time\":454370},{\"event\":\"focus\",\"trial\":2,\"time\":464801},{\"event\":\"blur\",\"trial\":2,\"time\":468480},{\"event\":\"focus\",\"trial\":2,\"time\":473308},{\"event\":\"blur\",\"trial\":2,\"time\":476254},{\"event\":\"focus\",\"trial\":2,\"time\":484427},{\"event\":\"blur\",\"trial\":2,\"time\":487799},{\"event\":\"focus\",\"trial\":2,\"time\":493095},{\"event\":\"blur\",\"trial\":2,\"time\":495753},{\"event\":\"focus\",\"trial\":2,\"time\":504857},{\"event\":\"blur\",\"trial\":2,\"time\":535490},{\"event\":\"focus\",\"trial\":2,\"time\":550574},{\"event\":\"blur\",\"trial\":3,\"time\":568478},{\"event\":\"focus\",\"trial\":3,\"time\":593074},{\"event\":\"blur\",\"trial\":3,\"time\":599870},{\"event\":\"focus\",\"trial\":3,\"time\":603836},{\"event\":\"blur\",\"trial\":3,\"time\":606630},{\"event\":\"focus\",\"trial\":3,\"time\":614084},{\"event\":\"blur\",\"trial\":3,\"time\":617100},{\"event\":\"focus\",\"trial\":3,\"time\":629250},{\"event\":\"blur\",\"trial\":3,\"time\":631733},{\"event\":\"focus\",\"trial\":3,\"time\":639976},{\"event\":\"blur\",\"trial\":3,\"time\":642285},{\"event\":\"focus\",\"trial\":3,\"time\":649002},{\"event\":\"blur\",\"trial\":3,\"time\":651611},{\"event\":\"focus\",\"trial\":3,\"time\":660064},{\"event\":\"blur\",\"trial\":3,\"time\":667475},{\"event\":\"focus\",\"trial\":3,\"time\":676864},{\"event\":\"blur\",\"trial\":3,\"time\":680327},{\"event\":\"focus\",\"trial\":3,\"time\":689320},{\"event\":\"blur\",\"trial\":3,\"time\":692294},{\"event\":\"focus\",\"trial\":3,\"time\":698473},{\"event\":\"blur\",\"trial\":3,\"time\":700003},{\"event\":\"focus\",\"trial\":3,\"time\":706004},{\"event\":\"blur\",\"trial\":3,\"time\":708152},{\"event\":\"focus\",\"trial\":3,\"time\":716527},{\"event\":\"blur\",\"trial\":3,\"time\":718337},{\"event\":\"focus\",\"trial\":3,\"time\":726118},{\"event\":\"blur\",\"trial\":4,\"time\":736539},{\"event\":\"focus\",\"trial\":4,\"time\":770567},{\"event\":\"blur\",\"trial\":4,\"time\":780352},{\"event\":\"focus\",\"trial\":4,\"time\":795671},{\"event\":\"blur\",\"trial\":7,\"time\":897545},{\"event\":\"focus\",\"trial\":7,\"time\":915419},{\"event\":\"blur\",\"trial\":7,\"time\":920475},{\"event\":\"focus\",\"trial\":7,\"time\":927511},{\"event\":\"blur\",\"trial\":7,\"time\":930478},{\"event\":\"focus\",\"trial\":7,\"time\":943316},{\"event\":\"blur\",\"trial\":7,\"time\":947025},{\"event\":\"focus\",\"trial\":7,\"time\":963408},{\"event\":\"blur\",\"trial\":8,\"time\":1015691},{\"event\":\"focus\",\"trial\":8,\"time\":1029088},{\"event\":\"blur\",\"trial\":9,\"time\":1046210},{\"event\":\"focus\",\"trial\":9,\"time\":1060119},{\"event\":\"blur\",\"trial\":9,\"time\":1062956},{\"event\":\"focus\",\"trial\":9,\"time\":1076550},{\"event\":\"blur\",\"trial\":9,\"time\":1096509},{\"event\":\"focus\",\"trial\":9,\"time\":1105349},{\"event\":\"blur\",\"trial\":9,\"time\":1108722},{\"event\":\"focus\",\"trial\":9,\"time\":1114121},{\"event\":\"blur\",\"trial\":9,\"time\":1116184},{\"event\":\"focus\",\"trial\":9,\"time\":1119618},{\"event\":\"blur\",\"trial\":9,\"time\":1121158},{\"event\":\"focus\",\"trial\":9,\"time\":1128240},{\"event\":\"blur\",\"trial\":10,\"time\":1149536},{\"event\":\"focus\",\"trial\":10,\"time\":1160875},{\"event\":\"blur\",\"trial\":10,\"time\":1163073},{\"event\":\"focus\",\"trial\":10,\"time\":1165633},{\"event\":\"blur\",\"trial\":10,\"time\":1166913},{\"event\":\"focus\",\"trial\":10,\"time\":1173023},{\"event\":\"blur\",\"trial\":10,\"time\":1175395},{\"event\":\"focus\",\"trial\":10,\"time\":1183770},{\"event\":\"blur\",\"trial\":10,\"time\":1194325},{\"event\":\"focus\",\"trial\":10,\"time\":1206596},{\"event\":\"blur\",\"trial\":10,\"time\":1208671},{\"event\":\"focus\",\"trial\":10,\"time\":1218048},{\"event\":\"blur\",\"trial\":10,\"time\":1227699},{\"event\":\"focus\",\"trial\":10,\"time\":1231549},{\"event\":\"blur\",\"trial\":10,\"time\":1233836},{\"event\":\"focus\",\"trial\":10,\"time\":1238925},{\"event\":\"blur\",\"trial\":11,\"time\":1252084},{\"event\":\"focus\",\"trial\":11,\"time\":1268544},{\"event\":\"blur\",\"trial\":11,\"time\":1271811},{\"event\":\"focus\",\"trial\":11,\"time\":1284649},{\"event\":\"blur\",\"trial\":11,\"time\":1286428},{\"event\":\"focus\",\"trial\":11,\"time\":1294584},{\"event\":\"blur\",\"trial\":12,\"time\":1305253},{\"event\":\"focus\",\"trial\":12,\"time\":1321457},{\"event\":\"blur\",\"trial\":12,\"time\":1322283},{\"event\":\"focus\",\"trial\":12,\"time\":1324478},{\"event\":\"blur\",\"trial\":13,\"time\":1354946},{\"event\":\"focus\",\"trial\":13,\"time\":1381826},{\"event\":\"blur\",\"trial\":13,\"time\":1391221},{\"event\":\"focus\",\"trial\":13,\"time\":1398858},{\"event\":\"blur\",\"trial\":14,\"time\":1411968},{\"event\":\"focus\",\"trial\":14,\"time\":1423659},{\"event\":\"blur\",\"trial\":14,\"time\":1432965},{\"event\":\"focus\",\"trial\":14,\"time\":1439471},{\"event\":\"blur\",\"trial\":14,\"time\":1440349},{\"event\":\"focus\",\"trial\":14,\"time\":1445888},{\"event\":\"blur\",\"trial\":14,\"time\":1447386},{\"event\":\"focus\",\"trial\":14,\"time\":1466372},{\"event\":\"blur\",\"trial\":14,\"time\":1472179},{\"event\":\"focus\",\"trial\":14,\"time\":1480879},{\"event\":\"blur\",\"trial\":14,\"time\":1490328},{\"event\":\"focus\",\"trial\":14,\"time\":1494904},{\"event\":\"blur\",\"trial\":16,\"time\":1535641},{\"event\":\"focus\",\"trial\":16,\"time\":1556639},{\"event\":\"blur\",\"trial\":16,\"time\":1575140},{\"event\":\"focus\",\"trial\":16,\"time\":1583371},{\"event\":\"blur\",\"trial\":16,\"time\":1585050},{\"event\":\"focus\",\"trial\":16,\"time\":1589464},{\"event\":\"blur\",\"trial\":17,\"time\":1767310},{\"event\":\"focus\",\"trial\":17,\"time\":1784200},{\"event\":\"blur\",\"trial\":17,\"time\":1799703},{\"event\":\"focus\",\"trial\":17,\"time\":1806133},{\"event\":\"blur\",\"trial\":17,\"time\":1831207},{\"event\":\"focus\",\"trial\":17,\"time\":1842502},{\"event\":\"blur\",\"trial\":18,\"time\":1907199},{\"event\":\"focus\",\"trial\":18,\"time\":1922921},{\"event\":\"blur\",\"trial\":18,\"time\":1944135},{\"event\":\"focus\",\"trial\":18,\"time\":1953026}]"}]