[{"view_history":[{"page_index":0,"viewing_time":3657.100000023842},{"page_index":1,"viewing_time":2696.2999999523163},{"page_index":2,"viewing_time":2276},{"page_index":3,"viewing_time":1056}],"rt":9686.5,"trial_type":"instructions","trial_index":0,"time_elapsed":9733,"internal_node_id":"0.0-0.0","task_version":"prescreen-v0.3"},{"rt":16453.900000035763,"responses":{"age":"26","gender-categorical":"Male","gender-free-response":"","ethnicity":"Not Hispanic or Latino","race":["White"],"education":"Bachelor degree","siblings":"1"},"trial_type":"survey-demo","trial_index":1,"time_elapsed":26195,"internal_node_id":"0.0-1.0","task_version":"prescreen-v0.3"},{"responses":{"Q15":"2","Q05":"1","Q10":"2","Q19":"2","Q18":"1","Q06":"1","Q01":"2","Q20":"1","Q11":"1","Q14":"1","Q04":"1","Q16":"2","Q02":"1","Q12":"2","Q08":"2","Q13":"2","Q03":"2","Q07":"1","Q09":"1","Q21":"2","Q17":"2"},"rt":31945.099999964237,"item_order":[14,4,9,18,17,5,0,19,10,13,3,15,1,11,7,12,2,6,8,20,16],"radio_events":[3755.099999964237,4897,5369.5,7441.199999988079,8091.399999976158,9766,10616,14902.899999976158,15601.399999976158,18125.899999976158,18669.799999952316,20534.69999998808,21462.799999952316,22353.799999952316,24727.69999998808,25244.899999976158,25639,27309.799999952316,27729.69999998808,28736.69999998808,30017.69999998808],"key_events":[],"mouse_events":[3755.099999964237,4139.5,4897,5369.5,5818,6209.5,7441.199999988079,8091.399999976158,8590.099999964237,9766,10616,14902.899999976158,15601.399999976158,16100.599999964237,17003.099999964237,17753.099999964237,18125.899999976158,18669.799999952316,19473.899999976158,20013.099999964237,20534.69999998808,21057.899999976158,21462.799999952316,22353.799999952316,24727.69999998808,25244.899999976158,25639,26721.69999998808,27309.799999952316,27729.69999998808,28736.69999998808,29195.799999952316,30017.69999998808,31940],"straightlining":0.5238095238095238,"zigzagging":0.5,"honeypot":0,"survey":"sns","trial_type":"survey-template","trial_index":2,"time_elapsed":58249,"internal_node_id":"0.0-2.0","task_version":"prescreen-v0.3","browser_interactions":0,"infrequency":0.5},{"responses":{"Q12":"1","Q10":"2","Q09":"2","Q02":"1","Q03":"2","Q05":"1","Q08":"2","Q13":"0","Q01":"1","Q04":"1","Q07":"2","Q06":"1","Q11":"1"},"rt":25748.899999976158,"item_order":[11,9,8,1,2,4,7,12,0,3,6,5,10],"radio_events":[3815.199999988079,4779.199999988079,5132.199999988079,6491.099999964237,7692,8400.099999964237,9264.099999964237,15677,17774.19999998808,19868.19999998808,20661.899999976158,21966.899999976158,22450.899999976158],"key_events":[],"mouse_events":[3815.199999988079,4779.199999988079,5132.199999988079,5497.199999988079,6491.099999964237,7002.099999964237,7692,8400.099999964237,9264.099999964237,15677,17774.19999998808,18108.5,19868.19999998808,20661.899999976158,21131.19999998808,21966.899999976158,22450.899999976158,25746.099999964237],"straightlining":0.5384615384615384,"zigzagging":0.6666666666666666,"honeypot":0,"survey":"bisbas","trial_type":"survey-template","trial_index":3,"time_elapsed":84009,"internal_node_id":"0.0-3.0","task_version":"prescreen-v0.3","browser_interactions":0,"infrequency":0},{"responses":{"Q01":"2","Q02":"2","Q03":"2"},"rt":8253.899999976158,"radio_events":[2809.7999999523163,5610.599999964237,6478.599999964237],"key_events":[],"mouse_events":[2809.7999999523163,3372.699999988079,3849.099999964237,4668.699999988079,5259.799999952316,5610.599999964237,6478.599999964237,8252.699999988079],"survey":"map","page":1,"trial_type":"survey-map","trial_index":4,"time_elapsed":92274,"internal_node_id":"0.0-4.0","task_version":"prescreen-v0.3","browser_interactions":0},{"responses":{"Q04":"2","Q05":"2","Q06":"2"},"rt":5155.400000035763,"radio_events":[2184,3001.100000023842,4161.199999988079],"key_events":[],"mouse_events":[2184,3001.100000023842,4161.199999988079,5154.300000011921],"survey":"map","page":2,"trial_type":"survey-map","trial_index":5,"time_elapsed":97439,"internal_node_id":"0.0-5.0","task_version":"prescreen-v0.3","browser_interactions":0},{"responses":{"Q07":"2","Q08":"2","Q09":"2"},"rt":5219.600000023842,"radio_events":[1962.300000011921,2978.399999976158,4196.399999976158],"key_events":[],"mouse_events":[1962.300000011921,2978.399999976158,4196.399999976158,5218.399999976158],"survey":"map","page":3,"trial_type":"survey-map","trial_index":6,"time_elapsed":102667,"internal_node_id":"0.0-6.0","task_version":"prescreen-v0.3","browser_interactions":0},{"responses":{"Q10":"2","Q11":"2","Q12":"1","Q13":"2","Q16":"0","Q14":"2","Q15":"2"},"rt":19512,"radio_events":[1829.4000000357628,2828.800000011921,4748.400000035763,5960.5,7069.5,11384,16314.300000011921,17285.400000035763],"key_events":[],"mouse_events":[1829.4000000357628,2828.800000011921,3678.900000035763,4748.400000035763,5960.5,7069.5,11384,13420.200000047684,15236.100000023842,15933.5,16314.300000011921,16976,17285.400000035763,19509.30000001192],"survey":"map","page":4,"trial_type":"survey-map","trial_index":7,"time_elapsed":122189,"internal_node_id":"0.0-7.0","task_version":"prescreen-v0.3","browser_interactions":0,"infrequency":0},{"view_history":[{"page_index":0,"viewing_time":1376},{"page_index":1,"viewing_time":4084.5}],"rt":5461.600000023842,"trial_type":"instructions","trial_index":8,"time_elapsed":127658,"internal_node_id":"0.0-8.0","task_version":"prescreen-v0.3"},{"responses":{"01":"No","02":"No","03":"No","04":"No","05":"No","06":"No"},"rt":13043.699999988079,"item_order":[0,1,2,3,4,5],"radio_events":[5471.699999988079,6817.699999988079,9307.699999988079,9940.5,10343.599999964237,11988.599999964237],"checkbox_events":[],"key_events":[],"mouse_events":[0.19999998807907104,4705.699999988079,5471.699999988079,6817.699999988079,8328.599999964237,9307.699999988079,9940.5,10343.599999964237,11988.599999964237,13036.899999976158],"honeypot":0,"survey":"mace","page":1,"trial_type":"survey-mace","trial_index":9,"time_elapsed":140714,"internal_node_id":"0.0-9.0","task_version":"prescreen-v0.3","browser_interactions":0},{"responses":{"01":"No","02":"No","03":"No","04":"No","05":"No","06":"No","07":"No","08":"No"},"rt":10825.799999952316,"item_order":[0,1,2,3,4,5,6,7],"radio_events":[3142.099999964237,3604.399999976158,4286.299999952316,5537.299999952316,6624.199999988079,7134.299999952316,8759.099999964237,9579.299999952316],"checkbox_events":[],"key_events":[],"mouse_events":[1858,2377.5,3142.099999964237,3604.399999976158,4286.299999952316,4687,5537.299999952316,5978.299999952316,6624.199999988079,7134.299999952316,8759.099999964237,9579.299999952316,10816.5],"honeypot":0,"survey":"mace","page":2,"trial_type":"survey-mace","trial_index":10,"time_elapsed":151553,"internal_node_id":"0.0-10.0","task_version":"prescreen-v0.3","browser_interactions":0},{"responses":{"01":"No","02":"No","03":"No","04":"No"},"rt":7760.599999964237,"item_order":[0,1,2,3],"radio_events":[2085.199999988079,3102.899999976158,5675,6481.099999964237],"checkbox_events":[],"key_events":[],"mouse_events":[2085.199999988079,3102.899999976158,5675,6481.099999964237,7755.199999988079],"honeypot":0,"survey":"mace","page":3,"trial_type":"survey-mace","trial_index":11,"time_elapsed":159324,"internal_node_id":"0.0-11.0","task_version":"prescreen-v0.3","browser_interactions":0},{"responses":{"01":"No","02":"No"},"rt":3443.699999988079,"item_order":[0,1],"radio_events":[1711.1000000238419,2767.699999988079],"checkbox_events":[],"key_events":[],"mouse_events":[1711.1000000238419,2304.199999988079,2767.699999988079,3441.300000011921],"honeypot":0,"survey":"mace","page":4,"trial_type":"survey-mace","trial_index":12,"time_elapsed":162777,"internal_node_id":"0.0-12.0","task_version":"prescreen-v0.3","browser_interactions":0},{"responses":{"01":"No","02":"No","03":"No","04":"No","05":"No"},"rt":6848,"item_order":[0,1,2,3,4],"radio_events":[2048,2607.300000011921,3554.900000035763,4304.300000011921,4930.200000047684],"checkbox_events":[],"key_events":[],"mouse_events":[2048,2607.300000011921,3554.900000035763,4304.300000011921,4930.200000047684,6842.200000047684],"honeypot":0,"survey":"mace","page":5,"trial_type":"survey-mace","trial_index":13,"time_elapsed":169634,"internal_node_id":"0.0-13.0","task_version":"prescreen-v0.3","browser_interactions":0},{"responses":{"01":"No","02":"No","03":"No","04":"No","05":"No"},"rt":7932.699999988079,"item_order":[0,1,2,3,4],"radio_events":[1665.300000011921,2465.300000011921,3794.300000011921,6035.899999976158,6884.899999976158],"checkbox_events":[],"key_events":[],"mouse_events":[1665.300000011921,2465.300000011921,2980.5,3794.300000011921,6035.899999976158,6884.899999976158,7926.5],"honeypot":0,"survey":"mace","page":6,"trial_type":"survey-mace","trial_index":14,"time_elapsed":177578,"internal_node_id":"0.0-14.0","task_version":"prescreen-v0.3","browser_interactions":0},{"responses":{"01":"No","02":"No","03":"No","04":"No","05":"No","06":"No","07":"No"},"rt":10858.400000035763,"item_order":[0,1,2,3,4,5,6],"radio_events":[2906.800000011921,4907.400000035763,5977.400000035763,6408.400000035763,8775.400000035763,9421.200000047684,10299.200000047684],"checkbox_events":[],"key_events":[],"mouse_events":[2906.800000011921,4193.5,4907.400000035763,5977.400000035763,6408.400000035763,8484.300000011921,8775.400000035763,9421.200000047684,9909.100000023842,10299.200000047684,10849.300000011921],"honeypot":0,"survey":"mace","page":7,"trial_type":"survey-mace","trial_index":15,"time_elapsed":188448,"internal_node_id":"0.0-15.0","task_version":"prescreen-v0.3","browser_interactions":0},{"responses":{"01":"No","02":"No","03":"No","04":"No"},"rt":10796.900000035763,"item_order":[0,1,2,3],"radio_events":[4127.100000023842,5521.100000023842,8936.5,9673.900000035763],"checkbox_events":[],"key_events":[],"mouse_events":[4127.100000023842,5521.100000023842,8936.5,9673.900000035763,10792],"honeypot":0,"survey":"mace","page":8,"trial_type":"survey-mace","trial_index":16,"time_elapsed":199254,"internal_node_id":"0.0-16.0","task_version":"prescreen-v0.3","browser_interactions":0},{"responses":{"01":"Yes","01_ages_1":"1","01_ages_2":"2","01_ages_3":"3","01_ages_4":"4","01_ages_5":"5","01_ages_6":"6","01_ages_7":"7","01_ages_8":"8","01_ages_9":"9","01_ages_10":"10","01_ages_11":"11","01_ages_12":"12","01_ages_13":"13","01_ages_14":"14","01_ages_15":"15","01_ages_16":"16","01_ages_17":"17","01_ages_18":"18","02":"Yes","02_ages_2":"2","02_ages_3":"3","02_ages_4":"4","02_ages_5":"5","02_ages_6":"6","02_ages_7":"7","02_ages_8":"8","02_ages_9":"9","02_ages_10":"10","02_ages_11":"11","02_ages_12":"12","02_ages_13":"13","02_ages_14":"14","02_ages_15":"15","02_ages_16":"16","02_ages_17":"17","02_ages_18":"18","03":"Yes","03_ages_1":"1","03_ages_2":"2","03_ages_3":"3","03_ages_4":"4","03_ages_5":"5","03_ages_6":"6","03_ages_7":"7","03_ages_8":"8","03_ages_9":"9","03_ages_10":"10","03_ages_11":"11","03_ages_12":"12","03_ages_13":"13","03_ages_14":"14","03_ages_15":"15","03_ages_16":"16","03_ages_17":"17","03_ages_18":"18","04":"Yes","04_ages_10":"10"},"rt":60104.10000002384,"item_order":[0,1,2,3],"radio_events":[3074.600000023842,20792.5,28696.30000001192,33275.30000001192],"checkbox_events":[8465.699999988079,9119.699999988079,10016.5,10409.600000023842,11083.100000023842,11391.600000023842,11736.600000023842,12077.5,12427.600000023842,13471.400000035763,13803.800000011921,14213.600000023842,14593.600000023842,15560.400000035763,15875,16210.600000023842,17246.19999998808,19966.30000001192,23537.5,23944.400000035763,24322.30000001192,25325.400000035763,27467.5,39418.60000002384,41668.5,42010.5,43215,44053.40000003576,44422.40000003576,44803.60000002384,45986.19999998808,46295.60000002384,46625.5,47094.5,47452.19999998808,48127.30000001192,48447.5,49147.30000001192,49470.10000002384,50194.40000003576,51232.40000003576,52852.40000003576,53645.5,53982.40000003576,54367.60000002384,54731.40000003576,55117.30000001192,55473.5,56254.69999998808,56606.60000002384,57343.60000002384,57664.5,58020.40000003576,58358.5],"key_events":[],"mouse_events":[3074.600000023842,8465.699999988079,9119.699999988079,9483.600000023842,10016.5,10409.600000023842,10741.400000035763,11083.100000023842,11391.600000023842,11736.600000023842,12077.5,12427.600000023842,12770.600000023842,13136.300000011921,13471.400000035763,13803.800000011921,14213.600000023842,14593.600000023842,14975.5,15560.400000035763,15875,16210.600000023842,16867.100000023842,17246.19999998808,19966.30000001192,20792.5,23537.5,23944.400000035763,24322.30000001192,24810,25325.400000035763,25768.400000035763,26197.69999998808,26635.400000035763,27176,27467.5,27773.5,28696.30000001192,33275.30000001192,39418.60000002384,41668.5,42010.5,42657.5,43215,43736.30000001192,44053.40000003576,44422.40000003576,44803.60000002384,45154.5,45661.80000001192,45986.19999998808,46295.60000002384,46625.5,47094.5,47452.19999998808,47824.60000002384,48127.30000001192,48447.5,48824.19999998808,49147.30000001192,49470.10000002384,49878.10000002384,50194.40000003576,50557.40000003576,51232.40000003576,51609.5,52852.40000003576,53645.5,53982.40000003576,54367.60000002384,54731.40000003576,55117.30000001192,55473.5,56254.69999998808,56606.60000002384,57020.40000003576,57343.60000002384,57664.5,58020.40000003576,58358.5,60099],"honeypot":0,"survey":"mace","page":9,"trial_type":"survey-mace","trial_index":17,"time_elapsed":259368,"internal_node_id":"0.0-17.0","task_version":"prescreen-v0.3","browser_interactions":0},{"responses":{"01":"No","02":"No","03":"No","04":"No","05":"No","06":"Yes","06_ages_17":"17","07":"Yes","07_ages_5":"5","07_ages_6":"6","07_ages_7":"7","07_ages_8":"8","07_ages_9":"9","07_ages_10":"10","07_ages_11":"11","07_ages_12":"12","07_ages_13":"13","07_ages_14":"14","07_ages_15":"15","07_ages_16":"16","07_ages_17":"17","07_ages_18":"18","08":"Yes","08_ages_5":"5","08_ages_6":"6","08_ages_7":"7","08_ages_8":"8","08_ages_9":"9","08_ages_10":"10","08_ages_11":"11","08_ages_12":"12","08_ages_13":"13","08_ages_14":"14","08_ages_15":"15","08_ages_16":"16","08_ages_17":"17","08_ages_18":"18"},"rt":37051.19999998808,"item_order":[0,1,2,3,4,5,6,7],"radio_events":[4378.600000023842,4909.199999988079,5511,7860,8729,10551,13728.199999988079,27903.80000001192],"checkbox_events":[11605.100000023842,20259.900000035763,20612,20943.5,21289.80000001192,21639.19999998808,23155.80000001192,23460.100000023842,23948.900000035763,24728.80000001192,25048,25402,26064.80000001192,26458,26890.80000001192,29287.900000035763,29645.100000023842,30087.80000001192,30446.69999998808,31553.900000035763,31933.80000001192,32431.600000023842,32980.30000001192,33345.10000002384,34197.80000001192,35052.80000001192,35583.80000001192,36034.90000003576,36387.80000001192],"key_events":[],"mouse_events":[2171.100000023842,4378.600000023842,4909.199999988079,5511,6762.100000023842,7860,8729,10551,11605.100000023842,13728.199999988079,20259.900000035763,20612,20943.5,21289.80000001192,21639.19999998808,22061.900000035763,22468.5,23155.80000001192,23460.100000023842,23948.900000035763,24341.69999998808,24728.80000001192,25048,25402,25747.19999998808,26064.80000001192,26458,26890.80000001192,27903.80000001192,29287.900000035763,29645.100000023842,30087.80000001192,30446.69999998808,31006.80000001192,31553.900000035763,31933.80000001192,32431.600000023842,32980.30000001192,33345.10000002384,33865.90000003576,34197.80000001192,34540.40000003576,35052.80000001192,35583.80000001192,36034.90000003576,36387.80000001192,37038.60000002384],"honeypot":0,"survey":"mace","page":10,"trial_type":"survey-mace","trial_index":18,"time_elapsed":296431,"internal_node_id":"0.0-18.0","task_version":"prescreen-v0.3","browser_interactions":0,"instructed":0},{"rt":1549406.3999999762,"trial_type":"mental-health-alert","trial_index":19,"time_elapsed":1845837,"internal_node_id":"0.0-19.0","task_version":"prescreen-v0.3","interactions":"[{\"event\":\"blur\",\"trial\":19,\"time\":302380},{\"event\":\"focus\",\"trial\":19,\"time\":309706},{\"event\":\"blur\",\"trial\":19,\"time\":316028},{\"event\":\"focus\",\"trial\":19,\"time\":1844653}]"}]