[{"view_history":[{"page_index":0,"viewing_time":11013.800000190735},{"page_index":1,"viewing_time":3472},{"page_index":2,"viewing_time":3832},{"page_index":3,"viewing_time":3359.7999992370605}],"rt":21679.699999809265,"trial_type":"instructions","trial_index":0,"time_elapsed":21922,"internal_node_id":"0.0-0.0","task_version":"prescreen-v0.3"},{"rt":13226.60000038147,"responses":{"age":"25","gender-categorical":"Male","gender-free-response":"","ethnicity":"Not Hispanic or Latino","race":["Black or African American"],"education":"Master degree or higher"},"trial_type":"survey-demo","trial_index":1,"time_elapsed":35168,"internal_node_id":"0.0-1.0","task_version":"prescreen-v0.3"},{"responses":{"Q04":"0","Q01":"1","Q14":"3","Q21":"3","Q06":"2","Q13":"0","Q17":"0","Q08":"1","Q11":"0","Q16":"0","Q20":"0","Q10":"0","Q12":"0","Q07":"2","Q05":"1","Q15":"2","Q09":"0","Q03":"0","Q02":"0","Q19":"0","Q18":"0"},"rt":103693.30000019073,"item_order":[3,0,13,20,5,12,16,7,10,15,19,9,11,6,4,14,8,2,1,18,17],"radio_events":[4483.89999961853,6371.599999427795,9147.699999809265,11172.099999427795,16931.800000190735,18747.800000190735,22195.699999809265,22835.699999809265,28435.800000190735,33291.699999809265,34699.699999809265,36539.699999809265,40371.89999961853,44003.89999961853,63291.5,67859.69999980927,71003.89999961853,73388.19999980927,75939.80000019073,78515.69999980927,82252.0999994278,102491.80000019073],"key_events":[],"mouse_events":[4483.89999961853,6371.599999427795,9147.699999809265,11172.099999427795,15339.89999961853,15979.699999809265,16931.800000190735,18747.800000190735,22195.699999809265,22835.699999809265,25827.699999809265,27363.89999961853,28035.800000190735,28435.800000190735,29355.800000190735,33291.699999809265,34699.699999809265,36539.699999809265,40371.89999961853,44003.89999961853,49163.89999961853,49555.699999809265,51059.800000190735,63291.5,66779.69999980927,67859.69999980927,71003.89999961853,72435.89999961853,73388.19999980927,74388,75028,75939.80000019073,78515.69999980927,80483.80000019073,81419.69999980927,82252.0999994278,86844.0999994278,87284.19999980927,88227.80000019073,95435.80000019073,102084,102491.80000019073,103691.89999961853],"straightlining":0.6190476190476191,"zigzagging":0.3,"honeypot":0,"survey":"sns","trial_type":"survey-template","trial_index":2,"time_elapsed":138867,"internal_node_id":"0.0-2.0","task_version":"prescreen-v0.3","browser_interactions":2,"infrequency":0},{"responses":{"Q08":"3","Q10":"3","Q13":"0","Q03":"0","Q07":"2","Q04":"3","Q01":"3","Q06":"3","Q02":"0","Q09":"3","Q05":"3","Q12":"2","Q11":"3"},"rt":31436.60000038147,"item_order":[7,9,12,2,6,3,0,5,1,8,4,11,10],"radio_events":[4491.10000038147,6395.300000190735,8539.10000038147,11339.400000572205,13227.10000038147,16371.5,19164.900000572205,19899,22106.900000572205,23483.20000076294,25355.400000572205,28419.10000038147,30947],"key_events":[],"mouse_events":[4019.2000007629395,4491.10000038147,6395.300000190735,8539.10000038147,11339.400000572205,13227.10000038147,16371.5,17427.400000572205,19164.900000572205,19899,22106.900000572205,23483.20000076294,25355.400000572205,28419.10000038147,30947,31435.400000572205],"straightlining":0.6153846153846154,"zigzagging":0.5,"honeypot":0,"survey":"bisbas","trial_type":"survey-template","trial_index":3,"time_elapsed":170308,"internal_node_id":"0.0-3.0","task_version":"prescreen-v0.3","browser_interactions":0,"infrequency":0},{"responses":{"Q01":"4","Q02":"3","Q03":"4"},"rt":13884.39999961853,"radio_events":[5788.099999427795,9099.599999427795,13403.599999427795],"key_events":[],"mouse_events":[5788.099999427795,9099.599999427795,13403.599999427795,13883.89999961853],"survey":"map","page":1,"trial_type":"survey-map","trial_index":4,"time_elapsed":184195,"internal_node_id":"0.0-4.0","task_version":"prescreen-v0.3","browser_interactions":0},{"responses":{"Q04":"1","Q05":"2","Q06":"3"},"rt":12565.699999809265,"radio_events":[5421.299999237061,8837.199999809265,11829.5],"key_events":[],"mouse_events":[493.29999923706055,3885.5999994277954,5013.199999809265,5421.299999237061,8837.199999809265,11301.599999427795,11829.5,12565.199999809265],"survey":"map","page":2,"trial_type":"survey-map","trial_index":5,"time_elapsed":196763,"internal_node_id":"0.0-5.0","task_version":"prescreen-v0.3","browser_interactions":0},{"responses":{"Q07":"3","Q08":"4","Q09":"3"},"rt":13142.300000190735,"radio_events":[4949.5,8501.800000190735,12197.800000190735],"key_events":[],"mouse_events":[4581.700000762939,4949.5,8501.800000190735,10573.900000572205,11229.800000190735,11878,12197.800000190735,13141.70000076294],"survey":"map","page":3,"trial_type":"survey-map","trial_index":6,"time_elapsed":209907,"internal_node_id":"0.0-6.0","task_version":"prescreen-v0.3","browser_interactions":0},{"responses":{"Q10":"3","Q11":"3","Q12":"3","Q13":"3","Q16":"0","Q14":"3","Q15":"2"},"rt":75862,"radio_events":[50317.10000038147,54988.800000190735,60717.300000190735,65237.199999809265,68708.80000019073,71284.69999980927,74812.9000005722],"key_events":[],"mouse_events":[50317.10000038147,52909.10000038147,53429,53948.699999809265,54988.800000190735,60316.900000572205,60717.300000190735,65237.199999809265,68708.80000019073,71284.69999980927,74812.9000005722,75861],"survey":"map","page":4,"trial_type":"survey-map","trial_index":7,"time_elapsed":285773,"internal_node_id":"0.0-7.0","task_version":"prescreen-v0.3","browser_interactions":2,"infrequency":0},{"view_history":[{"page_index":0,"viewing_time":1491.3000001907349},{"page_index":1,"viewing_time":2392.699999809265}],"rt":3884.3999996185303,"trial_type":"instructions","trial_index":8,"time_elapsed":289659,"internal_node_id":"0.0-8.0","task_version":"prescreen-v0.3"},{"responses":{"01":"No","02":"No","03":"No","04":"No","05":"No","06":"No"},"rt":24532,"item_order":[0,1,2,3,4,5],"radio_events":[12089.699999809265,15081.800000190735,17610.39999961853,18769.699999809265,19865.60000038147,22961.5],"checkbox_events":[],"key_events":[],"mouse_events":[0.19999980926513672,11601.699999809265,12089.699999809265,15081.800000190735,16834,17610.39999961853,18769.699999809265,19865.60000038147,22961.5,24530.199999809265],"honeypot":0,"survey":"mace","page":1,"trial_type":"survey-mace","trial_index":9,"time_elapsed":314198,"internal_node_id":"0.0-9.0","task_version":"prescreen-v0.3","browser_interactions":0},{"responses":{"01":"No","02":"No","03":"Yes","03_ages_1":"1","03_ages_2":"2","03_ages_3":"3","03_ages_4":"4","03_ages_5":"5","03_ages_6":"6","03_ages_7":"7","03_ages_8":"8","03_ages_9":"9","03_ages_10":"10","03_ages_11":"11","03_ages_12":"12","04":"Yes","04_ages_1":"1","04_ages_2":"2","04_ages_3":"3","04_ages_4":"4","04_ages_5":"5","04_ages_6":"6","04_ages_7":"7","04_ages_8":"8","04_ages_9":"9","04_ages_10":"10","05":"Yes","05_ages_1":"1","05_ages_2":"2","05_ages_3":"3","05_ages_4":"4","05_ages_5":"5","05_ages_6":"6","05_ages_7":"7","05_ages_8":"8","05_ages_9":"9","05_ages_10":"10","05_ages_11":"11","05_ages_12":"12","06":"No","07":"No","08":"No"},"rt":68236.60000038147,"item_order":[0,1,2,3,4,5,6,7],"radio_events":[2474.4000005722046,4818.200000762939,7210,20666.5,36018.400000572205,59362.20000076294,61770.20000076294,64442.20000076294],"checkbox_events":[9306.400000572205,9698.400000572205,11602.20000076294,12482.400000572205,13562.70000076294,14314.20000076294,14994.20000076294,16122.10000038147,16818.20000076294,17354.60000038147,18114.300000190735,19242.60000038147,22434.10000038147,22874.800000190735,23538.60000038147,23938.5,24794.900000572205,25266.300000190735,26210.300000190735,27210.300000190735,27930.300000190735,29170.300000190735,29794.5,31418.400000572205,32762.400000572205,33714.5,37275,37682.20000076294,38138.20000076294,39114.400000572205,40746.20000076294,41618,42642.10000038147,43658.5,44210.5,44746.300000190735,45354.10000038147,47194.400000572205,50930.20000076294,56626.20000076294],"key_events":[],"mouse_events":[2474.4000005722046,4138.10000038147,4818.200000762939,7210,9306.400000572205,9698.400000572205,10106.5,10538.400000572205,11202.10000038147,11602.20000076294,12138.20000076294,12482.400000572205,13562.70000076294,13946.20000076294,14314.20000076294,14994.20000076294,15474.900000572205,15794.10000038147,16122.10000038147,16818.20000076294,17354.60000038147,18114.300000190735,19242.60000038147,20666.5,22434.10000038147,22874.800000190735,23538.60000038147,23938.5,24474.60000038147,24794.900000572205,25266.300000190735,26210.300000190735,27210.300000190735,27930.300000190735,28394.10000038147,29170.300000190735,29794.5,31418.400000572205,32762.400000572205,33714.5,36018.400000572205,37275,37682.20000076294,38138.20000076294,39114.400000572205,40418.10000038147,40746.20000076294,41618,42298.20000076294,42642.10000038147,43658.5,44210.5,44746.300000190735,45354.10000038147,47194.400000572205,50930.20000076294,56626.20000076294,59362.20000076294,61770.20000076294,64442.20000076294,68234.20000076294],"honeypot":0,"survey":"mace","page":2,"trial_type":"survey-mace","trial_index":10,"time_elapsed":382439,"internal_node_id":"0.0-10.0","task_version":"prescreen-v0.3","browser_interactions":0},{"responses":{"01":"No","02":"No","03":"No","04":"No"},"rt":50964.199999809265,"item_order":[0,1,2,3],"radio_events":[45098.699999809265,46850.39999961853,47922.5,49994.39999961853],"checkbox_events":[],"key_events":[],"mouse_events":[45098.699999809265,46850.39999961853,47922.5,49994.39999961853,50962.89999961853],"honeypot":0,"survey":"mace","page":3,"trial_type":"survey-mace","trial_index":11,"time_elapsed":433406,"internal_node_id":"0.0-11.0","task_version":"prescreen-v0.3","browser_interactions":0},{"responses":{"01":"No","02":"No"},"rt":11780.89999961853,"item_order":[0,1],"radio_events":[2052.5999994277954,6684.5],"checkbox_events":[],"key_events":[],"mouse_events":[2052.5999994277954,6684.5,11780.099999427795],"honeypot":0,"survey":"mace","page":4,"trial_type":"survey-mace","trial_index":12,"time_elapsed":445190,"internal_node_id":"0.0-12.0","task_version":"prescreen-v0.3","browser_interactions":0},{"responses":{"01":"No","02":"No","03":"No","04":"No","05":"No"},"rt":24055.39999961853,"item_order":[0,1,2,3,4],"radio_events":[6396.699999809265,16788.5,19380.39999961853,22100.699999809265,22844.800000190735],"checkbox_events":[],"key_events":[],"mouse_events":[6396.699999809265,16788.5,19380.39999961853,20820.5,21332.60000038147,22100.699999809265,22844.800000190735,24052.89999961853],"honeypot":0,"survey":"mace","page":5,"trial_type":"survey-mace","trial_index":13,"time_elapsed":469249,"internal_node_id":"0.0-13.0","task_version":"prescreen-v0.3","browser_interactions":0},{"responses":{"01":"Yes","01_ages_8":"8","01_ages_9":"9","01_ages_10":"10","01_ages_11":"11","01_ages_12":"12","01_ages_13":"13","01_ages_14":"14","01_ages_15":"15","02":"Yes","02_ages_10":"10","02_ages_11":"11","02_ages_12":"12","02_ages_13":"13","02_ages_14":"14","03":"No","04":"No","05":"No"},"rt":41507.70000076294,"item_order":[0,1,2,3,4],"radio_events":[6177.60000038147,20753.70000076294,22929.5,24610.300000190735,29137.5],"checkbox_events":[8897.900000572205,9257.60000038147,9801.800000190735,11641.70000076294,12457.60000038147,13505.800000190735,13953.5,14849.70000076294,15618.10000038147,16505.800000190735,30641.70000076294,31081.800000190735,31489.70000076294,31905.60000038147,32946,38713.800000190735,39321.70000076294],"key_events":[],"mouse_events":[6177.60000038147,8897.900000572205,9257.60000038147,9801.800000190735,11177.800000190735,11641.70000076294,12457.60000038147,13505.800000190735,13953.5,14361.60000038147,14849.70000076294,15618.10000038147,16505.800000190735,20753.70000076294,22929.5,24610.300000190735,29137.5,30641.70000076294,31081.800000190735,31489.70000076294,31905.60000038147,32946,38266,38713.800000190735,39321.70000076294,41505.70000076294],"honeypot":0,"survey":"mace","page":6,"trial_type":"survey-mace","trial_index":14,"time_elapsed":510760,"internal_node_id":"0.0-14.0","task_version":"prescreen-v0.3","browser_interactions":0},{"responses":{"01":"No","02":"No","03":"No","04":"No","05":"No","06":"No","07":"No"},"rt":11901.699999809265,"item_order":[0,1,2,3,4,5,6],"radio_events":[3145.9000005722046,4562.300000190735,5921.800000190735,7257.800000190735,8665.900000572205,9985.800000190735,10698.199999809265],"checkbox_events":[],"key_events":[],"mouse_events":[2274.1000003814697,2674,3145.9000005722046,4562.300000190735,5921.800000190735,7257.800000190735,8665.900000572205,9370.10000038147,9985.800000190735,10698.199999809265,11553.800000190735,11899],"honeypot":0,"survey":"mace","page":7,"trial_type":"survey-mace","trial_index":15,"time_elapsed":522666,"internal_node_id":"0.0-15.0","task_version":"prescreen-v0.3","browser_interactions":0},{"responses":{"01":"No","02":"No","03":"No","04":"No"},"rt":15413,"item_order":[0,1,2,3],"radio_events":[7449.60000038147,9097.300000190735,12697.5,14905.20000076294],"checkbox_events":[],"key_events":[],"mouse_events":[7449.60000038147,9097.300000190735,12697.5,14905.20000076294,15410.300000190735],"honeypot":0,"survey":"mace","page":8,"trial_type":"survey-mace","trial_index":16,"time_elapsed":538082,"internal_node_id":"0.0-16.0","task_version":"prescreen-v0.3","browser_interactions":0},{"responses":{"01":"Yes","01_ages_1":"1","01_ages_2":"2","01_ages_3":"3","01_ages_4":"4","01_ages_5":"5","01_ages_6":"6","01_ages_7":"7","01_ages_8":"8","01_ages_9":"9","01_ages_10":"10","01_ages_11":"11","01_ages_12":"12","01_ages_13":"13","01_ages_14":"14","01_ages_15":"15","01_ages_16":"16","01_ages_17":"17","01_ages_18":"18","02":"Yes","02_ages_1":"1","02_ages_2":"2","02_ages_3":"3","02_ages_4":"4","02_ages_5":"5","02_ages_6":"6","02_ages_7":"7","02_ages_8":"8","02_ages_9":"9","02_ages_10":"10","02_ages_11":"11","02_ages_12":"12","02_ages_13":"13","02_ages_14":"14","02_ages_15":"15","02_ages_16":"16","02_ages_17":"17","02_ages_18":"18","03":"Yes","03_ages_1":"1","03_ages_2":"2","03_ages_3":"3","03_ages_4":"4","03_ages_5":"5","03_ages_6":"6","03_ages_7":"7","03_ages_8":"8","03_ages_9":"9","03_ages_10":"10","03_ages_11":"11","03_ages_12":"12","03_ages_13":"13","03_ages_14":"14","03_ages_15":"15","03_ages_16":"16","03_ages_17":"17","03_ages_18":"18","04":"Yes","04_ages_5":"5","04_ages_8":"8"},"rt":76794.39999961853,"item_order":[0,1,2,3],"radio_events":[3417.3999996185303,19793.10000038147,43152.89999961853,56113.10000038147],"checkbox_events":[5625.10000038147,6449.199999809265,6881.10000038147,8881.10000038147,9561.10000038147,9945.199999809265,10345.199999809265,11289.10000038147,11945.39999961853,12497.10000038147,12904.89999961853,13425.300000190735,14313,15145.699999809265,15737.60000038147,16577,16993.39999961853,17393.199999809265,23216.89999961853,24105.199999809265,24521.699999809265,25193.199999809265,27033.300000190735,27625.10000038147,28737.199999809265,29281.300000190735,30721.10000038147,31521.10000038147,32104.89999961853,32985.5,33505.10000038147,34473.10000038147,35233.199999809265,36081.60000038147,36729.199999809265,44689.10000038147,47432.800000190735,48433,49457.199999809265,61513,62241,62697.199999809265,63865,64362,64961.800000190735,65401.300000190735,65809.10000038147,66545.10000038147,66937.30000019073,67625.30000019073,68617,69441.19999980927,70257.19999980927,70769.10000038147,71385.19999980927,73016.89999961853,73497.39999961853,75225],"key_events":[],"mouse_events":[3417.3999996185303,5224.89999961853,5625.10000038147,6088.800000190735,6449.199999809265,6881.10000038147,7329.10000038147,8881.10000038147,9561.10000038147,9945.199999809265,10345.199999809265,11289.10000038147,11945.39999961853,12497.10000038147,12904.89999961853,13425.300000190735,14313,15145.699999809265,15737.60000038147,16577,16993.39999961853,17393.199999809265,19793.10000038147,21136.89999961853,22041.199999809265,22688.800000190735,23216.89999961853,24105.199999809265,24521.699999809265,25193.199999809265,25864.89999961853,26585,27033.300000190735,27625.10000038147,28457.39999961853,28737.199999809265,29281.300000190735,29721,30721.10000038147,31521.10000038147,32104.89999961853,32985.5,33505.10000038147,34473.10000038147,35233.199999809265,36081.60000038147,36729.199999809265,43152.89999961853,44689.10000038147,45193.10000038147,47432.800000190735,48433,49457.199999809265,56113.10000038147,58609,59081,61513,62241,62697.199999809265,63329,63865,64362,64961.800000190735,65401.300000190735,65809.10000038147,66273.30000019073,66545.10000038147,66937.30000019073,67625.30000019073,68297,68617,69048.89999961853,69441.19999980927,69889.30000019073,70257.19999980927,70769.10000038147,71385.19999980927,71824.89999961853,72344.80000019073,73016.89999961853,73497.39999961853,75225,76793.10000038147],"honeypot":0,"survey":"mace","page":9,"trial_type":"survey-mace","trial_index":17,"time_elapsed":614880,"internal_node_id":"0.0-17.0","task_version":"prescreen-v0.3","browser_interactions":0},{"responses":{"01":"No","02":"No","03":"No","04":"No","05":"No","06":"Yes","06_ages_17":"17","07":"Yes","07_ages_1":"1","07_ages_2":"2","07_ages_3":"3","07_ages_4":"4","07_ages_5":"5","07_ages_6":"6","07_ages_7":"7","07_ages_8":"8","07_ages_9":"9","07_ages_10":"10","07_ages_11":"11","07_ages_12":"12","07_ages_13":"13","07_ages_14":"14","07_ages_15":"15","07_ages_16":"16","07_ages_17":"17","07_ages_18":"18","08":"Yes","08_ages_1":"1","08_ages_2":"2","08_ages_3":"3","08_ages_4":"4","08_ages_5":"5","08_ages_6":"6","08_ages_7":"7","08_ages_8":"8","08_ages_9":"9","08_ages_10":"10","08_ages_11":"11","08_ages_12":"12","08_ages_13":"13","08_ages_14":"14","08_ages_15":"15","08_ages_16":"16","08_ages_17":"17","08_ages_18":"18"},"rt":53270.699999809265,"item_order":[0,1,2,3,4,5,6,7],"radio_events":[2875.5999994277954,4387.800000190735,5451.199999809265,6771.39999961853,7907.800000190735,11195.39999961853,16859.199999809265,32675.39999961853],"checkbox_events":[13483.199999809265,19859.599999427795,22051.5,22467.099999427795,23451.199999809265,24275.89999961853,24843.5,25243.300000190735,25899.199999809265,26307.300000190735,26779.39999961853,27091.39999961853,27995.89999961853,28427.39999961853,29235.699999809265,29707.39999961853,30907,31619.599999427795,36227.300000190735,36891.39999961853,37810.89999961853,38611.699999809265,39051.39999961853,39739.199999809265,40171.099999427795,40579.699999809265,41283.099999427795,41723.39999961853,42531.300000190735,43075.099999427795,43931.300000190735,44467.5,44963.300000190735,45451.199999809265,45867.39999961853,46443.300000190735,48843.5,49435.199999809265,50155.39999961853],"key_events":[],"mouse_events":[2875.5999994277954,4387.800000190735,5451.199999809265,6771.39999961853,7907.800000190735,11195.39999961853,13483.199999809265,16859.199999809265,19859.599999427795,20563.699999809265,21155.5,21651.800000190735,22051.5,22467.099999427795,23451.199999809265,24275.89999961853,24843.5,25243.300000190735,25899.199999809265,26307.300000190735,26779.39999961853,27091.39999961853,27587.199999809265,27995.89999961853,28427.39999961853,29235.699999809265,29707.39999961853,30188.099999427795,30483.5,30907,31619.599999427795,32675.39999961853,36227.300000190735,36891.39999961853,37499.199999809265,37810.89999961853,38267.5,38611.699999809265,39051.39999961853,39739.199999809265,40171.099999427795,40579.699999809265,41283.099999427795,41723.39999961853,42531.300000190735,43075.099999427795,43931.300000190735,44467.5,44963.300000190735,45451.199999809265,45867.39999961853,46443.300000190735,48843.5,49435.199999809265,50155.39999961853,53267.5],"honeypot":0,"survey":"mace","page":10,"trial_type":"survey-mace","trial_index":18,"time_elapsed":668156,"internal_node_id":"0.0-18.0","task_version":"prescreen-v0.3","browser_interactions":0,"instructed":0},{"rt":7417.39999961853,"trial_type":"mental-health-alert","trial_index":19,"time_elapsed":675575,"internal_node_id":"0.0-19.0","task_version":"prescreen-v0.3","interactions":"[{\"event\":\"blur\",\"trial\":2,\"time\":37649},{\"event\":\"focus\",\"trial\":2,\"time\":39587},{\"event\":\"blur\",\"trial\":7,\"time\":213410},{\"event\":\"focus\",\"trial\":7,\"time\":260142}]"}]