[{"view_history":[{"page_index":0,"viewing_time":2610},{"page_index":1,"viewing_time":3823},{"page_index":2,"viewing_time":5361},{"page_index":3,"viewing_time":1016}],"rt":12810,"trial_type":"instructions","trial_index":0,"time_elapsed":12814,"internal_node_id":"0.0-0.0","task_version":"prescreen-v0.3"},{"rt":10789,"responses":{"age":"42","gender-categorical":"Male","gender-free-response":"","ethnicity":"Not Hispanic or Latino","race":["White"],"education":"Associate degree","siblings":"1"},"trial_type":"survey-demo","trial_index":1,"time_elapsed":23609,"internal_node_id":"0.0-1.0","task_version":"prescreen-v0.3"},{"responses":{"Q13":"1","Q16":"0","Q04":"2","Q02":"1","Q09":"2","Q11":"2","Q15":"2","Q17":"1","Q07":"2","Q01":"1","Q08":"2","Q19":"1","Q14":"1","Q18":"1","Q20":"1","Q21":"3","Q10":"1","Q03":"1","Q05":"1","Q06":"1","Q12":"1"},"rt":72675,"item_order":[12,15,3,1,8,10,14,16,6,0,7,18,13,17,19,20,9,2,4,5,11],"radio_events":[3314,6776,11545,13761,17016,18529,24321,25345,29577,30506,31441,34266,36169,38344,41929,45497,47537,50801,51769,55481,56105,63177,67673,71762],"key_events":[],"mouse_events":[3314,4321,6776,11545,13761,17016,18529,20105,23305,24321,25009,25345,29577,30506,31441,34266,36169,38344,38977,41929,44080,45497,47537,50081,50801,51769,54121,55481,56105,56873,63177,67673,70945,71762,72675],"straightlining":0.6190476190476191,"zigzagging":0.4,"honeypot":0,"survey":"sns","trial_type":"survey-template","trial_index":2,"time_elapsed":96289,"internal_node_id":"0.0-2.0","task_version":"prescreen-v0.3","browser_interactions":0,"infrequency":0},{"responses":{"Q04":"2","Q01":"1","Q11":"2","Q09":"2","Q02":"1","Q06":"3","Q13":"0","Q10":"2","Q08":"2","Q07":"2","Q12":"2","Q05":"2","Q03":"2"},"rt":51164,"item_order":[3,0,10,8,1,5,12,9,7,6,11,4,2],"radio_events":[3218,4778,6875,8739,32419,34004,35483,38123,41707,42331,44996,45356,46156,47026],"key_events":[],"mouse_events":[3218,4778,6875,7555,8739,32419,34004,35483,38123,41707,42331,43123,43883,44996,45356,46156,47026,51164],"straightlining":0.6923076923076923,"zigzagging":0.3333333333333333,"honeypot":0,"survey":"bisbas","trial_type":"survey-template","trial_index":3,"time_elapsed":147456,"internal_node_id":"0.0-3.0","task_version":"prescreen-v0.3","browser_interactions":0,"infrequency":0},{"responses":{"Q01":"3","Q02":"2","Q03":"2"},"rt":10588,"radio_events":[4636,6731,7571,9931],"key_events":[],"mouse_events":[4636,6731,7571,9931,10588],"survey":"map","page":1,"trial_type":"survey-map","trial_index":4,"time_elapsed":158047,"internal_node_id":"0.0-4.0","task_version":"prescreen-v0.3","browser_interactions":0},{"responses":{"Q04":"2","Q05":"2","Q06":"2"},"rt":10846,"radio_events":[4821,7045,9605],"key_events":[],"mouse_events":[4821,7045,8493,9326,9605,10846],"survey":"map","page":2,"trial_type":"survey-map","trial_index":5,"time_elapsed":168895,"internal_node_id":"0.0-5.0","task_version":"prescreen-v0.3","browser_interactions":0},{"responses":{"Q07":"3","Q08":"4","Q09":"1"},"rt":13750,"radio_events":[6132,8932,9908,12796],"key_events":[],"mouse_events":[6132,8932,9908,12012,12796,13750],"survey":"map","page":3,"trial_type":"survey-map","trial_index":6,"time_elapsed":182647,"internal_node_id":"0.0-6.0","task_version":"prescreen-v0.3","browser_interactions":0},{"responses":{"Q10":"1","Q11":"1","Q12":"3","Q13":"4","Q16":"0","Q14":"2","Q15":"2"},"rt":28428,"radio_events":[4787,6666,11371,15683,18730,25763,26563],"key_events":[],"mouse_events":[4787,5867,6666,11371,15683,18730,25763,26563,28428],"survey":"map","page":4,"trial_type":"survey-map","trial_index":7,"time_elapsed":211079,"internal_node_id":"0.0-7.0","task_version":"prescreen-v0.3","browser_interactions":0,"infrequency":0},{"view_history":[{"page_index":0,"viewing_time":2860},{"page_index":1,"viewing_time":74080}],"rt":76940,"trial_type":"instructions","trial_index":8,"time_elapsed":288022,"internal_node_id":"0.0-8.0","task_version":"prescreen-v0.3"},{"responses":{"01":"No","02":"No","03":"No","04":"No","05":"No","06":"No"},"rt":19845,"item_order":[0,1,2,3,4,5],"radio_events":[7315,9786,12378,13570,14243,19011],"checkbox_events":[],"key_events":[],"mouse_events":[0,7315,9003,9786,12378,13570,14243,15546,17162,19011,19845],"honeypot":0,"survey":"mace","page":1,"trial_type":"survey-mace","trial_index":9,"time_elapsed":307873,"internal_node_id":"0.0-9.0","task_version":"prescreen-v0.3","browser_interactions":0},{"responses":{"01":"No","02":"No","03":"Yes","03_ages_5":"5","03_ages_6":"6","03_ages_7":"7","04":"No","05":"No","06":"No","07":"No","08":"No"},"rt":25964,"item_order":[0,1,2,3,4,5,6,7],"radio_events":[2009,2562,4521,15338,19442,21537,22170,23265],"checkbox_events":[8217,8890,11690],"key_events":[],"mouse_events":[2009,2562,4521,8217,8890,11690,15338,19442,19929,20681,21537,22170,23265,25964],"honeypot":0,"survey":"mace","page":2,"trial_type":"survey-mace","trial_index":10,"time_elapsed":333842,"internal_node_id":"0.0-10.0","task_version":"prescreen-v0.3","browser_interactions":0},{"responses":{"01":"No","02":"No","03":"No","04":"No"},"rt":10210,"item_order":[0,1,2,3],"radio_events":[7297,7920,8769,9345],"checkbox_events":[],"key_events":[],"mouse_events":[7297,7920,8769,9345,10210],"honeypot":0,"survey":"mace","page":3,"trial_type":"survey-mace","trial_index":11,"time_elapsed":344056,"internal_node_id":"0.0-11.0","task_version":"prescreen-v0.3","browser_interactions":0},{"responses":{"01":"No","02":"No"},"rt":7029,"item_order":[0,1],"radio_events":[1980,3028],"checkbox_events":[],"key_events":[],"mouse_events":[1980,3028,7029],"honeypot":0,"survey":"mace","page":4,"trial_type":"survey-mace","trial_index":12,"time_elapsed":351087,"internal_node_id":"0.0-12.0","task_version":"prescreen-v0.3","browser_interactions":0},{"responses":{"01":"No","02":"No","03":"No","04":"No","05":"No"},"rt":20844,"item_order":[0,1,2,3,4],"radio_events":[8659,11811,15188,16291,18515],"checkbox_events":[],"key_events":[],"mouse_events":[8659,11811,15188,16291,17371,18515,20844],"honeypot":0,"survey":"mace","page":5,"trial_type":"survey-mace","trial_index":13,"time_elapsed":371935,"internal_node_id":"0.0-13.0","task_version":"prescreen-v0.3","browser_interactions":0},{"responses":{"01":"No","02":"No","03":"No","04":"No","05":"No"},"rt":14455,"item_order":[0,1,2,3,4],"radio_events":[6157,7301,8989,10773,11812],"checkbox_events":[],"key_events":[],"mouse_events":[6157,7301,8989,10773,11812,14455],"honeypot":0,"survey":"mace","page":6,"trial_type":"survey-mace","trial_index":14,"time_elapsed":386392,"internal_node_id":"0.0-14.0","task_version":"prescreen-v0.3","browser_interactions":0},{"responses":{"01":"No","02":"No","03":"No","04":"No","05":"No","06":"No","07":"No"},"rt":14243,"item_order":[0,1,2,3,4,5,6],"radio_events":[3552,4168,8296,9384,11104,12536,13256],"checkbox_events":[],"key_events":[],"mouse_events":[2256,3552,4168,8296,9384,11104,12536,13256,14242],"honeypot":0,"survey":"mace","page":7,"trial_type":"survey-mace","trial_index":15,"time_elapsed":400641,"internal_node_id":"0.0-15.0","task_version":"prescreen-v0.3","browser_interactions":0},{"responses":{"01":"No","02":"No","03":"No","04":"No"},"rt":16962,"item_order":[0,1,2,3],"radio_events":[6368,8576,11128,13560],"checkbox_events":[],"key_events":[],"mouse_events":[6368,8576,11128,13560,16962],"honeypot":0,"survey":"mace","page":8,"trial_type":"survey-mace","trial_index":16,"time_elapsed":417607,"internal_node_id":"0.0-16.0","task_version":"prescreen-v0.3","browser_interactions":0},{"responses":{"01":"Yes","01_ages_1":"1","01_ages_2":"2","01_ages_3":"3","01_ages_4":"4","01_ages_5":"5","01_ages_6":"6","01_ages_7":"7","01_ages_8":"8","01_ages_9":"9","01_ages_10":"10","01_ages_11":"11","01_ages_12":"12","01_ages_13":"13","01_ages_14":"14","01_ages_15":"15","01_ages_16":"16","01_ages_17":"17","01_ages_18":"18","02":"Yes","02_ages_1":"1","02_ages_2":"2","02_ages_3":"3","02_ages_4":"4","02_ages_5":"5","02_ages_6":"6","02_ages_7":"7","02_ages_8":"8","02_ages_9":"9","02_ages_10":"10","02_ages_11":"11","02_ages_12":"12","02_ages_13":"13","02_ages_14":"14","02_ages_15":"15","02_ages_16":"16","02_ages_17":"17","02_ages_18":"18","03":"Yes","03_ages_1":"1","03_ages_2":"2","03_ages_3":"3","03_ages_4":"4","03_ages_5":"5","03_ages_6":"6","03_ages_7":"7","03_ages_8":"8","03_ages_9":"9","03_ages_10":"10","03_ages_11":"11","03_ages_12":"12","03_ages_13":"13","03_ages_14":"14","03_ages_15":"15","03_ages_16":"16","03_ages_17":"17","03_ages_18":"18","04":"Yes","04_ages_1":"1","04_ages_2":"2","04_ages_3":"3","04_ages_4":"4","04_ages_5":"5","04_ages_6":"6","04_ages_7":"7","04_ages_8":"8","04_ages_9":"9","04_ages_10":"10","04_ages_11":"11","04_ages_12":"12","04_ages_13":"13","04_ages_14":"14","04_ages_15":"15","04_ages_16":"16","04_ages_17":"17","04_ages_18":"18"},"rt":61597,"item_order":[0,1,2,3],"radio_events":[4891,19283,20387,25643],"checkbox_events":[7996,8764,9427,9716,10364,10843,11355,11844,12195,12531,12891,13436,13779,14251,14579,15011,15468,15907,26524,28892,30245,30532,30835,31292,31820,32331,32772,33244,33539,33836,34156,34475,34803,35148,35459,35763,36315,36635,37580,37996,38372,38708,39003,39340,39972,40339,40723,41083,41715,42067,42411,42708,43099,43492,46187,46875,47187,47708,48052,49028,49380,49803,50276,50651,51140,51547,52060,52396,52907,53604,54084,54443],"key_events":[],"mouse_events":[3899,4891,7996,8347,8764,9427,9716,10364,10843,11355,11844,12195,12531,12891,13436,13779,14251,14579,15011,15468,15907,19283,20387,25643,26524,28892,30245,30532,30835,31292,31820,32331,32772,33244,33539,33836,34156,34475,34803,35148,35459,35763,36315,36635,36955,37580,37996,38372,38708,39003,39340,39628,39972,40339,40723,41083,41715,42067,42411,42708,43099,43492,46187,46875,47187,47708,48052,48403,49028,49380,49803,50276,50651,51140,51547,52060,52396,52907,53244,53604,54084,54443,61597],"honeypot":0,"survey":"mace","page":9,"trial_type":"survey-mace","trial_index":17,"time_elapsed":479210,"internal_node_id":"0.0-17.0","task_version":"prescreen-v0.3","browser_interactions":0},{"responses":{"01":"No","02":"No","03":"No","04":"No","05":"No","06":"Yes","06_ages_17":"17","07":"Yes","07_ages_1":"1","07_ages_2":"2","07_ages_3":"3","07_ages_4":"4","07_ages_5":"5","07_ages_6":"6","07_ages_7":"7","07_ages_8":"8","07_ages_9":"9","07_ages_10":"10","07_ages_11":"11","07_ages_12":"12","07_ages_13":"13","07_ages_14":"14","07_ages_15":"15","07_ages_16":"16","07_ages_17":"17","07_ages_18":"18","08":"Yes","08_ages_1":"1","08_ages_2":"2","08_ages_3":"3","08_ages_4":"4","08_ages_5":"5","08_ages_6":"6","08_ages_7":"7","08_ages_8":"8","08_ages_9":"9","08_ages_10":"10","08_ages_11":"11","08_ages_12":"12","08_ages_13":"13","08_ages_14":"14","08_ages_15":"15","08_ages_16":"16","08_ages_17":"17","08_ages_18":"18"},"rt":37036,"item_order":[0,1,2,3,4,5,6,7],"radio_events":[2438,3999,5246,7118,7903,10718,15230,16670],"checkbox_events":[12374,19591,19895,20222,20574,20902,21222,21551,21894,22831,23134,23542,23894,24823,25150,25478,25815,26255,26550,28223,28830,29255,29559,29926,30238,30550,30894,32126,32463,33087,33454,34255,34574,34903,35230,35566,35855],"key_events":[],"mouse_events":[2438,3167,3999,4639,5246,6006,7118,7903,10718,11862,12374,15230,16670,19591,19895,20222,20574,20902,21222,21551,21894,22279,22831,23134,23542,23894,24238,24823,25150,25478,25815,26255,26550,27263,28223,28830,29255,29559,29926,30238,30550,30894,31214,32126,32463,33087,33454,33791,34255,34574,34903,35230,35566,35855,37036],"honeypot":0,"survey":"mace","page":10,"trial_type":"survey-mace","trial_index":18,"time_elapsed":516255,"internal_node_id":"0.0-18.0","task_version":"prescreen-v0.3","browser_interactions":0,"instructed":0},{"rt":8422,"trial_type":"mental-health-alert","trial_index":19,"time_elapsed":524679,"internal_node_id":"0.0-19.0","task_version":"prescreen-v0.3","interactions":"[{\"event\":\"focus\",\"trial\":0,\"time\":1}]"}]