[{"view_history":[{"page_index":0,"viewing_time":8583.199999928474},{"page_index":1,"viewing_time":5275.800000071526},{"page_index":2,"viewing_time":5330.299999952316},{"page_index":3,"viewing_time":1745.6000000238419}],"rt":20936,"trial_type":"instructions","trial_index":0,"time_elapsed":21226,"internal_node_id":"0.0-0.0","task_version":"prescreen-v0.3"},{"rt":33434.699999928474,"responses":{"age":"21","gender-categorical":"Female","gender-free-response":"","ethnicity":"Not Hispanic or Latino","race":["Asian"],"education":"High school"},"trial_type":"survey-demo","trial_index":1,"time_elapsed":54669,"internal_node_id":"0.0-1.0","task_version":"prescreen-v0.3"},{"responses":{"Q15":"2","Q18":"1","Q21":"3","Q06":"0","Q07":"2","Q11":"3","Q16":"1","Q10":"2","Q19":"0","Q20":"3","Q08":"0","Q01":"1","Q03":"0","Q12":"0","Q09":"3","Q17":"1","Q04":"3","Q14":"0","Q05":"0","Q02":"0","Q13":"0"},"rt":146846.70000004768,"item_order":[14,17,20,5,6,10,15,9,18,19,7,0,2,11,8,16,3,13,4,1,12],"radio_events":[12126.5,17356.300000071526,22306.300000071526,27822.399999976158,32658.200000047684,35484.200000047684,41364.39999997616,47582.300000071526,52796.300000071526,54094.10000002384,62714.200000047684,66910.30000007153,70270.80000007153,71582.10000002384,84004.10000002384,92988,114188,117016.20000004768,120632,123860.10000002384,127160.20000004768,129810,132822.20000004768,140348,143430],"key_events":[],"mouse_events":[10688.600000023842,11570.100000023842,12126.5,17356.300000071526,22306.300000071526,27242.200000047684,27822.399999976158,32658.200000047684,35484.200000047684,40428.10000002384,41364.39999997616,47582.300000071526,52796.300000071526,54094.10000002384,62714.200000047684,66910.30000007153,70270.80000007153,71582.10000002384,81950.20000004768,82992,83209,84004.10000002384,92750.89999997616,92988,113539.89999997616,113777.89999997616,114188,117016.20000004768,119928.30000007153,120632,123860.10000002384,126858.10000002384,127160.20000004768,129810,132822.20000004768,140348,143430,146844.10000002384],"straightlining":0.42857142857142855,"zigzagging":0.5,"honeypot":0,"survey":"sns","trial_type":"survey-template","trial_index":2,"time_elapsed":201525,"internal_node_id":"0.0-2.0","task_version":"prescreen-v0.3","browser_interactions":0,"infrequency":0},{"responses":{"Q07":"3","Q01":"3","Q06":"3","Q09":"0","Q13":"0","Q05":"2","Q03":"3","Q02":"3","Q08":"2","Q10":"1","Q11":"2","Q04":"3","Q12":"1"},"rt":70706.79999995232,"item_order":[6,0,5,8,12,4,2,1,7,9,10,3,11],"radio_events":[6838.699999928474,9812.699999928474,16209,26114.799999952316,32240.899999976158,37500.59999990463,41904.89999997616,45588.699999928474,48578.59999990463,49814.5,52102.699999928474,57408.89999997616,61286.59999990463,65164.699999928474],"key_events":[],"mouse_events":[6838.699999928474,9812.699999928474,13947,15352.699999928474,16209,26114.799999952316,32240.899999976158,36852.699999928474,37500.59999990463,41904.89999997616,44808.799999952316,45588.699999928474,48578.59999990463,49570.09999990463,49814.5,52102.699999928474,56860.5,57408.89999997616,61286.59999990463,65164.699999928474,70704.79999995232],"straightlining":0.46153846153846156,"zigzagging":0.5,"honeypot":0,"survey":"bisbas","trial_type":"survey-template","trial_index":3,"time_elapsed":272236,"internal_node_id":"0.0-3.0","task_version":"prescreen-v0.3","browser_interactions":0,"infrequency":0},{"responses":{"Q01":"3","Q02":"2","Q03":"2"},"rt":42999.60000002384,"radio_events":[4666.799999952316,23678.700000047684,25216.700000047684,26414.799999952316,31442.600000023842,33658.700000047684],"key_events":[],"mouse_events":[4666.799999952316,22172.700000047684,23678.700000047684,25216.700000047684,26414.799999952316,31442.600000023842,33658.700000047684,42998.700000047684],"survey":"map","page":1,"trial_type":"survey-map","trial_index":4,"time_elapsed":315240,"internal_node_id":"0.0-4.0","task_version":"prescreen-v0.3","browser_interactions":0},{"responses":{"Q04":"1","Q05":"1","Q06":"3"},"rt":27798.600000023842,"radio_events":[4785.800000071526,8299.700000047684,9621.700000047684],"key_events":[],"mouse_events":[4181.700000047684,4785.800000071526,8299.700000047684,9621.700000047684,27797.800000071526],"survey":"map","page":2,"trial_type":"survey-map","trial_index":5,"time_elapsed":343042,"internal_node_id":"0.0-5.0","task_version":"prescreen-v0.3","browser_interactions":0},{"responses":{"Q07":"4","Q08":"0","Q09":"0"},"rt":30035.699999928474,"radio_events":[4950.199999928474,8046.5,10842.5],"key_events":[],"mouse_events":[4950.199999928474,8046.5,10842.5,30034.399999976158],"survey":"map","page":3,"trial_type":"survey-map","trial_index":6,"time_elapsed":373080,"internal_node_id":"0.0-6.0","task_version":"prescreen-v0.3","browser_interactions":0},{"responses":{"Q10":"3","Q11":"3","Q12":"2","Q13":"4","Q16":"0","Q14":"1","Q15":"1"},"rt":61032.39999997616,"radio_events":[7071,11033.299999952316,17963,18920.899999976158,28153.100000023842,33020.799999952316,41540.799999952316,45974.699999928474],"key_events":[],"mouse_events":[7071,11033.299999952316,16071.299999952316,16813,17546.799999952316,17963,18920.899999976158,27812.899999976158,28153.100000023842,33020.799999952316,41540.799999952316,45974.699999928474,61031],"survey":"map","page":4,"trial_type":"survey-map","trial_index":7,"time_elapsed":434116,"internal_node_id":"0.0-7.0","task_version":"prescreen-v0.3","browser_interactions":0,"infrequency":0},{"view_history":[{"page_index":0,"viewing_time":6399.100000023842},{"page_index":1,"viewing_time":8551.799999952316}],"rt":14952.200000047684,"trial_type":"instructions","trial_index":8,"time_elapsed":449071,"internal_node_id":"0.0-8.0","task_version":"prescreen-v0.3"},{"responses":{"01":"No","02":"Yes","02_ages_10":"10","02_ages_11":"11","02_ages_12":"12","02_ages_13":"13","02_ages_14":"14","02_ages_15":"15","02_ages_16":"16","03":"No","04":"Yes","04_ages_5":"5","04_ages_6":"6","04_ages_7":"7","04_ages_8":"8","04_ages_9":"9","04_ages_10":"10","04_ages_11":"11","04_ages_13":"13","04_ages_14":"14","04_ages_15":"15","04_ages_16":"16","04_ages_17":"17","05":"No","06":"No"},"rt":94394.5,"item_order":[0,1,2,3,4,5],"radio_events":[16278.899999976158,23924.600000023842,30088.200000047684,36808.200000047684,76022.30000007153,77001.89999997616],"checkbox_events":[40306.89999997616,41612,42352.10000002384,42910,44160.200000047684,48394,50116.300000071526,54310.10000002384,55006.10000002384,56496,57785.89999997616,59083.89999997616,59948.10000002384,62056.10000002384,62790,63238,64443.89999997616,65510,73140.5],"key_events":[],"mouse_events":[10.200000047683716,16278.899999976158,23924.600000023842,30088.200000047684,36452.10000002384,36808.200000047684,40306.89999997616,41302.700000047684,41612,42352.10000002384,42910,44160.200000047684,48394,48942,49436.200000047684,50116.300000071526,54310.10000002384,55006.10000002384,56496,57785.89999997616,59083.89999997616,59948.10000002384,62056.10000002384,62790,63238,64025.700000047684,64443.89999997616,65510,73140.5,76022.30000007153,77001.89999997616,94390.39999997616],"honeypot":0,"survey":"mace","page":1,"trial_type":"survey-mace","trial_index":9,"time_elapsed":543478,"internal_node_id":"0.0-9.0","task_version":"prescreen-v0.3","browser_interactions":0},{"responses":{"01":"No","02":"No","03":"No","04":"No","05":"No","06":"No","07":"No","08":"No"},"rt":41958,"item_order":[0,1,2,3,4,5,6,7],"radio_events":[6107.200000047684,11105.100000023842,14872.799999952316,18472.799999952316,22019,25046.799999952316,27187,29548.899999976158],"checkbox_events":[],"key_events":[],"mouse_events":[5658.700000047684,6107.200000047684,11105.100000023842,14872.799999952316,18472.799999952316,22019,25046.799999952316,27187,28847.100000023842,29548.899999976158,41953],"honeypot":0,"survey":"mace","page":2,"trial_type":"survey-mace","trial_index":10,"time_elapsed":585442,"internal_node_id":"0.0-10.0","task_version":"prescreen-v0.3","browser_interactions":0},{"responses":{"01":"No","02":"No","03":"No","04":"No"},"rt":31925,"item_order":[0,1,2,3],"radio_events":[11777.099999904633,16603,19785.199999928474,22103.399999976158],"checkbox_events":[],"key_events":[],"mouse_events":[11777.099999904633,16603,19785.199999928474,22103.399999976158,31921.299999952316],"honeypot":0,"survey":"mace","page":3,"trial_type":"survey-mace","trial_index":11,"time_elapsed":617370,"internal_node_id":"0.0-11.0","task_version":"prescreen-v0.3","browser_interactions":0},{"responses":{"01":"No","02":"No"},"rt":15146.399999976158,"item_order":[0,1],"radio_events":[8093.399999976158,12265],"checkbox_events":[],"key_events":[],"mouse_events":[8093.399999976158,12265,15144.800000071526],"honeypot":0,"survey":"mace","page":4,"trial_type":"survey-mace","trial_index":12,"time_elapsed":632520,"internal_node_id":"0.0-12.0","task_version":"prescreen-v0.3","browser_interactions":0},{"responses":{"01":"No","02":"No","03":"No","04":"No","05":"No"},"rt":49525.299999952316,"item_order":[0,1,2,3,4],"radio_events":[13100.600000023842,18506.799999952316,25666.799999952316,29512.699999928474,35329.10000002384],"checkbox_events":[],"key_events":[],"mouse_events":[12708.399999976158,13100.600000023842,18506.799999952316,24592.600000023842,25666.799999952316,29512.699999928474,35329.10000002384,46540.299999952316,49520.89999997616],"honeypot":0,"survey":"mace","page":5,"trial_type":"survey-mace","trial_index":13,"time_elapsed":682049,"internal_node_id":"0.0-13.0","task_version":"prescreen-v0.3","browser_interactions":2},{"responses":{"01":"Yes","01_ages_7":"7","01_ages_8":"8","02":"Yes","02_ages_8":"8","02_ages_9":"9","02_ages_10":"10","02_ages_11":"11","02_ages_13":"13","03":"Yes","03_ages_11":"11","04":"Yes","04_ages_4":"4","04_ages_5":"5","04_ages_6":"6","04_ages_7":"7","04_ages_8":"8","04_ages_9":"9","04_ages_10":"10","04_ages_11":"11","05":"No"},"rt":72008.19999992847,"item_order":[0,1,2,3,4],"radio_events":[9891,14833.199999928474,43489.299999952316,50105.10000002384,59794.89999997616],"checkbox_events":[16617.199999928474,22347,22986.899999976158,24609.100000023842,26014.799999952316,29915.299999952316,30377.199999928474,47387.10000002384,52073.5,52553,53332.699999928474,53770.89999997616,54280.89999997616,54769,55848.799999952316,56350.699999928474],"key_events":[],"mouse_events":[9891,14308.899999976158,14833.199999928474,16617.199999928474,21845.199999928474,22347,22986.899999976158,24609.100000023842,26014.799999952316,29915.299999952316,30377.199999928474,43489.299999952316,45603.299999952316,45975,47387.10000002384,50105.10000002384,52073.5,52553,53015.199999928474,53332.699999928474,53770.89999997616,54280.89999997616,54769,55285.299999952316,55848.799999952316,56350.699999928474,59794.89999997616,69190.69999992847,72003.60000002384],"honeypot":0,"survey":"mace","page":6,"trial_type":"survey-mace","trial_index":14,"time_elapsed":754063,"internal_node_id":"0.0-14.0","task_version":"prescreen-v0.3","browser_interactions":2},{"responses":{"01":"No","02":"No","03":"Yes","03_ages_7":"7","03_ages_8":"8","04":"No","05":"No","06":"No","07":"No"},"rt":42508.700000047684,"item_order":[0,1,2,3,4,5,6],"radio_events":[6961.399999976158,9409,12745.300000071526,22405.300000071526,29779.300000071526,33755.39999997616,35633.200000047684,39471],"checkbox_events":[24643.100000023842,26281],"key_events":[],"mouse_events":[6558.899999976158,6961.399999976158,9409,12745.300000071526,22405.300000071526,24643.100000023842,26281,29779.300000071526,33755.39999997616,35633.200000047684,39471,42505],"honeypot":0,"survey":"mace","page":7,"trial_type":"survey-mace","trial_index":15,"time_elapsed":796576,"internal_node_id":"0.0-15.0","task_version":"prescreen-v0.3","browser_interactions":0},{"responses":{"01":"No","02":"Yes","02_ages_4":"4","02_ages_5":"5","02_ages_6":"6","02_ages_7":"7","02_ages_8":"8","02_ages_9":"9","02_ages_10":"10","02_ages_11":"11","02_ages_12":"12","02_ages_13":"13","02_ages_14":"14","02_ages_15":"15","02_ages_16":"16","02_ages_17":"17","02_ages_18":"18","03":"No","04":"Yes","04_ages_4":"4","04_ages_5":"5","04_ages_6":"6","04_ages_7":"7","04_ages_8":"8","04_ages_9":"9","04_ages_10":"10","04_ages_11":"11","04_ages_12":"12","04_ages_13":"13","04_ages_14":"14","04_ages_15":"15","04_ages_16":"16","04_ages_17":"17","04_ages_18":"18"},"rt":73588.10000002384,"item_order":[0,1,2,3],"radio_events":[10772.100000023842,17204,32452.800000071526,33889.90000009537],"checkbox_events":[20532,22030.300000071526,22670,23056.100000023842,23766,24098,24869.800000071526,25789.900000095367,26361.900000095367,27233.900000095367,28075.900000095367,28507.900000095367,29047.800000071526,29572,35464.60000002384,35904,36421.90000009537,36970.10000002384,37426.10000002384,38057.90000009537,38551.90000009537,39340.40000009537,39958.300000071526,40428.40000009537,41262,41663.90000009537,42452.10000002384,43170,46619.800000071526,67708.70000004768],"key_events":[],"mouse_events":[10772.100000023842,17204,20532,21273.700000047684,22030.300000071526,22670,23056.100000023842,23465.900000095367,23766,24098,24524,24869.800000071526,25789.900000095367,26361.900000095367,26824.100000023842,27233.900000095367,27758.100000023842,28075.900000095367,28507.900000095367,29047.800000071526,29572,32452.800000071526,33889.90000009537,35247.800000071526,35464.60000002384,35904,36421.90000009537,36970.10000002384,37426.10000002384,38057.90000009537,38551.90000009537,38983.800000071526,39340.40000009537,39958.300000071526,40428.40000009537,40962,41262,41663.90000009537,42452.10000002384,43170,46619.800000071526,67708.70000004768,73584.10000002384],"honeypot":0,"survey":"mace","page":8,"trial_type":"survey-mace","trial_index":16,"time_elapsed":870168,"internal_node_id":"0.0-16.0","task_version":"prescreen-v0.3","browser_interactions":0},{"responses":{"01":"Yes","01_ages_6":"6","01_ages_7":"7","01_ages_8":"8","01_ages_9":"9","01_ages_10":"10","01_ages_11":"11","01_ages_12":"12","01_ages_13":"13","01_ages_14":"14","01_ages_15":"15","01_ages_16":"16","01_ages_17":"17","01_ages_18":"18","02":"Yes","02_ages_13":"13","02_ages_14":"14","02_ages_15":"15","02_ages_16":"16","02_ages_17":"17","02_ages_18":"18","03":"Yes","03_ages_1":"1","03_ages_2":"2","03_ages_3":"3","03_ages_4":"4","03_ages_5":"5","03_ages_6":"6","03_ages_7":"7","03_ages_8":"8","03_ages_9":"9","03_ages_10":"10","03_ages_11":"11","03_ages_12":"12","03_ages_13":"13","03_ages_14":"14","03_ages_15":"15","03_ages_16":"16","03_ages_17":"17","03_ages_18":"18","04":"Yes","04_ages_8":"8"},"rt":93383.39999997616,"item_order":[0,1,2,3],"radio_events":[6971,10005.099999904633,13919.5,34817,43991],"checkbox_events":[15548.899999976158,15942.899999976158,16451.599999904633,16814.799999952316,17185,18018.799999952316,18683.5,19778.899999976158,20929.399999976158,21685.399999976158,22057.099999904633,22434.899999976158,22904.799999952316,23158.899999976158,23530.799999952316,24526.899999976158,25253,25847,26193.099999904633,27127,45348.89999997616,66458.89999997616,66952.69999992847,68018.59999990463,68380.89999997616,69007.39999997616,69516.89999997616,74626.79999995232,75121.09999990463,75833.5,76758.79999995232,77941,78449.39999997616,83097.5,83992.59999990463,84424.89999997616,85420.69999992847,87103.69999992847,88153.69999992847,89575],"key_events":[],"mouse_events":[6499.099999904633,6971,10005.099999904633,13363,13919.5,15548.899999976158,15942.899999976158,16451.599999904633,16814.799999952316,17185,17701.599999904633,18018.799999952316,18381,18683.5,19052.699999928474,19778.899999976158,20186.699999928474,20628.799999952316,20929.399999976158,21685.399999976158,22057.099999904633,22434.899999976158,22904.799999952316,23158.899999976158,23530.799999952316,24070.899999976158,24526.899999976158,25253,25847,26193.099999904633,26694.799999952316,27127,34817,43991,45348.89999997616,66458.89999997616,66952.69999992847,67392.69999992847,68018.59999990463,68380.89999997616,69007.39999997616,69516.89999997616,74626.79999995232,75121.09999990463,75833.5,76758.79999995232,77299.09999990463,77941,78449.39999997616,82811.39999997616,83097.5,83582.59999990463,83992.59999990463,84424.89999997616,85127,85420.69999992847,85953.19999992847,86486.79999995232,87103.69999992847,87659.5,88153.69999992847,89134.79999995232,89575,93381],"honeypot":0,"survey":"mace","page":9,"trial_type":"survey-mace","trial_index":17,"time_elapsed":963557,"internal_node_id":"0.0-17.0","task_version":"prescreen-v0.3","browser_interactions":0},{"responses":{"01":"No","02":"No","03":"No","04":"Yes","04_ages_1":"1","04_ages_2":"2","04_ages_3":"3","04_ages_4":"4","04_ages_5":"5","04_ages_6":"6","04_ages_7":"7","04_ages_8":"8","04_ages_9":"9","04_ages_10":"10","04_ages_11":"11","04_ages_12":"12","04_ages_13":"13","04_ages_14":"14","04_ages_15":"15","04_ages_16":"16","04_ages_17":"17","05":"No","06":"Yes","06_ages_17":"17","07":"Yes","07_ages_1":"1","07_ages_2":"2","07_ages_3":"3","07_ages_4":"4","07_ages_5":"5","07_ages_6":"6","07_ages_7":"7","07_ages_8":"8","07_ages_9":"9","07_ages_10":"10","07_ages_11":"11","07_ages_12":"12","07_ages_13":"13","07_ages_14":"14","07_ages_15":"15","07_ages_16":"16","07_ages_17":"17","07_ages_18":"18","08":"Yes","08_ages_12":"12","08_ages_13":"13","08_ages_14":"14","08_ages_15":"15","08_ages_16":"16","08_ages_17":"17","08_ages_18":"18"},"rt":97831.19999992847,"item_order":[0,1,2,3,4,5,6,7],"radio_events":[4569.100000023842,6823.199999928474,9580.899999976158,27780.899999976158,33131.199999928474,41121,41916.799999952316,84356.79999995232],"checkbox_events":[11571,12204.799999952316,13293.699999928474,13794.699999928474,14907,15469.100000023842,16008.899999976158,16418.699999928474,16851.5,17267,17701.100000023842,18387.600000023842,18842.799999952316,19375.699999928474,20163,22795.100000023842,23397.299999952316,29324.799999952316,45004.89999997616,45474.60000002384,46030.699999928474,46532.799999952316,47042.799999952316,47798.699999928474,48192.799999952316,52846.89999997616,54723.60000002384,55356.799999952316,56483,56900.60000002384,57271.299999952316,57657.199999928474,58774.60000002384,59184.60000002384,59916.699999928474,60304.699999928474,60774.5,60961.39999997616,61322.699999928474,61771.39999997616,62828.799999952316,63684.60000002384,64696.799999952316,65575.19999992847,66848.60000002384],"key_events":[],"mouse_events":[4569.100000023842,5419,6823.199999928474,9580.899999976158,11571,12204.799999952316,12737.600000023842,13293.699999928474,13794.699999928474,14907,15469.100000023842,16008.899999976158,16418.699999928474,16851.5,17267,17701.100000023842,18079.600000023842,18387.600000023842,18842.799999952316,19375.699999928474,20163,22795.100000023842,23397.299999952316,27780.899999976158,29324.799999952316,32699.299999952316,33131.199999928474,41121,41916.799999952316,44433,45004.89999997616,45474.60000002384,46030.699999928474,46532.799999952316,47042.799999952316,47798.699999928474,48192.799999952316,52846.89999997616,53294.799999952316,53851.39999997616,54723.60000002384,55356.799999952316,55966.799999952316,56483,56900.60000002384,57271.299999952316,57657.199999928474,58227.39999997616,58774.60000002384,59184.60000002384,59641.5,59916.699999928474,60304.699999928474,60774.5,60961.39999997616,61322.699999928474,61771.39999997616,62124.5,62442.60000002384,62828.799999952316,63336.5,63684.60000002384,64432.699999928474,64696.799999952316,65290.39999997616,65575.19999992847,66848.60000002384,84356.79999995232,97827.10000002384],"honeypot":0,"survey":"mace","page":10,"trial_type":"survey-mace","trial_index":18,"time_elapsed":1061393,"internal_node_id":"0.0-18.0","task_version":"prescreen-v0.3","browser_interactions":0,"instructed":0},{"rt":24670.299999952316,"trial_type":"mental-health-alert","trial_index":19,"time_elapsed":1086065,"internal_node_id":"0.0-19.0","task_version":"prescreen-v0.3","interactions":"[{\"event\":\"blur\",\"trial\":13,\"time\":670524},{\"event\":\"focus\",\"trial\":13,\"time\":671681},{\"event\":\"blur\",\"trial\":14,\"time\":750353},{\"event\":\"focus\",\"trial\":14,\"time\":750736}]"}]