[{"view_history":[{"page_index":0,"viewing_time":5331.900000035763},{"page_index":1,"viewing_time":6185.399999976158},{"page_index":2,"viewing_time":19759.19999998808},{"page_index":3,"viewing_time":1732.6000000238419}],"rt":33009.90000003576,"trial_type":"instructions","trial_index":0,"time_elapsed":33046,"internal_node_id":"0.0-0.0","task_version":"prescreen-v0.3"},{"rt":21322.600000023842,"responses":{"age":"31","gender-categorical":"Male","gender-free-response":"","ethnicity":"Rather not say","race":["Rather not say"],"education":"Some college"},"trial_type":"survey-demo","trial_index":1,"time_elapsed":54376,"internal_node_id":"0.0-1.0","task_version":"prescreen-v0.3"},{"responses":{"Q17":"1","Q04":"0","Q08":"1","Q09":"0","Q20":"0","Q19":"0","Q02":"1","Q11":"1","Q13":"1","Q05":"0","Q18":"0","Q06":"1","Q10":"0","Q12":"0","Q03":"0","Q21":"3","Q14":"1","Q15":"2","Q16":"0","Q01":"1","Q07":"1"},"rt":151559,"item_order":[16,3,7,8,19,18,1,10,12,4,17,5,9,11,2,20,13,14,15,0,6],"radio_events":[15027.399999976158,22809.099999964237,29489.099999964237,33659.39999997616,38933,45277.09999996424,52073.09999996424,56667.09999996424,65041.5,72727.39999997616,80094.80000001192,86555.39999997616,92329.30000001192,97251,102850.59999996424,113507.30000001192,119671.30000001192,125515.09999996424,130311.30000001192,138045.39999997616,143054.59999996424,150677.19999998808],"key_events":[],"mouse_events":[15027.399999976158,22809.099999964237,29489.099999964237,33659.39999997616,38933,45277.09999996424,52073.09999996424,56667.09999996424,63001,65041.5,72727.39999997616,79602.5,80094.80000001192,86555.39999997616,92329.30000001192,97251,102850.59999996424,112141.09999996424,113507.30000001192,119671.30000001192,125515.09999996424,130311.30000001192,138045.39999997616,143054.59999996424,150677.19999998808,151553.5],"straightlining":0.47619047619047616,"zigzagging":0.5,"honeypot":0,"survey":"sns","trial_type":"survey-template","trial_index":2,"time_elapsed":205946,"internal_node_id":"0.0-2.0","task_version":"prescreen-v0.3","browser_interactions":0,"infrequency":0},{"responses":{"Q05":"3","Q07":"3","Q06":"3","Q04":"2","Q03":"1","Q08":"2","Q02":"1","Q11":"2","Q10":"2","Q01":"2","Q09":"2","Q12":"1","Q13":"0"},"rt":95475.80000001192,"item_order":[4,6,5,3,2,7,1,10,9,0,8,11,12],"radio_events":[17760.5,23142.600000023842,28462.100000023842,30892,37438.19999998808,43421.80000001192,55265.69999998808,58640.80000001192,70914.10000002384,74484.19999998808,78038.10000002384,84313.19999998808,89280.10000002384,94288.10000002384],"key_events":[],"mouse_events":[17760.5,23142.600000023842,28462.100000023842,30892,37438.19999998808,43421.80000001192,55265.69999998808,58640.80000001192,70914.10000002384,74484.19999998808,78038.10000002384,84313.19999998808,89280.10000002384,94288.10000002384,95474.39999997616],"straightlining":0.46153846153846156,"zigzagging":0.5833333333333334,"honeypot":0,"survey":"bisbas","trial_type":"survey-template","trial_index":3,"time_elapsed":301426,"internal_node_id":"0.0-3.0","task_version":"prescreen-v0.3","browser_interactions":0,"infrequency":0},{"responses":{"Q01":"3","Q02":"2","Q03":"3"},"rt":24744.900000035763,"radio_events":[9650.300000011921,15376.200000047684,23773.900000035763],"key_events":[],"mouse_events":[9650.300000011921,15376.200000047684,23773.900000035763,24744.100000023842],"survey":"map","page":1,"trial_type":"survey-map","trial_index":4,"time_elapsed":326175,"internal_node_id":"0.0-4.0","task_version":"prescreen-v0.3","browser_interactions":0},{"responses":{"Q04":"3","Q05":"2","Q06":"2"},"rt":30151,"radio_events":[7308.300000011921,10362.400000035763,17456.400000035763,28868.5],"key_events":[],"mouse_events":[7308.300000011921,10362.400000035763,17456.400000035763,28868.5,30150.5],"survey":"map","page":2,"trial_type":"survey-map","trial_index":5,"time_elapsed":356329,"internal_node_id":"0.0-5.0","task_version":"prescreen-v0.3","browser_interactions":0},{"responses":{"Q07":"3","Q08":"1","Q09":"3"},"rt":26808.899999976158,"radio_events":[12199,19933,25317.30000001192],"key_events":[],"mouse_events":[12199,19933,25317.30000001192,26808.399999976158],"survey":"map","page":3,"trial_type":"survey-map","trial_index":6,"time_elapsed":383140,"internal_node_id":"0.0-6.0","task_version":"prescreen-v0.3","browser_interactions":0},{"responses":{"Q10":"2","Q11":"2","Q12":"3","Q13":"3","Q16":"0","Q14":"3","Q15":"3"},"rt":68581.40000003576,"radio_events":[11356.100000023842,19254.200000047684,24972,39838.60000002384,46994.200000047684,52230.200000047684,67908],"key_events":[],"mouse_events":[9934.200000047684,11356.100000023842,19254.200000047684,24972,39838.60000002384,46994.200000047684,52230.200000047684,67908,68580.30000001192],"survey":"map","page":4,"trial_type":"survey-map","trial_index":7,"time_elapsed":451725,"internal_node_id":"0.0-7.0","task_version":"prescreen-v0.3","browser_interactions":0,"infrequency":0},{"view_history":[{"page_index":0,"viewing_time":3964.300000011921},{"page_index":1,"viewing_time":11779.900000035763}],"rt":15745.100000023842,"trial_type":"instructions","trial_index":8,"time_elapsed":467471,"internal_node_id":"0.0-8.0","task_version":"prescreen-v0.3"},{"responses":{"01":"No","02":"No","02_ages_11":"11","02_ages_12":"12","02_ages_13":"13","02_ages_14":"14","03":"No","04":"No","05":"No","06":"Yes","06_ages_5":"5","06_ages_6":"6","06_ages_7":"7","06_ages_8":"8","06_ages_9":"9","06_ages_10":"10"},"rt":87542.10000002384,"item_order":[0,1,2,3,4,5],"radio_events":[28078.30000001192,37846.30000001192,56341.69999998808,61016.19999998808,63540.40000003576,65913.69999998808,77657.40000003576],"checkbox_events":[47610.80000001192,49454.40000003576,49977.40000003576,50844.10000002384,83272.30000001192,84046,84631.80000001192,84992,85803.90000003576,86272],"key_events":[],"mouse_events":[26.400000035762787,28078.30000001192,37846.30000001192,47610.80000001192,49454.40000003576,49977.40000003576,50470,50844.10000002384,56341.69999998808,61016.19999998808,63540.40000003576,65913.69999998808,77657.40000003576,83272.30000001192,84046,84631.80000001192,84992,85390.5,85803.90000003576,86272,87538.69999998808],"honeypot":0,"survey":"mace","page":1,"trial_type":"survey-mace","trial_index":9,"time_elapsed":555025,"internal_node_id":"0.0-9.0","task_version":"prescreen-v0.3","browser_interactions":0},{"responses":{"01":"No","02":"No","03":"Yes","03_ages_4":"4","03_ages_5":"5","03_ages_6":"6","03_ages_7":"7","03_ages_8":"8","03_ages_9":"9","03_ages_10":"10","04":"No","05":"Yes","05_ages_4":"4","05_ages_5":"5","05_ages_6":"6","05_ages_7":"7","05_ages_8":"8","05_ages_9":"9","05_ages_10":"10","06":"No","07":"No","08":"No"},"rt":42923.09999996424,"item_order":[0,1,2,3,4,5,6,7],"radio_events":[6536.5,12607.099999964237,15584.199999988079,27215,31246.5,37549.799999952316,39496.299999952316,42237.69999998808],"checkbox_events":[19192.5,20693.19999998808,21474.299999952316,22130.5,22504.299999952316,22880.5,23412.19999998808,32566.5,32959.299999952316,33348.299999952316,33707.89999997616,34129.89999997616,34519.799999952316,35065.799999952316],"key_events":[],"mouse_events":[6536.5,12607.099999964237,15584.199999988079,19192.5,19606.399999976158,20693.19999998808,21474.299999952316,22130.5,22504.299999952316,22880.5,23412.19999998808,27215,31246.5,32566.5,32959.299999952316,33348.299999952316,33707.89999997616,34129.89999997616,34519.799999952316,35065.799999952316,37549.799999952316,39496.299999952316,42237.69999998808,42918.89999997616],"honeypot":0,"survey":"mace","page":2,"trial_type":"survey-mace","trial_index":10,"time_elapsed":597954,"internal_node_id":"0.0-10.0","task_version":"prescreen-v0.3","browser_interactions":0},{"responses":{"01":"No","02":"No","03":"No","04":"No"},"rt":15168.599999964237,"item_order":[0,1,2,3],"radio_events":[7052.199999988079,12090.399999976158,13848,14598.099999964237],"checkbox_events":[],"key_events":[],"mouse_events":[7052.199999988079,12090.399999976158,13848,14598.099999964237,15167.300000011921],"honeypot":0,"survey":"mace","page":3,"trial_type":"survey-mace","trial_index":11,"time_elapsed":613126,"internal_node_id":"0.0-11.0","task_version":"prescreen-v0.3","browser_interactions":0},{"responses":{"01":"No","02":"No"},"rt":7327.5,"item_order":[0,1],"radio_events":[3786.5,6583.199999988079],"checkbox_events":[],"key_events":[],"mouse_events":[3786.5,6583.199999988079,7326.199999988079],"honeypot":0,"survey":"mace","page":4,"trial_type":"survey-mace","trial_index":12,"time_elapsed":620455,"internal_node_id":"0.0-12.0","task_version":"prescreen-v0.3","browser_interactions":0},{"responses":{"01":"No","02":"No","03":"No","04":"No","05":"No"},"rt":57761.10000002384,"item_order":[0,1,2,3,4],"radio_events":[40903.60000002384,45796.5,48874.60000002384,53046.39999997616,57000.10000002384],"checkbox_events":[],"key_events":[],"mouse_events":[40903.60000002384,45796.5,48874.60000002384,53046.39999997616,57000.10000002384,57758.39999997616],"honeypot":0,"survey":"mace","page":5,"trial_type":"survey-mace","trial_index":13,"time_elapsed":678221,"internal_node_id":"0.0-13.0","task_version":"prescreen-v0.3","browser_interactions":2},{"responses":{"01":"Yes","01_ages_7":"7","01_ages_8":"8","01_ages_9":"9","01_ages_10":"10","01_ages_11":"11","01_ages_12":"12","01_ages_13":"13","01_ages_14":"14","02":"Yes","02_ages_7":"7","02_ages_8":"8","02_ages_9":"9","02_ages_10":"10","02_ages_11":"11","02_ages_12":"12","02_ages_13":"13","02_ages_14":"14","03":"No","04":"No","05":"No"},"rt":50741.69999998808,"item_order":[0,1,2,3,4],"radio_events":[15708.100000023842,30304.30000001192,44153.80000001192,47560.90000003576,50364.80000001192],"checkbox_events":[21138.69999998808,21936.69999998808,23146.5,23749,24084.80000001192,24490.80000001192,24936.900000035763,25458.600000023842,31310.80000001192,32076.400000035763,32435,33748.69999998808,34091,34520.80000001192,35278.69999998808,36138.5],"key_events":[],"mouse_events":[15708.100000023842,21138.69999998808,21936.69999998808,22358.19999998808,23146.5,23749,24084.80000001192,24490.80000001192,24936.900000035763,25458.600000023842,30304.30000001192,31310.80000001192,31676.80000001192,32076.400000035763,32435,32802.19999998808,33748.69999998808,34091,34520.80000001192,35278.69999998808,35684.5,36138.5,44153.80000001192,47560.90000003576,50364.80000001192,50738.90000003576],"honeypot":0,"survey":"mace","page":6,"trial_type":"survey-mace","trial_index":14,"time_elapsed":728968,"internal_node_id":"0.0-14.0","task_version":"prescreen-v0.3","browser_interactions":0},{"responses":{"01":"No","02":"No","03":"Yes","03_ages_7":"7","03_ages_8":"8","03_ages_9":"9","03_ages_10":"10","03_ages_11":"11","03_ages_12":"12","03_ages_13":"13","03_ages_14":"14","04":"No","05":"No","06":"No","07":"No"},"rt":33331.90000003576,"item_order":[0,1,2,3,4,5,6],"radio_events":[4922.100000023842,9352,12632.200000047684,25626.200000047684,28484.100000023842,30513.900000035763,32632.100000023842],"checkbox_events":[15296.300000011921,16156.200000047684,16500.100000023842,17272,18555.400000035763,19344.30000001192,20037.600000023842,20422.600000023842],"key_events":[],"mouse_events":[4922.100000023842,9352,12632.200000047684,15296.300000011921,16156.200000047684,16500.100000023842,16861.900000035763,17272,17890.400000035763,18555.400000035763,19344.30000001192,20037.600000023842,20422.600000023842,25626.200000047684,28484.100000023842,30513.900000035763,32116.700000047684,32632.100000023842,33328.30000001192],"honeypot":0,"survey":"mace","page":7,"trial_type":"survey-mace","trial_index":15,"time_elapsed":762305,"internal_node_id":"0.0-15.0","task_version":"prescreen-v0.3","browser_interactions":0},{"responses":{"01":"No","02":"No","03":"No","04":"No"},"rt":43654.10000002384,"item_order":[0,1,2,3],"radio_events":[24348.80000001192,31675.5,39269.69999998808,42995.5],"checkbox_events":[],"key_events":[],"mouse_events":[24348.80000001192,31675.5,38416.89999997616,39269.69999998808,42995.5,43651.60000002384],"honeypot":0,"survey":"mace","page":8,"trial_type":"survey-mace","trial_index":16,"time_elapsed":805963,"internal_node_id":"0.0-16.0","task_version":"prescreen-v0.3","browser_interactions":0},{"responses":{"01":"Yes","01_ages_1":"1","01_ages_2":"2","01_ages_3":"3","01_ages_4":"4","01_ages_5":"5","01_ages_6":"6","01_ages_7":"7","01_ages_8":"8","01_ages_9":"9","01_ages_10":"10","01_ages_11":"11","01_ages_12":"12","01_ages_13":"13","01_ages_14":"14","01_ages_15":"15","01_ages_16":"16","01_ages_17":"17","01_ages_18":"18","02":"Yes","02_ages_1":"1","02_ages_2":"2","02_ages_3":"3","02_ages_4":"4","02_ages_5":"5","02_ages_6":"6","02_ages_7":"7","02_ages_8":"8","02_ages_9":"9","02_ages_10":"10","02_ages_11":"11","02_ages_12":"12","02_ages_13":"13","02_ages_14":"14","02_ages_15":"15","02_ages_16":"16","02_ages_17":"17","02_ages_18":"18","03":"Yes","03_ages_1":"1","03_ages_2":"2","03_ages_3":"3","03_ages_4":"4","03_ages_5":"5","03_ages_6":"6","03_ages_7":"7","03_ages_8":"8","03_ages_9":"9","03_ages_10":"10","03_ages_11":"11","03_ages_12":"12","03_ages_13":"13","03_ages_14":"14","03_ages_15":"15","03_ages_16":"16","03_ages_17":"17","03_ages_18":"18","04":"Yes","04_ages_1":"1","04_ages_2":"2","04_ages_3":"3","04_ages_4":"4","04_ages_5":"5","04_ages_6":"6","04_ages_7":"7","04_ages_8":"8","04_ages_9":"9","04_ages_10":"10","04_ages_11":"11","04_ages_12":"12","04_ages_13":"13","04_ages_14":"14","04_ages_15":"15","04_ages_16":"16","04_ages_17":"17","04_ages_18":"18"},"rt":74273.89999997616,"item_order":[0,1,2,3],"radio_events":[9305.600000023842,27148,45326.19999998808,61146.60000002384],"checkbox_events":[12563.800000011921,13025.5,13634.199999988079,14869.5,15431.800000011921,15915.5,16259.600000023842,16689.899999976158,17079.80000001192,17641.80000001192,19002.399999976158,19571,19923.399999976158,20711.69999998808,21117.80000001192,22009.69999998808,22484.80000001192,23273.600000023842,28109.600000023842,28587,28937.600000023842,30883.69999998808,31671.80000001192,32312.80000001192,33117.5,33961.89999997616,34376.69999998808,34969.69999998808,35658.80000001192,36023.39999997616,37133.5,37523.60000002384,38023.69999998808,38641.39999997616,39133.39999997616,39523.89999997616,40485.5,40945.60000002384,46211.30000001192,46585.5,46961.80000001192,47389.60000002384,47749.60000002384,48397.60000002384,48811.39999997616,49936.80000001192,50539,51482.89999997616,52045,52444.89999997616,52897,53302.69999998808,53772.89999997616,54264.89999997616,55224.89999997616,55622.80000001192,63795.89999997616,64185.60000002384,64671.60000002384,65068.69999998808,66373.5,67139.80000001192,67639.60000002384,68263.30000001192,68991.80000001192,69749.5,70164.39999997616,70709.60000002384,71349.5,71841.80000001192,72279.60000002384,72967.30000001192,73358,73833.5],"key_events":[],"mouse_events":[9305.600000023842,12563.800000011921,13025.5,13634.199999988079,13994.5,14869.5,15431.800000011921,15915.5,16259.600000023842,16689.899999976158,17079.80000001192,17641.80000001192,19002.399999976158,19571,19923.399999976158,20399.19999998808,20711.69999998808,21117.80000001192,22009.69999998808,22484.80000001192,23273.600000023842,26727.600000023842,27148,28109.600000023842,28587,28937.600000023842,29711.69999998808,30883.69999998808,31343.899999976158,31671.80000001192,32312.80000001192,33117.5,33555.5,33961.89999997616,34376.69999998808,34969.69999998808,35658.80000001192,36023.39999997616,36773.5,37133.5,37523.60000002384,38023.69999998808,38641.39999997616,39133.39999997616,39523.89999997616,39929.5,40485.5,40945.60000002384,45326.19999998808,46211.30000001192,46585.5,46961.80000001192,47389.60000002384,47749.60000002384,48076.89999997616,48397.60000002384,48811.39999997616,49601.39999997616,49936.80000001192,50539,51482.89999997616,52045,52444.89999997616,52897,53302.69999998808,53772.89999997616,54264.89999997616,54725.19999998808,55224.89999997616,55622.80000001192,61146.60000002384,62171.5,63357.30000001192,63795.89999997616,64185.60000002384,64671.60000002384,65068.69999998808,65507.5,66373.5,67139.80000001192,67639.60000002384,68263.30000001192,68991.80000001192,69749.5,70164.39999997616,70709.60000002384,71349.5,71841.80000001192,72279.60000002384,72967.30000001192,73358,73833.5,74271.60000002384],"honeypot":0,"survey":"mace","page":9,"trial_type":"survey-mace","trial_index":17,"time_elapsed":880241,"internal_node_id":"0.0-17.0","task_version":"prescreen-v0.3","browser_interactions":0},{"responses":{"01":"No","02":"No","03":"No","04":"Yes","04_ages_9":"9","04_ages_10":"10","04_ages_11":"11","04_ages_12":"12","04_ages_13":"13","04_ages_14":"14","05":"No","06":"Yes","06_ages_17":"17","07":"Yes","07_ages_7":"7","07_ages_8":"8","07_ages_9":"9","07_ages_10":"10","07_ages_11":"11","07_ages_12":"12","07_ages_13":"13","07_ages_14":"14","07_ages_15":"15","07_ages_16":"16","07_ages_17":"17","07_ages_18":"18","08":"Yes","08_ages_7":"7","08_ages_8":"8","08_ages_9":"9","08_ages_10":"10","08_ages_11":"11","08_ages_12":"12","08_ages_13":"13","08_ages_14":"14","08_ages_15":"15","08_ages_16":"16","08_ages_17":"17","08_ages_18":"18"},"rt":75353.30000001192,"item_order":[0,1,2,3,4,5,6,7],"radio_events":[8844.899999976158,12266.399999976158,16030.800000011921,21726.899999976158,24952.899999976158,38226.59999996424,40445,45217,61675.69999998808],"checkbox_events":[28420.80000001192,29265,30170.69999998808,30539.30000001192,31296.19999998808,31687.099999964237,41897.19999998808,47748.59999996424,48864.80000001192,50404.80000001192,50975,51413.19999998808,52420.89999997616,53200.59999996424,54584.89999997616,54966.89999997616,55443,56598.69999998808,57754.80000001192,58318.80000001192,58856.89999997616,62913.39999997616,63326.59999996424,64570.09999996424,65091,66224.89999997616,66685.09999996424,67066.80000001192,67748,68419,69324.59999996424,69888.69999998808,70950.89999997616,71402.80000001192,72262.80000001192,72755.09999996424,74520.80000001192],"key_events":[],"mouse_events":[8844.899999976158,12266.399999976158,16030.800000011921,21726.899999976158,24952.899999976158,28420.80000001192,29265,29641.099999964237,30170.69999998808,30539.30000001192,31296.19999998808,31687.099999964237,38226.59999996424,40445,41897.19999998808,45217,47748.59999996424,48864.80000001192,50404.80000001192,50975,51413.19999998808,51936.80000001192,52420.89999997616,53200.59999996424,54584.89999997616,54966.89999997616,55443,55834.69999998808,56598.69999998808,57013,57754.80000001192,58318.80000001192,58856.89999997616,61675.69999998808,62913.39999997616,63326.59999996424,64570.09999996424,65091,66224.89999997616,66685.09999996424,67066.80000001192,67748,68419,69324.59999996424,69888.69999998808,70310.69999998808,70950.89999997616,71402.80000001192,71902.69999998808,72262.80000001192,72755.09999996424,73388.5,74520.80000001192,75349.09999996424],"honeypot":0,"survey":"mace","page":10,"trial_type":"survey-mace","trial_index":18,"time_elapsed":955601,"internal_node_id":"0.0-18.0","task_version":"prescreen-v0.3","browser_interactions":0,"instructed":0},{"rt":15981.399999976158,"trial_type":"mental-health-alert","trial_index":19,"time_elapsed":971584,"internal_node_id":"0.0-19.0","task_version":"prescreen-v0.3","interactions":"[{\"event\":\"blur\",\"trial\":13,\"time\":624693},{\"event\":\"focus\",\"trial\":13,\"time\":661322}]"}]