[{"view_history":[{"page_index":0,"viewing_time":18969},{"page_index":1,"viewing_time":776},{"page_index":2,"viewing_time":651},{"page_index":3,"viewing_time":1153}],"rt":21549,"trial_type":"instructions","trial_index":0,"time_elapsed":21556,"internal_node_id":"0.0-0.0","task_version":"prescreen-v0.3"},{"rt":20027,"responses":{"age":"42","gender-categorical":"Male","gender-free-response":"","ethnicity":"Not Hispanic or Latino","race":["White"],"education":"Master degree or higher"},"trial_type":"survey-demo","trial_index":1,"time_elapsed":41596,"internal_node_id":"0.0-1.0","task_version":"prescreen-v0.3"},{"responses":{"Q20":"2","Q16":"3","Q09":"2","Q02":"2","Q18":"3","Q08":"2","Q06":"3","Q19":"2","Q10":"3","Q07":"3","Q21":"2","Q04":"3","Q17":"2","Q15":"2","Q11":"3","Q01":"2","Q13":"2","Q05":"3","Q12":"2","Q03":"3","Q14":"2"},"rt":34896,"item_order":[19,15,8,1,17,7,5,18,9,6,20,3,16,14,10,0,12,4,11,2,13],"radio_events":[7775,9610,10841,11199,12135,13319,14169,16710,17879,18275,19172,21135,22128,22572,24948,25798,26164,26782,27658,29460,30152],"key_events":[],"mouse_events":[7775,9610,10340,10841,11199,12135,13319,14169,16710,17356,17879,18275,19172,21135,22128,22572,24948,25798,26164,26782,27658,29460,30152,34896],"straightlining":0.5714285714285714,"zigzagging":0.8,"honeypot":0,"survey":"sns","trial_type":"survey-template","trial_index":2,"time_elapsed":76500,"internal_node_id":"0.0-2.0","task_version":"prescreen-v0.3","browser_interactions":2,"infrequency":0.5},{"responses":{"Q10":"2","Q02":"3","Q04":"2","Q08":"2","Q01":"3","Q07":"2","Q03":"3","Q13":"2","Q09":"3","Q11":"3","Q06":"2","Q05":"2","Q12":"3"},"rt":31699,"item_order":[9,1,3,7,0,6,2,12,8,10,5,4,11],"radio_events":[7849,9215,9906,10399,11845,12544,15564,23706,27671,28124,28790,29195,29831],"key_events":[],"mouse_events":[7849,9215,9906,10399,11074,11845,12544,15564,23706,27671,28124,28790,29195,29831,31699],"straightlining":0.5384615384615384,"zigzagging":0.75,"honeypot":0,"survey":"bisbas","trial_type":"survey-template","trial_index":3,"time_elapsed":108204,"internal_node_id":"0.0-3.0","task_version":"prescreen-v0.3","browser_interactions":6,"infrequency":1},{"responses":{"Q01":"4","Q02":"3","Q03":"3"},"rt":18512,"radio_events":[13033,13928,14675],"key_events":[],"mouse_events":[11785,13033,13928,14675,18512],"survey":"map","page":1,"trial_type":"survey-map","trial_index":4,"time_elapsed":126723,"internal_node_id":"0.0-4.0","task_version":"prescreen-v0.3","browser_interactions":0},{"responses":{"Q04":"3","Q05":"4","Q06":"3"},"rt":7185,"radio_events":[1966,2664,3347],"key_events":[],"mouse_events":[1966,2664,3347,7185],"survey":"map","page":2,"trial_type":"survey-map","trial_index":5,"time_elapsed":133912,"internal_node_id":"0.0-5.0","task_version":"prescreen-v0.3","browser_interactions":0},{"responses":{"Q07":"3","Q08":"4","Q09":"3"},"rt":5939,"radio_events":[1522,2277,2976],"key_events":[],"mouse_events":[1522,2277,2976,5939],"survey":"map","page":3,"trial_type":"survey-map","trial_index":6,"time_elapsed":139854,"internal_node_id":"0.0-6.0","task_version":"prescreen-v0.3","browser_interactions":0},{"responses":{"Q10":"3","Q11":"4","Q12":"3","Q13":"4","Q16":"3","Q14":"3","Q15":"4"},"rt":16329,"radio_events":[1392,2409,3776,5746,6653,9044,9870],"key_events":[],"mouse_events":[1392,2409,3776,4689,5746,6653,9044,9870,16329],"survey":"map","page":4,"trial_type":"survey-map","trial_index":7,"time_elapsed":156188,"internal_node_id":"0.0-7.0","task_version":"prescreen-v0.3","browser_interactions":0,"infrequency":1},{"view_history":[{"page_index":0,"viewing_time":1823},{"page_index":1,"viewing_time":18319}],"rt":20142,"trial_type":"instructions","trial_index":8,"time_elapsed":176333,"internal_node_id":"0.0-8.0","task_version":"prescreen-v0.3"},{"responses":{"01":"No","02":"No","03":"No","04":"No","05":"Yes","05_ages_10":"10","06":"No"},"rt":10885,"item_order":[0,1,2,3,4,5],"radio_events":[2525,3008,4184,5161,6782,7753,8721],"checkbox_events":[9792],"key_events":[],"mouse_events":[0,2525,3008,3543,4184,5161,6782,7753,8721,9792,10885],"honeypot":0,"survey":"mace","page":1,"trial_type":"survey-mace","trial_index":9,"time_elapsed":187231,"internal_node_id":"0.0-9.0","task_version":"prescreen-v0.3","browser_interactions":0},{"responses":{"01":"Yes","01_ages_14":"14","02":"No","03":"No","04":"No","05":"Yes","05_ages_12":"12","06":"No","07":"No","08":"No"},"rt":17526,"item_order":[0,1,2,3,4,5,6,7],"radio_events":[2754,4820,5623,8577,10922,11357,11856,16259],"checkbox_events":[4105,9394],"key_events":[],"mouse_events":[2754,4105,4820,5623,7528,8577,9394,10922,11357,11856,13193,16259,17526],"honeypot":0,"survey":"mace","page":2,"trial_type":"survey-mace","trial_index":10,"time_elapsed":204767,"internal_node_id":"0.0-10.0","task_version":"prescreen-v0.3","browser_interactions":0},{"responses":{"01":"No","02":"No","03":"Yes","03_ages_13":"13","04":"No"},"rt":8294,"item_order":[0,1,2,3],"radio_events":[2328,3107,3837,7770],"checkbox_events":[5719],"key_events":[],"mouse_events":[2328,3107,3837,5719,7356,7770,8294],"honeypot":0,"survey":"mace","page":3,"trial_type":"survey-mace","trial_index":11,"time_elapsed":213071,"internal_node_id":"0.0-11.0","task_version":"prescreen-v0.3","browser_interactions":0},{"responses":{"01":"No","02":"No"},"rt":5261,"item_order":[0,1],"radio_events":[3871,4370],"checkbox_events":[],"key_events":[],"mouse_events":[3871,4370,5261],"honeypot":0,"survey":"mace","page":4,"trial_type":"survey-mace","trial_index":12,"time_elapsed":218337,"internal_node_id":"0.0-12.0","task_version":"prescreen-v0.3","browser_interactions":0},{"responses":{"01":"No","02":"No","03":"No","04":"No","05":"No"},"rt":31196,"item_order":[0,1,2,3,4],"radio_events":[8377,8933,10237,10887,11881],"checkbox_events":[],"key_events":[],"mouse_events":[8377,8933,9521,10237,10887,11881,31196],"honeypot":0,"survey":"mace","page":5,"trial_type":"survey-mace","trial_index":13,"time_elapsed":249542,"internal_node_id":"0.0-13.0","task_version":"prescreen-v0.3","browser_interactions":4},{"responses":{"01":"No","02":"No","03":"No","04":"No","05":"No"},"rt":25153,"item_order":[0,1,2,3,4],"radio_events":[2566,3329,4306,5681,6261],"checkbox_events":[],"key_events":[],"mouse_events":[2566,3329,4306,5681,6261,25152],"honeypot":0,"survey":"mace","page":6,"trial_type":"survey-mace","trial_index":14,"time_elapsed":274701,"internal_node_id":"0.0-14.0","task_version":"prescreen-v0.3","browser_interactions":0},{"responses":{"01":"No","02":"No","03":"Yes","03_ages_11":"11","04":"No","05":"No","06":"Yes","06_ages_12":"12","07":"No"},"rt":19647,"item_order":[0,1,2,3,4,5,6],"radio_events":[2486,3163,3580,5415,6593,7553,8253,11097,13956],"checkbox_events":[12344,14790,17961,18620],"key_events":[],"mouse_events":[2486,3163,3580,4011,5415,6593,7148,7553,8253,11097,12344,13956,14790,17961,18620,19647],"honeypot":0,"survey":"mace","page":7,"trial_type":"survey-mace","trial_index":15,"time_elapsed":294364,"internal_node_id":"0.0-15.0","task_version":"prescreen-v0.3","browser_interactions":0},{"responses":{"01":"No","02":"No","03":"Yes","03_ages_13":"13","04":"No"},"rt":9969,"item_order":[0,1,2,3],"radio_events":[3563,4263,6368,8816],"checkbox_events":[7529],"key_events":[],"mouse_events":[3563,4263,6368,7529,8816,9969],"honeypot":0,"survey":"mace","page":8,"trial_type":"survey-mace","trial_index":16,"time_elapsed":304340,"internal_node_id":"0.0-16.0","task_version":"prescreen-v0.3","browser_interactions":0},{"responses":{"01":"No","02":"No","03":"No","04":"No"},"rt":5315,"item_order":[0,1,2,3],"radio_events":[2232,2764,3256,3948],"checkbox_events":[],"key_events":[],"mouse_events":[2232,2764,3256,3948,5315],"honeypot":0,"survey":"mace","page":9,"trial_type":"survey-mace","trial_index":17,"time_elapsed":309662,"internal_node_id":"0.0-17.0","task_version":"prescreen-v0.3","browser_interactions":0},{"responses":{"01":"No","02":"Yes","02_ages_15":"15","03":"No","04":"No","05":"No","06":"Yes","06_ages_17":"17","07":"No","08":"No"},"rt":41211,"item_order":[0,1,2,3,4,5,6,7],"radio_events":[3183,4113,7481,8331,9593,11167,39094,39856],"checkbox_events":[5455,12542],"key_events":[],"mouse_events":[1586,3183,4113,5455,7481,8331,9593,11167,12542,39094,39856,41211],"honeypot":0,"survey":"mace","page":10,"trial_type":"survey-mace","trial_index":18,"time_elapsed":350883,"internal_node_id":"0.0-18.0","task_version":"prescreen-v0.3","browser_interactions":0,"instructed":0},{"rt":2280,"trial_type":"mental-health-alert","trial_index":19,"time_elapsed":353166,"internal_node_id":"0.0-19.0","task_version":"prescreen-v0.3","interactions":"[{\"event\":\"focus\",\"trial\":0,\"time\":17223},{\"event\":\"blur\",\"trial\":1,\"time\":25229},{\"event\":\"focus\",\"trial\":1,\"time\":34969},{\"event\":\"blur\",\"trial\":2,\"time\":43284},{\"event\":\"focus\",\"trial\":2,\"time\":47726},{\"event\":\"blur\",\"trial\":3,\"time\":77200},{\"event\":\"focus\",\"trial\":3,\"time\":83048},{\"event\":\"blur\",\"trial\":3,\"time\":89726},{\"event\":\"focus\",\"trial\":3,\"time\":90598},{\"event\":\"blur\",\"trial\":3,\"time\":93269},{\"event\":\"focus\",\"trial\":3,\"time\":95296},{\"event\":\"blur\",\"trial\":8,\"time\":159725},{\"event\":\"focus\",\"trial\":8,\"time\":175168},{\"event\":\"blur\",\"trial\":13,\"time\":232246},{\"event\":\"focus\",\"trial\":13,\"time\":239421},{\"event\":\"blur\",\"trial\":13,\"time\":239787},{\"event\":\"focus\",\"trial\":13,\"time\":242152}]"}]