[{"view_history":[{"page_index":0,"viewing_time":4127},{"page_index":1,"viewing_time":4053.9000000059605},{"page_index":2,"viewing_time":6417.9000000059605},{"page_index":3,"viewing_time":2265.9000000059605}],"rt":16865.40000000596,"trial_type":"instructions","trial_index":0,"time_elapsed":16882,"internal_node_id":"0.0-0.0","task_version":"prescreen-v0.3"},{"rt":13262.300000011921,"responses":{"age":"35","gender-categorical":"Female","gender-free-response":"","ethnicity":"Not Hispanic or Latino","race":["White"],"education":"Associate degree"},"trial_type":"survey-demo","trial_index":1,"time_elapsed":30148,"internal_node_id":"0.0-1.0","task_version":"prescreen-v0.3"},{"responses":{"Q17":"2","Q09":"2","Q19":"1","Q04":"1","Q10":"3","Q13":"2","Q01":"2","Q08":"1","Q14":"2","Q11":"1","Q07":"0","Q02":"1","Q21":"3","Q12":"1","Q15":"3","Q16":"3","Q03":"3","Q06":"1","Q18":"1","Q20":"2","Q05":"1"},"rt":567153.099999994,"item_order":[16,8,18,3,9,12,0,7,13,10,6,1,20,11,14,15,2,5,17,19,4],"radio_events":[7926.699999988079,12104.59999999404,465403.5,466801.5,474567.40000000596,477817.5,484803.59999999404,489895.5,494613.59999999404,498575.40000000596,508137.40000000596,513519.59999999404,519159.90000000596,521825.5,531371.400000006,536159.5,540551.3000000119,546753.1999999881,549385.5,555543.400000006,556831.3000000119,566237.099999994],"key_events":[],"mouse_events":[7926.699999988079,12104.59999999404,465403.5,466801.5,474567.40000000596,477817.5,484803.59999999404,489895.5,494613.59999999404,498153.6999999881,498575.40000000596,508137.40000000596,513519.59999999404,519159.90000000596,521825.5,529839.400000006,531371.400000006,536159.5,540551.3000000119,546753.1999999881,549385.5,553339.6999999881,555543.400000006,556831.3000000119,566237.099999994,567151.5],"straightlining":0.42857142857142855,"zigzagging":0.45,"honeypot":0,"survey":"sns","trial_type":"survey-template","trial_index":2,"time_elapsed":597304,"internal_node_id":"0.0-2.0","task_version":"prescreen-v0.3","browser_interactions":2,"infrequency":0},{"responses":{"Q05":"2","Q08":"1","Q12":"1","Q10":"1","Q06":"2","Q13":"0","Q11":"2","Q03":"2","Q09":"1","Q04":"3","Q02":"3","Q01":"3","Q07":"3"},"rt":115049.90000000596,"item_order":[4,7,11,9,5,12,10,2,8,3,1,0,6],"radio_events":[5581.300000011921,9441.200000017881,14557.200000017881,16643.20000001788,19331.20000001788,21831.20000001788,23712.90000000596,32589.100000023842,50909,67121.20000001788,104971,107650.80000001192,110260.90000000596,114588.80000001192],"key_events":[],"mouse_events":[5581.300000011921,9441.200000017881,14557.200000017881,16643.20000001788,19331.20000001788,21831.20000001788,23712.90000000596,32589.100000023842,50909,67121.20000001788,104971,107650.80000001192,110260.90000000596,114588.80000001192,115048.90000000596],"straightlining":0.3076923076923077,"zigzagging":0.25,"honeypot":0,"survey":"bisbas","trial_type":"survey-template","trial_index":3,"time_elapsed":712357,"internal_node_id":"0.0-3.0","task_version":"prescreen-v0.3","browser_interactions":0,"infrequency":0},{"responses":{"Q01":"2","Q02":"2","Q03":"2"},"rt":23921,"radio_events":[9128.699999988079,15838.59999999404,23286.59999999404],"key_events":[],"mouse_events":[9128.699999988079,15838.59999999404,23286.59999999404,23920.59999999404],"survey":"map","page":1,"trial_type":"survey-map","trial_index":4,"time_elapsed":736280,"internal_node_id":"0.0-4.0","task_version":"prescreen-v0.3","browser_interactions":0},{"responses":{"Q04":"1","Q05":"1","Q06":"2"},"rt":31900.19999998808,"radio_events":[15759.699999988079,25609.79999998212,31141.59999999404],"key_events":[],"mouse_events":[15759.699999988079,25609.79999998212,31141.59999999404,31899.69999998808],"survey":"map","page":2,"trial_type":"survey-map","trial_index":5,"time_elapsed":768182,"internal_node_id":"0.0-5.0","task_version":"prescreen-v0.3","browser_interactions":0},{"responses":{"Q07":"3","Q08":"2","Q09":"2"},"rt":31288.59999999404,"radio_events":[10570,27936.09999999404,30545.90000000596],"key_events":[],"mouse_events":[10570,27936.09999999404,30545.90000000596,31288.19999998808],"survey":"map","page":3,"trial_type":"survey-map","trial_index":6,"time_elapsed":799473,"internal_node_id":"0.0-6.0","task_version":"prescreen-v0.3","browser_interactions":0},{"responses":{"Q10":"1","Q11":"1","Q12":"1","Q13":"2","Q16":"0","Q14":"2","Q15":"1"},"rt":45960.5,"radio_events":[14871.800000011921,18465.80000001192,22677.80000001192,27333.80000001192,31419.80000001192,41851.70000001788,45085.70000001788],"key_events":[],"mouse_events":[14871.800000011921,18465.80000001192,22677.80000001192,27333.80000001192,31419.80000001192,41851.70000001788,45085.70000001788,45959.70000001788],"survey":"map","page":4,"trial_type":"survey-map","trial_index":7,"time_elapsed":845435,"internal_node_id":"0.0-7.0","task_version":"prescreen-v0.3","browser_interactions":0,"infrequency":0},{"view_history":[{"page_index":0,"viewing_time":3575.5},{"page_index":1,"viewing_time":4220.0999999940395}],"rt":7796.299999982119,"trial_type":"instructions","trial_index":8,"time_elapsed":853232,"internal_node_id":"0.0-8.0","task_version":"prescreen-v0.3"},{"responses":{"01":"Yes","01_ages_13":"13","01_ages_14":"14","01_ages_15":"15","01_ages_16":"16","02":"Yes","02_ages_13":"13","02_ages_14":"14","02_ages_15":"15","02_ages_16":"16","03":"No","04":"No","05":"No","06":"Yes","06_ages_16":"16"},"rt":62473.39999997616,"item_order":[0,1,2,3,4,5],"radio_events":[20525.29999998212,39057,50353.09999999404,54909.09999999404,56681.19999998808,59049.09999999404],"checkbox_events":[27643.59999999404,28643.09999999404,29807.09999999404,32253.29999998212,43017.09999999404,43517,44417,45831.09999999404,60250.79999998212],"key_events":[],"mouse_events":[0,20525.29999998212,27643.59999999404,28245.09999999404,28643.09999999404,29065,29807.09999999404,32253.29999998212,39057,43017.09999999404,43517,44417,45159.09999999404,45831.09999999404,50353.09999999404,54909.09999999404,56681.19999998808,59049.09999999404,60250.79999998212,62471.29999998212],"honeypot":0,"survey":"mace","page":1,"trial_type":"survey-mace","trial_index":9,"time_elapsed":915711,"internal_node_id":"0.0-9.0","task_version":"prescreen-v0.3","browser_interactions":0},{"responses":{"01":"No","02":"No","03":"Yes","03_ages_9":"9","03_ages_10":"10","04":"No","05":"No","06":"No","07":"No","08":"No"},"rt":31989.29999998212,"item_order":[0,1,2,3,4,5,6,7],"radio_events":[5392.5,10510.5,14650.299999982119,23970.29999998212,26836.09999999404,27720.29999998212,29797.90000000596,30970.29999998212],"checkbox_events":[18212.5,19454.19999998808],"key_events":[],"mouse_events":[5392.5,10510.5,14650.299999982119,18212.5,19454.19999998808,23970.29999998212,26836.09999999404,27720.29999998212,29797.90000000596,30970.29999998212,31986.40000000596],"honeypot":0,"survey":"mace","page":2,"trial_type":"survey-mace","trial_index":10,"time_elapsed":947703,"internal_node_id":"0.0-10.0","task_version":"prescreen-v0.3","browser_interactions":0},{"responses":{"01":"No","02":"No","03":"No","04":"No"},"rt":8136.200000017881,"item_order":[0,1,2,3],"radio_events":[4384.5,5892.600000023842,6594.600000023842,7360.300000011921],"checkbox_events":[],"key_events":[],"mouse_events":[4384.5,5892.600000023842,6594.600000023842,7360.300000011921,8134.800000011921],"honeypot":0,"survey":"mace","page":3,"trial_type":"survey-mace","trial_index":11,"time_elapsed":955841,"internal_node_id":"0.0-11.0","task_version":"prescreen-v0.3","browser_interactions":0},{"responses":{"01":"No","02":"No"},"rt":7513.299999982119,"item_order":[0,1],"radio_events":[2722.0999999940395,5378.699999988079],"checkbox_events":[],"key_events":[],"mouse_events":[2722.0999999940395,5378.699999988079,7512.399999976158],"honeypot":0,"survey":"mace","page":4,"trial_type":"survey-mace","trial_index":12,"time_elapsed":963356,"internal_node_id":"0.0-12.0","task_version":"prescreen-v0.3","browser_interactions":0},{"responses":{"01":"No","02":"No","03":"No","04":"No","05":"No"},"rt":14036.800000011921,"item_order":[0,1,2,3,4],"radio_events":[6949.199999988079,9161.09999999404,10199.199999988079,12863.09999999404,13473.300000011921],"checkbox_events":[],"key_events":[],"mouse_events":[6949.199999988079,9161.09999999404,10199.199999988079,12863.09999999404,13473.300000011921,14035.09999999404],"honeypot":0,"survey":"mace","page":5,"trial_type":"survey-mace","trial_index":13,"time_elapsed":977395,"internal_node_id":"0.0-13.0","task_version":"prescreen-v0.3","browser_interactions":0},{"responses":{"01":"Yes","01_ages_9":"9","01_ages_10":"10","01_ages_11":"11","01_ages_12":"12","01_ages_13":"13","01_ages_14":"14","01_ages_15":"15","01_ages_16":"16","01_ages_17":"17","01_ages_18":"18","02":"Yes","02_ages_9":"9","02_ages_10":"10","02_ages_11":"11","02_ages_12":"12","02_ages_13":"13","02_ages_14":"14","02_ages_15":"15","02_ages_16":"16","02_ages_17":"17","02_ages_18":"18","03":"Yes","03_ages_13":"13","03_ages_14":"14","03_ages_15":"15","03_ages_16":"16","03_ages_17":"17","03_ages_18":"18","04":"Yes","04_ages_13":"13","04_ages_14":"14","04_ages_15":"15","04_ages_16":"16","04_ages_17":"17","04_ages_18":"18","05":"Yes","05_ages_16":"16","05_ages_17":"17","05_ages_18":"18"},"rt":58253.79999998212,"item_order":[0,1,2,3,4],"radio_events":[9402.199999988079,21770.79999998212,32878.29999998212,42956.19999998808,53886.19999998808],"checkbox_events":[12214.399999976158,13730.59999999404,14090.399999976158,14628.199999988079,15082,16020.59999999404,16878.29999998212,17808.29999998212,18332,18816,23184.399999976158,23832.69999998808,24394.29999998212,26270.29999998212,26996.29999998212,28090.399999976158,28512.19999998808,29168.29999998212,31074.399999976158,31612.29999998212,37504.29999998212,37948.29999998212,38682.19999998808,39074,39706.29999998212,40308.19999998808,44840.29999998212,45340.19999998808,45832.39999997616,46362.09999999404,46878.5,47722.09999999404,55324.39999997616,56042.29999998212,56956.39999997616],"key_events":[],"mouse_events":[9402.199999988079,12214.399999976158,12988.299999982119,13730.59999999404,14090.399999976158,14628.199999988079,15082,16020.59999999404,16878.29999998212,17276.29999998212,17808.29999998212,18332,18816,21770.79999998212,23184.399999976158,23832.69999998808,24394.29999998212,26270.29999998212,26996.29999998212,28090.399999976158,28512.19999998808,29168.29999998212,29722.399999976158,30316.29999998212,31074.399999976158,31612.29999998212,32878.29999998212,36768.29999998212,37504.29999998212,37948.29999998212,38682.19999998808,39074,39706.29999998212,40308.19999998808,42956.19999998808,44840.29999998212,45340.19999998808,45832.39999997616,46362.09999999404,46878.5,47722.09999999404,53886.19999998808,55324.39999997616,56042.29999998212,56480,56956.39999997616,58252.19999998808],"honeypot":0,"survey":"mace","page":6,"trial_type":"survey-mace","trial_index":14,"time_elapsed":1035651,"internal_node_id":"0.0-14.0","task_version":"prescreen-v0.3","browser_interactions":0},{"responses":{"01":"No","02":"No","03":"Yes","03_ages_17":"17","03_ages_18":"18","04":"Yes","04_ages_17":"17","04_ages_18":"18","05":"No","06":"No","07":"No"},"rt":35216.09999999404,"item_order":[0,1,2,3,4,5,6],"radio_events":[5519.5999999940395,8637.5,21181.59999999404,25236.09999999404,31627.59999999404,32837.79999998212,33775.59999999404],"checkbox_events":[22815.59999999404,23353.79999998212,26181.69999998808,28237.59999999404],"key_events":[],"mouse_events":[5519.5999999940395,8637.5,20205.69999998808,21181.59999999404,22127.79999998212,22815.59999999404,23353.79999998212,25236.09999999404,26181.69999998808,28237.59999999404,31627.59999999404,32837.79999998212,33775.59999999404,35213.59999999404],"honeypot":0,"survey":"mace","page":7,"trial_type":"survey-mace","trial_index":15,"time_elapsed":1070870,"internal_node_id":"0.0-15.0","task_version":"prescreen-v0.3","browser_interactions":0},{"responses":{"01":"No","02":"Yes","02_ages_3":"3","02_ages_4":"4","02_ages_5":"5","02_ages_6":"6","02_ages_7":"7","02_ages_8":"8","02_ages_9":"9","02_ages_10":"10","02_ages_11":"11","02_ages_12":"12","02_ages_13":"13","02_ages_14":"14","02_ages_15":"15","02_ages_16":"16","02_ages_17":"17","02_ages_18":"18","03":"Yes","03_ages_16":"16","03_ages_17":"17","03_ages_18":"18","04":"No"},"rt":63576.40000000596,"item_order":[0,1,2,3],"radio_events":[24496.90000000596,27543,54348.90000000596,62903],"checkbox_events":[33912.90000000596,34356.90000000596,35051,35481,36443,37043,37481,39480.90000000596,40255.19999998808,40723.29999998212,41136.90000000596,41699,42091.29999998212,42435.29999998212,43035,43456.90000000596,57535,58184.90000000596,58808.90000000596],"key_events":[],"mouse_events":[24496.90000000596,27543,33912.90000000596,34356.90000000596,35051,35481,35895,36443,37043,37481,38435,39480.90000000596,39833.09999999404,40255.19999998808,40723.29999998212,41136.90000000596,41699,42091.29999998212,42435.29999998212,43035,43456.90000000596,54348.90000000596,57535,58184.90000000596,58808.90000000596,62903,63575],"honeypot":0,"survey":"mace","page":8,"trial_type":"survey-mace","trial_index":16,"time_elapsed":1134449,"internal_node_id":"0.0-16.0","task_version":"prescreen-v0.3","browser_interactions":0},{"responses":{"01":"Yes","01_ages_1":"1","01_ages_2":"2","01_ages_3":"3","01_ages_4":"4","01_ages_5":"5","01_ages_6":"6","01_ages_7":"7","01_ages_8":"8","01_ages_9":"9","01_ages_10":"10","01_ages_11":"11","01_ages_12":"12","01_ages_13":"13","01_ages_14":"14","01_ages_15":"15","01_ages_16":"16","01_ages_17":"17","01_ages_18":"18","02":"Yes","02_ages_1":"1","02_ages_2":"2","02_ages_3":"3","02_ages_4":"4","02_ages_5":"5","02_ages_6":"6","02_ages_7":"7","02_ages_8":"8","02_ages_9":"9","02_ages_10":"10","02_ages_11":"11","02_ages_12":"12","02_ages_13":"13","02_ages_14":"14","02_ages_15":"15","02_ages_16":"16","02_ages_17":"17","02_ages_18":"18","03":"Yes","03_ages_1":"1","03_ages_2":"2","03_ages_3":"3","03_ages_4":"4","03_ages_5":"5","03_ages_6":"6","03_ages_7":"7","03_ages_8":"8","03_ages_9":"9","03_ages_10":"10","03_ages_11":"11","03_ages_12":"12","03_ages_13":"13","03_ages_14":"14","03_ages_15":"15","03_ages_16":"16","03_ages_17":"17","03_ages_18":"18","04":"Yes","04_ages_1":"1","04_ages_2":"2","04_ages_3":"3","04_ages_4":"4","04_ages_5":"5","04_ages_6":"6","04_ages_7":"7","04_ages_8":"8","04_ages_9":"9","04_ages_10":"10","04_ages_11":"11","04_ages_12":"12","04_ages_13":"13","04_ages_14":"14","04_ages_15":"15","04_ages_16":"16","04_ages_17":"17","04_ages_18":"18"},"rt":345453.2000000179,"item_order":[0,1,2,3],"radio_events":[9472.200000017881,28792,45902,333005.40000000596],"checkbox_events":[14426.100000023842,15636.300000011921,16604.20000001788,17370.100000023842,17791.90000000596,18316,18845.90000000596,19972.100000023842,20410.100000023842,20878,21332.100000023842,22010.40000000596,22590.100000023842,23090.100000023842,23816,24168.100000023842,24574.100000023842,25190.100000023842,30120.100000023842,30550,30940.20000001788,32168.30000001192,32596,32996,33386.20000001788,34558.10000002384,34948.10000002384,35332,35988,36792,39284.40000000596,39870.10000002384,40518,41331.90000000596,41791.80000001192,42439.90000000596,46956.40000000596,47480.10000002384,315333.8000000119,316029.60000002384,316405.40000000596,317209.40000000596,317897.5,318569.3000000119,318959.7000000179,319685.40000000596,320083.60000002384,320491.60000002384,320857.40000000596,322005.40000000596,322701.40000000596,323513.40000000596,324131.40000000596,324849.5,333911.5,334341.3000000119,334849.5,335669.3000000119,336545.8000000119,337185.40000000596,337647.40000000596,338061.60000002384,338661.40000000596,340325.5,340897.40000000596,341389.8000000119,342161.40000000596,342779.40000000596,343357.40000000596,343833.2000000179,344521.40000000596,344959.3000000119],"key_events":[],"mouse_events":[9472.200000017881,14426.100000023842,15636.300000011921,16604.20000001788,17370.100000023842,17791.90000000596,18316,18845.90000000596,19340,19972.100000023842,20410.100000023842,20878,21332.100000023842,22010.40000000596,22590.100000023842,23090.100000023842,23480.100000023842,23816,24168.100000023842,24574.100000023842,25190.100000023842,28792,30120.100000023842,30550,30940.20000001788,31479.90000000596,32168.30000001192,32596,32996,33386.20000001788,33846,34558.10000002384,34948.10000002384,35332,35988,36792,39284.40000000596,39870.10000002384,40518,40917.90000000596,41331.90000000596,41791.80000001192,42439.90000000596,45902,46956.40000000596,47480.10000002384,315333.8000000119,315701.40000000596,316029.60000002384,316405.40000000596,316865.40000000596,317209.40000000596,317897.5,318569.3000000119,318959.7000000179,319685.40000000596,320083.60000002384,320491.60000002384,320857.40000000596,321242.10000002384,322005.40000000596,322701.40000000596,323513.40000000596,324131.40000000596,324849.5,333005.40000000596,333911.5,334341.3000000119,334849.5,335669.3000000119,336139.40000000596,336545.8000000119,337185.40000000596,337647.40000000596,338061.60000002384,338661.40000000596,339083.60000002384,340325.5,340897.40000000596,341389.8000000119,342161.40000000596,342779.40000000596,343357.40000000596,343833.2000000179,344521.40000000596,344959.3000000119,345451.7000000179],"honeypot":0,"survey":"mace","page":9,"trial_type":"survey-mace","trial_index":17,"time_elapsed":1479905,"internal_node_id":"0.0-17.0","task_version":"prescreen-v0.3","browser_interactions":16},{"responses":{"01":"No","02":"No","03":"No","04":"Yes","04_ages_7":"7","04_ages_8":"8","05":"No","06":"Yes","06_ages_17":"17","07":"Yes","07_ages_1":"1","07_ages_2":"2","07_ages_3":"3","07_ages_4":"4","07_ages_5":"5","07_ages_6":"6","07_ages_7":"7","07_ages_8":"8","07_ages_9":"9","07_ages_10":"10","07_ages_11":"11","07_ages_12":"12","07_ages_13":"13","07_ages_14":"14","07_ages_15":"15","07_ages_16":"16","07_ages_17":"17","07_ages_18":"18","08":"Yes","08_ages_1":"1","08_ages_2":"2","08_ages_3":"3","08_ages_4":"4","08_ages_5":"5","08_ages_6":"6","08_ages_7":"7","08_ages_8":"8","08_ages_9":"9","08_ages_10":"10","08_ages_11":"11","08_ages_12":"12","08_ages_13":"13","08_ages_14":"14","08_ages_15":"15","08_ages_16":"16","08_ages_17":"17","08_ages_18":"18"},"rt":63114.10000002384,"item_order":[0,1,2,3,4,5,6,7],"radio_events":[6417.4000000059605,8033.200000017881,12721.40000000596,17565.40000000596,29073.600000023842,31009.30000001192,36823.30000001192,50697.20000001788],"checkbox_events":[20229.40000000596,22237.40000000596,32487.20000001788,39385.10000002384,40237.40000000596,40665.20000001788,41041.30000001192,42119.5,42611.20000001788,42995.30000001192,43401.30000001192,43783.20000001788,44165.20000001788,45291.30000001192,45643.10000002384,46041.30000001192,46549,47057.40000000596,47807.40000000596,48189.5,48783.40000000596,52549.30000001192,52971.30000001192,53393.40000000596,54009.30000001192,54423.30000001192,55149.30000001192,55573,56087,56525.30000001192,56923.10000002384,57455,57893.20000001788,58549.10000002384,59283.30000001192,60041.30000001192,60635.20000001788,61119.40000000596,61635.30000001192],"key_events":[],"mouse_events":[6417.4000000059605,8033.200000017881,12721.40000000596,17565.40000000596,20229.40000000596,22237.40000000596,29073.600000023842,31009.30000001192,32487.20000001788,36823.30000001192,39385.10000002384,39876.90000000596,40237.40000000596,40665.20000001788,41041.30000001192,41487.70000001788,42119.5,42611.20000001788,42995.30000001192,43401.30000001192,43783.20000001788,44165.20000001788,44697.20000001788,45291.30000001192,45643.10000002384,46041.30000001192,46549,47057.40000000596,47807.40000000596,48189.5,48783.40000000596,50697.20000001788,52549.30000001192,52971.30000001192,53393.40000000596,54009.30000001192,54423.30000001192,55149.30000001192,55573,56087,56525.30000001192,56923.10000002384,57455,57893.20000001788,58549.10000002384,59283.30000001192,60041.30000001192,60635.20000001788,61119.40000000596,61635.30000001192,63111.40000000596],"honeypot":0,"survey":"mace","page":10,"trial_type":"survey-mace","trial_index":18,"time_elapsed":1543022,"internal_node_id":"0.0-18.0","task_version":"prescreen-v0.3","browser_interactions":0,"instructed":0},{"rt":5299.199999988079,"trial_type":"mental-health-alert","trial_index":19,"time_elapsed":1548322,"internal_node_id":"0.0-19.0","task_version":"prescreen-v0.3","interactions":"[{\"event\":\"blur\",\"trial\":2,\"time\":47144},{\"event\":\"focus\",\"trial\":2,\"time\":483577},{\"event\":\"blur\",\"trial\":17,\"time\":1182794},{\"event\":\"focus\",\"trial\":17,\"time\":1414202},{\"event\":\"blur\",\"trial\":17,\"time\":1414319},{\"event\":\"focus\",\"trial\":17,\"time\":1415660},{\"event\":\"blur\",\"trial\":17,\"time\":1416330},{\"event\":\"focus\",\"trial\":17,\"time\":1417522},{\"event\":\"blur\",\"trial\":17,\"time\":1417654},{\"event\":\"focus\",\"trial\":17,\"time\":1430971},{\"event\":\"blur\",\"trial\":17,\"time\":1432520},{\"event\":\"focus\",\"trial\":17,\"time\":1436693},{\"event\":\"blur\",\"trial\":17,\"time\":1436801},{\"event\":\"focus\",\"trial\":17,\"time\":1438129},{\"event\":\"blur\",\"trial\":17,\"time\":1438889},{\"event\":\"focus\",\"trial\":17,\"time\":1439774},{\"event\":\"blur\",\"trial\":17,\"time\":1439894},{\"event\":\"focus\",\"trial\":17,\"time\":1449062}]"}]