[{"view_history":[{"page_index":0,"viewing_time":2964.100000023842},{"page_index":1,"viewing_time":4766.300000011921},{"page_index":2,"viewing_time":2114.099999964237},{"page_index":3,"viewing_time":878.4000000357628}],"rt":10723.5,"trial_type":"instructions","trial_index":0,"time_elapsed":10730,"internal_node_id":"0.0-0.0","task_version":"prescreen-v0.3"},{"rt":32194.100000023842,"responses":{"age":"39","gender-categorical":"Male","gender-free-response":"","ethnicity":"Not Hispanic or Latino","race":["Asian"],"education":"Bachelor degree","siblings":"1"},"trial_type":"survey-demo","trial_index":1,"time_elapsed":42927,"internal_node_id":"0.0-1.0","task_version":"prescreen-v0.3"},{"responses":{"Q11":"0","Q21":"3","Q12":"0","Q03":"0","Q05":"0","Q04":"1","Q13":"0","Q19":"0","Q09":"0","Q02":"0","Q18":"0","Q17":"0","Q16":"0","Q01":"0","Q06":"0","Q20":"0","Q07":"0","Q10":"0","Q15":"0","Q08":"0","Q14":"0"},"rt":99951.80000001192,"item_order":[10,20,11,2,4,3,12,18,8,1,17,16,15,0,5,19,6,9,14,7,13],"radio_events":[5889.600000023842,11672.399999976158,56873.39999997616,57718.60000002384,63634.39999997616,70711.10000002384,72897.5,77921.69999998808,78586.19999998808,79237.5,83119.60000002384,84018.89999997616,84705.89999997616,86156.89999997616,88699.5,89510.10000002384,90161.60000002384,90633.69999998808,92884.19999998808,94841,95404.60000002384,96225.39999997616,98397.39999997616],"key_events":[],"mouse_events":[5889.600000023842,11672.399999976158,56873.39999997616,57718.60000002384,63051.30000001192,63634.39999997616,64219.60000002384,70711.10000002384,72897.5,76222.69999998808,76718.19999998808,77921.69999998808,78586.19999998808,79237.5,83119.60000002384,84018.89999997616,84705.89999997616,85335.39999997616,86156.89999997616,88699.5,89510.10000002384,90161.60000002384,90633.69999998808,92884.19999998808,93571.5,94841,95404.60000002384,96225.39999997616,97029.69999998808,98397.39999997616,99949.10000002384],"straightlining":0.9047619047619048,"zigzagging":0.2,"honeypot":0,"survey":"sns","trial_type":"survey-template","trial_index":2,"time_elapsed":142880,"internal_node_id":"0.0-2.0","task_version":"prescreen-v0.3","browser_interactions":2,"infrequency":0},{"responses":{"Q09":"2","Q03":"1","Q01":"2","Q06":"2","Q02":"2","Q04":"2","Q05":"2","Q13":"0","Q07":"3","Q08":"2","Q11":"2","Q10":"3","Q12":"2"},"rt":34025.799999952316,"item_order":[8,2,0,5,1,3,4,12,6,7,10,9,11],"radio_events":[6227.099999964237,8441.299999952316,9624.099999964237,10152.099999964237,12957.899999976158,13449.599999964237,16700.899999976158,18443.69999998808,22347.799999952316,26666.599999964237,27319.799999952316,29502.5,30784.19999998808,33326.89999997616],"key_events":[],"mouse_events":[6227.099999964237,7261.599999964237,8441.299999952316,9624.099999964237,10152.099999964237,12957.899999976158,13449.599999964237,16250.399999976158,16700.899999976158,18443.69999998808,22347.799999952316,23641.69999998808,24608.799999952316,25035.399999976158,25688.69999998808,26666.599999964237,27319.799999952316,29502.5,30784.19999998808,33326.89999997616,34024.5],"straightlining":0.6923076923076923,"zigzagging":0.5,"honeypot":0,"survey":"bisbas","trial_type":"survey-template","trial_index":3,"time_elapsed":176908,"internal_node_id":"0.0-3.0","task_version":"prescreen-v0.3","browser_interactions":0,"infrequency":0},{"responses":{"Q01":"2","Q02":"2","Q03":"2"},"rt":19604.400000035763,"radio_events":[13418.300000011921,16949.200000047684,18108.400000035763],"key_events":[],"mouse_events":[13418.300000011921,16289.400000035763,16949.200000047684,17579.600000023842,18108.400000035763,19603.600000023842],"survey":"map","page":1,"trial_type":"survey-map","trial_index":4,"time_elapsed":196515,"internal_node_id":"0.0-4.0","task_version":"prescreen-v0.3","browser_interactions":2},{"responses":{"Q04":"2","Q05":"2","Q06":"2"},"rt":10786.099999964237,"radio_events":[7696.899999976158,8731.599999964237,10133.699999988079],"key_events":[],"mouse_events":[7696.899999976158,8731.599999964237,9537,9842.800000011921,10133.699999988079,10785.5],"survey":"map","page":2,"trial_type":"survey-map","trial_index":5,"time_elapsed":207302,"internal_node_id":"0.0-5.0","task_version":"prescreen-v0.3","browser_interactions":2},{"responses":{"Q07":"4","Q08":"4","Q09":"3"},"rt":9405.199999988079,"radio_events":[3992.100000023842,6455.5,8795.699999988079],"key_events":[],"mouse_events":[3992.100000023842,5421.899999976158,6043,6455.5,8795.699999988079,9404.300000011921],"survey":"map","page":3,"trial_type":"survey-map","trial_index":6,"time_elapsed":216709,"internal_node_id":"0.0-6.0","task_version":"prescreen-v0.3","browser_interactions":2},{"responses":{"Q10":"3","Q11":"3","Q12":"2","Q13":"2","Q16":"3","Q14":"3","Q15":"4"},"rt":15397.699999988079,"radio_events":[7848.099999964237,8884.399999976158,9978.899999976158,10818.399999976158,12689.199999988079,13507.5,14266.199999988079],"key_events":[],"mouse_events":[7848.099999964237,8884.399999976158,9978.899999976158,10818.399999976158,12223.899999976158,12689.199999988079,13507.5,14266.199999988079,15396.299999952316],"survey":"map","page":4,"trial_type":"survey-map","trial_index":7,"time_elapsed":232109,"internal_node_id":"0.0-7.0","task_version":"prescreen-v0.3","browser_interactions":2,"infrequency":1},{"view_history":[{"page_index":0,"viewing_time":6972.5},{"page_index":1,"viewing_time":1794.5999999642372}],"rt":8767.5,"trial_type":"instructions","trial_index":8,"time_elapsed":240947,"internal_node_id":"0.0-8.0","task_version":"prescreen-v0.3"},{"responses":{"01":"Yes","01_ages_8":"8","01_ages_9":"9","01_ages_10":"10","01_ages_11":"11","01_ages_12":"12","01_ages_13":"13","01_ages_14":"14","01_ages_15":"15","01_ages_16":"16","01_ages_17":"17","01_ages_18":"18","02":"Yes","02_ages_10":"10","02_ages_11":"11","02_ages_12":"12","02_ages_13":"13","02_ages_14":"14","02_ages_15":"15","02_ages_16":"16","02_ages_17":"17","02_ages_18":"18","03":"Yes","03_ages_5":"5","03_ages_6":"6","03_ages_7":"7","03_ages_8":"8","03_ages_9":"9","03_ages_10":"10","03_ages_11":"11","03_ages_12":"12","03_ages_13":"13","03_ages_14":"14","03_ages_15":"15","03_ages_16":"16","04":"No","05":"No","06":"Yes","06_ages_5":"5","06_ages_6":"6","06_ages_7":"7","06_ages_8":"8","06_ages_9":"9","06_ages_10":"10","06_ages_11":"11","06_ages_12":"12","06_ages_13":"13","06_ages_14":"14","06_ages_15":"15","06_ages_16":"16"},"rt":50166.5,"item_order":[0,1,2,3,4,5],"radio_events":[4905.600000023842,20310.100000023842,27404.400000035763,38802.200000047684,40141.200000047684,42580.5],"checkbox_events":[8309.900000035763,9494.700000047684,11008.800000011921,11329.600000023842,12025.900000035763,12666.700000047684,13220.200000047684,13692,14444.5,14985.300000011921,15828.300000011921,16441.600000023842,17359.600000023842,21476.5,21745.600000023842,22162,22874.400000035763,23243.700000047684,23782.400000035763,24287.700000047684,24760.700000047684,25211.200000047684,29632.400000035763,30008.400000035763,30341.30000001192,30724.700000047684,31275.30000001192,31747.400000035763,32118.700000047684,32540,33817.700000047684,34223.10000002384,34615.5,35440,43930.80000001192,44242.30000001192,45145.40000003576,45494,46945.80000001192,47274.10000002384,47620.60000002384,48141.40000003576,48498.90000003576,48903.30000001192,49275.10000002384,49723.700000047684],"key_events":[],"mouse_events":[0.20000004768371582,4905.600000023842,8309.900000035763,9494.700000047684,11008.800000011921,11329.600000023842,11700.700000047684,12025.900000035763,12666.700000047684,13220.200000047684,13692,14051.900000035763,14444.5,14985.300000011921,15407,15828.300000011921,16441.600000023842,17359.600000023842,19520.400000035763,20310.100000023842,21070.900000035763,21476.5,21745.600000023842,22162,22578.400000035763,22874.400000035763,23243.700000047684,23782.400000035763,24287.700000047684,24760.700000047684,25211.200000047684,27404.400000035763,29632.400000035763,30008.400000035763,30341.30000001192,30724.700000047684,31275.30000001192,31747.400000035763,32118.700000047684,32540,32995.700000047684,33817.700000047684,34223.10000002384,34615.5,35440,38802.200000047684,40141.200000047684,41872.60000002384,42580.5,43930.80000001192,44242.30000001192,44574.90000003576,45145.40000003576,45494,45977.40000003576,46417.10000002384,46945.80000001192,47274.10000002384,47620.60000002384,48141.40000003576,48498.90000003576,48903.30000001192,49275.10000002384,49723.700000047684,50162.700000047684],"honeypot":0,"survey":"mace","page":1,"trial_type":"survey-mace","trial_index":9,"time_elapsed":291118,"internal_node_id":"0.0-9.0","task_version":"prescreen-v0.3","browser_interactions":0},{"responses":{"01":"Yes","01_ages_5":"5","01_ages_6":"6","01_ages_7":"7","01_ages_8":"8","01_ages_9":"9","01_ages_10":"10","01_ages_11":"11","01_ages_12":"12","01_ages_13":"13","01_ages_14":"14","01_ages_15":"15","01_ages_16":"16","01_ages_17":"17","01_ages_18":"18","02":"No","03":"No","04":"No","05":"No","06":"No","07":"No","08":"No"},"rt":25826.399999976158,"item_order":[0,1,2,3,4,5,6,7],"radio_events":[2536.199999988079,16779.899999976158,18233.30000001192,18586.600000023842,21003.19999998808,23267.899999976158,24404.30000001192,25439.399999976158],"checkbox_events":[6469.5,6786.100000023842,7327.899999976158,7677.899999976158,8024.100000023842,8406.399999976158,8982.399999976158,9486.100000023842,10005.5,11005.899999976158,12321.800000011921,14393.300000011921,14836,16124.100000023842],"key_events":[],"mouse_events":[1971.800000011921,2536.199999988079,6469.5,6786.100000023842,7327.899999976158,7677.899999976158,8024.100000023842,8406.399999976158,8982.399999976158,9486.100000023842,10005.5,10319.600000023842,11005.899999976158,11387.899999976158,12321.800000011921,12737.699999988079,14393.300000011921,14836,15549.699999988079,16124.100000023842,16779.899999976158,18233.30000001192,18586.600000023842,20280.399999976158,21003.19999998808,21389.5,22828.399999976158,23267.899999976158,23582.30000001192,24404.30000001192,25439.399999976158,25820.899999976158],"honeypot":0,"survey":"mace","page":2,"trial_type":"survey-mace","trial_index":10,"time_elapsed":316948,"internal_node_id":"0.0-10.0","task_version":"prescreen-v0.3","browser_interactions":0},{"responses":{"01":"Yes","01_ages_5":"5","01_ages_6":"6","01_ages_7":"7","01_ages_8":"8","01_ages_9":"9","01_ages_10":"10","01_ages_11":"11","01_ages_12":"12","01_ages_13":"13","01_ages_14":"14","01_ages_15":"15","02":"No","03":"No","04":"No"},"rt":19177.600000023842,"item_order":[0,1,2,3],"radio_events":[2590.900000035763,16832.5,17382.700000047684,18721.900000035763],"checkbox_events":[4289.100000023842,4570.900000035763,4907.800000011921,7239.400000035763,7609.200000047684,9194.300000011921,9748.5,10374.5,10706.600000023842,11140.400000035763,12473,13132.5,13593.200000047684,14340,14919.5],"key_events":[],"mouse_events":[296.5,2590.900000035763,4289.100000023842,4570.900000035763,4907.800000011921,5324.100000023842,5616.800000011921,5840,5998.5,6182.600000023842,6325.400000035763,6483.700000047684,6843.600000023842,7239.400000035763,7609.200000047684,8597.700000047684,9194.300000011921,9748.5,10374.5,10706.600000023842,11140.400000035763,11489.300000011921,11905.300000011921,12298.600000023842,12473,13132.5,13593.200000047684,13975,14340,14919.5,15584.300000011921,16373.100000023842,16832.5,17382.700000047684,18721.900000035763,19174.80000001192],"honeypot":0,"survey":"mace","page":3,"trial_type":"survey-mace","trial_index":11,"time_elapsed":336128,"internal_node_id":"0.0-11.0","task_version":"prescreen-v0.3","browser_interactions":0},{"responses":{"01":"No","02":"No"},"rt":3571.5,"item_order":[0,1],"radio_events":[2106.400000035763,3176.199999988079],"checkbox_events":[],"key_events":[],"mouse_events":[1387.4000000357628,2106.400000035763,2793.400000035763,3176.199999988079,3570.100000023842],"honeypot":0,"survey":"mace","page":4,"trial_type":"survey-mace","trial_index":12,"time_elapsed":339702,"internal_node_id":"0.0-12.0","task_version":"prescreen-v0.3","browser_interactions":0},{"responses":{"01":"No","02":"No","03":"No","04":"No","05":"No"},"rt":7489.600000023842,"item_order":[0,1,2,3,4],"radio_events":[1388.9000000357628,3346.5,4898.700000047684,5438.600000023842,7058],"checkbox_events":[],"key_events":[],"mouse_events":[1388.9000000357628,2585.400000035763,3346.5,3864,4898.700000047684,5438.600000023842,7058,7486.100000023842],"honeypot":0,"survey":"mace","page":5,"trial_type":"survey-mace","trial_index":13,"time_elapsed":347196,"internal_node_id":"0.0-13.0","task_version":"prescreen-v0.3","browser_interactions":0},{"responses":{"01":"Yes","01_ages_6":"6","01_ages_7":"7","01_ages_8":"8","01_ages_9":"9","01_ages_10":"10","01_ages_11":"11","01_ages_12":"12","01_ages_13":"13","02":"No","03":"No","04":"No","05":"No"},"rt":16453.899999976158,"item_order":[0,1,2,3,4],"radio_events":[1156,5629.600000023842,12174.5,12830.600000023842,14458.399999976158,16009.899999976158],"checkbox_events":[7094.600000023842,7832.100000023842,8745.600000023842,9170.800000011921,9792.899999976158,10662.199999988079,10959.300000011921,11398.199999988079],"key_events":[],"mouse_events":[1156,5629.600000023842,6710.5,7094.600000023842,7406.399999976158,7832.100000023842,8135.399999976158,8745.600000023842,9170.800000011921,9792.899999976158,10183.399999976158,10662.199999988079,10959.300000011921,11398.199999988079,12174.5,12830.600000023842,14458.399999976158,14886.100000023842,16009.899999976158,16450.600000023842],"honeypot":0,"survey":"mace","page":6,"trial_type":"survey-mace","trial_index":14,"time_elapsed":363655,"internal_node_id":"0.0-14.0","task_version":"prescreen-v0.3","browser_interactions":0},{"responses":{"01":"No","02":"No","03":"No","04":"No","05":"No","06":"No","07":"No"},"rt":9670.399999976158,"item_order":[0,1,2,3,4,5,6],"radio_events":[2750.599999964237,3353.300000011921,3939,6662.800000011921,7302.5,7865.5,8249.699999988079,9365],"checkbox_events":[],"key_events":[],"mouse_events":[1531.5999999642372,2750.599999964237,3353.300000011921,3939,4636.300000011921,5345.899999976158,6662.800000011921,7302.5,7865.5,8249.699999988079,9365,9665.800000011921],"honeypot":0,"survey":"mace","page":7,"trial_type":"survey-mace","trial_index":15,"time_elapsed":373330,"internal_node_id":"0.0-15.0","task_version":"prescreen-v0.3","browser_interactions":0},{"responses":{"01":"No","02":"No","03":"No","04":"No"},"rt":6204.100000023842,"item_order":[0,1,2,3],"radio_events":[1712.300000011921,2702.900000035763,4259,5043.600000023842],"checkbox_events":[],"key_events":[],"mouse_events":[1712.300000011921,2198.600000023842,2702.900000035763,3579.600000023842,4259,5043.600000023842,6201.400000035763],"honeypot":0,"survey":"mace","page":8,"trial_type":"survey-mace","trial_index":16,"time_elapsed":379537,"internal_node_id":"0.0-16.0","task_version":"prescreen-v0.3","browser_interactions":0},{"responses":{"01":"Yes","01_ages_5":"5","01_ages_6":"6","01_ages_7":"7","01_ages_8":"8","01_ages_9":"9","01_ages_10":"10","01_ages_11":"11","01_ages_12":"12","01_ages_13":"13","01_ages_14":"14","01_ages_15":"15","01_ages_16":"16","01_ages_17":"17","01_ages_18":"18","02":"Yes","02_ages_15":"15","02_ages_16":"16","02_ages_17":"17","02_ages_18":"18","03":"No","04":"No"},"rt":23440.80000001192,"item_order":[0,1,2,3],"radio_events":[2569.300000011921,12671.600000023842,18870.80000001192,23010.900000035763],"checkbox_events":[4605.900000035763,4921.200000047684,5236.900000035763,6251.300000011921,6541.400000035763,7483.400000035763,7800.600000023842,8307.400000035763,8801.5,9128.800000011921,9984,10287.400000035763,10750.900000035763,11287.800000011921,13797.200000047684,14078.900000035763,14539.700000047684,15810.5],"key_events":[],"mouse_events":[2569.300000011921,4605.900000035763,4921.200000047684,5236.900000035763,5495.600000023842,5723.300000011921,6251.300000011921,6541.400000035763,6868,7483.400000035763,7800.600000023842,8307.400000035763,8801.5,9128.800000011921,9984,10287.400000035763,10750.900000035763,11287.800000011921,12671.600000023842,13797.200000047684,14078.900000035763,14539.700000047684,14833.400000035763,15810.5,17700.400000035763,18870.80000001192,20064.900000035763,23010.900000035763,23438.200000047684],"honeypot":0,"survey":"mace","page":9,"trial_type":"survey-mace","trial_index":17,"time_elapsed":402981,"internal_node_id":"0.0-17.0","task_version":"prescreen-v0.3","browser_interactions":0},{"responses":{"01":"No","02":"No","03":"No","04":"No","05":"No","06":"Yes","06_ages_17":"17","07":"Yes","07_ages_12":"12","07_ages_13":"13","07_ages_14":"14","07_ages_15":"15","07_ages_16":"16","07_ages_17":"17","07_ages_18":"18","08":"Yes","08_ages_11":"11","08_ages_12":"12","08_ages_13":"13","08_ages_14":"14","08_ages_15":"15","08_ages_16":"16","08_ages_17":"17","08_ages_18":"18"},"rt":31583.399999976158,"item_order":[0,1,2,3,4,5,6,7],"radio_events":[4144.199999988079,4735.099999964237,5266.799999952316,6234.199999988079,7256.699999988079,8539.5,9847.699999988079,12611.299999952316,18979.899999976158,25852.099999964237],"checkbox_events":[13949.399999976158,20283.399999976158,20722.599999964237,21132.5,21578.599999964237,21981.899999976158,22847.69999998808,23499.19999998808,27787.599999964237,28260.099999964237,28578.599999964237,28945.599999964237,29295.399999976158,29778.19999998808,30212.399999976158,30690.299999952316],"key_events":[],"mouse_events":[3308.899999976158,4144.199999988079,4735.099999964237,5266.799999952316,5974.099999964237,6234.199999988079,6975.899999976158,7256.699999988079,8539.5,9847.699999988079,10361.099999964237,12611.299999952316,13949.399999976158,18979.899999976158,20283.399999976158,20722.599999964237,21132.5,21578.599999964237,21981.899999976158,22413,22847.69999998808,23499.19999998808,25852.099999964237,27787.599999964237,28260.099999964237,28578.599999964237,28945.599999964237,29295.399999976158,29778.19999998808,30212.399999976158,30690.299999952316,31578.19999998808],"honeypot":0,"survey":"mace","page":10,"trial_type":"survey-mace","trial_index":18,"time_elapsed":434573,"internal_node_id":"0.0-18.0","task_version":"prescreen-v0.3","browser_interactions":0,"instructed":0},{"rt":1908,"trial_type":"mental-health-alert","trial_index":19,"time_elapsed":436482,"internal_node_id":"0.0-19.0","task_version":"prescreen-v0.3","interactions":"[{\"event\":\"blur\",\"trial\":0,\"time\":672},{\"event\":\"focus\",\"trial\":0,\"time\":774},{\"event\":\"blur\",\"trial\":2,\"time\":70873},{\"event\":\"focus\",\"trial\":2,\"time\":93356},{\"event\":\"blur\",\"trial\":4,\"time\":177493},{\"event\":\"focus\",\"trial\":4,\"time\":187887},{\"event\":\"blur\",\"trial\":5,\"time\":197575},{\"event\":\"focus\",\"trial\":5,\"time\":200348},{\"event\":\"blur\",\"trial\":6,\"time\":207926},{\"event\":\"focus\",\"trial\":6,\"time\":208894},{\"event\":\"blur\",\"trial\":7,\"time\":217281},{\"event\":\"focus\",\"trial\":7,\"time\":220346},{\"event\":\"blur\",\"trial\":8,\"time\":232479},{\"event\":\"focus\",\"trial\":8,\"time\":237600}]"}]