[{"view_history":[{"page_index":0,"viewing_time":2967.199999988079},{"page_index":1,"viewing_time":2943.800000011921},{"page_index":2,"viewing_time":3978},{"page_index":3,"viewing_time":942.1999999880791}],"rt":10831.800000011921,"trial_type":"instructions","trial_index":0,"time_elapsed":10836,"internal_node_id":"0.0-0.0","task_version":"prescreen-v0.3"},{"rt":12309,"responses":{"age":"38","gender-categorical":"Male","gender-free-response":"","ethnicity":"Not Hispanic or Latino","race":["White"],"education":"Some college"},"trial_type":"survey-demo","trial_index":1,"time_elapsed":23149,"internal_node_id":"0.0-1.0","task_version":"prescreen-v0.3"},{"responses":{"Q04":"3","Q09":"2","Q18":"2","Q15":"2","Q08":"1","Q06":"2","Q21":"3","Q07":"1","Q20":"1","Q13":"1","Q12":"0","Q02":"2","Q19":"2","Q01":"2","Q05":"2","Q14":"2","Q10":"2","Q17":"3","Q16":"2","Q11":"0","Q03":"2"},"rt":110190.80000001192,"item_order":[3,8,17,14,7,5,20,6,19,12,11,1,18,0,4,13,9,16,15,10,2],"radio_events":[14252.300000011921,16148.199999988079,18883.899999976158,28596.100000023842,32380.80000001192,35420.5,39127.30000001192,49638.39999997616,53861.69999998808,58404.69999998808,63685.10000002384,67556.60000002384,75526.80000001192,76292.80000001192,83397.30000001192,90381,91164.89999997616,96189.10000002384,102125.60000002384,107198,109149.30000001192],"key_events":[],"mouse_events":[13036.899999976158,14252.300000011921,16148.199999988079,18883.899999976158,28596.100000023842,32380.80000001192,35420.5,39127.30000001192,48900.5,49638.39999997616,53861.69999998808,58404.69999998808,63685.10000002384,67556.60000002384,74740.89999997616,75526.80000001192,76292.80000001192,83397.30000001192,90381,91164.89999997616,96189.10000002384,101237,102125.60000002384,107198,109149.30000001192,110189.10000002384],"straightlining":0.5714285714285714,"zigzagging":0.35,"honeypot":0,"survey":"sns","trial_type":"survey-template","trial_index":2,"time_elapsed":133343,"internal_node_id":"0.0-2.0","task_version":"prescreen-v0.3","browser_interactions":0,"infrequency":0},{"responses":{"Q06":"3","Q03":"3","Q04":"2","Q11":"3","Q10":"2","Q07":"2","Q09":"1","Q12":"1","Q13":"0","Q01":"3","Q02":"2","Q08":"2","Q05":"1"},"rt":87102.70000004768,"item_order":[5,2,3,10,9,6,8,11,12,0,1,7,4],"radio_events":[11804,20292,25188.5,36812.60000002384,40836.40000003576,42333,50452.60000002384,54637.60000002384,58453.10000002384,67996.5,70397.40000003576,76636.5,78869,83404.90000003576],"key_events":[],"mouse_events":[11804,20292,25188.5,36812.60000002384,40836.40000003576,42333,49836.40000003576,50452.60000002384,54637.60000002384,58453.10000002384,67996.5,70397.40000003576,76636.5,78869,82693.20000004768,83404.90000003576,87101.40000003576],"straightlining":0.38461538461538464,"zigzagging":0.6666666666666666,"honeypot":0,"survey":"bisbas","trial_type":"survey-template","trial_index":3,"time_elapsed":220449,"internal_node_id":"0.0-3.0","task_version":"prescreen-v0.3","browser_interactions":0,"infrequency":0},{"responses":{"Q01":"2","Q02":"2","Q03":"2"},"rt":23349.19999998808,"radio_events":[6299.599999964237,14059.599999964237,21116.099999964237],"key_events":[],"mouse_events":[6299.599999964237,14059.599999964237,21116.099999964237,23348.599999964237],"survey":"map","page":1,"trial_type":"survey-map","trial_index":4,"time_elapsed":243800,"internal_node_id":"0.0-4.0","task_version":"prescreen-v0.3","browser_interactions":0},{"responses":{"Q04":"0","Q05":"0","Q06":"2"},"rt":27589.30000001192,"radio_events":[7476.899999976158,13028.899999976158,22029,26836.80000001192],"key_events":[],"mouse_events":[7476.899999976158,12212.800000011921,13028.899999976158,21101.69999998808,22029,26326,26836.80000001192,27588.899999976158],"survey":"map","page":2,"trial_type":"survey-map","trial_index":5,"time_elapsed":271391,"internal_node_id":"0.0-5.0","task_version":"prescreen-v0.3","browser_interactions":0},{"responses":{"Q07":"1","Q08":"4","Q09":"1"},"rt":26559.19999998808,"radio_events":[15302.800000011921,19421.899999976158,23270.19999998808],"key_events":[],"mouse_events":[15302.800000011921,19421.899999976158,23270.19999998808,26558.69999998808],"survey":"map","page":3,"trial_type":"survey-map","trial_index":6,"time_elapsed":297953,"internal_node_id":"0.0-6.0","task_version":"prescreen-v0.3","browser_interactions":0},{"responses":{"Q10":"0","Q11":"0","Q12":"1","Q13":"3","Q16":"0","Q14":"1","Q15":"3"},"rt":55047.40000003576,"radio_events":[8981.5,13414.199999988079,20405.69999998808,26438.400000035763,30333.600000023842,40693.60000002384,46694,49094,54046.10000002384],"key_events":[],"mouse_events":[7981.100000023842,8981.5,13414.199999988079,20405.69999998808,26438.400000035763,30333.600000023842,40693.60000002384,46694,49094,54046.10000002384,55046.5],"survey":"map","page":4,"trial_type":"survey-map","trial_index":7,"time_elapsed":353002,"internal_node_id":"0.0-7.0","task_version":"prescreen-v0.3","browser_interactions":0,"infrequency":0},{"view_history":[{"page_index":0,"viewing_time":2261.7000000476837},{"page_index":1,"viewing_time":3397.199999988079}],"rt":5659.600000023842,"trial_type":"instructions","trial_index":8,"time_elapsed":358662,"internal_node_id":"0.0-8.0","task_version":"prescreen-v0.3"},{"responses":{"01":"No","02":"No","03":"No","04":"No","05":"No","06":"No"},"rt":23927.5,"item_order":[0,1,2,3,4,5],"radio_events":[8885.300000011921,18420.899999976158,19412.899999976158,20612.599999964237,22052.69999998808,22958.5],"checkbox_events":[],"key_events":[],"mouse_events":[0.09999996423721313,8885.300000011921,18420.899999976158,19412.899999976158,20612.599999964237,22052.69999998808,22958.5,23925.5],"honeypot":0,"survey":"mace","page":1,"trial_type":"survey-mace","trial_index":9,"time_elapsed":382596,"internal_node_id":"0.0-9.0","task_version":"prescreen-v0.3","browser_interactions":0},{"responses":{"01":"No","02":"No","03":"Yes","03_ages_3":"3","03_ages_4":"4","03_ages_5":"5","03_ages_6":"6","03_ages_7":"7","03_ages_8":"8","03_ages_9":"9","04":"No","05":"Yes","05_ages_6":"6","05_ages_7":"7","05_ages_8":"8","05_ages_9":"9","06":"No","07":"No","08":"No"},"rt":46093.80000001192,"item_order":[0,1,2,3,4,5,6,7],"radio_events":[3684.2000000476837,5731.200000047684,7970.5,29667.700000047684,37979,39514.700000047684,43467.10000002384,45482.90000003576],"checkbox_events":[16307.5,17147.30000001192,17786.5,19338.400000035763,20242.600000023842,20810.900000035763,21538.80000001192,34443,35243.30000001192,35803.700000047684,36626.5],"key_events":[],"mouse_events":[3684.2000000476837,5731.200000047684,7970.5,16307.5,17147.30000001192,17786.5,18771.600000023842,19338.400000035763,20242.600000023842,20810.900000035763,21538.80000001192,25354.400000035763,28851.200000047684,29667.700000047684,34443,35243.30000001192,35803.700000047684,36626.5,37979,39514.700000047684,43467.10000002384,44571.10000002384,45482.90000003576,46091.30000001192],"honeypot":0,"survey":"mace","page":2,"trial_type":"survey-mace","trial_index":10,"time_elapsed":428693,"internal_node_id":"0.0-10.0","task_version":"prescreen-v0.3","browser_interactions":0},{"responses":{"01":"No","02":"No","03":"No","04":"No"},"rt":12228,"item_order":[0,1,2,3],"radio_events":[7634.399999976158,8602.699999988079,10355.399999976158,11707.5],"checkbox_events":[],"key_events":[],"mouse_events":[7634.399999976158,8602.699999988079,9683.199999988079,10355.399999976158,11082.600000023842,11707.5,12226.600000023842],"honeypot":0,"survey":"mace","page":3,"trial_type":"survey-mace","trial_index":11,"time_elapsed":440923,"internal_node_id":"0.0-11.0","task_version":"prescreen-v0.3","browser_interactions":0},{"responses":{"01":"Yes","01_ages_8":"8","01_ages_9":"9","01_ages_10":"10","01_ages_11":"11","01_ages_12":"12","01_ages_13":"13","02":"Yes","02_ages_8":"8","02_ages_9":"9","02_ages_10":"10","02_ages_11":"11","02_ages_12":"12","02_ages_13":"13"},"rt":44917.299999952316,"item_order":[0,1],"radio_events":[11596.099999964237,36676.5],"checkbox_events":[22564.799999952316,23459.799999952316,24252.5,24876.399999976158,27326.19999998808,31212.099999964237,40005.5,40724,41284.299999952316,42020.59999996424,42588.69999998808,43212.799999952316],"key_events":[],"mouse_events":[11596.099999964237,22564.799999952316,23459.799999952316,24252.5,24876.399999976158,27326.19999998808,31212.099999964237,36676.5,40005.5,40724,41284.299999952316,42020.59999996424,42588.69999998808,43212.799999952316,44916.299999952316],"honeypot":0,"survey":"mace","page":4,"trial_type":"survey-mace","trial_index":12,"time_elapsed":485843,"internal_node_id":"0.0-12.0","task_version":"prescreen-v0.3","browser_interactions":0},{"responses":{"01":"No","02":"No","03":"No","04":"No","05":"No"},"rt":12725.800000011921,"item_order":[0,1,2,3,4],"radio_events":[5659.5,6419.900000035763,8311.5,9740.699999988079,12212.400000035763],"checkbox_events":[],"key_events":[],"mouse_events":[4388.199999988079,5659.5,6419.900000035763,8311.5,9740.699999988079,11235.900000035763,12212.400000035763,12724],"honeypot":0,"survey":"mace","page":5,"trial_type":"survey-mace","trial_index":13,"time_elapsed":498572,"internal_node_id":"0.0-13.0","task_version":"prescreen-v0.3","browser_interactions":0},{"responses":{"01":"Yes","01_ages_5":"5","01_ages_6":"6","01_ages_7":"7","01_ages_8":"8","01_ages_9":"9","01_ages_10":"10","01_ages_11":"11","01_ages_12":"12","01_ages_13":"13","01_ages_14":"14","01_ages_15":"15","01_ages_16":"16","01_ages_17":"17","01_ages_18":"18","02":"Yes","02_ages_5":"5","02_ages_6":"6","02_ages_7":"7","02_ages_8":"8","02_ages_9":"9","02_ages_10":"10","02_ages_11":"11","02_ages_12":"12","02_ages_13":"13","02_ages_14":"14","02_ages_15":"15","02_ages_16":"16","02_ages_17":"17","02_ages_18":"18","03":"Yes","03_ages_5":"5","03_ages_6":"6","03_ages_7":"7","03_ages_8":"8","03_ages_9":"9","03_ages_10":"10","03_ages_11":"11","03_ages_12":"12","03_ages_13":"13","03_ages_14":"14","03_ages_15":"15","03_ages_16":"16","03_ages_17":"17","03_ages_18":"18","04":"Yes","04_ages_5":"5","04_ages_6":"6","04_ages_7":"7","04_ages_8":"8","04_ages_9":"9","04_ages_10":"10","04_ages_11":"11","04_ages_12":"12","04_ages_13":"13","04_ages_14":"14","04_ages_15":"15","04_ages_16":"16","04_ages_17":"17","04_ages_18":"18","05":"No"},"rt":66344.19999998808,"item_order":[0,1,2,3,4],"radio_events":[9203.600000023842,25891.899999976158,38404.30000001192,52839.30000001192,64932.69999998808],"checkbox_events":[13108.899999976158,13740.300000011921,14268.399999976158,14828.699999988079,15653.199999988079,16260.600000023842,17501.30000001192,18019.899999976158,18749,19500.100000023842,20236.30000001192,20820.600000023842,21580.399999976158,22212.100000023842,27445.100000023842,27980,29092.69999998808,29685,30316.69999998808,30812.30000001192,31348.69999998808,31916,32717.19999998808,33500.30000001192,34020.10000002384,34779.89999997616,35476.19999998808,36140.30000001192,40740.10000002384,41229.19999998808,41782.10000002384,42868,44091.69999998808,44893.80000001192,45340.19999998808,46397.39999997616,47228.19999998808,47764.60000002384,49204.69999998808,49748.39999997616,50396.69999998808,51541.19999998808,54220,54740.10000002384,55284.19999998808,55900.39999997616,56524.10000002384,57212.69999998808,58140.39999997616,58731.89999997616,59444.80000001192,60133.10000002384,60972.89999997616,61612.69999998808,62324.69999998808,62892.39999997616],"key_events":[],"mouse_events":[9203.600000023842,13108.899999976158,13740.300000011921,14268.399999976158,14828.699999988079,15653.199999988079,16260.600000023842,17501.30000001192,18019.899999976158,18749,19500.100000023842,20236.30000001192,20820.600000023842,21580.399999976158,22212.100000023842,25891.899999976158,27445.100000023842,27980,29092.69999998808,29685,30316.69999998808,30812.30000001192,31348.69999998808,31916,32717.19999998808,33500.30000001192,34020.10000002384,34779.89999997616,35476.19999998808,36140.30000001192,38404.30000001192,40740.10000002384,41229.19999998808,41782.10000002384,42868,44091.69999998808,44893.80000001192,45340.19999998808,45908.39999997616,46397.39999997616,47228.19999998808,47764.60000002384,48340.19999998808,49204.69999998808,49748.39999997616,50396.69999998808,51541.19999998808,52839.30000001192,54220,54740.10000002384,55284.19999998808,55900.39999997616,56524.10000002384,57212.69999998808,58140.39999997616,58731.89999997616,59444.80000001192,60133.10000002384,60972.89999997616,61612.69999998808,62324.69999998808,62892.39999997616,64932.69999998808,66342.60000002384],"honeypot":0,"survey":"mace","page":6,"trial_type":"survey-mace","trial_index":14,"time_elapsed":564919,"internal_node_id":"0.0-14.0","task_version":"prescreen-v0.3","browser_interactions":0},{"responses":{"01":"No","02":"No","03":"No","03_ages_10":"10","03_ages_11":"11","04":"No","05":"No","06":"No","07":"No"},"rt":61892.30000001192,"item_order":[0,1,2,3,4,5,6],"radio_events":[8632.800000011921,9777,13601.900000035763,42378.10000002384,45553.69999998808,51690.80000001192,58106.40000003576,60297.19999998808],"checkbox_events":[23761.30000001192,24489,36353.30000001192,36855.19999998808],"key_events":[],"mouse_events":[8632.800000011921,9777,13601.900000035763,23761.30000001192,24489,36353.30000001192,36855.19999998808,42378.10000002384,45553.69999998808,51690.80000001192,58106.40000003576,60297.19999998808,61890.10000002384],"honeypot":0,"survey":"mace","page":7,"trial_type":"survey-mace","trial_index":15,"time_elapsed":626815,"internal_node_id":"0.0-15.0","task_version":"prescreen-v0.3","browser_interactions":0},{"responses":{"01":"No","02":"Yes","02_ages_6":"6","02_ages_7":"7","02_ages_8":"8","02_ages_9":"9","02_ages_10":"10","02_ages_11":"11","02_ages_12":"12","02_ages_13":"13","02_ages_14":"14","02_ages_15":"15","02_ages_16":"16","02_ages_17":"17","02_ages_18":"18","03":"Yes","03_ages_3":"3","03_ages_4":"4","03_ages_5":"5","03_ages_6":"6","03_ages_7":"7","03_ages_8":"8","03_ages_9":"9","03_ages_10":"10","03_ages_11":"11","03_ages_12":"12","03_ages_13":"13","03_ages_14":"14","03_ages_15":"15","03_ages_16":"16","03_ages_17":"17","03_ages_18":"18","04":"No"},"rt":61772.89999997616,"item_order":[0,1,2,3],"radio_events":[13522.299999952316,17251.5,38331.89999997616,59819.799999952316],"checkbox_events":[26594.399999976158,27226.099999964237,28508.399999976158,29386.399999976158,30106.899999976158,30851.399999976158,31627.299999952316,32292.299999952316,33347.19999998808,33923.59999996424,34707.19999998808,35291.19999998808,35883.39999997616,40156.39999997616,40678.09999996424,41236.19999998808,41796.09999996424,43076.299999952316,43683.69999998808,45283.299999952316,45787.39999997616,47619.39999997616,48411.299999952316,49099.69999998808,49619.5,50275.59999996424,50947.59999996424,51675.69999998808,52260.39999997616,52827.799999952316,53683.89999997616,54195.39999997616,54852],"key_events":[],"mouse_events":[13522.299999952316,17251.5,26594.399999976158,27226.099999964237,27787.899999976158,28508.399999976158,29386.399999976158,30106.899999976158,30851.399999976158,31627.299999952316,32292.299999952316,33347.19999998808,33923.59999996424,34707.19999998808,35291.19999998808,35883.39999997616,38331.89999997616,40156.39999997616,40678.09999996424,41236.19999998808,41796.09999996424,43076.299999952316,43683.69999998808,45283.299999952316,45787.39999997616,47619.39999997616,48411.299999952316,49099.69999998808,49619.5,50275.59999996424,50947.59999996424,51675.69999998808,52260.39999997616,52827.799999952316,53683.89999997616,54195.39999997616,54852,59819.799999952316,61771.5],"honeypot":0,"survey":"mace","page":8,"trial_type":"survey-mace","trial_index":16,"time_elapsed":688591,"internal_node_id":"0.0-16.0","task_version":"prescreen-v0.3","browser_interactions":0},{"responses":{"01":"No","02":"No","03":"Yes","03_ages_1":"1","03_ages_2":"2","03_ages_3":"3","03_ages_4":"4","03_ages_5":"5","03_ages_6":"6","03_ages_7":"7","03_ages_8":"8","03_ages_9":"9","03_ages_10":"10","03_ages_11":"11","03_ages_12":"12","03_ages_13":"13","03_ages_14":"14","03_ages_15":"15","03_ages_16":"16","03_ages_17":"17","03_ages_18":"18","04":"Yes","04_ages_1":"1","04_ages_2":"2","04_ages_3":"3","04_ages_4":"4","04_ages_5":"5","04_ages_6":"6","04_ages_7":"7","04_ages_8":"8","04_ages_9":"9","04_ages_10":"10","04_ages_11":"11","04_ages_12":"12","04_ages_13":"13","04_ages_14":"14","04_ages_15":"15","04_ages_16":"16","04_ages_17":"17","04_ages_18":"18"},"rt":70774.30000001192,"item_order":[0,1,2,3],"radio_events":[11332.300000011921,13932.199999988079,22579.69999998808,23556.19999998808,32684.600000023842],"checkbox_events":[43372.30000001192,43980.60000002384,44620.60000002384,45231.80000001192,45813.30000001192,46333.19999998808,46940.5,47548.19999998808,48068.60000002384,48732.30000001192,49364.30000001192,49892.5,50406.19999998808,50900.60000002384,51484.90000003576,52116.69999998808,52596.40000003576,53220.40000003576,57580.19999998808,58356.5,59091.90000003576,59692.40000003576,60388.80000001192,60900.60000002384,61396.5,61876.80000001192,63741.10000002384,64357.30000001192,65087.80000001192,65980.90000003576,66629.5,67310,68076.60000002384,68605,69188.80000001192,69772.60000002384],"key_events":[],"mouse_events":[11332.300000011921,13932.199999988079,22579.69999998808,23556.19999998808,32684.600000023842,42428.10000002384,43372.30000001192,43980.60000002384,44620.60000002384,45231.80000001192,45813.30000001192,46333.19999998808,46940.5,47548.19999998808,48068.60000002384,48732.30000001192,49364.30000001192,49892.5,50406.19999998808,50900.60000002384,51484.90000003576,52116.69999998808,52596.40000003576,53220.40000003576,57580.19999998808,58356.5,59091.90000003576,59692.40000003576,60388.80000001192,60900.60000002384,61396.5,61876.80000001192,63741.10000002384,64357.30000001192,65087.80000001192,65980.90000003576,66629.5,67310,68076.60000002384,68605,69188.80000001192,69772.60000002384,70772.80000001192],"honeypot":0,"survey":"mace","page":9,"trial_type":"survey-mace","trial_index":17,"time_elapsed":759367,"internal_node_id":"0.0-17.0","task_version":"prescreen-v0.3","browser_interactions":0},{"responses":{"01":"No","02":"No","03":"No","04":"No","05":"No","06":"Yes","06_ages_17":"17","07":"Yes","07_ages_1":"1","07_ages_2":"2","07_ages_3":"3","07_ages_4":"4","07_ages_5":"5","07_ages_6":"6","07_ages_7":"7","07_ages_8":"8","07_ages_9":"9","07_ages_10":"10","07_ages_11":"11","07_ages_12":"12","07_ages_13":"13","07_ages_14":"14","07_ages_15":"15","07_ages_16":"16","07_ages_17":"17","07_ages_18":"18","08":"Yes","08_ages_1":"1","08_ages_2":"2","08_ages_3":"3","08_ages_4":"4","08_ages_5":"5","08_ages_6":"6","08_ages_7":"7","08_ages_8":"8","08_ages_9":"9","08_ages_10":"10","08_ages_11":"11","08_ages_12":"12","08_ages_13":"13","08_ages_14":"14","08_ages_15":"15","08_ages_16":"16","08_ages_17":"17","08_ages_18":"18"},"rt":56127.09999996424,"item_order":[0,1,2,3,4,5,6,7],"radio_events":[6155.5,7252.800000011921,9188.300000011921,10723.699999988079,12963.899999976158,14763.399999976158,25643.899999976158,27371.80000001192],"checkbox_events":[16371.800000011921,30939.30000001192,31491.69999998808,32485.30000001192,32972.89999997616,33451.80000001192,33916.59999996424,34555.09999996424,35276.80000001192,35783.09999996424,36381.30000001192,37059.80000001192,37619.89999997616,39211.59999996424,39860.19999998808,40724.89999997616,41243.59999996424,41852.89999997616,42659.89999997616,44043.69999998808,44652.19999998808,45475,46334.89999997616,46820.39999997616,47277.69999998808,47852.30000001192,48691.80000001192,49525.09999996424,50115.89999997616,50795.39999997616,51355.19999998808,52093.30000001192,52692.30000001192,53309.19999998808,54043.80000001192,54859.69999998808,55436],"key_events":[],"mouse_events":[6155.5,7252.800000011921,9188.300000011921,10723.699999988079,12963.899999976158,14763.399999976158,16371.800000011921,25643.899999976158,27371.80000001192,29717.899999976158,30939.30000001192,31491.69999998808,32485.30000001192,32972.89999997616,33451.80000001192,33916.59999996424,34555.09999996424,35276.80000001192,35783.09999996424,36381.30000001192,37059.80000001192,37619.89999997616,38182.09999996424,39211.59999996424,39860.19999998808,40724.89999997616,41243.59999996424,41852.89999997616,42659.89999997616,44043.69999998808,44652.19999998808,45475,46334.89999997616,46820.39999997616,47277.69999998808,47852.30000001192,48691.80000001192,49525.09999996424,50115.89999997616,50795.39999997616,51355.19999998808,52093.30000001192,52692.30000001192,53309.19999998808,54043.80000001192,54859.69999998808,55436,56124.5],"honeypot":0,"survey":"mace","page":10,"trial_type":"survey-mace","trial_index":18,"time_elapsed":815498,"internal_node_id":"0.0-18.0","task_version":"prescreen-v0.3","browser_interactions":0,"instructed":0},{"rt":14291.700000047684,"trial_type":"mental-health-alert","trial_index":19,"time_elapsed":829791,"internal_node_id":"0.0-19.0","task_version":"prescreen-v0.3","interactions":"[]"}]