[{"view_history":[{"page_index":0,"viewing_time":5760.300000011921},{"page_index":1,"viewing_time":6247.699999988079},{"page_index":2,"viewing_time":2904},{"page_index":3,"viewing_time":1504}],"rt":16418.399999976158,"trial_type":"instructions","trial_index":0,"time_elapsed":16472,"internal_node_id":"0.0-0.0","task_version":"prescreen-v0.3"},{"rt":18906.399999976158,"responses":{"age":"22","gender-categorical":"Female","gender-free-response":"","ethnicity":"Not Hispanic or Latino","race":["Black or African American","White"],"education":"Bachelor degree"},"trial_type":"survey-demo","trial_index":1,"time_elapsed":35383,"internal_node_id":"0.0-1.0","task_version":"prescreen-v0.3"},{"responses":{"Q04":"2","Q19":"0","Q14":"1","Q16":"2","Q15":"1","Q05":"0","Q18":"2","Q17":"1","Q06":"0","Q01":"1","Q09":"1","Q20":"2","Q03":"2","Q13":"1","Q07":"0","Q12":"1","Q10":"0","Q02":"0","Q08":"0","Q11":"0","Q21":"3"},"rt":175429.60000002384,"item_order":[3,18,13,15,14,4,17,16,5,0,8,19,2,12,6,11,9,1,7,10,20],"radio_events":[20571.600000023842,39691.60000002384,46371.40000003576,52579.5,60819.5,72755.40000003576,77563.80000001192,82803.5,91811.40000003576,95339.5,103291.5,107843.30000001192,110243.5,114179.5,121115.40000003576,127099.40000003576,131659.40000003576,137883.5,143195.40000003576,147835.30000001192,151219.40000003576,157467.40000003576],"key_events":[],"mouse_events":[20571.600000023842,39691.60000002384,46371.40000003576,52579.5,60819.5,72755.40000003576,77563.80000001192,82803.5,91811.40000003576,95339.5,102363.5,103291.5,107843.30000001192,110243.5,114179.5,121115.40000003576,127099.40000003576,131659.40000003576,137883.5,142715.5,143195.40000003576,147155.60000002384,147835.30000001192,151219.40000003576,157467.40000003576,175427.5],"straightlining":0.38095238095238093,"zigzagging":0.65,"honeypot":0,"survey":"sns","trial_type":"survey-template","trial_index":2,"time_elapsed":210844,"internal_node_id":"0.0-2.0","task_version":"prescreen-v0.3","browser_interactions":0,"infrequency":0},{"responses":{"Q11":"2","Q13":"0","Q01":"3","Q10":"2","Q12":"1","Q09":"2","Q05":"3","Q04":"2","Q03":"3","Q08":"3","Q02":"1","Q06":"2","Q07":"3"},"rt":88074.40000003576,"item_order":[10,12,0,9,11,8,4,3,2,7,1,5,6],"radio_events":[15105.100000023842,19873.19999998808,23417,26329,42017,49649.10000002384,53641.10000002384,60417,65961.10000002384,72040.90000003576,75985.10000002384,83921,87361],"key_events":[],"mouse_events":[15105.100000023842,19873.19999998808,23417,26329,42017,49649.10000002384,53641.10000002384,60417,65961.10000002384,72040.90000003576,75985.10000002384,83921,87361,88073.19999998808],"straightlining":0.38461538461538464,"zigzagging":0.75,"honeypot":0,"survey":"bisbas","trial_type":"survey-template","trial_index":3,"time_elapsed":298931,"internal_node_id":"0.0-3.0","task_version":"prescreen-v0.3","browser_interactions":0,"infrequency":0},{"responses":{"Q01":"2","Q02":"1","Q03":"1"},"rt":67916.19999998808,"radio_events":[16579.69999998808,51355.60000002384,59491.5,60467.5,66283.5],"key_events":[],"mouse_events":[16579.69999998808,50723.60000002384,51355.60000002384,59491.5,60467.5,66283.5,67915.60000002384],"survey":"map","page":1,"trial_type":"survey-map","trial_index":4,"time_elapsed":366858,"internal_node_id":"0.0-4.0","task_version":"prescreen-v0.3","browser_interactions":0},{"responses":{"Q04":"3","Q05":"2","Q06":"3"},"rt":28869.69999998808,"radio_events":[10101.300000011921,17596.900000035763,28069.100000023842],"key_events":[],"mouse_events":[10101.300000011921,17596.900000035763,27269.100000023842,28069.100000023842,28869.100000023842],"survey":"map","page":2,"trial_type":"survey-map","trial_index":5,"time_elapsed":395735,"internal_node_id":"0.0-5.0","task_version":"prescreen-v0.3","browser_interactions":0},{"responses":{"Q07":"2","Q08":"3","Q09":"0"},"rt":26486.299999952316,"radio_events":[13157.599999964237,19029.599999964237,23317.5],"key_events":[],"mouse_events":[13157.599999964237,19029.599999964237,23317.5,26485.69999998808],"survey":"map","page":3,"trial_type":"survey-map","trial_index":6,"time_elapsed":422223,"internal_node_id":"0.0-6.0","task_version":"prescreen-v0.3","browser_interactions":0},{"responses":{"Q10":"0","Q11":"0","Q12":"1","Q13":"1","Q16":"0","Q14":"2","Q15":"2"},"rt":41502.39999997616,"radio_events":[11493.300000011921,15205.300000011921,19205.30000001192,24549.100000023842,28933.30000001192,35245.19999998808,40709.19999998808],"key_events":[],"mouse_events":[11493.300000011921,15205.300000011921,19205.30000001192,24549.100000023842,28485.19999998808,28933.30000001192,35245.19999998808,40709.19999998808,41501.39999997616],"survey":"map","page":4,"trial_type":"survey-map","trial_index":7,"time_elapsed":463734,"internal_node_id":"0.0-7.0","task_version":"prescreen-v0.3","browser_interactions":0,"infrequency":0},{"view_history":[{"page_index":0,"viewing_time":5709},{"page_index":1,"viewing_time":7567.899999976158}],"rt":13277.699999988079,"trial_type":"instructions","trial_index":8,"time_elapsed":477012,"internal_node_id":"0.0-8.0","task_version":"prescreen-v0.3"},{"responses":{"01":"Yes","01_ages_1":"1","01_ages_2":"2","01_ages_3":"3","01_ages_4":"4","01_ages_5":"5","01_ages_6":"6","01_ages_7":"7","01_ages_8":"8","01_ages_9":"9","01_ages_10":"10","01_ages_11":"11","01_ages_12":"12","01_ages_13":"13","01_ages_14":"14","01_ages_15":"15","01_ages_16":"16","01_ages_17":"17","01_ages_18":"18","02":"Yes","02_ages_3":"3","02_ages_4":"4","02_ages_5":"5","02_ages_6":"6","02_ages_7":"7","02_ages_8":"8","02_ages_9":"9","02_ages_10":"10","02_ages_11":"11","02_ages_12":"12","02_ages_13":"13","02_ages_14":"14","02_ages_15":"15","02_ages_16":"16","02_ages_17":"17","02_ages_18":"18","03":"No","04":"No","05":"No","06":"Yes","06_ages_2":"2","06_ages_3":"3","06_ages_4":"4","06_ages_5":"5","06_ages_6":"6","06_ages_7":"7","06_ages_8":"8","06_ages_9":"9","06_ages_10":"10","06_ages_11":"11","06_ages_12":"12","06_ages_13":"13","06_ages_14":"14"},"rt":79005.19999998808,"item_order":[0,1,2,3,4,5],"radio_events":[15410.100000023842,33506.19999998808,56490.5,59546.19999998808,61738.10000002384,65650],"checkbox_events":[19426.30000001192,19810.19999998808,20474.100000023842,20930.30000001192,22410.19999998808,23002.19999998808,23410.19999998808,23970.100000023842,24498.100000023842,25042.19999998808,25602.100000023842,26058.100000023842,26586,27098,27586.30000001192,28042.100000023842,28586.19999998808,29106.19999998808,35226.10000002384,35722.19999998808,36402.10000002384,37050.19999998808,37650.19999998808,38074,38482.10000002384,39162,39746.10000002384,40378.30000001192,40986.10000002384,41746.40000003576,42322.10000002384,42930.10000002384,43642.10000002384,44202.10000002384,44802.40000003576,45298.10000002384,47586.10000002384,47962.19999998808,48602.10000002384,49202,68282.19999998808,68946.10000002384,69938.10000002384,71082.10000002384,71706,72306.10000002384,72850,73298,73858.10000002384,74362.10000002384,75258,76224.30000001192,77306.19999998808],"key_events":[],"mouse_events":[0.10000002384185791,15410.100000023842,19426.30000001192,19810.19999998808,20474.100000023842,20930.30000001192,21594.100000023842,22410.19999998808,23002.19999998808,23410.19999998808,23970.100000023842,24498.100000023842,25042.19999998808,25602.100000023842,26058.100000023842,26586,27098,27586.30000001192,28042.100000023842,28586.19999998808,29106.19999998808,33506.19999998808,35226.10000002384,35722.19999998808,36402.10000002384,37050.19999998808,37650.19999998808,38074,38482.10000002384,39162,39746.10000002384,40378.30000001192,40986.10000002384,41746.40000003576,42322.10000002384,42930.10000002384,43642.10000002384,44202.10000002384,44802.40000003576,45298.10000002384,47586.10000002384,47962.19999998808,48602.10000002384,49202,56490.5,59546.19999998808,61738.10000002384,65650,68282.19999998808,68946.10000002384,69594.19999998808,69938.10000002384,70554.10000002384,71082.10000002384,71706,72306.10000002384,72850,73298,73858.10000002384,74362.10000002384,75258,76224.30000001192,77306.19999998808,79002.60000002384],"honeypot":0,"survey":"mace","page":1,"trial_type":"survey-mace","trial_index":9,"time_elapsed":556036,"internal_node_id":"0.0-9.0","task_version":"prescreen-v0.3","browser_interactions":0},{"responses":{"01":"No","02":"No","03":"Yes","03_ages_1":"1","03_ages_2":"2","03_ages_3":"3","03_ages_4":"4","03_ages_5":"5","03_ages_6":"6","03_ages_7":"7","03_ages_8":"8","03_ages_9":"9","03_ages_10":"10","03_ages_11":"11","03_ages_12":"12","03_ages_13":"13","04":"Yes","04_ages_1":"1","04_ages_2":"2","04_ages_3":"3","04_ages_4":"4","04_ages_5":"5","04_ages_6":"6","04_ages_7":"7","04_ages_8":"8","04_ages_9":"9","04_ages_10":"10","05":"Yes","05_ages_1":"1","05_ages_2":"2","05_ages_3":"3","05_ages_4":"4","05_ages_5":"5","05_ages_6":"6","05_ages_7":"7","05_ages_8":"8","05_ages_9":"9","05_ages_10":"10","05_ages_11":"11","05_ages_12":"12","05_ages_13":"13","06":"No","07":"No","08":"No"},"rt":59460.59999996424,"item_order":[0,1,2,3,4,5,6,7],"radio_events":[7904.799999952316,12120.799999952316,14504.799999952316,27312.69999998808,37072.69999998808,48928.69999998808,53992.59999996424,58536.69999998808],"checkbox_events":[16361,16736.69999998808,17240.799999952316,17880.799999952316,19144.69999998808,19632.799999952316,20097,20704.799999952316,21168.799999952316,21640.799999952316,22456.69999998808,22904.799999952316,23504.799999952316,28176.899999976158,28584.69999998808,29152.599999964237,29728.69999998808,30328.799999952316,30992.69999998808,31504.799999952316,32576.69999998808,34056.69999998808,34560.69999998808,38672.799999952316,39576.69999998808,40176.69999998808,40784.69999998808,41448.69999998808,41928.69999998808,42552.69999998808,42976.799999952316,43416.59999996424,43840.69999998808,44392.69999998808,44816.59999996424,45224.69999998808],"key_events":[],"mouse_events":[7904.799999952316,12120.799999952316,14504.799999952316,15712.799999952316,16361,16736.69999998808,17240.799999952316,17880.799999952316,18336.799999952316,19144.69999998808,19632.799999952316,20097,20704.799999952316,21168.799999952316,21640.799999952316,22096.69999998808,22456.69999998808,22904.799999952316,23504.799999952316,27312.69999998808,28176.899999976158,28584.69999998808,29152.599999964237,29728.69999998808,30328.799999952316,30992.69999998808,31504.799999952316,32008.899999976158,32576.69999998808,33000.69999998808,34056.69999998808,34560.69999998808,37072.69999998808,38672.799999952316,39576.69999998808,40176.69999998808,40784.69999998808,41448.69999998808,41928.69999998808,42552.69999998808,42976.799999952316,43416.59999996424,43840.69999998808,44392.69999998808,44816.59999996424,45224.69999998808,45840.69999998808,48928.69999998808,53992.59999996424,58536.69999998808,59456.89999997616],"honeypot":0,"survey":"mace","page":2,"trial_type":"survey-mace","trial_index":10,"time_elapsed":615506,"internal_node_id":"0.0-10.0","task_version":"prescreen-v0.3","browser_interactions":0},{"responses":{"01":"Yes","01_ages_5":"5","01_ages_6":"6","01_ages_7":"7","01_ages_8":"8","01_ages_9":"9","01_ages_10":"10","02":"No","03":"No","04":"No"},"rt":26738.400000035763,"item_order":[0,1,2,3],"radio_events":[7608.600000023842,22848.600000023842,24880.80000001192,26040.69999998808],"checkbox_events":[11848.600000023842,12304.800000011921,12968.600000023842,13656.600000023842,14112.600000023842,14624.5],"key_events":[],"mouse_events":[7608.600000023842,11848.600000023842,12304.800000011921,12968.600000023842,13656.600000023842,14112.600000023842,14624.5,22848.600000023842,24880.80000001192,26040.69999998808,26736.600000023842],"honeypot":0,"survey":"mace","page":3,"trial_type":"survey-mace","trial_index":11,"time_elapsed":642247,"internal_node_id":"0.0-11.0","task_version":"prescreen-v0.3","browser_interactions":0},{"responses":{"01":"No","02":"No"},"rt":11492.600000023842,"item_order":[0,1],"radio_events":[4707.800000011921,6731.699999988079],"checkbox_events":[],"key_events":[],"mouse_events":[4707.800000011921,6731.699999988079,11491.699999988079],"honeypot":0,"survey":"mace","page":4,"trial_type":"survey-mace","trial_index":12,"time_elapsed":653742,"internal_node_id":"0.0-12.0","task_version":"prescreen-v0.3","browser_interactions":0},{"responses":{"01":"No","02":"No","03":"No","04":"No","05":"No"},"rt":38695.09999996424,"item_order":[0,1,2,3,4],"radio_events":[19372.69999998808,23276.69999998808,28380.69999998808,34444.59999996424,37869.09999996424],"checkbox_events":[],"key_events":[],"mouse_events":[19372.69999998808,23276.69999998808,28380.69999998808,34444.59999996424,37869.09999996424,38692.69999998808],"honeypot":0,"survey":"mace","page":5,"trial_type":"survey-mace","trial_index":13,"time_elapsed":692444,"internal_node_id":"0.0-13.0","task_version":"prescreen-v0.3","browser_interactions":0},{"responses":{"01":"Yes","01_ages_4":"4","01_ages_5":"5","01_ages_6":"6","01_ages_7":"7","01_ages_8":"8","01_ages_9":"9","01_ages_10":"10","02":"Yes","02_ages_6":"6","02_ages_7":"7","02_ages_8":"8","02_ages_9":"9","03":"Yes","03_ages_16":"16","03_ages_17":"17","03_ages_18":"18","04":"Yes","04_ages_18":"18","05":"No"},"rt":53452.19999998808,"item_order":[0,1,2,3,4],"radio_events":[8394,27322.100000023842,37762.10000002384,46954,52442.10000002384],"checkbox_events":[10810.100000023842,14034.100000023842,16018.100000023842,19106.100000023842,19738,20330.100000023842,21210.100000023842,29218,29906.100000023842,31090.100000023842,31834,38722.10000002384,39338,39818,48010],"key_events":[],"mouse_events":[8394,10810.100000023842,14034.100000023842,16018.100000023842,19106.100000023842,19738,20330.100000023842,21210.100000023842,27322.100000023842,29218,29906.100000023842,31090.100000023842,31834,32570,37762.10000002384,38722.10000002384,39338,39818,44058,46954,48010,52442.10000002384,53450],"honeypot":0,"survey":"mace","page":6,"trial_type":"survey-mace","trial_index":14,"time_elapsed":745904,"internal_node_id":"0.0-14.0","task_version":"prescreen-v0.3","browser_interactions":0},{"responses":{"01":"No","02":"No","03":"No","04":"No","05":"No","06":"No","07":"No"},"rt":22444.799999952316,"item_order":[0,1,2,3,4,5,6],"radio_events":[9217.699999988079,12345.599999964237,14633.5,16993.69999998808,18665.69999998808,20409.69999998808,21377.69999998808],"checkbox_events":[],"key_events":[],"mouse_events":[9217.699999988079,11777.699999988079,12345.599999964237,14633.5,16993.69999998808,18665.69999998808,20409.69999998808,21377.69999998808,22441.69999998808],"honeypot":0,"survey":"mace","page":7,"trial_type":"survey-mace","trial_index":15,"time_elapsed":768353,"internal_node_id":"0.0-15.0","task_version":"prescreen-v0.3","browser_interactions":0},{"responses":{"01":"Yes","01_ages_5":"5","01_ages_6":"6","01_ages_7":"7","01_ages_8":"8","01_ages_9":"9","01_ages_10":"10","01_ages_11":"11","01_ages_12":"12","01_ages_13":"13","01_ages_14":"14","01_ages_15":"15","01_ages_16":"16","01_ages_17":"17","01_ages_18":"18","02":"Yes","02_ages_7":"7","02_ages_8":"8","02_ages_9":"9","02_ages_14":"14","02_ages_15":"15","03":"Yes","03_ages_1":"1","03_ages_2":"2","03_ages_3":"3","03_ages_6":"6","03_ages_7":"7","03_ages_8":"8","03_ages_9":"9","03_ages_10":"10","03_ages_11":"11","03_ages_12":"12","03_ages_13":"13","03_ages_14":"14","03_ages_15":"15","03_ages_16":"16","03_ages_17":"17","03_ages_18":"18","04":"No"},"rt":90163.60000002384,"item_order":[0,1,2,3],"radio_events":[24233.5,43249.40000003576,63705.40000003576,86177.5],"checkbox_events":[27417.5,28201.600000023842,28689.5,29241.5,29937.600000023842,30513.69999998808,31089.600000023842,31945.600000023842,32593.5,33217.60000002384,33665.90000003576,34769.5,35513.5,35889.40000003576,47553.60000002384,48209.60000002384,48953.5,52545.60000002384,52953.5,64585.5,65249.5,65713.5,66225.40000003576,66769.60000002384,67161.5,67577.5,67945.30000001192,68873.5,69313.5,69785.5,70689.5,71209.5,71657.5,73401.5,76777.5,77545.60000002384,78089.5,78593.5,79049.60000002384],"key_events":[],"mouse_events":[24233.5,27417.5,28201.600000023842,28689.5,29241.5,29937.600000023842,30513.69999998808,31089.600000023842,31945.600000023842,32593.5,33217.60000002384,33665.90000003576,34065.5,34769.5,35513.5,35889.40000003576,43249.40000003576,47553.60000002384,48209.60000002384,48953.5,52545.60000002384,52953.5,63705.40000003576,64585.5,65249.5,65713.5,66225.40000003576,66769.60000002384,67161.5,67577.5,67945.30000001192,68345.5,68873.5,69313.5,69785.5,70689.5,71209.5,71657.5,73401.5,76777.5,77545.60000002384,78089.5,78593.5,79049.60000002384,86177.5,90161.60000002384],"honeypot":0,"survey":"mace","page":8,"trial_type":"survey-mace","trial_index":16,"time_elapsed":858528,"internal_node_id":"0.0-16.0","task_version":"prescreen-v0.3","browser_interactions":0},{"responses":{"01":"Yes","01_ages_1":"1","01_ages_2":"2","01_ages_3":"3","01_ages_4":"4","01_ages_5":"5","01_ages_6":"6","01_ages_7":"7","01_ages_8":"8","01_ages_9":"9","01_ages_10":"10","01_ages_11":"11","01_ages_12":"12","01_ages_13":"13","01_ages_14":"14","01_ages_15":"15","01_ages_16":"16","01_ages_17":"17","01_ages_18":"18","02":"Yes","02_ages_1":"1","02_ages_2":"2","02_ages_3":"3","02_ages_4":"4","02_ages_5":"5","02_ages_6":"6","02_ages_7":"7","02_ages_8":"8","02_ages_9":"9","02_ages_10":"10","02_ages_11":"11","02_ages_12":"12","02_ages_13":"13","02_ages_14":"14","02_ages_15":"15","02_ages_16":"16","02_ages_17":"17","02_ages_18":"18","03":"Yes","03_ages_1":"1","03_ages_2":"2","03_ages_3":"3","03_ages_4":"4","03_ages_5":"5","03_ages_6":"6","03_ages_7":"7","03_ages_8":"8","03_ages_9":"9","03_ages_10":"10","03_ages_11":"11","03_ages_12":"12","03_ages_13":"13","03_ages_14":"14","03_ages_15":"15","03_ages_16":"16","03_ages_17":"17","03_ages_18":"18","04":"Yes","04_ages_1":"1","04_ages_2":"2","04_ages_3":"3","04_ages_4":"4","04_ages_5":"5","04_ages_6":"6","04_ages_7":"7","04_ages_8":"8","04_ages_9":"9","04_ages_10":"10","04_ages_11":"11","04_ages_12":"12","04_ages_13":"13","04_ages_14":"14","04_ages_15":"15","04_ages_16":"16","04_ages_17":"17","04_ages_18":"18"},"rt":63884.80000001192,"item_order":[0,1,2,3],"radio_events":[4786.800000011921,21482.80000001192,36418.700000047684,51882.700000047684],"checkbox_events":[7634.800000011921,8258.700000047684,8962.900000035763,9586.900000035763,10794.900000035763,11394.900000035763,11970.800000011921,12586.800000011921,13082.900000035763,13570.700000047684,14026.800000011921,14538.900000035763,15034.700000047684,15490.800000011921,16075.100000023842,17003.100000023842,17650.80000001192,18530.80000001192,22866.80000001192,23474.80000001192,24074.700000047684,24522.80000001192,25082.80000001192,25546.80000001192,25914.700000047684,26466.80000001192,27042.700000047684,27418.900000035763,27778.80000001192,28210.700000047684,29443,29834.80000001192,30498.900000035763,31091.30000001192,31722.900000035763,32475,37490.90000003576,38050.80000001192,38594.80000001192,39170.80000001192,39730.80000001192,40354.80000001192,40946.700000047684,41426.80000001192,41890.90000003576,42363.60000002384,42899,43426.700000047684,44378.80000001192,44818.80000001192,45242.90000003576,45810.90000003576,46747,47346.700000047684,52938.80000001192,53346.80000001192,54010.700000047684,54570.80000001192,55570.700000047684,56218.80000001192,56802.80000001192,57466.700000047684,57970.700000047684,58610.80000001192,59066.700000047684,59746.60000002384,60227.30000001192,60994.700000047684,61555.10000002384,62410.90000003576,62890.700000047684,63290.80000001192],"key_events":[],"mouse_events":[4786.800000011921,6986.700000047684,7634.800000011921,8258.700000047684,8962.900000035763,9586.900000035763,10051.100000023842,10794.900000035763,11394.900000035763,11970.800000011921,12586.800000011921,13082.900000035763,13570.700000047684,14026.800000011921,14538.900000035763,15034.700000047684,15490.800000011921,16075.100000023842,16642.900000035763,17003.100000023842,17650.80000001192,18530.80000001192,21482.80000001192,22314.80000001192,22866.80000001192,23474.80000001192,24074.700000047684,24522.80000001192,25082.80000001192,25546.80000001192,25914.700000047684,26466.80000001192,27042.700000047684,27418.900000035763,27778.80000001192,28210.700000047684,28802.80000001192,29443,29834.80000001192,30498.900000035763,31091.30000001192,31426.80000001192,31722.900000035763,32122.80000001192,32475,36418.700000047684,37490.90000003576,38050.80000001192,38594.80000001192,39170.80000001192,39730.80000001192,40354.80000001192,40946.700000047684,41426.80000001192,41890.90000003576,42363.60000002384,42899,43426.700000047684,44018.90000003576,44378.80000001192,44818.80000001192,45242.90000003576,45810.90000003576,46362.60000002384,46747,47346.700000047684,51882.700000047684,52938.80000001192,53346.80000001192,54010.700000047684,54570.80000001192,55082.80000001192,55570.700000047684,56218.80000001192,56802.80000001192,57466.700000047684,57970.700000047684,58610.80000001192,59066.700000047684,59746.60000002384,60227.30000001192,60994.700000047684,61555.10000002384,62410.90000003576,62890.700000047684,63290.80000001192,63882.90000003576],"honeypot":0,"survey":"mace","page":9,"trial_type":"survey-mace","trial_index":17,"time_elapsed":922420,"internal_node_id":"0.0-17.0","task_version":"prescreen-v0.3","browser_interactions":0},{"responses":{"01":"No","02":"No","03":"No","04":"No","05":"No","06":"Yes","06_ages_17":"17","07":"Yes","07_ages_1":"1","07_ages_2":"2","07_ages_3":"3","07_ages_4":"4","07_ages_5":"5","07_ages_6":"6","07_ages_7":"7","07_ages_8":"8","07_ages_9":"9","07_ages_10":"10","07_ages_11":"11","07_ages_12":"12","07_ages_13":"13","07_ages_14":"14","07_ages_15":"15","07_ages_16":"16","07_ages_17":"17","07_ages_18":"18","08":"Yes","08_ages_1":"1","08_ages_2":"2","08_ages_3":"3","08_ages_4":"4","08_ages_5":"5","08_ages_6":"6","08_ages_7":"7","08_ages_8":"8","08_ages_9":"9","08_ages_10":"10","08_ages_11":"11","08_ages_12":"12","08_ages_13":"13","08_ages_14":"14","08_ages_15":"15","08_ages_16":"16","08_ages_17":"17","08_ages_18":"18"},"rt":63654.10000002384,"item_order":[0,1,2,3,4,5,6,7],"radio_events":[6970.5,9042.600000023842,11642.400000035763,16842.400000035763,21746.200000047684,26330.400000035763,33410.60000002384,50186.40000003576],"checkbox_events":[28354.200000047684,34554.30000001192,35170.30000001192,35642.30000001192,36266.30000001192,36930.60000002384,37834.10000002384,39146.30000001192,39986.30000001192,40482.40000003576,40994.30000001192,41442.10000002384,41994.30000001192,42410.30000001192,43018.700000047684,43442.10000002384,44346.30000001192,44930.30000001192,45298.200000047684,51386.30000001192,51986.30000001192,52842.200000047684,53618.200000047684,54098.30000001192,54554.200000047684,55082,55626.10000002384,56466.30000001192,56978.40000003576,57650.200000047684,58074.10000002384,58722.30000001192,59498.200000047684,60186.30000001192,60866.30000001192,61442.30000001192,62002.30000001192],"key_events":[],"mouse_events":[6578.400000035763,6970.5,9042.600000023842,11642.400000035763,16842.400000035763,21746.200000047684,26330.400000035763,28354.200000047684,32506.200000047684,33410.60000002384,34554.30000001192,35170.30000001192,35642.30000001192,36266.30000001192,36930.60000002384,37410.30000001192,37834.10000002384,38514.40000003576,39146.30000001192,39986.30000001192,40482.40000003576,40994.30000001192,41442.10000002384,41994.30000001192,42410.30000001192,43018.700000047684,43442.10000002384,43954.200000047684,44346.30000001192,44930.30000001192,45298.200000047684,50186.40000003576,51386.30000001192,51986.30000001192,52842.200000047684,53618.200000047684,54098.30000001192,54554.200000047684,55082,55626.10000002384,56466.30000001192,56978.40000003576,57650.200000047684,58074.10000002384,58722.30000001192,59498.200000047684,60186.30000001192,60866.30000001192,61442.30000001192,62002.30000001192,63650.5],"honeypot":0,"survey":"mace","page":10,"trial_type":"survey-mace","trial_index":18,"time_elapsed":986081,"internal_node_id":"0.0-18.0","task_version":"prescreen-v0.3","browser_interactions":0,"instructed":0},{"rt":21089.19999998808,"trial_type":"mental-health-alert","trial_index":19,"time_elapsed":1007172,"internal_node_id":"0.0-19.0","task_version":"prescreen-v0.3","interactions":"[]"}]