[{"view_history":[{"page_index":0,"viewing_time":2424.199999988079},{"page_index":1,"viewing_time":3272.900000035763},{"page_index":2,"viewing_time":3516.5},{"page_index":3,"viewing_time":1165.800000011921}],"rt":10380.699999988079,"trial_type":"instructions","trial_index":0,"time_elapsed":10422,"internal_node_id":"0.0-0.0","task_version":"prescreen-v0.3"},{"rt":29213.80000001192,"responses":{"age":"18","gender-categorical":"Female","gender-free-response":"","ethnicity":"Not Hispanic or Latino","race":["Asian"],"education":"Less than high school","siblings":"3"},"trial_type":"survey-demo","trial_index":1,"time_elapsed":39660,"internal_node_id":"0.0-1.0","task_version":"prescreen-v0.3"},{"responses":{"Q15":"2","Q19":"2","Q04":"0","Q14":"1","Q17":"1","Q21":"3","Q09":"1","Q13":"1","Q12":"0","Q02":"2","Q06":"2","Q05":"2","Q16":"2","Q10":"1","Q03":"1","Q20":"0","Q18":"1","Q11":"1","Q07":"0","Q01":"1","Q08":"2"},"rt":145680.10000002384,"item_order":[14,18,3,13,16,20,8,12,11,1,5,4,15,9,2,19,17,10,6,0,7],"radio_events":[6273.699999988079,9550.400000035763,15154.600000023842,18065.100000023842,22220.100000023842,31541.19999998808,37507,43391.90000003576,48256.90000003576,51001.19999998808,55762.80000001192,64900.80000001192,68659.90000003576,112522.60000002384,116660.60000002384,120450.19999998808,121219.30000001192,122929.69999998808,126873.19999998808,128667.80000001192,132130.30000001192,138781.90000003576],"key_events":[],"mouse_events":[6273.699999988079,7606.699999988079,9550.400000035763,15154.600000023842,18065.100000023842,21154.30000001192,22220.100000023842,31541.19999998808,37507,43391.90000003576,45508.80000001192,48256.90000003576,51001.19999998808,54868.69999998808,55762.80000001192,64900.80000001192,67901.30000001192,68659.90000003576,111392.40000003576,112522.60000002384,115886,116660.60000002384,120450.19999998808,121219.30000001192,122929.69999998808,126873.19999998808,128667.80000001192,132130.30000001192,133194.69999998808,138781.90000003576,145676.10000002384],"straightlining":0.42857142857142855,"zigzagging":0.4,"honeypot":0,"survey":"sns","trial_type":"survey-template","trial_index":2,"time_elapsed":185354,"internal_node_id":"0.0-2.0","task_version":"prescreen-v0.3","browser_interactions":2,"infrequency":0},{"responses":{"Q05":"3","Q10":"2","Q04":"2","Q02":"3","Q08":"2","Q13":"0","Q06":"2","Q03":"3","Q01":"2","Q09":"3","Q11":"2","Q07":"2","Q12":"3"},"rt":129787,"item_order":[4,9,3,1,7,12,5,2,0,8,10,6,11],"radio_events":[4385.199999988079,94462.59999996424,99658.09999996424,101791.19999998808,103822,106585.09999996424,110068.79999995232,113666.19999998808,117242.39999997616,119206.29999995232,122141.89999997616,124742.5,128134.79999995232],"key_events":[88247.69999998808],"mouse_events":[4385.199999988079,94462.59999996424,97386.19999998808,98815.5,99658.09999996424,101791.19999998808,103822,106585.09999996424,110068.79999995232,113666.19999998808,117242.39999997616,119206.29999995232,122141.89999997616,124742.5,128134.79999995232,129783.09999996424],"straightlining":0.5384615384615384,"zigzagging":0.6666666666666666,"honeypot":0,"survey":"bisbas","trial_type":"survey-template","trial_index":3,"time_elapsed":315149,"internal_node_id":"0.0-3.0","task_version":"prescreen-v0.3","browser_interactions":2,"infrequency":0},{"responses":{"Q01":"2","Q02":"4","Q03":"4"},"rt":225562,"radio_events":[11228.800000011921,107929.39999997616,109900.19999998808],"key_events":[],"mouse_events":[9772,11228.800000011921,107929.39999997616,109900.19999998808,225560],"survey":"map","page":1,"trial_type":"survey-map","trial_index":4,"time_elapsed":540721,"internal_node_id":"0.0-4.0","task_version":"prescreen-v0.3","browser_interactions":2},{"responses":{"Q04":"3","Q05":"3","Q06":"4"},"rt":34985.89999997616,"radio_events":[3500.699999988079,6836.599999964237,9027.099999964237,10231.800000011921,13758.300000011921],"key_events":[],"mouse_events":[3500.699999988079,6836.599999964237,9027.099999964237,10231.800000011921,12777.599999964237,13758.300000011921,34984.5],"survey":"map","page":2,"trial_type":"survey-map","trial_index":5,"time_elapsed":575725,"internal_node_id":"0.0-5.0","task_version":"prescreen-v0.3","browser_interactions":0},{"responses":{"Q07":"3","Q08":"0","Q09":"2"},"rt":57428.40000003576,"radio_events":[35460.30000001192,50716.700000047684,53965,56394.200000047684],"key_events":[],"mouse_events":[35460.30000001192,50716.700000047684,52707,53965,56394.200000047684,57427.200000047684],"survey":"map","page":3,"trial_type":"survey-map","trial_index":6,"time_elapsed":633156,"internal_node_id":"0.0-6.0","task_version":"prescreen-v0.3","browser_interactions":0},{"responses":{"Q10":"3","Q11":"3","Q12":"4","Q13":"3","Q16":"0","Q14":"4","Q15":"4"},"rt":33363.80000001192,"radio_events":[7650,10601.100000023842,11686,14022.700000047684,17566,30867.600000023842,32689.80000001192],"key_events":[],"mouse_events":[7650,8551.200000047684,9777.400000035763,10601.100000023842,11686,14022.700000047684,17566,25657.400000035763,27486.200000047684,29307.100000023842,29978.30000001192,30867.600000023842,31894.30000001192,32689.80000001192,33361.80000001192],"survey":"map","page":4,"trial_type":"survey-map","trial_index":7,"time_elapsed":666526,"internal_node_id":"0.0-7.0","task_version":"prescreen-v0.3","browser_interactions":0,"infrequency":0},{"view_history":[{"page_index":0,"viewing_time":1786.5},{"page_index":1,"viewing_time":3319.400000035763}],"rt":5107.300000011921,"trial_type":"instructions","trial_index":8,"time_elapsed":671649,"internal_node_id":"0.0-8.0","task_version":"prescreen-v0.3"},{"responses":{"01":"Yes","01_ages_9":"9","01_ages_10":"10","01_ages_11":"11","01_ages_12":"12","02":"No","03":"No","04":"Yes","04_ages_13":"13","05":"No","06":"Yes","06_ages_11":"11","06_ages_12":"12","06_ages_13":"13"},"rt":49073.89999997616,"item_order":[0,1,2,3,4,5],"radio_events":[2756.099999964237,17789.599999964237,22390.80000001192,24365.80000001192,32208.5,42100.39999997616],"checkbox_events":[5963.5,7935.300000011921,9123.300000011921,10119.5,11027.5,12015.899999976158,26130.399999976158,43913.89999997616,44598,45353.69999998808],"key_events":[],"mouse_events":[0.3999999761581421,2756.099999964237,5963.5,7122.899999976158,7935.300000011921,9123.300000011921,10119.5,11027.5,12015.899999976158,17789.599999964237,20902.899999976158,22390.80000001192,23540.30000001192,24365.80000001192,26130.399999976158,31355.69999998808,32208.5,42100.39999997616,43913.89999997616,44598,45353.69999998808,49067.69999998808],"honeypot":0,"survey":"mace","page":1,"trial_type":"survey-mace","trial_index":9,"time_elapsed":720786,"internal_node_id":"0.0-9.0","task_version":"prescreen-v0.3","browser_interactions":0},{"responses":{"01":"Yes","01_ages_8":"8","01_ages_9":"9","01_ages_10":"10","01_ages_11":"11","02":"No","03":"Yes","03_ages_5":"5","03_ages_6":"6","03_ages_7":"7","03_ages_8":"8","03_ages_9":"9","04":"Yes","04_ages_11":"11","05":"Yes","05_ages_11":"11","05_ages_12":"12","05_ages_13":"13","06":"No","06_ages_15":"15","06_ages_16":"16","07":"No","08":"No"},"rt":151873.60000002384,"item_order":[0,1,2,3,4,5,6,7],"radio_events":[8992.800000011921,17305.80000001192,19194.80000001192,116105,120796,128775.10000002384,135596,146637.90000003576,147920.19999998808,150884.60000002384],"checkbox_events":[10675.600000023842,11301,11940.100000023842,13673.300000011921,20984.900000035763,21618.80000001192,22301,22942.100000023842,23646.600000023842,117184.10000002384,121841,122503.90000003576,124521.5,130234.30000001192,131263],"key_events":[],"mouse_events":[8992.800000011921,10675.600000023842,11301,11940.100000023842,13673.300000011921,17305.80000001192,19194.80000001192,20984.900000035763,21618.80000001192,22301,22942.100000023842,23646.600000023842,116105,117184.10000002384,120796,121841,122503.90000003576,123104.19999998808,124521.5,128174.80000001192,128775.10000002384,130234.30000001192,131263,134288.30000001192,135596,146637.90000003576,147920.19999998808,150884.60000002384,151865.30000001192],"honeypot":0,"survey":"mace","page":2,"trial_type":"survey-mace","trial_index":10,"time_elapsed":872666,"internal_node_id":"0.0-10.0","task_version":"prescreen-v0.3","browser_interactions":2},{"responses":{"01":"Yes","01_ages_10":"10","01_ages_15":"15","02":"No","03":"No","04":"No"},"rt":13499.599999964237,"item_order":[0,1,2,3],"radio_events":[4241.300000011921,8299.5,10375.800000011921,11101],"checkbox_events":[5382.199999988079,6584],"key_events":[],"mouse_events":[4241.300000011921,5382.199999988079,6584,8299.5,9524.099999964237,10375.800000011921,11101,13495.800000011921],"honeypot":0,"survey":"mace","page":3,"trial_type":"survey-mace","trial_index":11,"time_elapsed":886173,"internal_node_id":"0.0-11.0","task_version":"prescreen-v0.3","browser_interactions":0},{"responses":{"01":"No","02":"No"},"rt":5121.599999964237,"item_order":[0,1],"radio_events":[2147.5,4204.5],"checkbox_events":[],"key_events":[],"mouse_events":[2147.5,4204.5,5118.899999976158],"honeypot":0,"survey":"mace","page":4,"trial_type":"survey-mace","trial_index":12,"time_elapsed":891300,"internal_node_id":"0.0-12.0","task_version":"prescreen-v0.3","browser_interactions":0},{"responses":{"01":"No","02":"No","03":"No","04":"No","05":"No"},"rt":75753.89999997616,"item_order":[0,1,2,3,4],"radio_events":[8784.099999964237,9725.899999976158,29274.399999976158,30259.399999976158,49004.19999998808,52118.5],"checkbox_events":[],"key_events":[],"mouse_events":[8784.099999964237,9725.899999976158,21988,24121.5,29274.399999976158,30259.399999976158,49004.19999998808,52118.5,75749],"honeypot":0,"survey":"mace","page":5,"trial_type":"survey-mace","trial_index":13,"time_elapsed":967061,"internal_node_id":"0.0-13.0","task_version":"prescreen-v0.3","browser_interactions":0},{"responses":{"01":"Yes","01_ages_14":"14","01_ages_15":"15","02":"Yes","02_ages_10":"10","02_ages_11":"11","02_ages_12":"12","02_ages_13":"13","02_ages_14":"14","02_ages_15":"15","03":"Yes","03_ages_5":"5","03_ages_6":"6","03_ages_9":"9","03_ages_10":"10","03_ages_13":"13","03_ages_14":"14","03_ages_15":"15","03_ages_16":"16","03_ages_17":"17","03_ages_18":"18","04":"No","05":"Yes","05_ages_13":"13","05_ages_14":"14","05_ages_15":"15"},"rt":41671.80000001192,"item_order":[0,1,2,3,4],"radio_events":[4031.600000023842,8373.899999976158,16688.899999976158,29596,33585.80000001192],"checkbox_events":[5128.800000011921,5859.300000011921,9432.100000023842,9970.199999988079,10580.800000011921,11165.300000011921,11739.100000023842,12400.300000011921,18701.80000001192,19575.600000023842,21444.5,22095.600000023842,22900.80000001192,23500,24134.600000023842,24786,25633.600000023842,26231.899999976158,36620.69999998808,37708.89999997616,38739.60000002384],"key_events":[],"mouse_events":[4031.600000023842,5128.800000011921,5859.300000011921,8373.899999976158,9432.100000023842,9970.199999988079,10580.800000011921,11165.300000011921,11739.100000023842,12400.300000011921,16054.300000011921,16688.899999976158,17944,18701.80000001192,19575.600000023842,20789.5,21444.5,22095.600000023842,22900.80000001192,23500,24134.600000023842,24786,25633.600000023842,26231.899999976158,29596,33020.10000002384,33585.80000001192,34536.60000002384,35420.5,36620.69999998808,37708.89999997616,38739.60000002384,41666.30000001192],"honeypot":0,"survey":"mace","page":6,"trial_type":"survey-mace","trial_index":14,"time_elapsed":1008739,"internal_node_id":"0.0-14.0","task_version":"prescreen-v0.3","browser_interactions":0},{"responses":{"01":"No","02":"Yes","02_ages_11":"11","02_ages_12":"12","03":"Yes","03_ages_12":"12","03_ages_13":"13","03_ages_14":"14","04":"Yes","04_ages_11":"11","04_ages_12":"12","04_ages_13":"13","04_ages_14":"14","05":"No","06":"No","07":"Yes","07_ages_15":"15","07_ages_16":"16"},"rt":107010.90000003576,"item_order":[0,1,2,3,4,5,6],"radio_events":[71038,71693.80000001192,73541.70000004768,77941.40000003576,82391,87589.70000004768,88333.60000002384,89701.60000002384,95733.80000001192,100925,101901.60000002384],"checkbox_events":[74382.5,74910.70000004768,78590.30000001192,79038,79646.40000003576,83469.70000004768,84117.5,84757.80000001192,85229.70000004768,103342.10000002384,104221.30000001192],"key_events":[],"mouse_events":[71038,71693.80000001192,72805.70000004768,73541.70000004768,74382.5,74910.70000004768,76006.5,77941.40000003576,78590.30000001192,79038,79646.40000003576,82391,83469.70000004768,84117.5,84757.80000001192,85229.70000004768,87589.70000004768,88333.60000002384,89109.5,89701.60000002384,95389.5,95733.80000001192,100925,101901.60000002384,103342.10000002384,104221.30000001192,107005.90000003576],"honeypot":0,"survey":"mace","page":7,"trial_type":"survey-mace","trial_index":15,"time_elapsed":1115764,"internal_node_id":"0.0-15.0","task_version":"prescreen-v0.3","browser_interactions":4},{"responses":{"01":"Yes","01_ages_1":"1","01_ages_2":"2","01_ages_3":"3","01_ages_4":"4","01_ages_5":"5","01_ages_6":"6","01_ages_7":"7","01_ages_8":"8","01_ages_9":"9","01_ages_10":"10","01_ages_11":"11","01_ages_12":"12","01_ages_13":"13","01_ages_14":"14","01_ages_15":"15","01_ages_16":"16","01_ages_17":"17","01_ages_18":"18","02":"Yes","02_ages_11":"11","02_ages_12":"12","02_ages_13":"13","02_ages_14":"14","02_ages_15":"15","02_ages_16":"16","02_ages_17":"17","02_ages_18":"18","03":"No","04":"No"},"rt":29231.19999998808,"item_order":[0,1,2,3],"radio_events":[5420.400000035763,18588.100000023842,27084.400000035763,28701.100000023842],"checkbox_events":[7212.199999988079,7764.100000023842,8140.199999988079,8556.100000023842,9124.300000011921,10245,10612.5,11116.600000023842,11652.400000035763,12332.800000011921,12829.600000023842,13525,14044.199999988079,14669,15308.5,15876.300000011921,16476.400000035763,17236.80000001192,20108.19999998808,20588.30000001192,21188.900000035763,22077.30000001192,22764.80000001192,23276.30000001192,23723.80000001192,24372.30000001192],"key_events":[],"mouse_events":[5420.400000035763,7212.199999988079,7764.100000023842,8140.199999988079,8556.100000023842,9124.300000011921,9508.300000011921,10245,10612.5,11116.600000023842,11652.400000035763,12332.800000011921,12829.600000023842,13525,14044.199999988079,14669,15308.5,15876.300000011921,16476.400000035763,17236.80000001192,18588.100000023842,20108.19999998808,20588.30000001192,21188.900000035763,22077.30000001192,22764.80000001192,23276.30000001192,23723.80000001192,24372.30000001192,27084.400000035763,28701.100000023842,29228.600000023842],"honeypot":0,"survey":"mace","page":8,"trial_type":"survey-mace","trial_index":16,"time_elapsed":1145001,"internal_node_id":"0.0-16.0","task_version":"prescreen-v0.3","browser_interactions":0},{"responses":{"01":"No","01_ages_11":"11","02":"No","03":"No","04":"Yes","04_ages_14":"14"},"rt":17857,"item_order":[0,1,2,3],"radio_events":[3302.900000035763,6790.900000035763,9023.100000023842,10294.900000035763,13374.800000011921,15103],"checkbox_events":[4198.900000035763,16632.100000023842],"key_events":[],"mouse_events":[3302.900000035763,4198.900000035763,4663.100000023842,6055.400000035763,6790.900000035763,9023.100000023842,10294.900000035763,12279.199999988079,13374.800000011921,15103,16632.100000023842,17854.69999998808],"honeypot":0,"survey":"mace","page":9,"trial_type":"survey-mace","trial_index":17,"time_elapsed":1162863,"internal_node_id":"0.0-17.0","task_version":"prescreen-v0.3","browser_interactions":0},{"responses":{"01":"No","02":"No","03":"Yes","03_ages_16":"16","03_ages_17":"17","03_ages_18":"18","04":"Yes","04_ages_18":"18","05":"Yes","05_ages_17":"17","05_ages_18":"18","06":"Yes","06_ages_17":"17","07":"No","08":"No"},"rt":31517.5,"item_order":[0,1,2,3,4,5,6,7],"radio_events":[2568.5,6288.699999988079,8808.300000011921,14816.199999988079,19736.19999998808,23320.399999976158,28832.599999964237,30392.099999964237],"checkbox_events":[10264.699999988079,11432,12040,16257.199999988079,20640.5,21304.399999976158,25240.399999976158],"key_events":[],"mouse_events":[2568.5,6288.699999988079,8808.300000011921,9824.300000011921,10264.699999988079,11024.5,11432,12040,14816.199999988079,16257.199999988079,19736.19999998808,20640.5,21304.399999976158,23320.399999976158,25240.399999976158,28832.599999964237,30392.099999964237,31512.599999964237],"honeypot":0,"survey":"mace","page":10,"trial_type":"survey-mace","trial_index":18,"time_elapsed":1194386,"internal_node_id":"0.0-18.0","task_version":"prescreen-v0.3","browser_interactions":0,"instructed":0},{"rt":3966.5,"trial_type":"mental-health-alert","trial_index":19,"time_elapsed":1198402,"internal_node_id":"0.0-19.0","task_version":"prescreen-v0.3","interactions":"[{\"event\":\"blur\",\"trial\":2,\"time\":117609},{\"event\":\"focus\",\"trial\":2,\"time\":148466},{\"event\":\"blur\",\"trial\":3,\"time\":196747},{\"event\":\"focus\",\"trial\":3,\"time\":273513},{\"event\":\"blur\",\"trial\":4,\"time\":367773},{\"event\":\"focus\",\"trial\":4,\"time\":392467},{\"event\":\"blur\",\"trial\":10,\"time\":747242},{\"event\":\"focus\",\"trial\":10,\"time\":833318},{\"event\":\"blur\",\"trial\":15,\"time\":1058182},{\"event\":\"focus\",\"trial\":15,\"time\":1079739},{\"event\":\"blur\",\"trial\":15,\"time\":1114797},{\"event\":\"focus\",\"trial\":15,\"time\":1115104}]"}]