[{"view_history":[{"page_index":0,"viewing_time":11401.299999952316},{"page_index":1,"viewing_time":21351.5},{"page_index":2,"viewing_time":3280},{"page_index":3,"viewing_time":7575.800000011921},{"page_index":2,"viewing_time":6095.900000035763},{"page_index":3,"viewing_time":10552}],"rt":60257.39999997616,"trial_type":"instructions","trial_index":0,"time_elapsed":60292,"internal_node_id":"0.0-0.0","task_version":"prescreen-v0.3"},{"rt":83290.39999997616,"responses":{"age":"42","gender-categorical":"Male","gender-free-response":"","ethnicity":"Not Hispanic or Latino","race":["White"],"education":"Master degree or higher","siblings":"1"},"trial_type":"survey-demo","trial_index":1,"time_elapsed":143589,"internal_node_id":"0.0-1.0","task_version":"prescreen-v0.3"},{"responses":{"Q18":"0","Q14":"1","Q07":"0","Q02":"0","Q13":"1","Q12":"0","Q19":"0","Q04":"0","Q03":"0","Q11":"0","Q20":"1","Q05":"0","Q17":"0","Q08":"0","Q21":"3","Q06":"0","Q09":"0","Q10":"0","Q01":"0","Q15":"1","Q16":"1"},"rt":344609.5,"item_order":[17,13,6,1,12,11,18,3,2,10,19,4,16,7,20,5,8,9,0,14,15],"radio_events":[12873.099999964237,19472.799999952316,38976.89999997616,43320.89999997616,48176.89999997616,54288.799999952316,68552.79999995232,93832.59999996424,97824.69999998808,102064.69999998808,110848.69999998808,126000.29999995232,132408.5,135392.39999997616,163816,171712.29999995232,174936.29999995232,181360.09999996424,183632.09999996424,190528,197543.89999997616,334575.39999997616],"key_events":[],"mouse_events":[12873.099999964237,19472.799999952316,38976.89999997616,43320.89999997616,48176.89999997616,54288.799999952316,65321.19999998808,68552.79999995232,76897.39999997616,93832.59999996424,97824.69999998808,100952.69999998808,102064.69999998808,110848.69999998808,126000.29999995232,132408.5,135392.39999997616,151112.39999997616,163816,171712.29999995232,174936.29999995232,179216.69999998808,181360.09999996424,183632.09999996424,190528,197543.89999997616,226040.09999996424,300983.2999999523,333903.1999999881,334575.39999997616,344607.2999999523],"straightlining":0.7142857142857143,"zigzagging":0.45,"honeypot":0,"survey":"sns","trial_type":"survey-template","trial_index":2,"time_elapsed":488205,"internal_node_id":"0.0-2.0","task_version":"prescreen-v0.3","browser_interactions":14,"infrequency":0},{"responses":{"Q11":"2","Q07":"3","Q08":"3","Q12":"2","Q06":"3","Q09":"3","Q02":"3","Q13":"0","Q05":"3","Q04":"3","Q10":"2","Q01":"3","Q03":"3"},"rt":174601.59999996424,"item_order":[10,6,7,11,5,8,1,12,4,3,9,0,2],"radio_events":[11697.5,15376.899999976158,21777,28376.899999976158,33064.799999952316,39721,43968.89999997616,81944.89999997616,84944.69999998808,89880.5,93312.5,95752.59999996424,99880.59999996424],"key_events":[],"mouse_events":[11697.5,15376.899999976158,21777,28376.899999976158,33064.799999952316,39721,43968.89999997616,81944.89999997616,84944.69999998808,89880.5,93312.5,95752.59999996424,99880.59999996424,168664.5,174600.39999997616],"straightlining":0.6923076923076923,"zigzagging":0.5833333333333334,"honeypot":0,"survey":"bisbas","trial_type":"survey-template","trial_index":3,"time_elapsed":662810,"internal_node_id":"0.0-3.0","task_version":"prescreen-v0.3","browser_interactions":4,"infrequency":0},{"responses":{"Q01":"4","Q02":"4","Q03":"4"},"rt":110690.19999998808,"radio_events":[12634.300000011921,16849.900000035763,23865.69999998808],"key_events":[],"mouse_events":[12634.300000011921,16849.900000035763,23865.69999998808,53137.90000003576,86649.69999998808,110689.30000001192],"survey":"map","page":1,"trial_type":"survey-map","trial_index":4,"time_elapsed":773504,"internal_node_id":"0.0-4.0","task_version":"prescreen-v0.3","browser_interactions":6},{"responses":{"Q04":"3","Q05":"2","Q06":"3"},"rt":100028.69999998808,"radio_events":[11236.300000011921,15620.399999976158,21020.19999998808,25892.19999998808,32844.19999998808],"key_events":[],"mouse_events":[11236.300000011921,15620.399999976158,21020.19999998808,25892.19999998808,31980.600000023842,32844.19999998808,91380.10000002384,100028],"survey":"map","page":2,"trial_type":"survey-map","trial_index":5,"time_elapsed":873535,"internal_node_id":"0.0-5.0","task_version":"prescreen-v0.3","browser_interactions":4},{"responses":{"Q07":"4","Q08":"0","Q09":"2"},"rt":113797.10000002384,"radio_events":[18116.80000001192,24236.69999998808,56892.60000002384],"key_events":[],"mouse_events":[18116.80000001192,24236.69999998808,56892.60000002384,113796.39999997616],"survey":"map","page":3,"trial_type":"survey-map","trial_index":6,"time_elapsed":987335,"internal_node_id":"0.0-6.0","task_version":"prescreen-v0.3","browser_interactions":4},{"responses":{"Q10":"4","Q11":"4","Q12":"2","Q13":"4","Q16":"0","Q14":"3","Q15":"2"},"rt":315099.7999999523,"radio_events":[42772.39999997616,46212.59999996424,189195.69999998808,196843.5,201235.59999996424,209763.39999997616,218587.29999995232],"key_events":[],"mouse_events":[42772.39999997616,46212.59999996424,189195.69999998808,196843.5,201235.59999996424,209763.39999997616,218587.29999995232,315098.7999999523],"survey":"map","page":4,"trial_type":"survey-map","trial_index":7,"time_elapsed":1302437,"internal_node_id":"0.0-7.0","task_version":"prescreen-v0.3","browser_interactions":4,"infrequency":0},{"view_history":[{"page_index":0,"viewing_time":312675.39999997616},{"page_index":1,"viewing_time":12863.600000023842}],"rt":325540,"trial_type":"instructions","trial_index":8,"time_elapsed":1627979,"internal_node_id":"0.0-8.0","task_version":"prescreen-v0.3"},{"responses":{"01":"No","02":"No","03":"No","04":"No","05":"No","06":"No"},"rt":105060.5,"item_order":[0,1,2,3,4,5],"radio_events":[13345.100000023842,19168.80000001192,23480.900000035763,27904.600000023842,31456.80000001192,35616.700000047684],"checkbox_events":[],"key_events":[],"mouse_events":[0.20000004768371582,13345.100000023842,19168.80000001192,23480.900000035763,27904.600000023842,31456.80000001192,35616.700000047684,99592.10000002384,105056.60000002384],"honeypot":0,"survey":"mace","page":1,"trial_type":"survey-mace","trial_index":9,"time_elapsed":1733048,"internal_node_id":"0.0-9.0","task_version":"prescreen-v0.3","browser_interactions":4},{"responses":{"01":"No","02":"No","03":"No","04":"No","05":"No","06":"No","07":"No","08":"No"},"rt":122952.19999998808,"item_order":[0,1,2,3,4,5,6,7],"radio_events":[9277.300000011921,14693.300000011921,17957.099999964237,21437.099999964237,25853,28709.30000001192,31789.099999964237,34725.09999996424],"checkbox_events":[],"key_events":[],"mouse_events":[9277.300000011921,14693.300000011921,17957.099999964237,21437.099999964237,25853,28709.30000001192,31789.099999964237,34725.09999996424,122948.69999998808],"honeypot":0,"survey":"mace","page":2,"trial_type":"survey-mace","trial_index":10,"time_elapsed":1856005,"internal_node_id":"0.0-10.0","task_version":"prescreen-v0.3","browser_interactions":0},{"responses":{"01":"No","02":"No","03":"No","04":"No"},"rt":104594,"item_order":[0,1,2,3],"radio_events":[11248.899999976158,19088.69999998808,23304.599999964237,27728.599999964237],"checkbox_events":[],"key_events":[],"mouse_events":[11248.899999976158,19088.69999998808,23304.599999964237,27728.599999964237,104592.19999998808],"honeypot":0,"survey":"mace","page":3,"trial_type":"survey-mace","trial_index":11,"time_elapsed":1960603,"internal_node_id":"0.0-11.0","task_version":"prescreen-v0.3","browser_interactions":2},{"responses":{"01":"No","02":"No"},"rt":46787.69999998808,"item_order":[0,1],"radio_events":[7698.899999976158,12146.699999988079],"checkbox_events":[],"key_events":[],"mouse_events":[7698.899999976158,12146.699999988079,46786.60000002384],"honeypot":0,"survey":"mace","page":4,"trial_type":"survey-mace","trial_index":12,"time_elapsed":2007394,"internal_node_id":"0.0-12.0","task_version":"prescreen-v0.3","browser_interactions":2},{"responses":{"01":"No","02":"No","03":"No","04":"No","05":"No"},"rt":82637.40000003576,"item_order":[0,1,2,3,4],"radio_events":[14963.5,21083.30000001192,34659.200000047684,45491.200000047684,53179.200000047684],"checkbox_events":[],"key_events":[],"mouse_events":[14963.5,21083.30000001192,34659.200000047684,45491.200000047684,53179.200000047684,82635.10000002384],"honeypot":0,"survey":"mace","page":5,"trial_type":"survey-mace","trial_index":13,"time_elapsed":2090035,"internal_node_id":"0.0-13.0","task_version":"prescreen-v0.3","browser_interactions":0},{"responses":{"01":"Yes","01_ages_10":"10","01_ages_11":"11","01_ages_12":"12","01_ages_13":"13","01_ages_14":"14","01_ages_15":"15","01_ages_16":"16","01_ages_17":"17","02":"Yes","02_ages_10":"10","02_ages_11":"11","02_ages_12":"12","02_ages_13":"13","02_ages_14":"14","02_ages_15":"15","02_ages_16":"16","02_ages_17":"17","03":"No","04":"Yes","04_ages_13":"13","04_ages_14":"14","04_ages_15":"15","05":"Yes","05_ages_10":"10","05_ages_11":"11","05_ages_12":"12","05_ages_13":"13","05_ages_14":"14","05_ages_15":"15"},"rt":272971.8000000119,"item_order":[0,1,2,3,4],"radio_events":[13809.300000011921,52057.30000001192,76881,89913.10000002384,102297],"checkbox_events":[34457.60000002384,35057.80000001192,35761.40000003576,36561.5,37313.40000003576,38137.40000003576,47769.10000002384,59521.5,60425.200000047684,61001.30000001192,63073.200000047684,63617.200000047684,64161.200000047684,64785.10000002384,65537.20000004768,66217.10000002384,94265.20000004768,95041.20000004768,95633,105376.90000003576,106016.80000001192,106752.80000001192,110456.80000001192,111032.80000001192,111672.80000001192],"key_events":[],"mouse_events":[13809.300000011921,34457.60000002384,35057.80000001192,35761.40000003576,36561.5,37313.40000003576,38137.40000003576,47769.10000002384,52057.30000001192,59521.5,60425.200000047684,61001.30000001192,61673.30000001192,62457.10000002384,63073.200000047684,63617.200000047684,64161.200000047684,64785.10000002384,65537.20000004768,66217.10000002384,76881,89913.10000002384,94265.20000004768,95041.20000004768,95633,102297,104592.80000001192,105376.90000003576,106016.80000001192,106752.80000001192,110456.80000001192,111032.80000001192,111672.80000001192,272968.60000002384],"honeypot":0,"survey":"mace","page":6,"trial_type":"survey-mace","trial_index":14,"time_elapsed":2363011,"internal_node_id":"0.0-14.0","task_version":"prescreen-v0.3","browser_interactions":6},{"responses":{"01":"No","02":"No","03":"Yes","03_ages_10":"10","03_ages_13":"13","03_ages_17":"17","04":"No","05":"No","06":"No","07":"No"},"rt":212584,"item_order":[0,1,2,3,4,5,6],"radio_events":[14629.900000035763,18325.900000035763,45709.90000003576,46573.700000047684,49221.60000002384,51037.80000001192,60037.60000002384],"checkbox_events":[28181.900000035763,92349.5,104277.30000001192],"key_events":[],"mouse_events":[14629.900000035763,18325.900000035763,28181.900000035763,41614,45709.90000003576,46573.700000047684,49221.60000002384,51037.80000001192,60037.60000002384,92349.5,104277.30000001192,212581],"honeypot":0,"survey":"mace","page":7,"trial_type":"survey-mace","trial_index":15,"time_elapsed":2575600,"internal_node_id":"0.0-15.0","task_version":"prescreen-v0.3","browser_interactions":4},{"responses":{"01":"No","02":"No","03":"No","04":"No"},"rt":139418.40000003576,"item_order":[0,1,2,3],"radio_events":[15193.400000035763,30272.900000035763,33793.200000047684,37561],"checkbox_events":[],"key_events":[],"mouse_events":[15193.400000035763,30272.900000035763,33793.200000047684,37561,139416.5],"honeypot":0,"survey":"mace","page":8,"trial_type":"survey-mace","trial_index":16,"time_elapsed":2715022,"internal_node_id":"0.0-16.0","task_version":"prescreen-v0.3","browser_interactions":4},{"responses":{"01":"Yes","01_ages_1":"1","01_ages_2":"2","01_ages_3":"3","01_ages_4":"4","01_ages_5":"5","01_ages_6":"6","01_ages_7":"7","01_ages_8":"8","01_ages_9":"9","01_ages_10":"10","01_ages_11":"11","01_ages_12":"12","01_ages_13":"13","01_ages_14":"14","01_ages_15":"15","01_ages_16":"16","01_ages_17":"17","01_ages_18":"18","02":"Yes","02_ages_1":"1","02_ages_2":"2","02_ages_3":"3","02_ages_4":"4","02_ages_5":"5","02_ages_6":"6","02_ages_7":"7","02_ages_8":"8","02_ages_9":"9","02_ages_10":"10","02_ages_11":"11","02_ages_12":"12","02_ages_13":"13","02_ages_14":"14","02_ages_15":"15","02_ages_16":"16","02_ages_17":"17","02_ages_18":"18","03":"Yes","03_ages_1":"1","03_ages_2":"2","03_ages_3":"3","03_ages_4":"4","03_ages_5":"5","03_ages_6":"6","03_ages_7":"7","03_ages_8":"8","03_ages_9":"9","03_ages_10":"10","03_ages_11":"11","03_ages_12":"12","03_ages_13":"13","03_ages_14":"14","03_ages_15":"15","03_ages_16":"16","03_ages_17":"17","03_ages_18":"18","04":"Yes","04_ages_1":"1","04_ages_2":"2","04_ages_3":"3","04_ages_4":"4","04_ages_5":"5","04_ages_6":"6","04_ages_7":"7","04_ages_8":"8","04_ages_9":"9","04_ages_10":"10","04_ages_11":"11","04_ages_12":"12","04_ages_13":"13","04_ages_14":"14","04_ages_15":"15","04_ages_16":"16","04_ages_17":"17","04_ages_18":"18"},"rt":130796.09999996424,"item_order":[0,1,2,3],"radio_events":[9458.899999976158,26778.899999976158,44906.59999996424,64962.69999998808],"checkbox_events":[12290.899999976158,12803.099999964237,13346.800000011921,13891,14434.800000011921,15810.899999976158,16259,16795.19999998808,17370.899999976158,17890.899999976158,19506.80000001192,20090.899999976158,20803,22131,22659,23146.899999976158,23778.899999976158,24858.80000001192,28635,29426.899999976158,29978.899999976158,30498.80000001192,32202.69999998808,32747,33314.80000001192,33914.80000001192,34443,35626.80000001192,36258.89999997616,37818.80000001192,38650.59999996424,39122.5,39594.59999996424,40258.69999998808,40874.80000001192,41786.59999996424,46410.80000001192,46970.39999997616,49058.80000001192,49626.5,50322.69999998808,51098.69999998808,51746.59999996424,52466.80000001192,53202.69999998808,53986.80000001192,54626.69999998808,55234.69999998808,56042.89999997616,56738.59999996424,57634.80000001192,58618.5,59434.39999997616,60378.69999998808,66402.5,67066.59999996424,67626.59999996424,68186.89999997616,68706.5,69290.59999996424,69866.59999996424,72258.59999996424,72946.5,74394.39999997616,74882.5,75394.30000001192,76018.5,76634.59999996424,77794.39999997616,78418.5,79178.39999997616,80090.69999998808],"key_events":[],"mouse_events":[9458.899999976158,12290.899999976158,12803.099999964237,13346.800000011921,13891,14434.800000011921,15034.899999976158,15810.899999976158,16259,16795.19999998808,17370.899999976158,17890.899999976158,18634.899999976158,19506.80000001192,20090.899999976158,20803,22131,22659,23146.899999976158,23778.899999976158,24858.80000001192,26778.899999976158,28635,29426.899999976158,29978.899999976158,30498.80000001192,31051,32202.69999998808,32747,33314.80000001192,33914.80000001192,34443,34995,35626.80000001192,36258.89999997616,37074.59999996424,37818.80000001192,38650.59999996424,39122.5,39594.59999996424,40258.69999998808,40874.80000001192,41786.59999996424,44906.59999996424,46410.80000001192,46970.39999997616,47602.69999998808,48466.5,49058.80000001192,49626.5,50322.69999998808,51098.69999998808,51746.59999996424,52466.80000001192,53202.69999998808,53986.80000001192,54626.69999998808,55234.69999998808,56042.89999997616,56738.59999996424,57634.80000001192,58618.5,59434.39999997616,60378.69999998808,64962.69999998808,66402.5,67066.59999996424,67626.59999996424,68186.89999997616,68706.5,69290.59999996424,69866.59999996424,72258.59999996424,72946.5,73522.30000001192,74394.39999997616,74882.5,75394.30000001192,76018.5,76634.59999996424,77794.39999997616,78418.5,79178.39999997616,80090.69999998808,130794.30000001192],"honeypot":0,"survey":"mace","page":9,"trial_type":"survey-mace","trial_index":17,"time_elapsed":2845821,"internal_node_id":"0.0-17.0","task_version":"prescreen-v0.3","browser_interactions":0},{"responses":{"01":"No","02":"No","03":"No","04":"No","05":"No","06":"Yes","06_ages_17":"17","07":"Yes","07_ages_1":"1","07_ages_2":"2","07_ages_3":"3","07_ages_4":"4","07_ages_5":"5","07_ages_6":"6","07_ages_7":"7","07_ages_8":"8","07_ages_9":"9","07_ages_10":"10","07_ages_11":"11","07_ages_12":"12","07_ages_13":"13","07_ages_14":"14","07_ages_15":"15","07_ages_16":"16","07_ages_17":"17","07_ages_18":"18","08":"Yes","08_ages_1":"1","08_ages_2":"2","08_ages_3":"3","08_ages_4":"4","08_ages_5":"5","08_ages_6":"6","08_ages_7":"7","08_ages_8":"8","08_ages_9":"9","08_ages_10":"10","08_ages_11":"11","08_ages_12":"12","08_ages_13":"13","08_ages_14":"14","08_ages_15":"15","08_ages_16":"16","08_ages_17":"17","08_ages_18":"18"},"rt":101316.69999998808,"item_order":[0,1,2,3,4,5,6,7],"radio_events":[8241.800000011921,9625.900000035763,11985.699999988079,14465.600000023842,16881.900000035763,20841.600000023842,27257.69999998808,44985.69999998808],"checkbox_events":[22297.69999998808,30545.30000001192,31209.69999998808,31977.600000023842,32513.69999998808,33041.69999998808,33617.69999998808,34145.60000002384,35049.60000002384,35594.40000003576,36265.69999998808,36849.5,38297.60000002384,39057.69999998808,39625.69999998808,40281.60000002384,40977.5,41530.30000001192,42217.40000003576,46073.30000001192,46617.60000002384,47129.40000003576,47769.69999998808,48353.60000002384,48985.30000001192,49553.60000002384,50401.60000002384,52825.5,53393.5,53954,54825.60000002384,55433.80000001192,56129.60000002384,57041.40000003576,57961.60000002384,58649.40000003576,59257.60000002384],"key_events":[],"mouse_events":[8241.800000011921,9625.900000035763,11985.699999988079,14465.600000023842,16881.900000035763,20841.600000023842,22297.69999998808,27257.69999998808,29089.69999998808,29801.5,30545.30000001192,31209.69999998808,31977.600000023842,32513.69999998808,33041.69999998808,33617.69999998808,34145.60000002384,35049.60000002384,35594.40000003576,36265.69999998808,36849.5,37721.69999998808,38297.60000002384,39057.69999998808,39625.69999998808,40281.60000002384,40977.5,41530.30000001192,42217.40000003576,44985.69999998808,46073.30000001192,46617.60000002384,47129.40000003576,47769.69999998808,48353.60000002384,48985.30000001192,49553.60000002384,50401.60000002384,51137.19999998808,52825.5,53393.5,53954,54825.60000002384,55433.80000001192,56129.60000002384,57041.40000003576,57961.60000002384,58649.40000003576,59257.60000002384,98985.19999998808,101313.30000001192],"honeypot":0,"survey":"mace","page":10,"trial_type":"survey-mace","trial_index":18,"time_elapsed":2947143,"internal_node_id":"0.0-18.0","task_version":"prescreen-v0.3","browser_interactions":2,"instructed":0},{"rt":128193.10000002384,"trial_type":"mental-health-alert","trial_index":19,"time_elapsed":3075338,"internal_node_id":"0.0-19.0","task_version":"prescreen-v0.3","interactions":"[{\"event\":\"blur\",\"trial\":1,\"time\":87984},{\"event\":\"focus\",\"trial\":1,\"time\":90111},{\"event\":\"blur\",\"trial\":2,\"time\":218439},{\"event\":\"focus\",\"trial\":2,\"time\":220381},{\"event\":\"blur\",\"trial\":2,\"time\":223576},{\"event\":\"focus\",\"trial\":2,\"time\":229464},{\"event\":\"blur\",\"trial\":2,\"time\":285405},{\"event\":\"focus\",\"trial\":2,\"time\":294597},{\"event\":\"blur\",\"trial\":2,\"time\":295573},{\"event\":\"focus\",\"trial\":2,\"time\":301868},{\"event\":\"blur\",\"trial\":2,\"time\":345837},{\"event\":\"focus\",\"trial\":2,\"time\":369501},{\"event\":\"blur\",\"trial\":2,\"time\":376087},{\"event\":\"focus\",\"trial\":2,\"time\":412710},{\"event\":\"blur\",\"trial\":2,\"time\":426045},{\"event\":\"focus\",\"trial\":2,\"time\":444421},{\"event\":\"blur\",\"trial\":3,\"time\":539820},{\"event\":\"focus\",\"trial\":3,\"time\":568151},{\"event\":\"blur\",\"trial\":3,\"time\":593908},{\"event\":\"focus\",\"trial\":3,\"time\":656761},{\"event\":\"blur\",\"trial\":4,\"time\":688611},{\"event\":\"focus\",\"trial\":4,\"time\":715849},{\"event\":\"blur\",\"trial\":4,\"time\":719082},{\"event\":\"focus\",\"trial\":4,\"time\":724549},{\"event\":\"blur\",\"trial\":4,\"time\":729076},{\"event\":\"focus\",\"trial\":4,\"time\":749339},{\"event\":\"blur\",\"trial\":5,\"time\":827843},{\"event\":\"focus\",\"trial\":5,\"time\":838266},{\"event\":\"blur\",\"trial\":5,\"time\":840387},{\"event\":\"focus\",\"trial\":5,\"time\":864777},{\"event\":\"blur\",\"trial\":6,\"time\":954738},{\"event\":\"focus\",\"trial\":6,\"time\":971926},{\"event\":\"blur\",\"trial\":6,\"time\":974130},{\"event\":\"focus\",\"trial\":6,\"time\":975668},{\"event\":\"blur\",\"trial\":7,\"time\":1042321},{\"event\":\"focus\",\"trial\":7,\"time\":1160286},{\"event\":\"blur\",\"trial\":7,\"time\":1224432},{\"event\":\"focus\",\"trial\":7,\"time\":1299187},{\"event\":\"blur\",\"trial\":8,\"time\":1310200},{\"event\":\"focus\",\"trial\":8,\"time\":1613675},{\"event\":\"blur\",\"trial\":9,\"time\":1693702},{\"event\":\"focus\",\"trial\":9,\"time\":1708699},{\"event\":\"blur\",\"trial\":9,\"time\":1710917},{\"event\":\"focus\",\"trial\":9,\"time\":1727413},{\"event\":\"blur\",\"trial\":11,\"time\":1895005},{\"event\":\"focus\",\"trial\":11,\"time\":1958175},{\"event\":\"blur\",\"trial\":12,\"time\":1977852},{\"event\":\"focus\",\"trial\":12,\"time\":1997727},{\"event\":\"blur\",\"trial\":14,\"time\":2257243},{\"event\":\"focus\",\"trial\":14,\"time\":2259148},{\"event\":\"blur\",\"trial\":14,\"time\":2263210},{\"event\":\"focus\",\"trial\":14,\"time\":2300863},{\"event\":\"blur\",\"trial\":14,\"time\":2302362},{\"event\":\"focus\",\"trial\":14,\"time\":2357208},{\"event\":\"blur\",\"trial\":15,\"time\":2503681},{\"event\":\"focus\",\"trial\":15,\"time\":2552165},{\"event\":\"blur\",\"trial\":15,\"time\":2559816},{\"event\":\"focus\",\"trial\":15,\"time\":2572974},{\"event\":\"blur\",\"trial\":16,\"time\":2616728},{\"event\":\"focus\",\"trial\":16,\"time\":2644250},{\"event\":\"blur\",\"trial\":16,\"time\":2667528},{\"event\":\"focus\",\"trial\":16,\"time\":2713372},{\"event\":\"blur\",\"trial\":18,\"time\":2931815},{\"event\":\"focus\",\"trial\":18,\"time\":2933681},{\"event\":\"blur\",\"trial\":19,\"time\":2981585},{\"event\":\"focus\",\"trial\":19,\"time\":3073832}]"}]