[{"view_history":[{"page_index":0,"viewing_time":4567.200000047684},{"page_index":1,"viewing_time":2224.7000000476837},{"page_index":2,"viewing_time":3483.2999999523163},{"page_index":3,"viewing_time":1682}],"rt":11958,"trial_type":"instructions","trial_index":0,"time_elapsed":12231,"internal_node_id":"0.0-0.0","task_version":"prescreen-v0.3"},{"rt":22104,"responses":{"age":"44","gender-categorical":"Female","gender-free-response":"","ethnicity":"Not Hispanic or Latino","race":["White"],"education":"High school"},"trial_type":"survey-demo","trial_index":1,"time_elapsed":34341,"internal_node_id":"0.0-1.0","task_version":"prescreen-v0.3"},{"responses":{"Q06":"1","Q08":"2","Q11":"0","Q02":"0","Q17":"0","Q07":"1","Q15":"3","Q21":"3","Q16":"1","Q04":"0","Q09":"0","Q05":"1","Q12":"2","Q18":"2","Q01":"2","Q10":"1","Q03":"0","Q13":"3","Q14":"3","Q20":"3","Q19":"2"},"rt":306678.60000014305,"item_order":[5,7,10,1,16,6,14,20,15,3,8,4,11,17,0,9,2,12,13,19,18],"radio_events":[39811.60000014305,45599.799999952316,48177,52998.40000009537,56450.90000009537,79228.10000014305,83586.5,87662.20000004768,93590.40000009537,97566.10000014305,99296.90000009537,130284.40000009537,267170.5,271327.10000014305,272544,273087.60000014305,278130.10000014305,283654.10000014305,287327.40000009537,291543.90000009537,294823.7999999523,298063.90000009537,305529.60000014305],"key_events":[],"mouse_events":[39811.60000014305,45599.799999952316,48177,52998.40000009537,56450.90000009537,79228.10000014305,83586.5,87662.20000004768,93590.40000009537,97566.10000014305,99296.90000009537,129258.79999995232,129439.70000004768,130284.40000009537,263979.60000014305,267170.5,268146.2999999523,268961.90000009537,269776,270279.40000009537,271327.10000014305,272544,273087.60000014305,278130.10000014305,283654.10000014305,287327.40000009537,291543.90000009537,294823.7999999523,298063.90000009537,303808.40000009537,305529.60000014305,306676.7000000477],"straightlining":0.2857142857142857,"zigzagging":0.45,"honeypot":0,"survey":"sns","trial_type":"survey-template","trial_index":2,"time_elapsed":341030,"internal_node_id":"0.0-2.0","task_version":"prescreen-v0.3","browser_interactions":0,"infrequency":0},{"responses":{"Q05":"3","Q13":"0","Q03":"3","Q12":"1","Q04":"2","Q10":"1","Q11":"1","Q08":"3","Q09":"1","Q01":"1","Q06":"2","Q02":"3","Q07":"3"},"rt":145482.20000004768,"item_order":[4,12,2,11,3,9,10,7,8,0,5,1,6],"radio_events":[44062.200000047684,50494.300000190735,55153.90000009537,59482.5,90185.60000014305,93172.60000014305,108386.30000019073,124655.10000014305,129443.40000009537,135339.30000019073,139102.20000004768,142060,144595.10000014305],"key_events":[],"mouse_events":[44062.200000047684,50494.300000190735,55153.90000009537,59482.5,90185.60000014305,93172.60000014305,108386.30000019073,124655.10000014305,129443.40000009537,135339.30000019073,139102.20000004768,142060,144595.10000014305,145480.90000009537],"straightlining":0.38461538461538464,"zigzagging":0.5,"honeypot":0,"survey":"bisbas","trial_type":"survey-template","trial_index":3,"time_elapsed":486520,"internal_node_id":"0.0-3.0","task_version":"prescreen-v0.3","browser_interactions":0,"infrequency":0},{"responses":{"Q01":"1","Q02":"1","Q03":"2"},"rt":56828.40000009537,"radio_events":[45935.200000047684,50833.5,55479.5],"key_events":[],"mouse_events":[20673.599999904633,20681.099999904633,20681.700000047684,20682.099999904633,45935.200000047684,50833.5,55479.5,56827.700000047684],"survey":"map","page":1,"trial_type":"survey-map","trial_index":4,"time_elapsed":543354,"internal_node_id":"0.0-4.0","task_version":"prescreen-v0.3","browser_interactions":1},{"responses":{"Q04":"2","Q05":"2","Q06":"1"},"rt":16436.700000047684,"radio_events":[6359.200000047684,9627.599999904633,12524.5,15179.5],"key_events":[],"mouse_events":[6359.200000047684,9627.599999904633,12524.5,15179.5,16436],"survey":"map","page":2,"trial_type":"survey-map","trial_index":5,"time_elapsed":559796,"internal_node_id":"0.0-5.0","task_version":"prescreen-v0.3","browser_interactions":0},{"responses":{"Q07":"0","Q08":"0","Q09":"1"},"rt":16156.5,"radio_events":[7327.200000047684,12194.400000095367,15050],"key_events":[],"mouse_events":[6200.900000095367,7327.200000047684,12194.400000095367,15050,16155.900000095367],"survey":"map","page":3,"trial_type":"survey-map","trial_index":6,"time_elapsed":575958,"internal_node_id":"0.0-6.0","task_version":"prescreen-v0.3","browser_interactions":0},{"responses":{"Q10":"2","Q11":"3","Q12":"2","Q13":"2","Q16":"0","Q14":"4","Q15":"1"},"rt":55800.89999985695,"radio_events":[9834.599999904633,13101.799999952316,18099.599999904633,23530.299999952316,34081.5,47169.59999990463,54462.09999990463],"key_events":[],"mouse_events":[9834.599999904633,13101.799999952316,18099.599999904633,23530.299999952316,34081.5,47169.59999990463,51897.39999985695,52812.799999952316,54462.09999990463,55799.89999985695],"survey":"map","page":4,"trial_type":"survey-map","trial_index":7,"time_elapsed":631764,"internal_node_id":"0.0-7.0","task_version":"prescreen-v0.3","browser_interactions":0,"infrequency":0},{"view_history":[{"page_index":0,"viewing_time":3212.100000143051},{"page_index":1,"viewing_time":4465.099999904633}],"rt":7677.600000143051,"trial_type":"instructions","trial_index":8,"time_elapsed":639446,"internal_node_id":"0.0-8.0","task_version":"prescreen-v0.3"},{"responses":{"01":"Yes","01_ages_4":"4","01_ages_5":"5","01_ages_6":"6","01_ages_7":"7","01_ages_8":"8","01_ages_9":"9","01_ages_10":"10","01_ages_11":"11","01_ages_12":"12","01_ages_13":"13","01_ages_14":"14","01_ages_15":"15","01_ages_16":"16","01_ages_17":"17","01_ages_18":"18","02":"Yes","02_ages_3":"3","02_ages_4":"4","02_ages_5":"5","02_ages_6":"6","02_ages_7":"7","02_ages_8":"8","02_ages_9":"9","02_ages_10":"10","02_ages_11":"11","02_ages_12":"12","02_ages_13":"13","02_ages_14":"14","02_ages_15":"15","02_ages_16":"16","02_ages_17":"17","02_ages_18":"18","03":"Yes","03_ages_2":"2","03_ages_3":"3","03_ages_4":"4","03_ages_5":"5","03_ages_6":"6","03_ages_7":"7","03_ages_8":"8","03_ages_9":"9","03_ages_10":"10","03_ages_11":"11","04":"Yes","04_ages_16":"16","04_ages_17":"17","05":"No","06":"Yes","06_ages_2":"2","06_ages_3":"3","06_ages_4":"4","06_ages_5":"5","06_ages_6":"6","06_ages_7":"7","06_ages_8":"8","06_ages_9":"9","06_ages_10":"10","06_ages_11":"11"},"rt":101738.5,"item_order":[0,1,2,3,4,5],"radio_events":[7839.899999856949,31603.200000047684,51485.299999952316,70973.70000004768,80728.29999995232,85907.39999985695],"checkbox_events":[15604.099999904633,16809.39999985695,17976.799999952316,19072.89999985695,20058.200000047684,21023.700000047684,21968.599999904633,22904.39999985695,24000.39999985695,24694.099999904633,25579.200000047684,26364.099999904633,27218.599999904633,28063.200000047684,28958.299999952316,33634,34429.39999985695,35304.5,35807.39999985695,37426.299999952316,38712.799999952316,39447.700000047684,40131,41157.299999952316,42042.5,43490.39999985695,44707.700000047684,46226.09999990463,47121.200000047684,49102.09999990463,49806.299999952316,56644.39999985695,57861,58765.799999952316,60797.59999990463,62023.59999990463,62728.39999985695,63391.5,64065.700000047684,64980.299999952316,65614.39999985695,74071.29999995232,74705.59999990463,88492.09999990463,89045.20000004768,90080.79999995232,90754.5,91800.29999995232,93982.29999995232,95027.5,95711.39999985695,96384.89999985695,97069.79999995232],"key_events":[],"mouse_events":[0.09999990463256836,7839.899999856949,15604.099999904633,16809.39999985695,17484,17976.799999952316,19072.89999985695,20058.200000047684,21023.700000047684,21968.599999904633,22904.39999985695,24000.39999985695,24694.099999904633,25579.200000047684,26364.099999904633,27218.599999904633,28063.200000047684,28958.299999952316,31603.200000047684,33634,34429.39999985695,35304.5,35807.39999985695,37426.299999952316,38712.799999952316,39447.700000047684,40131,41157.299999952316,42042.5,43490.39999985695,44707.700000047684,46226.09999990463,47121.200000047684,48085.39999985695,49102.09999990463,49806.299999952316,51485.299999952316,56644.39999985695,57861,58765.799999952316,60797.59999990463,62023.59999990463,62728.39999985695,63391.5,64065.700000047684,64980.299999952316,65614.39999985695,70973.70000004768,74071.29999995232,74705.59999990463,75659.89999985695,80728.29999995232,85907.39999985695,88492.09999990463,89045.20000004768,90080.79999995232,90754.5,91800.29999995232,92684.89999985695,93982.29999995232,95027.5,95711.39999985695,96384.89999985695,97069.79999995232,101735.79999995232],"honeypot":0,"survey":"mace","page":1,"trial_type":"survey-mace","trial_index":9,"time_elapsed":741191,"internal_node_id":"0.0-9.0","task_version":"prescreen-v0.3","browser_interactions":0},{"responses":{"01":"Yes","01_ages_8":"8","01_ages_9":"9","01_ages_10":"10","01_ages_11":"11","02":"Yes","02_ages_9":"9","03":"Yes","03_ages_2":"2","03_ages_3":"3","03_ages_4":"4","03_ages_5":"5","03_ages_6":"6","03_ages_7":"7","03_ages_8":"8","03_ages_9":"9","03_ages_10":"10","03_ages_11":"11","04":"No","05":"Yes","05_ages_4":"4","05_ages_5":"5","05_ages_6":"6","05_ages_7":"7","05_ages_8":"8","05_ages_9":"9","05_ages_10":"10","05_ages_11":"11","06":"No","07":"No","08":"No"},"rt":54143.5,"item_order":[0,1,2,3,4,5,6,7],"radio_events":[3508.4000000953674,13775,18290.10000014305,33454.700000047684,35153.200000047684,48659,52551.10000014305,53265],"checkbox_events":[6313.600000143051,6937.400000095367,7711.900000095367,8395.5,15806.700000047684,19396.5,20512.5,21196.200000047684,21819.800000190735,22523.700000047684,23598.800000190735,24101.900000095367,24755.200000047684,25661.5,26304.5,36712.40000009537,37687.10000014305,39206.40000009537,39819.800000190735,40996.60000014305,41891.5,42967.200000047684,43982.90000009537,45179.90000009537,45863.40000009537],"key_events":[],"mouse_events":[3508.4000000953674,6313.600000143051,6937.400000095367,7711.900000095367,8395.5,13775,15806.700000047684,18290.10000014305,19396.5,19969.900000095367,20512.5,21196.200000047684,21819.800000190735,22523.700000047684,23598.800000190735,24101.900000095367,24755.200000047684,25661.5,26304.5,33454.700000047684,35153.200000047684,36712.40000009537,37687.10000014305,39206.40000009537,39819.800000190735,40503.5,40996.60000014305,41891.5,42967.200000047684,43982.90000009537,45179.90000009537,45863.40000009537,48659,52551.10000014305,53265,54140],"honeypot":0,"survey":"mace","page":2,"trial_type":"survey-mace","trial_index":10,"time_elapsed":795343,"internal_node_id":"0.0-10.0","task_version":"prescreen-v0.3","browser_interactions":0},{"responses":{"01":"No","02":"No","03":"No","04":"No"},"rt":12237.799999952316,"item_order":[0,1,2,3],"radio_events":[3829.399999856949,7218,9933.199999809265,11371],"checkbox_events":[],"key_events":[],"mouse_events":[3829.399999856949,7218,9933.199999809265,11371,12235.899999856949],"honeypot":0,"survey":"mace","page":3,"trial_type":"survey-mace","trial_index":11,"time_elapsed":807587,"internal_node_id":"0.0-11.0","task_version":"prescreen-v0.3","browser_interactions":0},{"responses":{"01":"No","02":"No"},"rt":8157.200000047684,"item_order":[0,1],"radio_events":[3210.4000000953674,7191.400000095367],"checkbox_events":[],"key_events":[],"mouse_events":[3210.4000000953674,5662.800000190735,7191.400000095367,8156.5],"honeypot":0,"survey":"mace","page":4,"trial_type":"survey-mace","trial_index":12,"time_elapsed":815749,"internal_node_id":"0.0-12.0","task_version":"prescreen-v0.3","browser_interactions":0},{"responses":{"01":"Yes","01_ages_3":"3","01_ages_4":"4","01_ages_5":"5","02":"Yes","02_ages_3":"3","02_ages_4":"4","02_ages_5":"5","03":"No","04":"No","05":"No"},"rt":37498.700000047684,"item_order":[0,1,2,3,4],"radio_events":[4277.399999856949,13406.899999856949,22868,34580.59999990463,36581.299999952316],"checkbox_events":[8017.700000047684,8771.799999952316,9686.799999952316,14884.799999952316,15649,16372.899999856949],"key_events":[],"mouse_events":[4277.399999856949,8017.700000047684,8771.799999952316,9686.799999952316,13406.899999856949,14884.799999952316,15649,16372.899999856949,22868,34580.59999990463,36581.299999952316,37496.299999952316],"honeypot":0,"survey":"mace","page":5,"trial_type":"survey-mace","trial_index":13,"time_elapsed":853255,"internal_node_id":"0.0-13.0","task_version":"prescreen-v0.3","browser_interactions":0},{"responses":{"01":"Yes","01_ages_7":"7","01_ages_8":"8","01_ages_9":"9","01_ages_10":"10","01_ages_11":"11","01_ages_12":"12","01_ages_13":"13","01_ages_14":"14","01_ages_15":"15","01_ages_16":"16","01_ages_17":"17","02":"Yes","02_ages_7":"7","02_ages_8":"8","02_ages_9":"9","02_ages_10":"10","02_ages_11":"11","02_ages_12":"12","02_ages_13":"13","02_ages_14":"14","02_ages_15":"15","02_ages_16":"16","02_ages_17":"17","02_ages_18":"18","03":"Yes","03_ages_7":"7","03_ages_8":"8","03_ages_9":"9","03_ages_10":"10","03_ages_11":"11","03_ages_12":"12","03_ages_13":"13","03_ages_14":"14","03_ages_15":"15","03_ages_16":"16","03_ages_17":"17","03_ages_18":"18","04":"No","05":"Yes","05_ages_7":"7","05_ages_8":"8","05_ages_9":"9","05_ages_10":"10","05_ages_11":"11","05_ages_12":"12","05_ages_13":"13","05_ages_14":"14","05_ages_15":"15","05_ages_16":"16","05_ages_17":"17","05_ages_18":"18"},"rt":86105.29999995232,"item_order":[0,1,2,3,4],"radio_events":[16619.200000047684,34139.59999990463,50665,68448.5,70631.09999990463],"checkbox_events":[18016.599999904633,18871.200000047684,19665.200000047684,24650.799999952316,25666,26349.5,27495.5,27998,28621.299999952316,29485.599999904633,30661.799999952316,35406,36210.09999990463,36984.200000047684,37738.09999990463,38301,38793.5,39668.09999990463,40391.700000047684,41859.40000009537,42633.299999952316,44161.299999952316,44955.40000009537,55832.200000047684,56576,57279.799999952316,58114.299999952316,58657.09999990463,59561.700000047684,60225.200000047684,60898.700000047684,61803.40000009537,63210.90000009537,64296.700000047684,64930,72168.59999990463,73083.20000004768,73696.5,75798.29999995232,76812.79999995232,77466.59999990463,78130.90000009537,79940.79999995232,80764.90000009537,81589.09999990463,82594.59999990463,83357.90000009537],"key_events":[],"mouse_events":[16619.200000047684,18016.599999904633,18871.200000047684,19665.200000047684,24650.799999952316,25666,26349.5,27495.5,27998,28621.299999952316,29485.599999904633,30661.799999952316,31415.5,32903.09999990463,34139.59999990463,35406,36210.09999990463,36984.200000047684,37738.09999990463,38301,38793.5,39668.09999990463,40391.700000047684,41326.40000009537,41859.40000009537,42633.299999952316,43638.5,44161.299999952316,44955.40000009537,50665,55832.200000047684,56576,57279.799999952316,58114.299999952316,58657.09999990463,59561.700000047684,60225.200000047684,60898.700000047684,61803.40000009537,63210.90000009537,64296.700000047684,64930,68448.5,70631.09999990463,71665.59999990463,72168.59999990463,73083.20000004768,73696.5,74229.40000009537,74611.79999995232,75798.29999995232,76812.79999995232,77466.59999990463,78130.90000009537,79940.79999995232,80764.90000009537,81589.09999990463,82594.59999990463,83357.90000009537,86103.20000004768],"honeypot":0,"survey":"mace","page":6,"trial_type":"survey-mace","trial_index":14,"time_elapsed":939368,"internal_node_id":"0.0-14.0","task_version":"prescreen-v0.3","browser_interactions":0},{"responses":{"01":"No","02":"No","03":"Yes","03_ages_15":"15","04":"Yes","04_ages_15":"15","05":"Yes","05_ages_15":"15","06":"No","07":"No"},"rt":41188.89999985695,"item_order":[0,1,2,3,4,5,6],"radio_events":[6283.099999904633,8041.5,14976.799999952316,23803.299999952316,30628.599999904633,31543.099999904633,37745.199999809265],"checkbox_events":[12474.5,16455.5,25109.299999952316],"key_events":[],"mouse_events":[4815.5,6283.099999904633,8041.5,12474.5,14976.799999952316,16455.5,23803.299999952316,25109.299999952316,30628.599999904633,31543.099999904633,32508.5,37745.199999809265,41184.5],"honeypot":0,"survey":"mace","page":7,"trial_type":"survey-mace","trial_index":15,"time_elapsed":980566,"internal_node_id":"0.0-15.0","task_version":"prescreen-v0.3","browser_interactions":0},{"responses":{"01":"Yes","01_ages_2":"2","01_ages_3":"3","01_ages_4":"4","01_ages_5":"5","01_ages_6":"6","01_ages_7":"7","01_ages_8":"8","01_ages_9":"9","01_ages_10":"10","01_ages_11":"11","01_ages_12":"12","01_ages_13":"13","01_ages_14":"14","01_ages_15":"15","01_ages_16":"16","01_ages_17":"17","01_ages_18":"18","02":"No","03":"Yes","03_ages_2":"2","03_ages_3":"3","03_ages_4":"4","03_ages_5":"5","03_ages_6":"6","03_ages_7":"7","03_ages_8":"8","03_ages_9":"9","03_ages_10":"10","03_ages_11":"11","03_ages_12":"12","03_ages_13":"13","03_ages_14":"14","03_ages_15":"15","03_ages_16":"16","03_ages_17":"17","03_ages_18":"18","04":"Yes","04_ages_2":"2","04_ages_3":"3","04_ages_4":"4","04_ages_5":"5","04_ages_6":"6","04_ages_7":"7","04_ages_8":"8","04_ages_9":"9","04_ages_10":"10","04_ages_11":"11","04_ages_12":"12","04_ages_13":"13","04_ages_14":"14","04_ages_15":"15","04_ages_16":"16","04_ages_17":"17","04_ages_18":"18"},"rt":84587.70000004768,"item_order":[0,1,2,3],"radio_events":[9047,39714.299999952316,43724.700000047684,63456],"checkbox_events":[18405.200000047684,19209.10000014305,20335,21371.5,21963.5,22806.900000095367,23530.400000095367,24063.200000047684,25661.799999952316,26687,27732,28928.5,29752.60000014305,30898.60000014305,31722.5,32707.700000047684,34517.40000009537,45864.799999952316,46548.700000047684,47382.60000014305,48157.10000014305,49655.5,50408.10000014305,51132.799999952316,52157.200000047684,52971.90000009537,53686.200000047684,54389.60000014305,55625.90000009537,56841.700000047684,57434.799999952316,58078.5,58741.299999952316,59384.60000014305,65084.5,66522.20000004768,67808.20000004768,68692.79999995232,69637.40000009537,70501.79999995232,71426.70000004768,72451.90000009537,73598.60000014305,74473.90000009537,75306.70000004768,76111.70000004768,76985.5,78141.29999995232,78754.5,79367.79999995232,80956.10000014305],"key_events":[],"mouse_events":[9047,18405.200000047684,19209.10000014305,19933.10000014305,20335,21371.5,21963.5,22806.900000095367,23530.400000095367,24063.200000047684,24847,25661.799999952316,26687,27732,28928.5,29752.60000014305,30898.60000014305,31722.5,32707.700000047684,33431,34517.40000009537,39714.299999952316,43724.700000047684,45864.799999952316,46548.700000047684,47382.60000014305,48157.10000014305,49655.5,50408.10000014305,51132.799999952316,52157.200000047684,52971.90000009537,53686.200000047684,54389.60000014305,55625.90000009537,56841.700000047684,57434.799999952316,58078.5,58741.299999952316,59384.60000014305,63456,65084.5,65697.70000004768,66522.20000004768,67808.20000004768,68692.79999995232,69637.40000009537,70501.79999995232,71426.70000004768,72451.90000009537,73598.60000014305,74473.90000009537,75306.70000004768,76111.70000004768,76985.5,78141.29999995232,78754.5,79367.79999995232,80956.10000014305,84586],"honeypot":0,"survey":"mace","page":8,"trial_type":"survey-mace","trial_index":16,"time_elapsed":1065163,"internal_node_id":"0.0-16.0","task_version":"prescreen-v0.3","browser_interactions":0},{"responses":{"01":"No","02":"No","03":"Yes","03_ages_2":"2","03_ages_3":"3","03_ages_4":"4","03_ages_5":"5","03_ages_6":"6","03_ages_7":"7","03_ages_8":"8","03_ages_9":"9","03_ages_10":"10","03_ages_11":"11","03_ages_12":"12","03_ages_13":"13","03_ages_14":"14","03_ages_15":"15","03_ages_16":"16","03_ages_17":"17","03_ages_18":"18","04":"No"},"rt":131522.5,"item_order":[0,1,2,3],"radio_events":[9529,11961.400000095367,16715.800000190735,130303.30000019073],"checkbox_events":[21509.900000095367,51630.700000047684,52616.5,53622.5,54396.90000009537,55230.800000190735,56317.90000009537,57423.90000009537,59133,60118.800000190735,61123.800000190735,62028.800000190735,63306.10000014305,64080.60000014305,64894.700000047684,66463.5,67187.5],"key_events":[],"mouse_events":[9529,11961.400000095367,16715.800000190735,21509.900000095367,51630.700000047684,52616.5,53622.5,54396.90000009537,55230.800000190735,56317.90000009537,57423.90000009537,58247.90000009537,59133,60118.800000190735,61123.800000190735,62028.800000190735,63306.10000014305,64080.60000014305,64894.700000047684,66463.5,67187.5,130303.30000019073,131519.5],"honeypot":0,"survey":"mace","page":9,"trial_type":"survey-mace","trial_index":17,"time_elapsed":1196691,"internal_node_id":"0.0-17.0","task_version":"prescreen-v0.3","browser_interactions":0},{"responses":{"01":"No","02":"No","03":"Yes","03_ages_7":"7","03_ages_8":"8","03_ages_9":"9","03_ages_10":"10","03_ages_11":"11","03_ages_12":"12","03_ages_13":"13","03_ages_14":"14","03_ages_15":"15","03_ages_16":"16","03_ages_17":"17","03_ages_18":"18","04":"Yes","04_ages_4":"4","04_ages_5":"5","04_ages_6":"6","04_ages_7":"7","04_ages_8":"8","04_ages_9":"9","04_ages_10":"10","04_ages_11":"11","04_ages_12":"12","04_ages_13":"13","04_ages_14":"14","04_ages_15":"15","04_ages_16":"16","04_ages_17":"17","04_ages_18":"18","05":"Yes","05_ages_2":"2","05_ages_3":"3","05_ages_4":"4","05_ages_5":"5","05_ages_6":"6","06":"Yes","06_ages_17":"17","07":"No","08":"No"},"rt":83840.29999995232,"item_order":[0,1,2,3,4,5,6,7],"radio_events":[14954.900000095367,16524.900000095367,21473.200000047684,36334.5,64033.299999952316,75923.20000004768,81303.60000014305,82951.5],"checkbox_events":[24137.200000047684,25133.299999952316,26058.799999952316,26924.10000014305,27808.799999952316,28653.5,29245.799999952316,30342.400000095367,31076,31749.900000095367,33057.60000014305,33781.5,38948.60000014305,39582.90000009537,40075.40000009537,44137,44881.299999952316,46982.90000009537,47988.200000047684,48953.10000014305,49907.299999952316,51445.200000047684,52450.700000047684,54278.200000047684,55966.10000014305,57121.5,58357.90000009537,67901.10000014305,68644.40000009537,69558,70121.5,70985.60000014305,77556.40000009537],"key_events":[],"mouse_events":[14954.900000095367,16524.900000095367,21473.200000047684,24137.200000047684,25133.299999952316,26058.799999952316,26924.10000014305,27808.799999952316,28653.5,29245.799999952316,30342.400000095367,31076,31749.900000095367,33057.60000014305,33781.5,36334.5,38948.60000014305,39582.90000009537,40075.40000009537,41241.299999952316,42427.90000009537,44137,44881.299999952316,46982.90000009537,47988.200000047684,48953.10000014305,49907.299999952316,51445.200000047684,52450.700000047684,54278.200000047684,55966.10000014305,57121.5,58357.90000009537,64033.299999952316,67901.10000014305,68644.40000009537,69558,70121.5,70985.60000014305,75923.20000004768,77556.40000009537,81303.60000014305,82951.5,83836.70000004768],"honeypot":0,"survey":"mace","page":10,"trial_type":"survey-mace","trial_index":18,"time_elapsed":1280541,"internal_node_id":"0.0-18.0","task_version":"prescreen-v0.3","browser_interactions":0,"instructed":0},{"rt":9737.399999856949,"trial_type":"mental-health-alert","trial_index":19,"time_elapsed":1290283,"internal_node_id":"0.0-19.0","task_version":"prescreen-v0.3","interactions":"[{\"event\":\"blur\",\"trial\":4,\"time\":507207}]"}]