[{"view_history":[{"page_index":0,"viewing_time":2373.199999988079},{"page_index":1,"viewing_time":3322.800000011921},{"page_index":2,"viewing_time":2910.699999988079},{"page_index":3,"viewing_time":1560.0999999940395}],"rt":10167.699999988079,"trial_type":"instructions","trial_index":0,"time_elapsed":10181,"internal_node_id":"0.0-0.0","task_version":"prescreen-v0.3"},{"rt":15712.100000023842,"responses":{"age":"32","gender-categorical":"Female","gender-free-response":"","ethnicity":"Not Hispanic or Latino","race":["White"],"education":"Associate degree"},"trial_type":"survey-demo","trial_index":1,"time_elapsed":25899,"internal_node_id":"0.0-1.0","task_version":"prescreen-v0.3"},{"responses":{"Q20":"0","Q10":"1","Q02":"2","Q12":"2","Q01":"2","Q08":"3","Q03":"1","Q05":"1","Q18":"2","Q07":"1","Q06":"1","Q13":"2","Q16":"3","Q04":"3","Q11":"2","Q21":"3","Q14":"2","Q19":"2","Q09":"2","Q15":"2","Q17":"2"},"rt":78796.19999998808,"item_order":[19,9,1,11,0,7,2,4,17,6,5,12,15,3,10,20,13,18,8,14,16],"radio_events":[3464.9000000059605,8561.09999999404,11335.5,14231.800000011921,17013.5,18235.59999999404,21737.19999998808,27359.69999998808,30659.09999999404,35804.80000001192,39193.5,40822.09999999404,44468,51036.19999998808,52411.59999999404,59558,63522.90000000596,65762.5,68084,71618.5,77328.5],"key_events":[],"mouse_events":[3464.9000000059605,8561.09999999404,11335.5,14231.800000011921,17013.5,18235.59999999404,21737.19999998808,27359.69999998808,30659.09999999404,35804.80000001192,39193.5,40822.09999999404,44468,47549.90000000596,48877.69999998808,50196.19999998808,51036.19999998808,52411.59999999404,54831,59558,63522.90000000596,65762.5,68084,69370.30000001192,70866.90000000596,71618.5,72467.19999998808,77328.5,78792.90000000596],"straightlining":0.5238095238095238,"zigzagging":0.5,"honeypot":0,"survey":"sns","trial_type":"survey-template","trial_index":2,"time_elapsed":104707,"internal_node_id":"0.0-2.0","task_version":"prescreen-v0.3","browser_interactions":0,"infrequency":0},{"responses":{"Q11":"2","Q13":"0","Q05":"2","Q03":"2","Q06":"2","Q02":"2","Q07":"2","Q01":"3","Q08":"2","Q12":"1","Q10":"1","Q04":"2","Q09":"1"},"rt":47828.40000000596,"item_order":[10,12,4,2,5,1,6,0,7,11,9,3,8],"radio_events":[5267.800000011921,8713.90000000596,14584.09999999404,20580.59999999404,22371.30000001192,23980.80000001192,27993,29925.40000000596,32102.09999999404,37198.70000001788,40126.30000001192,42511.5,45957.40000000596],"key_events":[],"mouse_events":[5267.800000011921,8713.90000000596,14584.09999999404,20580.59999999404,22371.30000001192,23980.80000001192,26301.5,27993,29925.40000000596,32102.09999999404,37198.70000001788,40126.30000001192,42511.5,45957.40000000596,47826.40000000596],"straightlining":0.6153846153846154,"zigzagging":0.4166666666666667,"honeypot":0,"survey":"bisbas","trial_type":"survey-template","trial_index":3,"time_elapsed":152542,"internal_node_id":"0.0-3.0","task_version":"prescreen-v0.3","browser_interactions":0,"infrequency":0},{"responses":{"Q01":"2","Q02":"2","Q03":"2"},"rt":15753.300000011921,"radio_events":[7017.200000017881,10550.800000011921,14806.300000011921],"key_events":[],"mouse_events":[7017.200000017881,10550.800000011921,13623.90000000596,14806.300000011921,15752.300000011921],"survey":"map","page":1,"trial_type":"survey-map","trial_index":4,"time_elapsed":168299,"internal_node_id":"0.0-4.0","task_version":"prescreen-v0.3","browser_interactions":0},{"responses":{"Q04":"2","Q05":"2","Q06":"2"},"rt":11785.40000000596,"radio_events":[7108.5,9085,10554.299999982119],"key_events":[],"mouse_events":[7108.5,9085,10554.299999982119,11784.5],"survey":"map","page":2,"trial_type":"survey-map","trial_index":5,"time_elapsed":180088,"internal_node_id":"0.0-5.0","task_version":"prescreen-v0.3","browser_interactions":0},{"responses":{"Q07":"3","Q08":"0","Q09":"2"},"rt":14173.199999988079,"radio_events":[5788.5999999940395,10091.40000000596,13051],"key_events":[],"mouse_events":[5788.5999999940395,10091.40000000596,13051,14172.300000011921],"survey":"map","page":3,"trial_type":"survey-map","trial_index":6,"time_elapsed":194263,"internal_node_id":"0.0-6.0","task_version":"prescreen-v0.3","browser_interactions":0},{"responses":{"Q10":"2","Q11":"0","Q12":"1","Q13":"1","Q16":"0","Q14":"3","Q15":"2"},"rt":30564.80000001192,"radio_events":[5930.300000011921,8802.09999999404,14027.200000017881,18040.80000001192,23599.30000001192,27077.70000001788,29536.30000001192],"key_events":[],"mouse_events":[5930.300000011921,8802.09999999404,12531,14027.200000017881,18040.80000001192,23599.30000001192,27077.70000001788,29536.30000001192,30563],"survey":"map","page":4,"trial_type":"survey-map","trial_index":7,"time_elapsed":224832,"internal_node_id":"0.0-7.0","task_version":"prescreen-v0.3","browser_interactions":0,"infrequency":0},{"view_history":[{"page_index":0,"viewing_time":2309},{"page_index":1,"viewing_time":2590.300000011921}],"rt":4899.9000000059605,"trial_type":"instructions","trial_index":8,"time_elapsed":229733,"internal_node_id":"0.0-8.0","task_version":"prescreen-v0.3"},{"responses":{"01":"Yes","01_ages_13":"13","01_ages_14":"14","01_ages_15":"15","01_ages_16":"16","01_ages_17":"17","02":"Yes","02_ages_9":"9","02_ages_10":"10","02_ages_11":"11","02_ages_12":"12","02_ages_13":"13","02_ages_14":"14","02_ages_15":"15","02_ages_16":"16","02_ages_17":"17","03":"No","04":"No","05":"No","06":"No"},"rt":39644.90000000596,"item_order":[0,1,2,3,4,5],"radio_events":[2928.7000000178814,15224.700000017881,29008.90000000596,32867.70000001788,36944.70000001788,38668.20000001788],"checkbox_events":[10275,10856.90000000596,11434.5,11989.300000011921,12547,20077.20000001788,21025.30000001192,21898.30000001192,22497,23063.20000001788,23629.59999999404,24204.70000001788,24819.09999999404,25846.09999999404],"key_events":[],"mouse_events":[0,2928.7000000178814,10275,10856.90000000596,11434.5,11989.300000011921,12547,15224.700000017881,20077.20000001788,21025.30000001192,21898.30000001192,22497,23063.20000001788,23629.59999999404,24204.70000001788,24819.09999999404,25846.09999999404,29008.90000000596,31750.90000000596,32867.70000001788,34005.70000001788,36944.70000001788,38668.20000001788,39639],"honeypot":0,"survey":"mace","page":1,"trial_type":"survey-mace","trial_index":9,"time_elapsed":269388,"internal_node_id":"0.0-9.0","task_version":"prescreen-v0.3","browser_interactions":0},{"responses":{"01":"No","02":"No","03":"No","04":"No","05":"No","06":"No","07":"No","08":"No"},"rt":23562.80000001192,"item_order":[0,1,2,3,4,5,6,7],"radio_events":[6713.200000017881,8638.200000017881,10766.100000023842,12699.100000023842,15393.5,19704.600000023842,20788.40000000596,22762.600000023842],"checkbox_events":[],"key_events":[],"mouse_events":[6713.200000017881,8638.200000017881,9787.700000017881,10766.100000023842,12699.100000023842,15393.5,19704.600000023842,20788.40000000596,22762.600000023842,23554.80000001192],"honeypot":0,"survey":"mace","page":2,"trial_type":"survey-mace","trial_index":10,"time_elapsed":292955,"internal_node_id":"0.0-10.0","task_version":"prescreen-v0.3","browser_interactions":0},{"responses":{"01":"No","02":"No","03":"No","04":"No"},"rt":13623.399999976158,"item_order":[0,1,2,3],"radio_events":[7917,9489.299999982119,11637.199999988079,12769.59999999404],"checkbox_events":[],"key_events":[],"mouse_events":[7917,9489.299999982119,11637.199999988079,12769.59999999404,13619.5],"honeypot":0,"survey":"mace","page":3,"trial_type":"survey-mace","trial_index":11,"time_elapsed":306584,"internal_node_id":"0.0-11.0","task_version":"prescreen-v0.3","browser_interactions":0},{"responses":{"01":"No","02":"No"},"rt":10245,"item_order":[0,1],"radio_events":[6643.0999999940395,8737.59999999404],"checkbox_events":[],"key_events":[],"mouse_events":[6643.0999999940395,8737.59999999404,10243.09999999404],"honeypot":0,"survey":"mace","page":4,"trial_type":"survey-mace","trial_index":12,"time_elapsed":316832,"internal_node_id":"0.0-12.0","task_version":"prescreen-v0.3","browser_interactions":0},{"responses":{"01":"No","02":"No","03":"No","04":"No","05":"No"},"rt":20135.80000001192,"item_order":[0,1,2,3,4],"radio_events":[4768,9195.40000000596,12744.300000011921,15705.5,18327.30000001192],"checkbox_events":[],"key_events":[],"mouse_events":[4768,9195.40000000596,10722.40000000596,12744.300000011921,15705.5,18327.30000001192,20131],"honeypot":0,"survey":"mace","page":5,"trial_type":"survey-mace","trial_index":13,"time_elapsed":336972,"internal_node_id":"0.0-13.0","task_version":"prescreen-v0.3","browser_interactions":0},{"responses":{"01":"No","02":"No","03":"No","04":"Yes","04_ages_12":"12","04_ages_13":"13","04_ages_14":"14","04_ages_15":"15","04_ages_16":"16","04_ages_17":"17","04_ages_18":"18","05":"Yes","05_ages_17":"17","05_ages_18":"18"},"rt":33188.69999998808,"item_order":[0,1,2,3,4],"radio_events":[10207.299999982119,11348.09999999404,15312.399999976158,16712.09999999404,29446.29999998212],"checkbox_events":[19689.5,21226,22003.399999976158,22617.69999998808,23208.69999998808,25497.399999976158,26452.29999998212,31160.79999998212,31962.59999999404],"key_events":[],"mouse_events":[10207.299999982119,11348.09999999404,15312.399999976158,16712.09999999404,19689.5,20434.899999976158,21226,22003.399999976158,22617.69999998808,23208.69999998808,24098.19999998808,24852,25497.399999976158,26452.29999998212,29446.29999998212,31160.79999998212,31962.59999999404,33183.69999998808],"honeypot":0,"survey":"mace","page":6,"trial_type":"survey-mace","trial_index":14,"time_elapsed":370168,"internal_node_id":"0.0-14.0","task_version":"prescreen-v0.3","browser_interactions":0},{"responses":{"01":"No","02":"No","03":"No","04":"No","05":"No","06":"No","07":"No"},"rt":21505.69999998808,"item_order":[0,1,2,3,4,5,6],"radio_events":[2886.0999999940395,4787.800000011921,5979.4000000059605,7994.4000000059605,17599.69999998808,18894.5,20593.09999999404],"checkbox_events":[],"key_events":[],"mouse_events":[2886.0999999940395,4787.800000011921,5979.4000000059605,7994.4000000059605,17599.69999998808,18894.5,20593.09999999404,21498.69999998808],"honeypot":0,"survey":"mace","page":7,"trial_type":"survey-mace","trial_index":15,"time_elapsed":391679,"internal_node_id":"0.0-15.0","task_version":"prescreen-v0.3","browser_interactions":0},{"responses":{"01":"No","01_ages_8":"8","01_ages_9":"9","01_ages_10":"10","01_ages_11":"11","01_ages_12":"12","01_ages_13":"13","01_ages_14":"14","01_ages_15":"15","01_ages_16":"16","01_ages_17":"17","01_ages_18":"18","02":"Yes","02_ages_1":"1","02_ages_2":"2","02_ages_3":"3","02_ages_4":"4","02_ages_5":"5","02_ages_6":"6","02_ages_7":"7","02_ages_8":"8","02_ages_9":"9","02_ages_10":"10","02_ages_11":"11","02_ages_12":"12","02_ages_13":"13","02_ages_14":"14","02_ages_15":"15","02_ages_16":"16","02_ages_17":"17","02_ages_18":"18","03":"No","04":"Yes","04_ages_12":"12","04_ages_13":"13","04_ages_14":"14","04_ages_15":"15","04_ages_16":"16","04_ages_17":"17","04_ages_18":"18"},"rt":56364.90000000596,"item_order":[0,1,2,3],"radio_events":[8656.699999988079,26924.90000000596,29513.5,45109.40000000596,47333.59999999404,49404.30000001192],"checkbox_events":[15188,16547.5,17170.09999999404,17881.19999998808,18480.09999999404,19272.80000001192,20623.80000001192,21416.40000000596,22176.40000000596,22840.40000000596,23673.19999998808,31163.80000001192,31795.30000001192,32369.09999999404,32975.90000000596,33647.19999998808,34302.40000000596,34909.19999998808,35523.80000001192,36122.30000001192,36736.09999999404,37295.40000000596,37845.40000000596,38524.90000000596,39438.90000000596,40142.69999998808,40725,41388.40000000596,42189,50472.09999999404,51078.69999998808,51709.80000001192,53020,53707.5,54516.30000001192,55260.69999998808],"key_events":[],"mouse_events":[8656.699999988079,15188,15802.09999999404,16547.5,17170.09999999404,17881.19999998808,18480.09999999404,19272.80000001192,20041.80000001192,20623.80000001192,21416.40000000596,22176.40000000596,22840.40000000596,23673.19999998808,26924.90000000596,29513.5,31163.80000001192,31795.30000001192,32369.09999999404,32975.90000000596,33647.19999998808,34302.40000000596,34909.19999998808,35523.80000001192,36122.30000001192,36736.09999999404,37295.40000000596,37845.40000000596,38524.90000000596,39438.90000000596,40142.69999998808,40725,41388.40000000596,42189,45109.40000000596,47333.59999999404,49404.30000001192,50472.09999999404,51078.69999998808,51709.80000001192,52316,53020,53707.5,54516.30000001192,55260.69999998808,56360.90000000596],"honeypot":0,"survey":"mace","page":8,"trial_type":"survey-mace","trial_index":16,"time_elapsed":448050,"internal_node_id":"0.0-16.0","task_version":"prescreen-v0.3","browser_interactions":0},{"responses":{"01":"Yes","01_ages_1":"1","01_ages_2":"2","01_ages_3":"3","01_ages_4":"4","01_ages_5":"5","01_ages_6":"6","01_ages_7":"7","01_ages_8":"8","01_ages_9":"9","01_ages_10":"10","01_ages_11":"11","01_ages_12":"12","01_ages_13":"13","01_ages_14":"14","01_ages_15":"15","01_ages_16":"16","01_ages_17":"17","01_ages_18":"18","02":"Yes","02_ages_10":"10","02_ages_11":"11","02_ages_12":"12","02_ages_13":"13","02_ages_14":"14","02_ages_15":"15","02_ages_16":"16","02_ages_17":"17","02_ages_18":"18","03":"Yes","03_ages_1":"1","03_ages_2":"2","03_ages_3":"3","03_ages_4":"4","03_ages_5":"5","03_ages_6":"6","03_ages_7":"7","03_ages_8":"8","03_ages_9":"9","03_ages_10":"10","03_ages_11":"11","03_ages_12":"12","03_ages_13":"13","03_ages_14":"14","03_ages_15":"15","03_ages_16":"16","03_ages_17":"17","03_ages_18":"18","04":"Yes","04_ages_1":"1","04_ages_2":"2","04_ages_3":"3","04_ages_4":"4","04_ages_5":"5","04_ages_6":"6","04_ages_7":"7","04_ages_8":"8","04_ages_9":"9","04_ages_10":"10","04_ages_11":"11","04_ages_12":"12","04_ages_13":"13","04_ages_14":"14","04_ages_15":"15","04_ages_16":"16","04_ages_17":"17","04_ages_18":"18"},"rt":65754.70000001788,"item_order":[0,1,2,3],"radio_events":[4162.800000011921,22030.80000001192,31615.600000023842,51942.10000002384],"checkbox_events":[6832.5,7511.600000023842,8198.700000017881,8789.600000023842,9412,9978.5,10568.90000000596,11118.600000023842,11742.300000011921,12283.700000017881,13221.700000017881,13845.100000023842,14564.90000000596,15236.200000017881,15850.800000011921,16425.40000000596,17113,19968,23389.70000001788,23980.600000023842,24538,26196.5,27005,28436.600000023842,29035.40000000596,29585.30000001192,30288.90000000596,34751.10000002384,36125.20000001788,36880.90000000596,37479.70000001788,38021.5,38919.5,39760.40000000596,40334.90000000596,41079.40000000596,42648.5,44136.90000000596,44751.60000002384,45309.70000001788,45907.90000000596,46450,46967.90000000596,47542,48092,54069.60000002384,54659.70000001788,55218.5,55825.30000001192,56536.80000001192,57184.20000001788,57815.20000001788,58445.60000002384,59028.90000000596,59683.90000000596,60282.20000001788,60891.70000001788,61471.5,62094.80000001192,62644.40000000596,63251.10000002384,63890.20000001788,64715.10000002384],"key_events":[],"mouse_events":[4162.800000011921,6832.5,7511.600000023842,8198.700000017881,8789.600000023842,9412,9978.5,10568.90000000596,11118.600000023842,11742.300000011921,12283.700000017881,13221.700000017881,13845.100000023842,14564.90000000596,15236.200000017881,15850.800000011921,16425.40000000596,17113,17775.80000001192,19968,22030.80000001192,23389.70000001788,23980.600000023842,24538,25540.600000023842,26196.5,27005,28436.600000023842,29035.40000000596,29585.30000001192,30288.90000000596,31615.600000023842,34751.10000002384,35502.60000002384,36125.20000001788,36880.90000000596,37479.70000001788,38021.5,38919.5,39760.40000000596,40334.90000000596,41079.40000000596,42648.5,43319.60000002384,44136.90000000596,44751.60000002384,45309.70000001788,45907.90000000596,46450,46967.90000000596,47542,48092,51942.10000002384,54069.60000002384,54659.70000001788,55218.5,55825.30000001192,56536.80000001192,57184.20000001788,57815.20000001788,58445.60000002384,59028.90000000596,59683.90000000596,60282.20000001788,60891.70000001788,61471.5,62094.80000001192,62644.40000000596,63251.10000002384,63890.20000001788,64715.10000002384,65750.90000000596],"honeypot":0,"survey":"mace","page":9,"trial_type":"survey-mace","trial_index":17,"time_elapsed":513813,"internal_node_id":"0.0-17.0","task_version":"prescreen-v0.3","browser_interactions":0},{"responses":{"01":"No","02":"No","03":"No","04":"No","05":"Yes","05_ages_17":"17","05_ages_18":"18","06":"Yes","06_ages_17":"17","07":"No","08":"No"},"rt":25816.09999999404,"item_order":[0,1,2,3,4,5,6,7],"radio_events":[3688.0999999940395,5452,6867.5999999940395,9075.90000000596,14164.09999999404,19348.80000001192,22940.69999998808,25080.90000000596],"checkbox_events":[16109.300000011921,17202,21055.80000001192],"key_events":[],"mouse_events":[3688.0999999940395,5452,6867.5999999940395,9075.90000000596,14164.09999999404,16109.300000011921,17202,19348.80000001192,21055.80000001192,22940.69999998808,25080.90000000596,25808.19999998808],"honeypot":0,"survey":"mace","page":10,"trial_type":"survey-mace","trial_index":18,"time_elapsed":539634,"internal_node_id":"0.0-18.0","task_version":"prescreen-v0.3","browser_interactions":0,"instructed":0},{"rt":4246.0999999940395,"trial_type":"mental-health-alert","trial_index":19,"time_elapsed":543885,"internal_node_id":"0.0-19.0","task_version":"prescreen-v0.3","interactions":"[]"}]