[{"view_history":[{"page_index":0,"viewing_time":2759.9000000953674},{"page_index":1,"viewing_time":3295.1999999284744},{"page_index":2,"viewing_time":4688.200000047684},{"page_index":3,"viewing_time":1696}],"rt":12439.900000095367,"trial_type":"instructions","trial_index":0,"time_elapsed":12505,"internal_node_id":"0.0-0.0","task_version":"prescreen-v0.3"},{"rt":12414.5,"responses":{"age":"40","gender-categorical":"Male","gender-free-response":"","ethnicity":"Not Hispanic or Latino","race":["White"],"education":"Associate degree","siblings":"1"},"trial_type":"survey-demo","trial_index":1,"time_elapsed":24946,"internal_node_id":"0.0-1.0","task_version":"prescreen-v0.3"},{"responses":{"Q08":"1","Q03":"0","Q01":"0","Q12":"0","Q19":"0","Q21":"3","Q04":"2","Q07":"1","Q06":"0","Q13":"0","Q10":"0","Q17":"1","Q05":"2","Q18":"0","Q11":"1","Q15":"2","Q09":"0","Q14":"0","Q02":"0","Q20":"0","Q16":"0"},"rt":134477.60000002384,"item_order":[7,2,0,11,18,20,3,6,5,12,9,16,4,17,10,14,8,13,1,19,15],"radio_events":[8100,9316.200000047684,13596.300000071526,18804.200000047684,26004,29644.200000047684,38892.300000071526,47396.10000002384,52860.200000047684,59044.10000002384,65748.10000002384,70748.10000002384,82956.10000002384,93996.10000002384,94779.70000004768,100644,102971.80000007153,109012,112508,120019.70000004768,123739.80000007153,126315.70000004768,133331.70000004768],"key_events":[],"mouse_events":[4707.899999976158,8100,9316.200000047684,13596.300000071526,18804.200000047684,26004,29644.200000047684,38892.300000071526,46700.200000047684,47396.10000002384,52860.200000047684,59044.10000002384,65748.10000002384,70748.10000002384,82956.10000002384,93996.10000002384,94779.70000004768,100644,101883.89999997616,102971.80000007153,109012,112508,120019.70000004768,123739.80000007153,126315.70000004768,131779.89999997616,132948.20000004768,133331.70000004768,134476.20000004768],"straightlining":0.6190476190476191,"zigzagging":0.45,"honeypot":0,"survey":"sns","trial_type":"survey-template","trial_index":2,"time_elapsed":159427,"internal_node_id":"0.0-2.0","task_version":"prescreen-v0.3","browser_interactions":0,"infrequency":0},{"responses":{"Q04":"2","Q05":"3","Q03":"2","Q10":"2","Q11":"3","Q08":"3","Q09":"3","Q02":"2","Q13":"0","Q01":"2","Q06":"3","Q12":"2","Q07":"3"},"rt":62924.299999952316,"item_order":[3,4,2,9,10,7,8,1,12,0,5,11,6],"radio_events":[3739.5,9259.5,22075.699999928474,24563.699999928474,30859.599999904633,37011.699999928474,40147.5,43163.299999952316,46684,51844,54835.39999997616,59035.199999928474,62275.59999990463],"key_events":[],"mouse_events":[3739.5,8491.399999976158,9259.5,22075.699999928474,24563.699999928474,30859.599999904633,37011.699999928474,40147.5,43163.299999952316,45884.09999990463,46684,51844,54835.39999997616,59035.199999928474,61443.699999928474,62275.59999990463,62923.299999952316],"straightlining":0.46153846153846156,"zigzagging":0.5833333333333334,"honeypot":0,"survey":"bisbas","trial_type":"survey-template","trial_index":3,"time_elapsed":222354,"internal_node_id":"0.0-3.0","task_version":"prescreen-v0.3","browser_interactions":0,"infrequency":0},{"responses":{"Q01":"3","Q02":"3","Q03":"3"},"rt":19212,"radio_events":[8532,12931.900000095367,18339.800000071526],"key_events":[],"mouse_events":[8532,12931.900000095367,18339.800000071526,19211.5],"survey":"map","page":1,"trial_type":"survey-map","trial_index":4,"time_elapsed":241568,"internal_node_id":"0.0-4.0","task_version":"prescreen-v0.3","browser_interactions":0},{"responses":{"Q04":"3","Q05":"3","Q06":"3"},"rt":25894.600000023842,"radio_events":[7550,11101.899999976158,25110.200000047684],"key_events":[],"mouse_events":[606.1000000238419,2966.2000000476837,7550,11101.899999976158,25110.200000047684,25894.200000047684],"survey":"map","page":2,"trial_type":"survey-map","trial_index":5,"time_elapsed":267465,"internal_node_id":"0.0-5.0","task_version":"prescreen-v0.3","browser_interactions":0},{"responses":{"Q07":"4","Q08":"4","Q09":"2"},"rt":16550.600000023842,"radio_events":[7446.200000047684,10278.300000071526,14902],"key_events":[],"mouse_events":[7446.200000047684,10278.300000071526,14902,16550.300000071526],"survey":"map","page":3,"trial_type":"survey-map","trial_index":6,"time_elapsed":284016,"internal_node_id":"0.0-6.0","task_version":"prescreen-v0.3","browser_interactions":0},{"responses":{"Q10":"2","Q11":"2","Q12":"2","Q13":"2","Q16":"0","Q14":"3","Q15":"3"},"rt":47086.59999990463,"radio_events":[5541.899999976158,10453.899999976158,16021.799999952316,25941.799999952316,30725.899999976158,41157.799999952316,46333.89999997616],"key_events":[],"mouse_events":[5541.899999976158,10453.899999976158,16021.799999952316,25941.799999952316,30725.899999976158,41157.799999952316,45509.799999952316,46333.89999997616,47085.89999997616],"survey":"map","page":4,"trial_type":"survey-map","trial_index":7,"time_elapsed":331105,"internal_node_id":"0.0-7.0","task_version":"prescreen-v0.3","browser_interactions":0,"infrequency":0},{"view_history":[{"page_index":0,"viewing_time":2573.600000023842},{"page_index":1,"viewing_time":4575.899999976158}],"rt":7150.200000047684,"trial_type":"instructions","trial_index":8,"time_elapsed":338256,"internal_node_id":"0.0-8.0","task_version":"prescreen-v0.3"},{"responses":{"01":"No","02":"No","03":"Yes","03_ages_17":"17","04":"Yes","04_ages_17":"17","05":"No","06":"Yes","06_ages_16":"16"},"rt":60589,"item_order":[0,1,2,3,4,5],"radio_events":[19107.600000023842,24851.100000023842,32858.90000009537,44979.10000002384,51675,57299.10000002384],"checkbox_events":[38083.40000009537,39107.40000009537,40210.90000009537,48179.10000002384,59683.10000002384],"key_events":[],"mouse_events":[0,7555.100000023842,19107.600000023842,24851.100000023842,32858.90000009537,38083.40000009537,39107.40000009537,40210.90000009537,44979.10000002384,48179.10000002384,51675,57299.10000002384,59683.10000002384,60587.10000002384],"honeypot":0,"survey":"mace","page":1,"trial_type":"survey-mace","trial_index":9,"time_elapsed":398850,"internal_node_id":"0.0-9.0","task_version":"prescreen-v0.3","browser_interactions":0},{"responses":{"01":"No","02":"No","03":"Yes","03_ages_4":"4","03_ages_5":"5","03_ages_6":"6","03_ages_7":"7","03_ages_8":"8","03_ages_9":"9","03_ages_10":"10","04":"No","05":"No","06":"No","07":"No","08":"No"},"rt":39494.10000002384,"item_order":[0,1,2,3,4,5,6,7],"radio_events":[7403.299999952316,12355.299999952316,14347.299999952316,28403.299999952316,31355.299999952316,34331.10000002384,36747.39999997616,38571.39999997616],"checkbox_events":[16003.299999952316,16723.299999952316,17731.5,18339.5,23155.5,23723.399999976158,24579.600000023842],"key_events":[],"mouse_events":[7403.299999952316,12355.299999952316,14347.299999952316,16003.299999952316,16723.299999952316,17731.5,18339.5,23155.5,23723.399999976158,24579.600000023842,28403.299999952316,31355.299999952316,34331.10000002384,36747.39999997616,38571.39999997616,39491.5],"honeypot":0,"survey":"mace","page":2,"trial_type":"survey-mace","trial_index":10,"time_elapsed":438347,"internal_node_id":"0.0-10.0","task_version":"prescreen-v0.3","browser_interactions":0},{"responses":{"01":"No","02":"No","03":"No","04":"No"},"rt":19588.399999976158,"item_order":[0,1,2,3],"radio_events":[7122.800000071526,12410.899999976158,17651,19026.899999976158],"checkbox_events":[],"key_events":[],"mouse_events":[7122.800000071526,12410.899999976158,17651,19026.899999976158,19587],"honeypot":0,"survey":"mace","page":3,"trial_type":"survey-mace","trial_index":11,"time_elapsed":457938,"internal_node_id":"0.0-11.0","task_version":"prescreen-v0.3","browser_interactions":0},{"responses":{"01":"No","02":"No"},"rt":8973.300000071526,"item_order":[0,1],"radio_events":[2596.4000000953674,7628.5],"checkbox_events":[],"key_events":[],"mouse_events":[2596.4000000953674,7628.5,8972.5],"honeypot":0,"survey":"mace","page":4,"trial_type":"survey-mace","trial_index":12,"time_elapsed":466913,"internal_node_id":"0.0-12.0","task_version":"prescreen-v0.3","browser_interactions":0},{"responses":{"01":"No","02":"No","03":"No","04":"No","05":"No"},"rt":20622.600000023842,"item_order":[0,1,2,3,4],"radio_events":[6229.299999952316,8909.399999976158,12045.200000047684,16053.299999952316,19597.299999952316],"checkbox_events":[],"key_events":[],"mouse_events":[6229.299999952316,8909.399999976158,12045.200000047684,16053.299999952316,19597.299999952316,20621.100000023842],"honeypot":0,"survey":"mace","page":5,"trial_type":"survey-mace","trial_index":13,"time_elapsed":487538,"internal_node_id":"0.0-13.0","task_version":"prescreen-v0.3","browser_interactions":0},{"responses":{"01":"No","02":"No","03":"No","04":"Yes","04_ages_10":"10","04_ages_11":"11","04_ages_12":"12","04_ages_13":"13","05":"Yes","05_ages_16":"16","05_ages_17":"17"},"rt":29862.600000023842,"item_order":[0,1,2,3,4],"radio_events":[2836.6999999284744,5084.600000023842,8052.399999976158,12948.600000023842,25492.600000023842],"checkbox_events":[15068.5,15908.600000023842,18388.699999928474,19628.799999952316,27660.5,28916.600000023842],"key_events":[],"mouse_events":[2836.6999999284744,5084.600000023842,8052.399999976158,12948.600000023842,15068.5,15908.600000023842,18388.699999928474,19020.299999952316,19628.799999952316,25492.600000023842,26756.399999976158,27660.5,28300.199999928474,28916.600000023842,29860.699999928474],"honeypot":0,"survey":"mace","page":6,"trial_type":"survey-mace","trial_index":14,"time_elapsed":517402,"internal_node_id":"0.0-14.0","task_version":"prescreen-v0.3","browser_interactions":0},{"responses":{"01":"Yes","01_ages_8":"8","02":"Yes","02_ages_8":"8","02_ages_9":"9","03":"Yes","03_ages_5":"5","03_ages_6":"6","03_ages_10":"10","03_ages_11":"11","03_ages_12":"12","04":"Yes","04_ages_11":"11","04_ages_12":"12","04_ages_13":"13","05":"No","06":"No","07":"No"},"rt":50941.89999997616,"item_order":[0,1,2,3,4,5,6],"radio_events":[4315.699999928474,7491.600000023842,17451.699999928474,24267.699999928474,34323.299999952316,44979.799999952316,47387.60000002384,48611.299999952316],"checkbox_events":[9971.399999976158,10427.600000023842,12219.299999952316,19011.5,19603.799999952316,26235.5,26755.5,29027.600000023842,30163.799999952316,30707.600000023842,35427.5,36475.39999997616,37203.799999952316],"key_events":[],"mouse_events":[4315.699999928474,7491.600000023842,9971.399999976158,10427.600000023842,12219.299999952316,17451.699999928474,19011.5,19603.799999952316,20987.199999928474,24267.699999928474,25747.299999952316,26235.5,26755.5,29027.600000023842,30163.799999952316,30707.600000023842,34323.299999952316,35427.5,36475.39999997616,37203.799999952316,44979.799999952316,47387.60000002384,48611.299999952316,50939.699999928474],"honeypot":0,"survey":"mace","page":7,"trial_type":"survey-mace","trial_index":15,"time_elapsed":568346,"internal_node_id":"0.0-15.0","task_version":"prescreen-v0.3","browser_interactions":0},{"responses":{"01":"No","02":"No","03":"No","04":"No"},"rt":19124.899999976158,"item_order":[0,1,2,3],"radio_events":[7403.399999976158,11131.600000023842,15579.600000023842,17931.299999952316],"checkbox_events":[],"key_events":[],"mouse_events":[7403.399999976158,11131.600000023842,15579.600000023842,17931.299999952316,19123.600000023842],"honeypot":0,"survey":"mace","page":8,"trial_type":"survey-mace","trial_index":16,"time_elapsed":587473,"internal_node_id":"0.0-16.0","task_version":"prescreen-v0.3","browser_interactions":0},{"responses":{"01":"Yes","01_ages_1":"1","01_ages_2":"2","01_ages_3":"3","01_ages_4":"4","01_ages_5":"5","01_ages_6":"6","01_ages_7":"7","01_ages_8":"8","01_ages_9":"9","01_ages_10":"10","01_ages_11":"11","01_ages_12":"12","01_ages_13":"13","01_ages_14":"14","01_ages_15":"15","01_ages_16":"16","01_ages_17":"17","01_ages_18":"18","02":"Yes","02_ages_1":"1","02_ages_2":"2","02_ages_3":"3","02_ages_4":"4","02_ages_5":"5","02_ages_6":"6","02_ages_7":"7","02_ages_8":"8","02_ages_9":"9","02_ages_10":"10","02_ages_11":"11","02_ages_12":"12","02_ages_13":"13","02_ages_14":"14","02_ages_15":"15","02_ages_16":"16","02_ages_17":"17","02_ages_18":"18","03":"Yes","03_ages_1":"1","03_ages_2":"2","03_ages_3":"3","03_ages_4":"4","03_ages_5":"5","03_ages_6":"6","03_ages_7":"7","03_ages_8":"8","03_ages_9":"9","03_ages_10":"10","03_ages_11":"11","03_ages_12":"12","03_ages_13":"13","03_ages_14":"14","03_ages_15":"15","03_ages_16":"16","03_ages_17":"17","03_ages_18":"18","04":"Yes","04_ages_1":"1","04_ages_2":"2","04_ages_3":"3","04_ages_4":"4","04_ages_5":"5","04_ages_6":"6","04_ages_7":"7","04_ages_8":"8","04_ages_9":"9","04_ages_10":"10","04_ages_11":"11","04_ages_12":"12","04_ages_13":"13","04_ages_14":"14","04_ages_15":"15","04_ages_16":"16","04_ages_17":"17","04_ages_18":"18"},"rt":81077.89999997616,"item_order":[0,1,2,3],"radio_events":[5156.899999976158,30380.699999928474,48357.199999928474,64988.799999952316],"checkbox_events":[13020.699999928474,13508.899999976158,14060.699999928474,15188.899999976158,15652.899999976158,16116.899999976158,16564.799999952316,17620.699999928474,18188.899999976158,18844.899999976158,19468.899999976158,21828.599999904633,23100.599999904633,23780.699999928474,24420.699999928474,24924.899999976158,25461.099999904633,26452.699999928474,31740.699999928474,32252.799999952316,32724.799999952316,34692.89999997616,35276.39999997616,35836.89999997616,36428.799999952316,37076.59999990463,37940.39999997616,38512.199999928474,39220.699999928474,40196.799999952316,41036.39999997616,41604.699999928474,42900.59999990463,43652.799999952316,44228.799999952316,45004.799999952316,49772.5,50316.5,51092.699999928474,52028.59999990463,52572.59999990463,53300.699999928474,53812.799999952316,54916.699999928474,55412.699999928474,55917.5,56676.5,57468.699999928474,58076.59999990463,58748.799999952316,59436.699999928474,60117,60764.799999952316,61476.5,66388.59999990463,66988.39999997616,67725,68324.59999990463,69644.59999990463,70576.69999992847,71100.39999997616,71708.69999992847,72332.69999992847,72996.69999992847,74228.69999992847,74988.59999990463,75924.5,77004.69999992847,77580.59999990463,78564.69999992847,79428.69999992847,80140.59999990463],"key_events":[],"mouse_events":[5156.899999976158,13020.699999928474,13508.899999976158,14060.699999928474,15188.899999976158,15652.899999976158,16116.899999976158,16564.799999952316,17012.799999952316,17620.699999928474,18188.899999976158,18844.899999976158,19468.899999976158,21828.599999904633,22476.699999928474,23100.599999904633,23780.699999928474,24420.699999928474,24924.899999976158,25461.099999904633,26452.699999928474,30380.699999928474,31740.699999928474,32252.799999952316,32724.799999952316,33588.699999928474,34692.89999997616,35276.39999997616,35836.89999997616,36428.799999952316,37076.59999990463,37940.39999997616,38512.199999928474,39220.699999928474,40196.799999952316,41036.39999997616,41604.699999928474,42420.89999997616,42900.59999990463,43652.799999952316,44228.799999952316,45004.799999952316,47812.5,48357.199999928474,49772.5,50316.5,51092.699999928474,52028.59999990463,52572.59999990463,53300.699999928474,53812.799999952316,54916.699999928474,55412.699999928474,55917.5,56676.5,57468.699999928474,58076.59999990463,58748.799999952316,59436.699999928474,60117,60764.799999952316,61476.5,64988.799999952316,66388.59999990463,66988.39999997616,67725,68324.59999990463,68820.69999992847,69644.59999990463,70576.69999992847,71100.39999997616,71708.69999992847,72332.69999992847,72996.69999992847,74228.69999992847,74988.59999990463,75924.5,77004.69999992847,77580.59999990463,78564.69999992847,79428.69999992847,80140.59999990463,81076.5],"honeypot":0,"survey":"mace","page":9,"trial_type":"survey-mace","trial_index":17,"time_elapsed":668553,"internal_node_id":"0.0-17.0","task_version":"prescreen-v0.3","browser_interactions":0},{"responses":{"01":"No","02":"No","03":"No","04":"No","05":"Yes","05_ages_7":"7","05_ages_8":"8","05_ages_9":"9","05_ages_10":"10","05_ages_11":"11","05_ages_12":"12","05_ages_13":"13","05_ages_14":"14","05_ages_15":"15","05_ages_16":"16","05_ages_17":"17","06":"Yes","06_ages_17":"17","07":"Yes","07_ages_1":"1","07_ages_2":"2","07_ages_3":"3","07_ages_4":"4","07_ages_5":"5","07_ages_6":"6","07_ages_7":"7","07_ages_8":"8","07_ages_9":"9","07_ages_10":"10","07_ages_11":"11","07_ages_12":"12","07_ages_13":"13","07_ages_14":"14","07_ages_15":"15","07_ages_16":"16","07_ages_17":"17","07_ages_18":"18","08":"Yes","08_ages_1":"1","08_ages_2":"2","08_ages_3":"3","08_ages_4":"4","08_ages_5":"5","08_ages_6":"6","08_ages_7":"7","08_ages_8":"8","08_ages_9":"9","08_ages_10":"10","08_ages_11":"11","08_ages_12":"12","08_ages_13":"13","08_ages_14":"14","08_ages_15":"15","08_ages_16":"16","08_ages_17":"17","08_ages_18":"18"},"rt":73615,"item_order":[0,1,2,3,4,5,6,7],"radio_events":[4588.600000023842,6364.399999976158,9301.300000071526,12348.200000047684,15244.399999976158,33524.200000047684,39988.700000047684,55972.39999997616],"checkbox_events":[16668.899999976158,18324.200000047684,19316.399999976158,22084.200000047684,22556.5,23148.200000047684,23972.5,25236.399999976158,25996.300000071526,26820.399999976158,27348.399999976158,29476.5,30212.200000047684,35220.39999997616,42916.200000047684,43460.10000002384,43980.10000002384,44476.300000071526,44980.10000002384,45469.200000047684,46277.700000047684,46876.5,47588.5,48220.300000071526,48724.200000047684,49244.200000047684,49764.39999997616,50628.39999997616,51092.39999997616,51852.39999997616,52900.200000047684,54420.5,58124.39999997616,58644.300000071526,59876.39999997616,60452.300000071526,60988.39999997616,61620.300000071526,62412.5,63076.39999997616,63932.300000071526,65532.300000071526,66700.30000007153,67484.20000004768,67612.39999997616,68604.20000004768,69652.30000007153,70404.20000004768,71140.30000007153,71804.30000007153,72420.20000004768,72980.20000004768],"key_events":[],"mouse_events":[4588.600000023842,6364.399999976158,8660.700000047684,9301.300000071526,12348.200000047684,15244.399999976158,16668.899999976158,18324.200000047684,19316.399999976158,22084.200000047684,22556.5,23148.200000047684,23972.5,25236.399999976158,25996.300000071526,26820.399999976158,27348.399999976158,28332.700000047684,29476.5,30212.200000047684,33524.200000047684,35220.39999997616,39988.700000047684,42916.200000047684,43460.10000002384,43980.10000002384,44476.300000071526,44980.10000002384,45469.200000047684,46277.700000047684,46876.5,47588.5,48220.300000071526,48724.200000047684,49244.200000047684,49764.39999997616,50628.39999997616,51092.39999997616,51852.39999997616,52324.700000047684,52900.200000047684,53580.60000002384,54420.5,55972.39999997616,58124.39999997616,58644.300000071526,59876.39999997616,60452.300000071526,60988.39999997616,61620.300000071526,62412.5,63076.39999997616,63932.300000071526,64804.39999997616,65532.300000071526,66700.30000007153,67484.20000004768,67612.39999997616,68604.20000004768,69652.30000007153,70404.20000004768,71140.30000007153,71804.30000007153,72420.20000004768,72980.20000004768,73612.5],"honeypot":0,"survey":"mace","page":10,"trial_type":"survey-mace","trial_index":18,"time_elapsed":742170,"internal_node_id":"0.0-18.0","task_version":"prescreen-v0.3","browser_interactions":0,"instructed":0},{"rt":5499.5,"trial_type":"mental-health-alert","trial_index":19,"time_elapsed":747671,"internal_node_id":"0.0-19.0","task_version":"prescreen-v0.3","interactions":"[]"}]