[{"view_history":[{"page_index":0,"viewing_time":5662.299999982119},{"page_index":1,"viewing_time":5451.5999999940395},{"page_index":2,"viewing_time":6677.700000017881},{"page_index":3,"viewing_time":1580.2999999821186}],"rt":19373,"trial_type":"instructions","trial_index":0,"time_elapsed":19393,"internal_node_id":"0.0-0.0","task_version":"prescreen-v0.3"},{"rt":27328.59999999404,"responses":{"age":"35","gender-categorical":"Female","gender-free-response":"","ethnicity":"Not Hispanic or Latino","race":["White"],"education":"Associate degree"},"trial_type":"survey-demo","trial_index":1,"time_elapsed":46728,"internal_node_id":"0.0-1.0","task_version":"prescreen-v0.3"},{"responses":{"Q09":"0","Q18":"0","Q16":"0","Q06":"3","Q15":"1","Q05":"0","Q17":"0","Q19":"0","Q21":"3","Q08":"0","Q03":"0","Q01":"0","Q13":"1","Q14":"0","Q07":"0","Q11":"0","Q12":"0","Q10":"0","Q02":"0","Q04":"1","Q20":"0"},"rt":206320.19999998808,"item_order":[8,17,15,5,14,4,16,18,20,7,2,0,12,13,6,10,11,9,1,3,19],"radio_events":[21450.19999998808,31262.09999999404,36458,46892.19999998808,51644.40000000596,69618.29999998212,80101.79999998212,92786.5,98416.09999999404,109384.09999999404,113092.29999998212,119873.90000000596,123536.09999999404,126500.09999999404,133300.19999998808,138688.19999998808,160880.09999999404,163649.79999998212,167866.19999998808,171692.19999998808,175338.29999998212,194378.09999999404,199521],"key_events":[],"mouse_events":[21450.19999998808,31262.09999999404,36458,46892.19999998808,51644.40000000596,69618.29999998212,80101.79999998212,92786.5,98416.09999999404,109384.09999999404,113092.29999998212,119873.90000000596,123536.09999999404,126500.09999999404,133300.19999998808,138688.19999998808,160880.09999999404,163649.79999998212,167866.19999998808,171692.19999998808,175338.29999998212,194378.09999999404,199521,206316.19999998808],"straightlining":0.7619047619047619,"zigzagging":0.4,"honeypot":0,"survey":"sns","trial_type":"survey-template","trial_index":2,"time_elapsed":253059,"internal_node_id":"0.0-2.0","task_version":"prescreen-v0.3","browser_interactions":0,"infrequency":0},{"responses":{"Q04":"2","Q05":"3","Q12":"0","Q10":"2","Q07":"3","Q03":"2","Q02":"1","Q08":"2","Q06":"3","Q13":"0","Q11":"1","Q01":"2","Q09":"1"},"rt":157000.70000001788,"item_order":[3,4,11,9,6,2,1,7,5,12,10,0,8],"radio_events":[18507.40000000596,27133.30000001192,67662.40000000596,78162.40000000596,85302.5,101358.40000000596,104078.59999999404,113820,123333.70000001788,129399.80000001192,133961.70000001788,142443.70000001788,148160,155753.20000001788],"key_events":[],"mouse_events":[18507.40000000596,27133.30000001192,67662.40000000596,78162.40000000596,85302.5,101358.40000000596,104078.59999999404,113820,123333.70000001788,129399.80000001192,133961.70000001788,142443.70000001788,148160,155753.20000001788,156998],"straightlining":0.38461538461538464,"zigzagging":0.9166666666666666,"honeypot":0,"survey":"bisbas","trial_type":"survey-template","trial_index":3,"time_elapsed":410067,"internal_node_id":"0.0-3.0","task_version":"prescreen-v0.3","browser_interactions":0,"infrequency":0},{"responses":{"Q01":"3","Q02":"4","Q03":"3"},"rt":43252.20000001788,"radio_events":[14200.700000017881,25423.20000001788,40496.70000001788],"key_events":[],"mouse_events":[14200.700000017881,25423.20000001788,40496.70000001788,43250.80000001192],"survey":"map","page":1,"trial_type":"survey-map","trial_index":4,"time_elapsed":453323,"internal_node_id":"0.0-4.0","task_version":"prescreen-v0.3","browser_interactions":0},{"responses":{"Q04":"2","Q05":"2","Q06":"2"},"rt":29009.30000001192,"radio_events":[10631.800000011921,19931.90000000596,27924],"key_events":[],"mouse_events":[10631.800000011921,19931.90000000596,27924,29008],"survey":"map","page":2,"trial_type":"survey-map","trial_index":5,"time_elapsed":482336,"internal_node_id":"0.0-5.0","task_version":"prescreen-v0.3","browser_interactions":0},{"responses":{"Q07":"4","Q08":"4","Q09":"2"},"rt":31040.90000000596,"radio_events":[8838,15161.800000011921,20693.5],"key_events":[],"mouse_events":[8838,15161.800000011921,20693.5,31039.5],"survey":"map","page":3,"trial_type":"survey-map","trial_index":6,"time_elapsed":513380,"internal_node_id":"0.0-6.0","task_version":"prescreen-v0.3","browser_interactions":0},{"responses":{"Q10":"3","Q11":"2","Q12":"2","Q13":"2","Q16":"0","Q14":"2","Q15":"2"},"rt":111262.80000001192,"radio_events":[12801.699999988079,18613.09999999404,35221.19999998808,53399.09999999404,63601.09999999404,103276.09999999404,110090.40000000596],"key_events":[],"mouse_events":[12801.699999988079,18613.09999999404,35221.19999998808,53399.09999999404,63601.09999999404,103276.09999999404,110090.40000000596,111260.40000000596],"survey":"map","page":4,"trial_type":"survey-map","trial_index":7,"time_elapsed":624648,"internal_node_id":"0.0-7.0","task_version":"prescreen-v0.3","browser_interactions":0,"infrequency":0},{"view_history":[{"page_index":0,"viewing_time":3260.5999999940395},{"page_index":1,"viewing_time":5325.4000000059605}],"rt":8587.399999976158,"trial_type":"instructions","trial_index":8,"time_elapsed":633236,"internal_node_id":"0.0-8.0","task_version":"prescreen-v0.3"},{"responses":{"01":"No","02":"No","03":"No","04":"No","05":"No","06":"No"},"rt":43922,"item_order":[0,1,2,3,4,5],"radio_events":[13527.200000017881,19556,25359.90000000596,28299.80000001192,30833.40000000596,37065.20000001788],"checkbox_events":[],"key_events":[],"mouse_events":[0,13527.200000017881,19556,25359.90000000596,28299.80000001192,30833.40000000596,37065.20000001788,43917],"honeypot":0,"survey":"mace","page":1,"trial_type":"survey-mace","trial_index":9,"time_elapsed":669706,"internal_node_id":"0.0-9.0","task_version":"prescreen-v0.3","browser_interactions":0},{"responses":{"01":"No","02":"No","03":"Yes","03_ages_5":"5","03_ages_6":"6","03_ages_7":"7","03_ages_8":"8","03_ages_9":"9","03_ages_10":"10","04":"No","05":"Yes","05_ages_5":"5","05_ages_6":"6","05_ages_7":"7","05_ages_8":"8","05_ages_9":"9","05_ages_10":"10","06":"No","07":"No","08":"No"},"rt":133955.39999997616,"item_order":[0,1,2,3,4,5,6,7],"radio_events":[6525.899999976158,11894.5,20528.899999976158,75812.89999997616,83035,106232.89999997616,109094.89999997616,112567.09999999404],"checkbox_events":[39721.19999998808,40901.19999998808,41983.69999998808,43169.19999998808,45019,72952.69999998808,85194.89999997616,86483.09999999404,87610.79999998212,88560.79999998212,89882.89999997616,94125.29999998212],"key_events":[],"mouse_events":[6525.899999976158,11894.5,20528.899999976158,39721.19999998808,40901.19999998808,41983.69999998808,43169.19999998808,45019,72952.69999998808,75812.89999997616,83035,85194.89999997616,86483.09999999404,87610.79999998212,88560.79999998212,89882.89999997616,94125.29999998212,106232.89999997616,109094.89999997616,112567.09999999404,133948.39999997616],"honeypot":0,"survey":"mace","page":2,"trial_type":"survey-mace","trial_index":10,"time_elapsed":803667,"internal_node_id":"0.0-10.0","task_version":"prescreen-v0.3","browser_interactions":0},{"responses":{"01":"No","02":"No","03":"No","04":"No"},"rt":27707.80000001192,"item_order":[0,1,2,3],"radio_events":[15628.5,20459.80000001192,22999.70000001788,24807.90000000596],"checkbox_events":[],"key_events":[],"mouse_events":[15628.5,20459.80000001192,22999.70000001788,24807.90000000596,27703.90000000596],"honeypot":0,"survey":"mace","page":3,"trial_type":"survey-mace","trial_index":11,"time_elapsed":831377,"internal_node_id":"0.0-11.0","task_version":"prescreen-v0.3","browser_interactions":0},{"responses":{"01":"No","02":"No"},"rt":25037.20000001788,"item_order":[0,1],"radio_events":[14364.800000011921,19923.70000001788],"checkbox_events":[],"key_events":[],"mouse_events":[14364.800000011921,19923.70000001788,25035.30000001192],"honeypot":0,"survey":"mace","page":4,"trial_type":"survey-mace","trial_index":12,"time_elapsed":856416,"internal_node_id":"0.0-12.0","task_version":"prescreen-v0.3","browser_interactions":0},{"responses":{"01":"No","02":"No","03":"No","04":"No","05":"No"},"rt":34692.90000000596,"item_order":[0,1,2,3,4],"radio_events":[10195,17751.90000000596,24427.80000001192,29116,33249.90000000596],"checkbox_events":[],"key_events":[],"mouse_events":[10195,17751.90000000596,24427.80000001192,29116,33249.90000000596,34688.20000001788],"honeypot":0,"survey":"mace","page":5,"trial_type":"survey-mace","trial_index":13,"time_elapsed":891112,"internal_node_id":"0.0-13.0","task_version":"prescreen-v0.3","browser_interactions":0},{"responses":{"01":"No","02":"No","03":"No","04":"No","05":"No"},"rt":102725.40000000596,"item_order":[0,1,2,3,4],"radio_events":[13923.40000000596,18343.5,70086.59999999404,97686.40000000596,101794.29999998212],"checkbox_events":[],"key_events":[],"mouse_events":[13923.40000000596,18343.5,70086.59999999404,97686.40000000596,101794.29999998212,102720.79999998212],"honeypot":0,"survey":"mace","page":6,"trial_type":"survey-mace","trial_index":14,"time_elapsed":993838,"internal_node_id":"0.0-14.0","task_version":"prescreen-v0.3","browser_interactions":0},{"responses":{"01":"No","02":"No","03":"No","04":"No","05":"No","06":"No","07":"No"},"rt":27976.5,"item_order":[0,1,2,3,4,5,6],"radio_events":[3210.5,12207.699999988079,14713.300000011921,21133.40000000596,24133.09999999404,25663.5,27043.90000000596],"checkbox_events":[],"key_events":[],"mouse_events":[3210.5,12207.699999988079,14713.300000011921,21133.40000000596,24133.09999999404,25663.5,27043.90000000596,27969.59999999404],"honeypot":0,"survey":"mace","page":7,"trial_type":"survey-mace","trial_index":15,"time_elapsed":1021818,"internal_node_id":"0.0-15.0","task_version":"prescreen-v0.3","browser_interactions":0},{"responses":{"01":"No","02":"No","03":"No","04":"No"},"rt":59050,"item_order":[0,1,2,3],"radio_events":[16004.90000000596,29818.5,40201.29999998212,50838.09999999404,54696.29999998212],"checkbox_events":[],"key_events":[],"mouse_events":[16004.90000000596,29818.5,40201.29999998212,50838.09999999404,54696.29999998212,59046.29999998212],"honeypot":0,"survey":"mace","page":8,"trial_type":"survey-mace","trial_index":16,"time_elapsed":1080870,"internal_node_id":"0.0-16.0","task_version":"prescreen-v0.3","browser_interactions":0},{"responses":{"01":"Yes","01_ages_1":"1","01_ages_2":"2","01_ages_3":"3","01_ages_4":"4","01_ages_5":"5","01_ages_6":"6","01_ages_7":"7","01_ages_8":"8","01_ages_9":"9","01_ages_10":"10","01_ages_11":"11","01_ages_12":"12","01_ages_13":"13","01_ages_14":"14","01_ages_15":"15","01_ages_16":"16","01_ages_17":"17","01_ages_18":"18","02":"Yes","02_ages_1":"1","02_ages_2":"2","02_ages_3":"3","02_ages_4":"4","02_ages_5":"5","02_ages_6":"6","02_ages_7":"7","02_ages_8":"8","02_ages_9":"9","02_ages_10":"10","02_ages_11":"11","02_ages_12":"12","02_ages_13":"13","02_ages_14":"14","02_ages_15":"15","02_ages_16":"16","02_ages_17":"17","02_ages_18":"18","03":"Yes","03_ages_1":"1","03_ages_2":"2","03_ages_3":"3","03_ages_4":"4","03_ages_5":"5","03_ages_6":"6","03_ages_7":"7","03_ages_8":"8","03_ages_9":"9","03_ages_10":"10","03_ages_11":"11","03_ages_12":"12","03_ages_13":"13","03_ages_14":"14","03_ages_15":"15","03_ages_16":"16","03_ages_17":"17","03_ages_18":"18","04":"Yes","04_ages_1":"1","04_ages_2":"2","04_ages_3":"3","04_ages_4":"4","04_ages_5":"5","04_ages_6":"6","04_ages_7":"7","04_ages_8":"8","04_ages_9":"9","04_ages_10":"10","04_ages_11":"11","04_ages_12":"12","04_ages_13":"13","04_ages_14":"14","04_ages_15":"15","04_ages_16":"16","04_ages_17":"17","04_ages_18":"18"},"rt":98465.5,"item_order":[0,1,2,3],"radio_events":[11651.800000011921,39589,59125.5,81201.10000002384],"checkbox_events":[16795.90000000596,17778.30000001192,18456.20000001788,19285.70000001788,20036.20000001788,20920.30000001192,21556.100000023842,22322.30000001192,23284,25424.40000000596,26130.20000001788,26785.80000001192,27487.90000000596,28189.90000000596,28854.100000023842,29919.70000001788,30815.80000001192,31550.5,40675.10000002384,41573.10000002384,42243.30000001192,43041.30000001192,43726.90000000596,44525.30000001192,45200.90000000596,45911.10000002384,46573.20000001788,47379.20000001788,48303.10000002384,49045,49862.90000000596,50541.30000001192,51267,51923.10000002384,53179,54188.80000001192,60109.40000000596,60967.30000001192,61725.20000001788,62399.30000001192,63201.30000001192,63955,64672.90000000596,65391.20000001788,66039.30000001192,66971,67689.30000001192,68549.10000002384,69565,70543.20000001788,71373.30000001192,72177.40000000596,73370.80000001192,74139.30000001192,83730.80000001192,84622.70000001788,85333.20000001788,86147.10000002384,86961.70000001788,87832.70000001788,88954.80000001192,89704.80000001192,90494.70000001788,91164.70000001788,91801.10000002384,92425.10000002384,93143.30000001192,93807.10000002384,94832.90000000596,95629.20000001788,96786.80000001192,97647],"key_events":[],"mouse_events":[11651.800000011921,16795.90000000596,17778.30000001192,18456.20000001788,19285.70000001788,20036.20000001788,20920.30000001192,21556.100000023842,22322.30000001192,23284,25424.40000000596,26130.20000001788,26785.80000001192,27487.90000000596,28189.90000000596,28854.100000023842,29919.70000001788,30815.80000001192,31550.5,39589,40675.10000002384,41573.10000002384,42243.30000001192,43041.30000001192,43726.90000000596,44525.30000001192,45200.90000000596,45911.10000002384,46573.20000001788,47379.20000001788,48303.10000002384,49045,49862.90000000596,50541.30000001192,51267,51923.10000002384,53179,54188.80000001192,59125.5,60109.40000000596,60967.30000001192,61725.20000001788,62399.30000001192,63201.30000001192,63955,64672.90000000596,65391.20000001788,66039.30000001192,66971,67689.30000001192,68549.10000002384,69565,70543.20000001788,71373.30000001192,72177.40000000596,73370.80000001192,74139.30000001192,81201.10000002384,83730.80000001192,84622.70000001788,85333.20000001788,86147.10000002384,86961.70000001788,87832.70000001788,88954.80000001192,89704.80000001192,90494.70000001788,91164.70000001788,91801.10000002384,92425.10000002384,93143.30000001192,93807.10000002384,94832.90000000596,95629.20000001788,96786.80000001192,97647,98461.70000001788],"honeypot":0,"survey":"mace","page":9,"trial_type":"survey-mace","trial_index":17,"time_elapsed":1179335,"internal_node_id":"0.0-17.0","task_version":"prescreen-v0.3","browser_interactions":0},{"responses":{"01":"No","02":"No","03":"No","04":"No","05":"No","06":"Yes","06_ages_17":"17","07":"Yes","07_ages_1":"1","07_ages_2":"2","07_ages_3":"3","07_ages_4":"4","07_ages_5":"5","07_ages_6":"6","07_ages_7":"7","07_ages_8":"8","07_ages_9":"9","07_ages_10":"10","07_ages_11":"11","07_ages_12":"12","07_ages_13":"13","07_ages_14":"14","07_ages_15":"15","07_ages_16":"16","07_ages_17":"17","07_ages_18":"18","08":"Yes","08_ages_1":"1","08_ages_2":"2","08_ages_3":"3","08_ages_4":"4","08_ages_5":"5","08_ages_6":"6","08_ages_7":"7","08_ages_8":"8","08_ages_9":"9","08_ages_10":"10","08_ages_11":"11","08_ages_12":"12","08_ages_13":"13","08_ages_14":"14","08_ages_15":"15","08_ages_16":"16","08_ages_17":"17","08_ages_18":"18"},"rt":70067.90000000596,"item_order":[0,1,2,3,4,5,6,7],"radio_events":[4526.5,6466.800000011921,10048.40000000596,13300.600000023842,18974.5,23392.600000023842,33224.80000001192,53132.20000001788],"checkbox_events":[25322.30000001192,36600.70000001788,37524.70000001788,38310.30000001192,39076.20000001788,39706.20000001788,40338.20000001788,40992.80000001192,41814.5,42608.40000000596,43304.60000002384,44274.20000001788,44944.80000001192,45710.80000001192,46388.60000002384,47416.80000001192,48430.5,49496.80000001192,50492.80000001192,55240,55966.10000002384,56870.40000000596,57502.70000001788,58456.10000002384,59223,60028.40000000596,60908.80000001192,61736.5,62550.70000001788,63276.20000001788,64042.80000001192,64718.60000002384,65500.5,66550.5,67387,68366.20000001788,69186.80000001192],"key_events":[],"mouse_events":[4526.5,6466.800000011921,10048.40000000596,13300.600000023842,18974.5,23392.600000023842,25322.30000001192,33224.80000001192,36600.70000001788,37524.70000001788,38310.30000001192,39076.20000001788,39706.20000001788,40338.20000001788,40992.80000001192,41814.5,42608.40000000596,43304.60000002384,44274.20000001788,44944.80000001192,45710.80000001192,46388.60000002384,47416.80000001192,48430.5,49496.80000001192,50492.80000001192,53132.20000001788,55240,55966.10000002384,56870.40000000596,57502.70000001788,58456.10000002384,59223,60028.40000000596,60908.80000001192,61736.5,62550.70000001788,63276.20000001788,64042.80000001192,64718.60000002384,65500.5,66550.5,67387,68366.20000001788,69186.80000001192,70060.70000001788],"honeypot":0,"survey":"mace","page":10,"trial_type":"survey-mace","trial_index":18,"time_elapsed":1249405,"internal_node_id":"0.0-18.0","task_version":"prescreen-v0.3","browser_interactions":0,"instructed":0},{"rt":10562.199999988079,"trial_type":"mental-health-alert","trial_index":19,"time_elapsed":1259969,"internal_node_id":"0.0-19.0","task_version":"prescreen-v0.3","interactions":"[]"}]