[{"view_history":[{"page_index":0,"viewing_time":2519.899999976158},{"page_index":1,"viewing_time":2714},{"page_index":2,"viewing_time":2556.5},{"page_index":3,"viewing_time":903}],"rt":8695.799999952316,"trial_type":"instructions","trial_index":0,"time_elapsed":8719,"internal_node_id":"0.0-0.0","task_version":"prescreen-v0.3"},{"rt":11977.5,"responses":{"age":"21","gender-categorical":"Female","gender-free-response":"","ethnicity":"Not Hispanic or Latino","race":["White"],"education":"Some college"},"trial_type":"survey-demo","trial_index":1,"time_elapsed":20707,"internal_node_id":"0.0-1.0","task_version":"prescreen-v0.3"},{"responses":{"Q12":"2","Q11":"2","Q16":"3","Q08":"2","Q18":"1","Q17":"1","Q02":"2","Q20":"1","Q07":"0","Q15":"3","Q03":"1","Q19":"1","Q05":"2","Q21":"3","Q13":"3","Q10":"2","Q14":"3","Q01":"2","Q04":"2","Q09":"0","Q06":"0"},"rt":76262.60000002384,"item_order":[11,10,15,7,17,16,1,19,6,14,2,18,4,20,12,9,13,0,3,8,5],"radio_events":[4509.5,7514.200000047684,11138.100000023842,15308.700000047684,19275.800000071526,22142.300000071526,24553.100000023842,31470.700000047684,36161.60000002384,39622.700000047684,42920.60000002384,47636.89999997616,53231.89999997616,55520.300000071526,58388,62101.60000002384,64797.700000047684,67060,69692.70000004768,71859.60000002384,74457,75385.80000007153],"key_events":[],"mouse_events":[4509.5,7514.200000047684,11138.100000023842,15308.700000047684,19275.800000071526,22142.300000071526,24553.100000023842,31470.700000047684,36161.60000002384,39622.700000047684,42920.60000002384,47636.89999997616,53231.89999997616,55520.300000071526,58388,62101.60000002384,64797.700000047684,67060,69692.70000004768,71859.60000002384,74457,75385.80000007153,76257.10000002384],"straightlining":0.38095238095238093,"zigzagging":0.6,"honeypot":0,"survey":"sns","trial_type":"survey-template","trial_index":2,"time_elapsed":96977,"internal_node_id":"0.0-2.0","task_version":"prescreen-v0.3","browser_interactions":0,"infrequency":0},{"responses":{"Q05":"2","Q08":"2","Q12":"1","Q09":"2","Q02":"3","Q03":"3","Q13":"0","Q07":"2","Q10":"2","Q04":"3","Q11":"1","Q01":"3","Q06":"2"},"rt":36681.60000002384,"item_order":[4,7,11,8,1,2,12,6,9,3,10,0,5],"radio_events":[4433.299999952316,7008.100000023842,10444.600000023842,13573.899999976158,14858.600000023842,17489.699999928474,19395.100000023842,22180.399999976158,23809.399999976158,26929.600000023842,29657.699999928474,31493,35928.89999997616],"key_events":[],"mouse_events":[4433.299999952316,7008.100000023842,10444.600000023842,13573.899999976158,14858.600000023842,17489.699999928474,19395.100000023842,22180.399999976158,23809.399999976158,26929.600000023842,29657.699999928474,31493,35928.89999997616,36678.5],"straightlining":0.46153846153846156,"zigzagging":0.5,"honeypot":0,"survey":"bisbas","trial_type":"survey-template","trial_index":3,"time_elapsed":133663,"internal_node_id":"0.0-3.0","task_version":"prescreen-v0.3","browser_interactions":0,"infrequency":0},{"responses":{"Q01":"2","Q02":"1","Q03":"2"},"rt":16224.700000047684,"radio_events":[6091.200000047684,11865.5,15466],"key_events":[],"mouse_events":[6091.200000047684,11865.5,15466,16223],"survey":"map","page":1,"trial_type":"survey-map","trial_index":4,"time_elapsed":149893,"internal_node_id":"0.0-4.0","task_version":"prescreen-v0.3","browser_interactions":0},{"responses":{"Q04":"3","Q05":"2","Q06":"2"},"rt":10672.700000047684,"radio_events":[3488.100000023842,6958,9791.600000023842],"key_events":[],"mouse_events":[3488.100000023842,6958,9791.600000023842,10671.200000047684],"survey":"map","page":2,"trial_type":"survey-map","trial_index":5,"time_elapsed":160569,"internal_node_id":"0.0-5.0","task_version":"prescreen-v0.3","browser_interactions":0},{"responses":{"Q07":"4","Q08":"0","Q09":"2"},"rt":19438.799999952316,"radio_events":[12559.599999904633,15923.299999952316,18724.799999952316],"key_events":[],"mouse_events":[12559.599999904633,15923.299999952316,18724.799999952316,19437.5],"survey":"map","page":3,"trial_type":"survey-map","trial_index":6,"time_elapsed":180011,"internal_node_id":"0.0-6.0","task_version":"prescreen-v0.3","browser_interactions":0},{"responses":{"Q10":"2","Q11":"2","Q12":"1","Q13":"1","Q16":"0","Q14":"2","Q15":"2"},"rt":36159.199999928474,"radio_events":[3580.600000023842,6277.899999976158,10642.899999976158,13762.600000023842,20617.699999928474,22360.899999976158,25887.299999952316,29380.699999928474,33510.10000002384,34494.699999928474,35284.799999952316],"key_events":[],"mouse_events":[3580.600000023842,6277.899999976158,10642.899999976158,13762.600000023842,20617.699999928474,22360.899999976158,25887.299999952316,29380.699999928474,33510.10000002384,34494.699999928474,35284.799999952316,36156.299999952316],"survey":"map","page":4,"trial_type":"survey-map","trial_index":7,"time_elapsed":216175,"internal_node_id":"0.0-7.0","task_version":"prescreen-v0.3","browser_interactions":0,"infrequency":0},{"view_history":[{"page_index":0,"viewing_time":1695.7000000476837},{"page_index":1,"viewing_time":2998.399999976158}],"rt":4695.600000023842,"trial_type":"instructions","trial_index":8,"time_elapsed":220872,"internal_node_id":"0.0-8.0","task_version":"prescreen-v0.3"},{"responses":{"01":"No","02":"Yes","02_ages_6":"6","02_ages_7":"7","02_ages_8":"8","02_ages_9":"9","02_ages_10":"10","02_ages_11":"11","02_ages_12":"12","02_ages_13":"13","02_ages_14":"14","02_ages_15":"15","02_ages_16":"16","02_ages_17":"17","02_ages_18":"18","03":"No","04":"No","05":"No","06":"No"},"rt":34034.300000071526,"item_order":[0,1,2,3,4,5],"radio_events":[6211.600000023842,9173,27754.399999976158,29284.899999976158,31656.5,33104.89999997616],"checkbox_events":[13439,14269.399999976158,14986.100000023842,15905.5,16426.899999976158,17038,17566.800000071526,19325.300000071526,21036.300000071526,21687.899999976158,22268.100000023842,22811.399999976158,23334.700000047684],"key_events":[],"mouse_events":[0.20000004768371582,6211.600000023842,9173,13439,14269.399999976158,14986.100000023842,15905.5,16426.899999976158,17038,17566.800000071526,19325.300000071526,21036.300000071526,21687.899999976158,22268.100000023842,22811.399999976158,23334.700000047684,27045.899999976158,27754.399999976158,29284.899999976158,31656.5,33104.89999997616,34026],"honeypot":0,"survey":"mace","page":1,"trial_type":"survey-mace","trial_index":9,"time_elapsed":254917,"internal_node_id":"0.0-9.0","task_version":"prescreen-v0.3","browser_interactions":0},{"responses":{"01":"No","02":"No","03":"No","04":"No","05":"No","06":"No","07":"No","08":"No"},"rt":15260.600000023842,"item_order":[0,1,2,3,4,5,6,7],"radio_events":[2383.100000023842,5534.299999952316,7090,8344.100000023842,9409.5,12825.5,13904.399999976158,14573.799999952316],"checkbox_events":[],"key_events":[],"mouse_events":[2383.100000023842,5534.299999952316,7090,8344.100000023842,9409.5,12825.5,13904.399999976158,14573.799999952316,15249.899999976158],"honeypot":0,"survey":"mace","page":2,"trial_type":"survey-mace","trial_index":10,"time_elapsed":270186,"internal_node_id":"0.0-10.0","task_version":"prescreen-v0.3","browser_interactions":0},{"responses":{"01":"No","02":"No","03":"No","04":"No"},"rt":14136.599999904633,"item_order":[0,1,2,3],"radio_events":[4364.299999952316,7558,10277.599999904633,13380],"checkbox_events":[],"key_events":[],"mouse_events":[4364.299999952316,7558,10277.599999904633,13380,14131.399999976158],"honeypot":0,"survey":"mace","page":3,"trial_type":"survey-mace","trial_index":11,"time_elapsed":284327,"internal_node_id":"0.0-11.0","task_version":"prescreen-v0.3","browser_interactions":0},{"responses":{"01":"No","02":"No"},"rt":5129.600000023842,"item_order":[0,1],"radio_events":[2976.600000023842,4182.799999952316],"checkbox_events":[],"key_events":[],"mouse_events":[2976.600000023842,4182.799999952316,5126.799999952316],"honeypot":0,"survey":"mace","page":4,"trial_type":"survey-mace","trial_index":12,"time_elapsed":289460,"internal_node_id":"0.0-12.0","task_version":"prescreen-v0.3","browser_interactions":0},{"responses":{"01":"No","02":"No","03":"No","04":"No","05":"No"},"rt":17596.200000047684,"item_order":[0,1,2,3,4],"radio_events":[5766.700000047684,8028.5,12509.799999952316,15635.200000047684,16759.200000047684],"checkbox_events":[],"key_events":[],"mouse_events":[5766.700000047684,8028.5,12509.799999952316,15635.200000047684,16759.200000047684,17589.899999976158],"honeypot":0,"survey":"mace","page":5,"trial_type":"survey-mace","trial_index":13,"time_elapsed":307062,"internal_node_id":"0.0-13.0","task_version":"prescreen-v0.3","browser_interactions":0},{"responses":{"01":"No","02":"Yes","02_ages_6":"6","02_ages_7":"7","02_ages_8":"8","02_ages_9":"9","03":"No","04":"No","05":"No"},"rt":22422.299999952316,"item_order":[0,1,2,3,4],"radio_events":[7325.199999928474,9751.699999928474,17288.099999904633,19557.5,20960.099999904633],"checkbox_events":[11259,11969.399999976158,12748.599999904633,13261.699999928474],"key_events":[],"mouse_events":[7325.199999928474,9751.699999928474,11259,11969.399999976158,12748.599999904633,13261.699999928474,17288.099999904633,19557.5,20960.099999904633,22416.099999904633],"honeypot":0,"survey":"mace","page":6,"trial_type":"survey-mace","trial_index":14,"time_elapsed":329489,"internal_node_id":"0.0-14.0","task_version":"prescreen-v0.3","browser_interactions":0},{"responses":{"01":"No","02":"No","03":"No","04":"No","05":"No","06":"No","07":"No"},"rt":13642.5,"item_order":[0,1,2,3,4,5,6],"radio_events":[3569.2000000476837,5270.899999976158,6608.700000047684,7811.700000047684,9757.899999976158,10703,11549.800000071526],"checkbox_events":[],"key_events":[],"mouse_events":[3569.2000000476837,5270.899999976158,6608.700000047684,7811.700000047684,9757.899999976158,10703,11549.800000071526,13634.800000071526],"honeypot":0,"survey":"mace","page":7,"trial_type":"survey-mace","trial_index":15,"time_elapsed":343139,"internal_node_id":"0.0-15.0","task_version":"prescreen-v0.3","browser_interactions":0},{"responses":{"01":"Yes","01_ages_11":"11","01_ages_12":"12","01_ages_13":"13","01_ages_14":"14","02":"No","03":"Yes","03_ages_13":"13","03_ages_14":"14","03_ages_15":"15","03_ages_16":"16","03_ages_17":"17","03_ages_18":"18","04":"No"},"rt":28706,"item_order":[0,1,2,3],"radio_events":[9019.799999952316,18126.199999928474,20386,27845.899999976158],"checkbox_events":[11900.399999976158,13145.899999976158,13724.5,14300.299999952316,22235.5,22780.199999928474,23374.599999904633,23936.599999904633,24873,25703.699999928474],"key_events":[],"mouse_events":[9019.799999952316,11900.399999976158,13145.899999976158,13724.5,14300.299999952316,18126.199999928474,20386,22235.5,22780.199999928474,23374.599999904633,23936.599999904633,24441.099999904633,24873,25703.699999928474,27845.899999976158,28700.699999928474],"honeypot":0,"survey":"mace","page":8,"trial_type":"survey-mace","trial_index":16,"time_elapsed":371849,"internal_node_id":"0.0-16.0","task_version":"prescreen-v0.3","browser_interactions":0},{"responses":{"01":"Yes","01_ages_1":"1","01_ages_2":"2","01_ages_3":"3","01_ages_4":"4","01_ages_5":"5","01_ages_6":"6","01_ages_7":"7","01_ages_8":"8","01_ages_9":"9","01_ages_10":"10","01_ages_11":"11","01_ages_12":"12","01_ages_13":"13","01_ages_14":"14","01_ages_15":"15","01_ages_16":"16","01_ages_17":"17","01_ages_18":"18","02":"Yes","02_ages_1":"1","02_ages_2":"2","02_ages_3":"3","02_ages_4":"4","02_ages_5":"5","02_ages_6":"6","02_ages_7":"7","02_ages_8":"8","02_ages_9":"9","02_ages_10":"10","02_ages_11":"11","02_ages_12":"12","02_ages_13":"13","02_ages_14":"14","02_ages_15":"15","02_ages_16":"16","02_ages_17":"17","02_ages_18":"18","03":"Yes","03_ages_1":"1","03_ages_2":"2","03_ages_3":"3","03_ages_4":"4","03_ages_5":"5","03_ages_6":"6","03_ages_7":"7","03_ages_8":"8","03_ages_9":"9","03_ages_10":"10","03_ages_11":"11","03_ages_12":"12","03_ages_13":"13","03_ages_14":"14","03_ages_15":"15","03_ages_16":"16","03_ages_17":"17","03_ages_18":"18","04":"Yes","04_ages_1":"1","04_ages_2":"2","04_ages_3":"3","04_ages_4":"4","04_ages_5":"5","04_ages_6":"6","04_ages_7":"7","04_ages_8":"8","04_ages_9":"9","04_ages_10":"10","04_ages_11":"11","04_ages_12":"12","04_ages_13":"13","04_ages_14":"14","04_ages_15":"15","04_ages_16":"16","04_ages_17":"17","04_ages_18":"18"},"rt":58051.800000071526,"item_order":[0,1,2,3],"radio_events":[4534.100000023842,18647.400000095367,32095.400000095367,44075.10000002384],"checkbox_events":[5739.900000095367,6122.100000023842,7026.200000047684,7995.600000023842,8419,9061,9640.600000023842,10219.200000047684,10797,11374.900000095367,11912.400000095367,12508.5,13084.900000095367,13639,14372.100000023842,14819.900000095367,15373.5,15936,19576.100000023842,19991.700000047684,20438.600000023842,20952,21425,21936.900000095367,22409.800000071526,22922,23484.400000095367,24366,24803.700000047684,25357.700000047684,25862.600000023842,26416.400000095367,26969.700000047684,27474.700000047684,27914.700000047684,28427.900000095367,33097.40000009537,33550.300000071526,34193.700000047684,34715.90000009537,35203.40000009537,35727.40000009537,36238,36711.200000047684,37241.200000047684,37752,38281.5,38770.800000071526,39756.800000071526,40610.700000047684,41075.10000002384,41555.60000002384,42044.5,42541.10000002384,45825.300000071526,46758.800000071526,47581.200000047684,48289.700000047684,48957.300000071526,49438,50040.300000071526,50619.800000071526,51144.90000009537,51668.60000002384,52165.700000047684,52671,53175.40000009537,53696.60000002384,54673.700000047684,55618.200000047684,56237,56823.60000002384],"key_events":[],"mouse_events":[4534.100000023842,5739.900000095367,6122.100000023842,6530.100000023842,7026.200000047684,7515.600000023842,7995.600000023842,8419,9061,9640.600000023842,10219.200000047684,10797,11374.900000095367,11912.400000095367,12508.5,13084.900000095367,13639,14372.100000023842,14819.900000095367,15373.5,15936,18647.400000095367,19576.100000023842,19991.700000047684,20438.600000023842,20952,21425,21936.900000095367,22409.800000071526,22922,23484.400000095367,23948.800000071526,24366,24803.700000047684,25357.700000047684,25862.600000023842,26416.400000095367,26969.700000047684,27474.700000047684,27914.700000047684,28427.900000095367,32095.400000095367,33097.40000009537,33550.300000071526,34193.700000047684,34715.90000009537,35203.40000009537,35727.40000009537,36238,36711.200000047684,37241.200000047684,37752,38281.5,38770.800000071526,39250.40000009537,39756.800000071526,40130.300000071526,40610.700000047684,41075.10000002384,41555.60000002384,42044.5,42541.10000002384,44075.10000002384,45825.300000071526,46286.60000002384,46758.800000071526,47581.200000047684,48289.700000047684,48957.300000071526,49438,50040.300000071526,50619.800000071526,51144.90000009537,51668.60000002384,52165.700000047684,52671,53175.40000009537,53696.60000002384,54250.700000047684,54673.700000047684,55130,55618.200000047684,56237,56823.60000002384,58046.90000009537],"honeypot":0,"survey":"mace","page":9,"trial_type":"survey-mace","trial_index":17,"time_elapsed":429904,"internal_node_id":"0.0-17.0","task_version":"prescreen-v0.3","browser_interactions":0},{"responses":{"01":"No","02":"No","03":"No","04":"Yes","04_ages_7":"7","04_ages_8":"8","04_ages_9":"9","05":"No","06":"Yes","06_ages_17":"17","07":"Yes","07_ages_1":"1","07_ages_2":"2","07_ages_3":"3","07_ages_4":"4","07_ages_5":"5","07_ages_6":"6","07_ages_7":"7","07_ages_8":"8","07_ages_9":"9","07_ages_10":"10","07_ages_11":"11","07_ages_12":"12","07_ages_13":"13","07_ages_14":"14","07_ages_15":"15","07_ages_16":"16","07_ages_17":"17","07_ages_18":"18","08":"Yes","08_ages_1":"1","08_ages_2":"2","08_ages_3":"3","08_ages_4":"4","08_ages_5":"5","08_ages_6":"6","08_ages_7":"7","08_ages_8":"8","08_ages_9":"9","08_ages_10":"10","08_ages_11":"11","08_ages_12":"12","08_ages_13":"13","08_ages_14":"14","08_ages_15":"15","08_ages_16":"16","08_ages_17":"17","08_ages_18":"18"},"rt":59142,"item_order":[0,1,2,3,4,5,6,7],"radio_events":[3128.600000023842,3913.5,8405.800000071526,10385.300000071526,12265.399999976158,27184.5,28764,32909.700000047684,48244.39999997616],"checkbox_events":[13567.700000047684,14439.100000023842,15131.300000071526,30352.399999976158,35047.300000071526,36925,37754.89999997616,38634.800000071526,39261.5,40222,40776.200000047684,41321.800000071526,41826.5,42412.700000047684,42934.200000047684,43448.89999997616,43993.10000002384,44546.60000002384,45116.800000071526,45686.60000002384,46171.10000002384,46671.89999997616,49477.60000002384,50019.300000071526,50744.39999997616,51297.700000047684,51810.5,52331.700000047684,52820.39999997616,53398.800000071526,53948.300000071526,54434.89999997616,55002.89999997616,55540.5,56072.200000047684,56598.60000002384,57103.200000047684,57600.39999997616,58105.300000071526,58626.39999997616],"key_events":[],"mouse_events":[3128.600000023842,3913.5,8405.800000071526,10385.300000071526,12265.399999976158,13567.700000047684,14439.100000023842,15131.300000071526,27184.5,28203.100000023842,28764,29920.300000071526,30352.399999976158,32909.700000047684,34660.89999997616,35047.300000071526,35556.300000071526,36430.300000071526,36925,37754.89999997616,38178.200000047684,38634.800000071526,39261.5,39831.89999997616,40222,40776.200000047684,41321.800000071526,41826.5,42412.700000047684,42934.200000047684,43448.89999997616,43993.10000002384,44546.60000002384,45116.800000071526,45686.60000002384,46171.10000002384,46671.89999997616,48244.39999997616,49477.60000002384,50019.300000071526,50744.39999997616,51297.700000047684,51810.5,52331.700000047684,52820.39999997616,53398.800000071526,53948.300000071526,54434.89999997616,55002.89999997616,55540.5,56072.200000047684,56598.60000002384,57103.200000047684,57600.39999997616,58105.300000071526,58626.39999997616,59132.200000047684],"honeypot":0,"survey":"mace","page":10,"trial_type":"survey-mace","trial_index":18,"time_elapsed":489051,"internal_node_id":"0.0-18.0","task_version":"prescreen-v0.3","browser_interactions":0,"instructed":0},{"rt":3973.399999976158,"trial_type":"mental-health-alert","trial_index":19,"time_elapsed":493028,"internal_node_id":"0.0-19.0","task_version":"prescreen-v0.3","interactions":"[]"}]