[{"view_history":[{"page_index":0,"viewing_time":3515.60000000149},{"page_index":1,"viewing_time":3323.5},{"page_index":2,"viewing_time":5289.79999999702},{"page_index":3,"viewing_time":1696.6000000014901}],"rt":13827.79999999702,"trial_type":"instructions","trial_index":0,"time_elapsed":13861,"internal_node_id":"0.0-0.0","task_version":"prescreen-v0.3"},{"rt":14039,"responses":{"age":"20","gender-categorical":"Female","gender-free-response":"","ethnicity":"Hispanic or Latino","race":["White"],"education":"Associate degree"},"trial_type":"survey-demo","trial_index":1,"time_elapsed":27913,"internal_node_id":"0.0-1.0","task_version":"prescreen-v0.3"},{"responses":{"Q07":"0","Q03":"1","Q18":"0","Q10":"1","Q19":"0","Q17":"1","Q08":"2","Q20":"0","Q04":"1","Q12":"0","Q01":"2","Q14":"1","Q15":"3","Q21":"3","Q02":"0","Q05":"0","Q09":"0","Q06":"0","Q11":"0","Q16":"2","Q13":"2"},"rt":127215,"item_order":[6,2,17,9,18,16,7,19,3,11,0,13,14,20,1,4,8,5,10,15,12],"radio_events":[11782.10000000149,15567.20000000298,18793.30000000447,22607.5,26834.10000000149,31903.10000000149,35687.70000000298,43844.5,47292.39999999851,51424.89999999851,52843.80000000447,60374.20000000298,64285,69131.70000000298,79531.70000000298,83944.20000000298,89310.80000000447,97324.80000000447,102048.89999999851,108592.80000000447,113503.5,119413.89999999851,124985.39999999851,126193.5],"key_events":[],"mouse_events":[11782.10000000149,15567.20000000298,18793.30000000447,22607.5,26834.10000000149,31903.10000000149,35687.70000000298,42871.20000000298,43844.5,47292.39999999851,51424.89999999851,52843.80000000447,60374.20000000298,64285,69131.70000000298,75993.70000000298,78703.89999999851,79531.70000000298,83944.20000000298,89310.80000000447,97324.80000000447,102048.89999999851,108592.80000000447,113503.5,119413.89999999851,122835.20000000298,123779.60000000149,124985.39999999851,126193.5,127207.39999999851],"straightlining":0.47619047619047616,"zigzagging":0.5,"honeypot":0,"survey":"sns","trial_type":"survey-template","trial_index":2,"time_elapsed":155150,"internal_node_id":"0.0-2.0","task_version":"prescreen-v0.3","browser_interactions":0,"infrequency":0},{"responses":{"Q07":"3","Q02":"2","Q09":"1","Q11":"2","Q01":"3","Q06":"3","Q05":"3","Q03":"3","Q12":"2","Q04":"3","Q13":"0","Q08":"3","Q10":"1"},"rt":58076.89999999851,"item_order":[6,1,8,10,0,5,4,2,11,3,12,7,9],"radio_events":[4483.30000000447,7476.80000000447,9049.5,12974.10000000149,19277.5,21794.60000000149,25029.5,29635.70000000298,35456.39999999851,39898.60000000149,45512.70000000298,48761.20000000298,53360.80000000447,56353.39999999851,57374.5],"key_events":[],"mouse_events":[4483.30000000447,7476.80000000447,9049.5,12974.10000000149,19277.5,21794.60000000149,25029.5,29635.70000000298,35456.39999999851,39898.60000000149,45512.70000000298,48761.20000000298,53360.80000000447,56353.39999999851,57374.5,58070.70000000298],"straightlining":0.5384615384615384,"zigzagging":0.6666666666666666,"honeypot":0,"survey":"bisbas","trial_type":"survey-template","trial_index":3,"time_elapsed":213232,"internal_node_id":"0.0-3.0","task_version":"prescreen-v0.3","browser_interactions":0,"infrequency":0},{"responses":{"Q01":"3","Q02":"3","Q03":"2"},"rt":18379.5,"radio_events":[6419.29999999702,11756.69999999553,17211.39999999851],"key_events":[],"mouse_events":[6419.29999999702,11756.69999999553,17211.39999999851,18377.5],"survey":"map","page":1,"trial_type":"survey-map","trial_index":4,"time_elapsed":231619,"internal_node_id":"0.0-4.0","task_version":"prescreen-v0.3","browser_interactions":0},{"responses":{"Q04":"3","Q05":"2","Q06":"2"},"rt":14487.89999999851,"radio_events":[4431.19999999553,5265.19999999553,10913.60000000149,13548.39999999851],"key_events":[],"mouse_events":[4431.19999999553,5265.19999999553,10913.60000000149,13548.39999999851,14486.60000000149],"survey":"map","page":2,"trial_type":"survey-map","trial_index":5,"time_elapsed":246115,"internal_node_id":"0.0-5.0","task_version":"prescreen-v0.3","browser_interactions":0},{"responses":{"Q07":"3","Q08":"4","Q09":"1"},"rt":19772.20000000298,"radio_events":[7476,13958.10000000149,18944.20000000298],"key_events":[],"mouse_events":[7476,13103.10000000149,13958.10000000149,18944.20000000298,19771.10000000149],"survey":"map","page":3,"trial_type":"survey-map","trial_index":6,"time_elapsed":265891,"internal_node_id":"0.0-6.0","task_version":"prescreen-v0.3","browser_interactions":0},{"responses":{"Q10":"1","Q11":"0","Q12":"0","Q13":"0","Q16":"0","Q14":"1","Q15":"1"},"rt":49689.30000000447,"radio_events":[9881.20000000298,11866.30000000447,15349.30000000447,22473.60000000149,32347.90000000596,36907.70000000298,40542.20000000298,47216.10000000149,48747.40000000596],"key_events":[],"mouse_events":[9881.20000000298,11866.30000000447,15349.30000000447,22473.60000000149,32347.90000000596,36907.70000000298,40542.20000000298,47216.10000000149,48747.40000000596,49685.20000000298],"survey":"map","page":4,"trial_type":"survey-map","trial_index":7,"time_elapsed":315589,"internal_node_id":"0.0-7.0","task_version":"prescreen-v0.3","browser_interactions":0,"infrequency":0},{"view_history":[{"page_index":0,"viewing_time":1954.3999999985099},{"page_index":1,"viewing_time":5254.30000000447}],"rt":7210.20000000298,"trial_type":"instructions","trial_index":8,"time_elapsed":322807,"internal_node_id":"0.0-8.0","task_version":"prescreen-v0.3"},{"responses":{"01":"Yes","01_ages_7":"7","01_ages_8":"8","01_ages_9":"9","01_ages_10":"10","01_ages_11":"11","01_ages_12":"12","01_ages_13":"13","01_ages_14":"14","01_ages_15":"15","01_ages_16":"16","01_ages_17":"17","01_ages_18":"18","02":"Yes","02_ages_5":"5","02_ages_6":"6","02_ages_7":"7","02_ages_8":"8","02_ages_9":"9","02_ages_10":"10","02_ages_11":"11","02_ages_12":"12","02_ages_13":"13","02_ages_14":"14","02_ages_15":"15","02_ages_16":"16","02_ages_17":"17","02_ages_18":"18","03":"Yes","03_ages_7":"7","03_ages_8":"8","03_ages_9":"9","03_ages_10":"10","03_ages_11":"11","03_ages_12":"12","03_ages_13":"13","04":"No","05":"No","06":"Yes","06_ages_7":"7","06_ages_8":"8","06_ages_9":"9","06_ages_10":"10","06_ages_11":"11","06_ages_12":"12","06_ages_13":"13"},"rt":90339.10000000149,"item_order":[0,1,2,3,4,5],"radio_events":[12842.10000000149,41328,57457.10000000149,70986.30000000447,74095.80000000447,78322.20000000298],"checkbox_events":[17042.5,17800.70000000298,21234.30000000447,26108.70000000298,27011.80000000447,27515.80000000447,28184.30000000447,28867.60000000149,29445.80000000447,29950.40000000596,30480,33272.80000000447,33887.20000000298,35444.90000000596,43948.60000000149,45505.60000000149,47788.70000000298,48787,49287.70000000298,49851.80000000447,50205.90000000596,50652.40000000596,51067,51544.70000000298,51957.90000000596,52445.10000000149,52878.5,53189.80000000447,59662.5,62642,63531.5,64082.60000000149,64916.80000000447,65455,66158.60000000149,84632,85805.30000000447,86519.70000000298,87162.10000000149,88153.80000000447,88746.70000000298,89382],"key_events":[],"mouse_events":[0.4000000059604645,12842.10000000149,17042.5,17800.70000000298,21234.30000000447,26108.70000000298,27011.80000000447,27515.80000000447,28184.30000000447,28867.60000000149,29445.80000000447,29950.40000000596,30480,33272.80000000447,33887.20000000298,34782.40000000596,35444.90000000596,39879.10000000149,40591,41328,43948.60000000149,44623.90000000596,45505.60000000149,46091.70000000298,46884.90000000596,47788.70000000298,48787,49287.70000000298,49851.80000000447,50205.90000000596,50652.40000000596,51067,51544.70000000298,51957.90000000596,52445.10000000149,52878.5,53189.80000000447,57457.10000000149,59662.5,62642,63531.5,64082.60000000149,64916.80000000447,65455,66158.60000000149,70986.30000000447,74095.80000000447,78322.20000000298,84632,85805.30000000447,86519.70000000298,87162.10000000149,88153.80000000447,88746.70000000298,89382,90333.70000000298],"honeypot":0,"survey":"mace","page":1,"trial_type":"survey-mace","trial_index":9,"time_elapsed":413169,"internal_node_id":"0.0-9.0","task_version":"prescreen-v0.3","browser_interactions":0},{"responses":{"01":"Yes","01_ages_6":"6","01_ages_7":"7","01_ages_8":"8","01_ages_9":"9","01_ages_10":"10","02":"No","03":"Yes","03_ages_6":"6","03_ages_7":"7","03_ages_8":"8","03_ages_9":"9","03_ages_10":"10","03_ages_11":"11","03_ages_12":"12","03_ages_13":"13","03_ages_14":"14","04":"No","05":"No","06":"No","07":"No","08":"No"},"rt":50135.19999999553,"item_order":[0,1,2,3,4,5,6,7],"radio_events":[3814.7999999970198,16322,18723.59999999404,35212.69999999553,40107.19999999553,44802.09999999404,47595.09999999404,49312.09999999404],"checkbox_events":[7352.19999999553,8902.5,9785.89999999851,10440.39999999851,10970.89999999851,21465.69999999553,22043.59999999404,23277.39999999851,23960.89999999851,24678.09999999404,25284.89999999851,25842.69999999553,26484,30090],"key_events":[],"mouse_events":[3814.7999999970198,7352.19999999553,8902.5,9785.89999999851,10440.39999999851,10970.89999999851,16322,18723.59999999404,21465.69999999553,22043.59999999404,22595.79999999702,23277.39999999851,23960.89999999851,24678.09999999404,25284.89999999851,25842.69999999553,26484,30090,35212.69999999553,40107.19999999553,44802.09999999404,47595.09999999404,49312.09999999404,50125.19999999553],"honeypot":0,"survey":"mace","page":2,"trial_type":"survey-mace","trial_index":10,"time_elapsed":463317,"internal_node_id":"0.0-10.0","task_version":"prescreen-v0.3","browser_interactions":0},{"responses":{"01":"No","02":"No","03":"No","04":"No"},"rt":17131.39999999851,"item_order":[0,1,2,3],"radio_events":[7105.89999999851,11753.10000000149,15545.39999999851,16482.60000000149],"checkbox_events":[],"key_events":[],"mouse_events":[7105.89999999851,11753.10000000149,15545.39999999851,16482.60000000149,17124.5],"honeypot":0,"survey":"mace","page":3,"trial_type":"survey-mace","trial_index":11,"time_elapsed":480464,"internal_node_id":"0.0-11.0","task_version":"prescreen-v0.3","browser_interactions":0},{"responses":{"01":"No","02":"No"},"rt":8915.79999999702,"item_order":[0,1],"radio_events":[2356.6999999955297,7272.69999999553],"checkbox_events":[],"key_events":[],"mouse_events":[2356.6999999955297,7272.69999999553,8913.79999999702],"honeypot":0,"survey":"mace","page":4,"trial_type":"survey-mace","trial_index":12,"time_elapsed":489386,"internal_node_id":"0.0-12.0","task_version":"prescreen-v0.3","browser_interactions":0},{"responses":{"01":"No","02":"No","03":"No","04":"No","05":"No"},"rt":34484.69999999553,"item_order":[0,1,2,3,4],"radio_events":[16655.19999999553,21110.39999999851,27812.39999999851,31287.5,33762.79999999702],"checkbox_events":[],"key_events":[],"mouse_events":[16655.19999999553,21110.39999999851,26861.39999999851,27812.39999999851,31287.5,32998.10000000149,33762.79999999702,34479.89999999851],"honeypot":0,"survey":"mace","page":5,"trial_type":"survey-mace","trial_index":13,"time_elapsed":523879,"internal_node_id":"0.0-13.0","task_version":"prescreen-v0.3","browser_interactions":0},{"responses":{"01":"No","02":"No","03":"No","04":"No","05":"No"},"rt":23712.39999999851,"item_order":[0,1,2,3,4],"radio_events":[8289.39999999851,12184.60000000149,14536.80000000447,19590.89999999851,22887.10000000149],"checkbox_events":[],"key_events":[],"mouse_events":[8289.39999999851,12184.60000000149,14536.80000000447,19590.89999999851,22887.10000000149,23707.80000000447],"honeypot":0,"survey":"mace","page":6,"trial_type":"survey-mace","trial_index":14,"time_elapsed":547600,"internal_node_id":"0.0-14.0","task_version":"prescreen-v0.3","browser_interactions":0},{"responses":{"01":"No","02":"No","03":"No","04":"No","05":"No","06":"No","07":"No"},"rt":22887.39999999851,"item_order":[0,1,2,3,4,5,6],"radio_events":[3885.7000000029802,7719,10372.5,12496.70000000298,15455,21217.5,22176.80000000447],"checkbox_events":[],"key_events":[],"mouse_events":[3885.7000000029802,7719,10372.5,12496.70000000298,15455,19019.10000000149,20198,21217.5,22176.80000000447,22880.30000000447],"honeypot":0,"survey":"mace","page":7,"trial_type":"survey-mace","trial_index":15,"time_elapsed":570506,"internal_node_id":"0.0-15.0","task_version":"prescreen-v0.3","browser_interactions":0},{"responses":{"01":"No","02":"Yes","02_ages_12":"12","02_ages_13":"13","02_ages_14":"14","02_ages_15":"15","02_ages_16":"16","03":"Yes","03_ages_6":"6","03_ages_7":"7","03_ages_8":"8","03_ages_9":"9","03_ages_10":"10","03_ages_11":"11","03_ages_12":"12","03_ages_13":"13","03_ages_14":"14","03_ages_15":"15","03_ages_16":"16","04":"No"},"rt":62013.60000000149,"item_order":[0,1,2,3],"radio_events":[21378.20000000298,26086.20000000298,42018.5,60190.10000000149],"checkbox_events":[30718.70000000298,32112.60000000149,33455.70000000298,35413.70000000298,36268.5,36978.5,37626.80000000447,46905.40000000596,47457.70000000298,48105.5,48637,49292.30000000447,49842.70000000298,51221.20000000298,51896.70000000298,52566.5,53240.60000000149,54600,55371.5,61058.30000000447],"key_events":[],"mouse_events":[21378.20000000298,26086.20000000298,30718.70000000298,32112.60000000149,33455.70000000298,35413.70000000298,36268.5,36978.5,37626.80000000447,42018.5,46905.40000000596,47457.70000000298,48105.5,48637,49292.30000000447,49842.70000000298,50559.60000000149,51221.20000000298,51896.70000000298,52566.5,53240.60000000149,53903,54600,55371.5,60190.10000000149,61058.30000000447,62009.90000000596],"honeypot":0,"survey":"mace","page":8,"trial_type":"survey-mace","trial_index":16,"time_elapsed":632527,"internal_node_id":"0.0-16.0","task_version":"prescreen-v0.3","browser_interactions":0},{"responses":{"01":"Yes","01_ages_1":"1","01_ages_2":"2","01_ages_3":"3","01_ages_4":"4","01_ages_5":"5","01_ages_6":"6","01_ages_7":"7","01_ages_8":"8","01_ages_9":"9","01_ages_10":"10","01_ages_11":"11","01_ages_12":"12","01_ages_13":"13","01_ages_14":"14","01_ages_15":"15","01_ages_16":"16","01_ages_17":"17","01_ages_18":"18","02":"Yes","02_ages_1":"1","02_ages_2":"2","02_ages_3":"3","02_ages_4":"4","02_ages_5":"5","02_ages_6":"6","02_ages_7":"7","02_ages_8":"8","02_ages_9":"9","02_ages_10":"10","02_ages_11":"11","02_ages_12":"12","02_ages_13":"13","02_ages_14":"14","02_ages_15":"15","02_ages_16":"16","02_ages_17":"17","02_ages_18":"18","03":"Yes","03_ages_1":"1","03_ages_2":"2","03_ages_3":"3","03_ages_4":"4","03_ages_5":"5","03_ages_6":"6","03_ages_7":"7","03_ages_8":"8","03_ages_9":"9","03_ages_10":"10","03_ages_11":"11","03_ages_12":"12","03_ages_13":"13","03_ages_14":"14","03_ages_15":"15","03_ages_16":"16","03_ages_17":"17","03_ages_18":"18","04":"Yes","04_ages_1":"1","04_ages_2":"2","04_ages_3":"3","04_ages_4":"4","04_ages_5":"5","04_ages_6":"6","04_ages_7":"7","04_ages_8":"8","04_ages_9":"9","04_ages_10":"10","04_ages_11":"11","04_ages_12":"12","04_ages_13":"13","04_ages_14":"14","04_ages_15":"15","04_ages_16":"16","04_ages_17":"17","04_ages_18":"18"},"rt":51418.80000000447,"item_order":[0,1,2,3],"radio_events":[3438.3000000044703,18439.30000000447,30202.60000000149,43772.10000000149],"checkbox_events":[6023,6644.60000000149,7250.80000000447,7794.9000000059605,8374.40000000596,9029.30000000447,9691.5,10366.40000000596,11599.80000000447,11880,12147.10000000149,12398.10000000149,12777.70000000298,13087.40000000596,13400.60000000149,13876,14235.80000000447,14425.5,19321.5,19880.5,20249.90000000596,20567.30000000447,20800.30000000447,21081.40000000596,21367.20000000298,21627.30000000447,22057.60000000149,22505.80000000447,22838.90000000596,23217.70000000298,23537.5,23904.90000000596,24376.5,24724.40000000596,25642.40000000596,26022.80000000447,26374.80000000447,26712,31061.80000000447,31310.70000000298,31779.20000000298,32098.30000000447,32374,32759.80000000447,33116.60000000149,33806.40000000596,34159.80000000447,34547.70000000298,34935.90000000596,35264.30000000447,36134.30000000447,36353.80000000447,36724.40000000596,36994.60000000149,37483.60000000149,37902.5,45508.30000000447,45720,45876.30000000447,46048.20000000298,46197.10000000149,46587.10000000149,46895,47117.40000000596,47275.5,47707.30000000447,47988.70000000298,48316.60000000149,48854.5,49174.20000000298,49503.40000000596,49804.80000000447,50083.80000000447,50414.10000000149,50783.80000000447,50993.5],"key_events":[],"mouse_events":[3438.3000000044703,6023,6644.60000000149,7250.80000000447,7794.9000000059605,8374.40000000596,9029.30000000447,9691.5,10366.40000000596,11599.80000000447,11880,12147.10000000149,12398.10000000149,12777.70000000298,13087.40000000596,13400.60000000149,13876,14235.80000000447,14425.5,18439.30000000447,19321.5,19880.5,20249.90000000596,20567.30000000447,20800.30000000447,21081.40000000596,21367.20000000298,21627.30000000447,22057.60000000149,22505.80000000447,22838.90000000596,23217.70000000298,23537.5,23904.90000000596,24376.5,24724.40000000596,25642.40000000596,26022.80000000447,26374.80000000447,26712,30202.60000000149,31061.80000000447,31310.70000000298,31779.20000000298,32098.30000000447,32374,32759.80000000447,33116.60000000149,33806.40000000596,34159.80000000447,34547.70000000298,34935.90000000596,35264.30000000447,36134.30000000447,36353.80000000447,36724.40000000596,36994.60000000149,37483.60000000149,37902.5,43772.10000000149,45508.30000000447,45720,45876.30000000447,46048.20000000298,46197.10000000149,46587.10000000149,46895,47117.40000000596,47275.5,47707.30000000447,47988.70000000298,48316.60000000149,48854.5,49174.20000000298,49503.40000000596,49804.80000000447,50083.80000000447,50414.10000000149,50783.80000000447,50993.5,51414.10000000149],"honeypot":0,"survey":"mace","page":9,"trial_type":"survey-mace","trial_index":17,"time_elapsed":683957,"internal_node_id":"0.0-17.0","task_version":"prescreen-v0.3","browser_interactions":0},{"responses":{"01":"No","02":"No","03":"Yes","03_ages_13":"13","03_ages_14":"14","03_ages_15":"15","03_ages_16":"16","04":"No","05":"No","06":"Yes","06_ages_17":"17","07":"Yes","07_ages_1":"1","07_ages_2":"2","07_ages_3":"3","07_ages_4":"4","07_ages_5":"5","07_ages_6":"6","07_ages_7":"7","07_ages_8":"8","07_ages_9":"9","07_ages_10":"10","07_ages_11":"11","07_ages_12":"12","07_ages_13":"13","07_ages_14":"14","07_ages_15":"15","07_ages_16":"16","07_ages_17":"17","07_ages_18":"18","08":"Yes","08_ages_1":"1","08_ages_2":"2","08_ages_3":"3","08_ages_4":"4","08_ages_5":"5","08_ages_6":"6","08_ages_7":"7","08_ages_8":"8","08_ages_9":"9","08_ages_10":"10","08_ages_11":"11","08_ages_12":"12","08_ages_13":"13","08_ages_14":"14","08_ages_15":"15","08_ages_16":"16","08_ages_17":"17","08_ages_18":"18"},"rt":85422.80000000447,"item_order":[0,1,2,3,4,5,6,7],"radio_events":[5885.10000000149,12263.5,17964.5,40290.40000000596,45399.80000000447,51418.90000000596,55707.90000000596,71389],"checkbox_events":[20756.70000000298,33698.90000000596,34912.30000000447,35547.90000000596,46694.80000000447,60506.10000000149,60916.5,61324.20000000298,62575.40000000596,62992.10000000149,63345.30000000447,63754.10000000149,64152.40000000596,64721.40000000596,65135.10000000149,65521.10000000149,65891.70000000298,66239.10000000149,66628.20000000298,67059,67547.40000000596,68027.40000000596,68279.30000000447,76324.90000000596,76754.40000000596,77143.30000000447,77602.60000000149,77901.90000000596,78063.90000000596,79031.70000000298,79231,79390.90000000596,79973,80215.30000000447,80602.5,80904.30000000447,81521,81883.10000000149,82212,82511.40000000596,82751.40000000596,83013.60000000149,83763,84019.80000000447,84480.20000000298],"key_events":[],"mouse_events":[5885.10000000149,12263.5,17964.5,20756.70000000298,33698.90000000596,34319.5,34912.30000000447,35547.90000000596,40290.40000000596,45399.80000000447,46694.80000000447,51418.90000000596,55707.90000000596,60506.10000000149,60916.5,61324.20000000298,61736.40000000596,62233.30000000447,62575.40000000596,62992.10000000149,63345.30000000447,63754.10000000149,64152.40000000596,64721.40000000596,65135.10000000149,65521.10000000149,65891.70000000298,66239.10000000149,66628.20000000298,67059,67547.40000000596,68027.40000000596,68279.30000000447,71389,76324.90000000596,76754.40000000596,77143.30000000447,77602.60000000149,77901.90000000596,78063.90000000596,79031.70000000298,79231,79390.90000000596,79973,80215.30000000447,80602.5,80904.30000000447,81521,81883.10000000149,82212,82511.40000000596,82751.40000000596,83013.60000000149,83763,84019.80000000447,84480.20000000298,85416.5],"honeypot":0,"survey":"mace","page":10,"trial_type":"survey-mace","trial_index":18,"time_elapsed":769396,"internal_node_id":"0.0-18.0","task_version":"prescreen-v0.3","browser_interactions":0,"instructed":0},{"rt":2338.5,"trial_type":"mental-health-alert","trial_index":19,"time_elapsed":771741,"internal_node_id":"0.0-19.0","task_version":"prescreen-v0.3","interactions":"[]"}]