[{"view_history":[{"page_index":0,"viewing_time":2557},{"page_index":1,"viewing_time":3736},{"page_index":2,"viewing_time":4363},{"page_index":3,"viewing_time":1080}],"rt":11737,"trial_type":"instructions","trial_index":0,"time_elapsed":11830,"internal_node_id":"0.0-0.0","task_version":"prescreen-v0.3"},{"rt":15421,"responses":{"age":"27","gender-categorical":"Female","gender-free-response":"","ethnicity":"Not Hispanic or Latino","race":["White"],"education":"Some college"},"trial_type":"survey-demo","trial_index":1,"time_elapsed":27258,"internal_node_id":"0.0-1.0","task_version":"prescreen-v0.3"},{"responses":{"Q16":"2","Q07":"1","Q05":"1","Q15":"2","Q02":"0","Q19":"0","Q08":"1","Q11":"2","Q04":"2","Q03":"1","Q14":"1","Q17":"1","Q06":"0","Q09":"2","Q10":"2","Q21":"3","Q20":"0","Q01":"1","Q13":"2","Q12":"1","Q18":"0"},"rt":97852,"item_order":[15,6,4,14,1,18,7,10,3,2,13,16,5,8,9,20,19,0,12,11,17],"radio_events":[9716,15240,21070,26176,29202,35254,37940,41028,45881,49460,54354,57339,62360,66543,70269,74195,76149,79679,86164,93161,97047],"key_events":[],"mouse_events":[9716,15240,21070,26176,29202,35254,37940,41028,45881,49460,54354,57339,62360,66543,70269,74195,76149,79679,86164,93161,97047,97850],"straightlining":0.38095238095238093,"zigzagging":0.6,"honeypot":0,"survey":"sns","trial_type":"survey-template","trial_index":2,"time_elapsed":125117,"internal_node_id":"0.0-2.0","task_version":"prescreen-v0.3","browser_interactions":0,"infrequency":0},{"responses":{"Q09":"1","Q06":"2","Q11":"2","Q03":"3","Q13":"0","Q02":"2","Q04":"2","Q12":"1","Q05":"3","Q01":"3","Q08":"2","Q07":"3","Q10":"2"},"rt":101415,"item_order":[8,5,10,2,12,1,3,11,4,0,7,6,9],"radio_events":[4398,11340,17373,22999,28877,43149,59021,62777,70523,78505,92367,94471,100577],"key_events":[],"mouse_events":[4398,11340,17373,22999,28877,43149,59021,62777,70523,78505,92367,94471,100577,101413],"straightlining":0.46153846153846156,"zigzagging":0.5833333333333334,"honeypot":0,"survey":"bisbas","trial_type":"survey-template","trial_index":3,"time_elapsed":226536,"internal_node_id":"0.0-3.0","task_version":"prescreen-v0.3","browser_interactions":0,"infrequency":0},{"responses":{"Q01":"3","Q02":"2","Q03":"3"},"rt":18544,"radio_events":[8471,12175,17764],"key_events":[],"mouse_events":[8471,12175,17764,18543],"survey":"map","page":1,"trial_type":"survey-map","trial_index":4,"time_elapsed":245086,"internal_node_id":"0.0-4.0","task_version":"prescreen-v0.3","browser_interactions":0},{"responses":{"Q04":"3","Q05":"2","Q06":"3"},"rt":30207,"radio_events":[16510,22530,28740],"key_events":[],"mouse_events":[16510,22530,28740,30206],"survey":"map","page":2,"trial_type":"survey-map","trial_index":5,"time_elapsed":275294,"internal_node_id":"0.0-5.0","task_version":"prescreen-v0.3","browser_interactions":0},{"responses":{"Q07":"3","Q08":"4","Q09":"3"},"rt":31452,"radio_events":[11769,26353,28875],"key_events":[],"mouse_events":[11217,11769,26353,28875,31451],"survey":"map","page":3,"trial_type":"survey-map","trial_index":6,"time_elapsed":306749,"internal_node_id":"0.0-6.0","task_version":"prescreen-v0.3","browser_interactions":0},{"responses":{"Q10":"2","Q11":"2","Q12":"3","Q13":"2","Q16":"0","Q14":"3","Q15":"3"},"rt":88019,"radio_events":[9641,24297,31790,41026,63946,79138,87476],"key_events":[],"mouse_events":[9641,24297,31790,41026,63946,79138,87476,88018],"survey":"map","page":4,"trial_type":"survey-map","trial_index":7,"time_elapsed":394772,"internal_node_id":"0.0-7.0","task_version":"prescreen-v0.3","browser_interactions":0,"infrequency":0},{"view_history":[{"page_index":0,"viewing_time":903714},{"page_index":1,"viewing_time":4054}],"rt":907769,"trial_type":"instructions","trial_index":8,"time_elapsed":1300630,"internal_node_id":"0.0-8.0","task_version":"prescreen-v0.3"},{"responses":{"01":"No","02":"Yes","02_ages_11":"11","02_ages_12":"12","02_ages_13":"13","02_ages_14":"14","02_ages_15":"15","03":"No","04":"No","05":"No","06":"No"},"rt":39551,"item_order":[0,1,2,3,4,5],"radio_events":[9126,11804,32260,33134,35174,36924],"checkbox_events":[16012,16982,19668,23592,24088],"key_events":[],"mouse_events":[0,9126,11804,16012,16982,19668,23592,24088,32260,33134,35174,36924,39548],"honeypot":0,"survey":"mace","page":1,"trial_type":"survey-mace","trial_index":9,"time_elapsed":1340190,"internal_node_id":"0.0-9.0","task_version":"prescreen-v0.3","browser_interactions":0},{"responses":{"01":"No","02":"No","03":"Yes","03_ages_3":"3","03_ages_4":"4","03_ages_5":"5","04":"No","05":"No","06":"No","07":"No","08":"No"},"rt":29162,"item_order":[0,1,2,3,4,5,6,7],"radio_events":[4386,8704,10824,19302,21966,24416,27480,28275],"checkbox_events":[12290,13014,14086],"key_events":[],"mouse_events":[4386,8704,10824,12290,13014,14086,19302,21966,24416,26187,27480,28275,29157],"honeypot":0,"survey":"mace","page":2,"trial_type":"survey-mace","trial_index":10,"time_elapsed":1369359,"internal_node_id":"0.0-10.0","task_version":"prescreen-v0.3","browser_interactions":0},{"responses":{"01":"No","02":"No","03":"No","04":"No"},"rt":12459,"item_order":[0,1,2,3],"radio_events":[5585,8281,10414,11071],"checkbox_events":[],"key_events":[],"mouse_events":[5585,8281,10414,11071,12457],"honeypot":0,"survey":"mace","page":3,"trial_type":"survey-mace","trial_index":11,"time_elapsed":1381823,"internal_node_id":"0.0-11.0","task_version":"prescreen-v0.3","browser_interactions":0},{"responses":{"01":"No","02":"No"},"rt":9213,"item_order":[0,1],"radio_events":[5896,7471],"checkbox_events":[],"key_events":[],"mouse_events":[5896,7471,9211],"honeypot":0,"survey":"mace","page":4,"trial_type":"survey-mace","trial_index":12,"time_elapsed":1391039,"internal_node_id":"0.0-12.0","task_version":"prescreen-v0.3","browser_interactions":0},{"responses":{"01":"No","02":"No","03":"No","04":"No","05":"No"},"rt":22870,"item_order":[0,1,2,3,4],"radio_events":[6275,12901,15935,19575,21936],"checkbox_events":[],"key_events":[],"mouse_events":[6275,12901,15935,19575,21936,22867],"honeypot":0,"survey":"mace","page":5,"trial_type":"survey-mace","trial_index":13,"time_elapsed":1413914,"internal_node_id":"0.0-13.0","task_version":"prescreen-v0.3","browser_interactions":0},{"responses":{"01":"Yes","01_ages_9":"9","01_ages_10":"10","02":"Yes","02_ages_9":"9","02_ages_10":"10","03":"Yes","03_ages_15":"15","03_ages_16":"16","03_ages_17":"17","03_ages_18":"18","04":"Yes","04_ages_15":"15","04_ages_16":"16","05":"No"},"rt":39912,"item_order":[0,1,2,3,4],"radio_events":[12588,17568,26377,33371,39366],"checkbox_events":[15331,15826,23153,23533,27991,29385,29929,30441,34504,34858],"key_events":[],"mouse_events":[12588,15331,15826,17568,23153,23533,26377,27991,28605,29385,29929,30441,33371,34504,34858,39366,39909],"honeypot":0,"survey":"mace","page":6,"trial_type":"survey-mace","trial_index":14,"time_elapsed":1453830,"internal_node_id":"0.0-14.0","task_version":"prescreen-v0.3","browser_interactions":0},{"responses":{"01":"No","02":"No","03":"No","04":"No","05":"No","06":"No","07":"No"},"rt":30222,"item_order":[0,1,2,3,4,5,6],"radio_events":[4664,7620,13868,15310,17524,26964,29494],"checkbox_events":[],"key_events":[],"mouse_events":[4664,7620,13868,15310,17524,26964,29494,30218],"honeypot":0,"survey":"mace","page":7,"trial_type":"survey-mace","trial_index":15,"time_elapsed":1484057,"internal_node_id":"0.0-15.0","task_version":"prescreen-v0.3","browser_interactions":0},{"responses":{"01":"No","02":"Yes","02_ages_12":"12","02_ages_13":"13","02_ages_14":"14","02_ages_15":"15","02_ages_16":"16","02_ages_17":"17","02_ages_18":"18","03":"No","04":"No"},"rt":28262,"item_order":[0,1,2,3],"radio_events":[8697,11038,25456,27771],"checkbox_events":[17766,18476,18908,19302,19776,20735,21515],"key_events":[],"mouse_events":[8697,11038,17766,18476,18908,19302,19776,20145,20735,21515,25456,27771,28260],"honeypot":0,"survey":"mace","page":8,"trial_type":"survey-mace","trial_index":16,"time_elapsed":1512322,"internal_node_id":"0.0-16.0","task_version":"prescreen-v0.3","browser_interactions":0},{"responses":{"01":"Yes","01_ages_1":"1","01_ages_2":"2","01_ages_3":"3","01_ages_4":"4","01_ages_5":"5","01_ages_6":"6","01_ages_7":"7","01_ages_8":"8","01_ages_9":"9","01_ages_10":"10","01_ages_11":"11","01_ages_12":"12","01_ages_13":"13","01_ages_14":"14","01_ages_15":"15","01_ages_16":"16","01_ages_17":"17","01_ages_18":"18","02":"Yes","02_ages_1":"1","02_ages_2":"2","02_ages_3":"3","02_ages_4":"4","02_ages_5":"5","02_ages_6":"6","02_ages_7":"7","02_ages_8":"8","02_ages_9":"9","02_ages_10":"10","02_ages_11":"11","02_ages_12":"12","02_ages_13":"13","02_ages_14":"14","02_ages_15":"15","02_ages_16":"16","02_ages_17":"17","02_ages_18":"18","03":"Yes","03_ages_1":"1","03_ages_2":"2","03_ages_3":"3","03_ages_4":"4","03_ages_5":"5","03_ages_6":"6","03_ages_7":"7","03_ages_8":"8","03_ages_9":"9","03_ages_10":"10","03_ages_11":"11","03_ages_12":"12","03_ages_13":"13","03_ages_14":"14","03_ages_15":"15","03_ages_16":"16","03_ages_17":"17","03_ages_18":"18","04":"Yes","04_ages_1":"1","04_ages_2":"2","04_ages_3":"3","04_ages_4":"4","04_ages_5":"5","04_ages_6":"6","04_ages_7":"7","04_ages_8":"8","04_ages_9":"9","04_ages_10":"10","04_ages_11":"11","04_ages_12":"12","04_ages_13":"13","04_ages_14":"14","04_ages_15":"15","04_ages_16":"16","04_ages_17":"17","04_ages_18":"18"},"rt":59738,"item_order":[0,1,2,3],"radio_events":[3310,21737,34982,47351],"checkbox_events":[10402,10938,11426,11954,12339,12924,13286,13688,15207,15940,16468,16878,17548,17988,18524,19076,19690,20352,24085,24512,25174,25812,26364,26828,27254,27781,28356,28955,29468,30127,30727,31162,31594,32178,32617,33201,36786,37289,38196,39393,39889,40473,41190,41583,41947,42497,43001,43553,44082,44508,45097,45531,46099,46478,48099,48879,49407,50211,51141,51699,52377,53007,54299,54795,55624,56049,56688,57278,57843,58379,58781,59167],"key_events":[],"mouse_events":[3310,10402,10938,11426,11954,12339,12924,13286,13688,14081,14545,15207,15940,16468,16878,17548,17988,18524,19076,19690,20352,21737,23172,24085,24512,25174,25812,26364,26828,27254,27781,28356,28955,29468,30127,30727,31162,31594,32178,32617,33201,34982,36786,37289,38196,38715,39393,39889,40473,41190,41583,41947,42497,43001,43553,44082,44508,45097,45531,46099,46478,47351,48099,48518,48879,49407,49880,50211,50761,51141,51699,52377,53007,54299,54795,55624,56049,56688,57278,57843,58379,58781,59167,59736],"honeypot":0,"survey":"mace","page":9,"trial_type":"survey-mace","trial_index":17,"time_elapsed":1572065,"internal_node_id":"0.0-17.0","task_version":"prescreen-v0.3","browser_interactions":0},{"responses":{"01":"No","02":"No","03":"Yes","03_ages_15":"15","03_ages_16":"16","03_ages_17":"17","03_ages_18":"18","04":"Yes","04_ages_10":"10","04_ages_11":"11","04_ages_12":"12","04_ages_13":"13","04_ages_14":"14","04_ages_15":"15","04_ages_16":"16","04_ages_17":"17","04_ages_18":"18","05":"Yes","05_ages_15":"15","05_ages_16":"16","05_ages_17":"17","05_ages_18":"18","06":"Yes","06_ages_17":"17","07":"Yes","07_ages_1":"1","07_ages_2":"2","07_ages_3":"3","07_ages_4":"4","07_ages_5":"5","07_ages_6":"6","07_ages_7":"7","07_ages_8":"8","07_ages_9":"9","07_ages_10":"10","07_ages_11":"11","07_ages_12":"12","07_ages_13":"13","07_ages_14":"14","07_ages_15":"15","07_ages_16":"16","07_ages_17":"17","07_ages_18":"18","08":"Yes","08_ages_1":"1","08_ages_2":"2","08_ages_3":"3","08_ages_4":"4","08_ages_5":"5","08_ages_6":"6","08_ages_7":"7","08_ages_8":"8","08_ages_9":"9","08_ages_10":"10","08_ages_11":"11","08_ages_12":"12","08_ages_13":"13","08_ages_14":"14","08_ages_15":"15","08_ages_16":"16","08_ages_17":"17","08_ages_18":"18"},"rt":56639,"item_order":[0,1,2,3,4,5,6,7],"radio_events":[4239,4829,6839,12819,21751,26603,31401,44368],"checkbox_events":[9029,9359,9707,10296,15095,15851,16261,16757,17221,17639,18009,18504,19317,22893,23643,23989,24383,27840,34427,34963,35915,36284,36703,37161,37697,38066,38484,38932,39571,40335,40768,41146,41824,42218,43076,43494,45961,46644,47118,47771,48346,48915,49528,50182,50694,51182,51782,52554,53096,53602,54406,54996,55548,56012],"key_events":[],"mouse_events":[4239,4829,6839,9029,9359,9707,10296,12819,15095,15851,16261,16757,17221,17639,18009,18504,18877,19317,21751,22893,23233,23643,23989,24383,26603,27840,31401,34427,34963,35365,35915,36284,36703,37161,37697,38066,38484,38932,39571,40335,40768,41146,41824,42218,43076,43494,44368,45961,46644,47118,47771,48346,48915,49528,50182,50694,51182,51782,52554,53096,53602,54406,54996,55548,56012,56635],"honeypot":0,"survey":"mace","page":10,"trial_type":"survey-mace","trial_index":18,"time_elapsed":1628710,"internal_node_id":"0.0-18.0","task_version":"prescreen-v0.3","browser_interactions":0,"instructed":0},{"rt":11787,"trial_type":"mental-health-alert","trial_index":19,"time_elapsed":1640499,"internal_node_id":"0.0-19.0","task_version":"prescreen-v0.3","interactions":"[{\"event\":\"blur\",\"trial\":8,\"time\":895393},{\"event\":\"focus\",\"trial\":8,\"time\":1296538}]"}]