[{"view_history":[{"page_index":0,"viewing_time":2279.7000000001863},{"page_index":1,"viewing_time":1263.3999999994412},{"page_index":2,"viewing_time":2135.4000000003725},{"page_index":3,"viewing_time":839.5}],"rt":6520.5999999996275,"trial_type":"instructions","trial_index":0,"time_elapsed":6546,"internal_node_id":"0.0-0.0","task_version":"prescreen-v0.3"},{"rt":19667.299999999814,"responses":{"age":"22","gender-categorical":"Male","gender-free-response":"","ethnicity":"Not Hispanic or Latino","race":["White"],"education":"Bachelor degree"},"trial_type":"survey-demo","trial_index":1,"time_elapsed":26232,"internal_node_id":"0.0-1.0","task_version":"prescreen-v0.3"},{"responses":{"Q07":"1","Q20":"0","Q11":"1","Q21":"3","Q13":"1","Q16":"1","Q06":"1","Q10":"0","Q15":"2","Q04":"1","Q09":"1","Q02":"1","Q05":"1","Q19":"1","Q18":"1","Q12":"0","Q01":"0","Q17":"0","Q14":"0","Q08":"0","Q03":"0"},"rt":83854.09999999963,"item_order":[6,19,10,20,12,15,5,9,14,3,8,1,4,18,17,11,0,16,13,7,2],"radio_events":[9656,12678.599999999627,15872.5,25659.599999999627,30899.39999999944,35952.200000000186,39174.700000000186,42418,47976,51444.799999999814,54300.59999999963,55851.39999999944,58153.59999999963,65289,68333.5,72018.39999999944,73648.59999999963,76977.89999999944,78291.79999999981,79992,82016.5],"key_events":[],"mouse_events":[9656,12678.599999999627,15872.5,24769.700000000186,25659.599999999627,30010.39999999944,30899.39999999944,35952.200000000186,39174.700000000186,42418,46819.89999999944,47976,51444.799999999814,54300.59999999963,55851.39999999944,58153.59999999963,64202.89999999944,65289,68333.5,70863.70000000019,72018.39999999944,73648.59999999963,74991.89999999944,76977.89999999944,78291.79999999981,79992,82016.5,83849.70000000019],"straightlining":0.5238095238095238,"zigzagging":0.25,"honeypot":0,"survey":"sns","trial_type":"survey-template","trial_index":2,"time_elapsed":110113,"internal_node_id":"0.0-2.0","task_version":"prescreen-v0.3","browser_interactions":0,"infrequency":0},{"responses":{"Q05":"2","Q07":"2","Q01":"2","Q08":"2","Q06":"2","Q13":"0","Q10":"2","Q02":"1","Q03":"2","Q09":"2","Q12":"2","Q11":"2","Q04":"3"},"rt":56864.800000000745,"item_order":[4,6,0,7,5,12,9,1,2,8,11,10,3],"radio_events":[18438.800000000745,21822.200000000186,25955.700000000186,26934,28594.10000000056,30581.200000000186,33381.60000000056,37593.40000000037,42594.800000000745,45059.800000000745,49460.60000000056,53927.200000000186,55724.40000000037],"key_events":[],"mouse_events":[18438.800000000745,21150.300000000745,21822.200000000186,23512.400000000373,25955.700000000186,26934,28594.10000000056,30581.200000000186,33381.60000000056,37593.40000000037,42594.800000000745,45059.800000000745,49460.60000000056,51821.10000000056,53927.200000000186,55724.40000000037,56861.40000000037],"straightlining":0.7692307692307693,"zigzagging":0.25,"honeypot":0,"survey":"bisbas","trial_type":"survey-template","trial_index":3,"time_elapsed":167003,"internal_node_id":"0.0-3.0","task_version":"prescreen-v0.3","browser_interactions":0,"infrequency":0},{"responses":{"Q01":"3","Q02":"1","Q03":"3"},"rt":17400.400000000373,"radio_events":[7339.300000000745,11523.700000000186,16587.60000000056],"key_events":[],"mouse_events":[7339.300000000745,11523.700000000186,16587.60000000056,17398.900000000373],"survey":"map","page":1,"trial_type":"survey-map","trial_index":4,"time_elapsed":184421,"internal_node_id":"0.0-4.0","task_version":"prescreen-v0.3","browser_interactions":0},{"responses":{"Q04":"2","Q05":"2","Q06":"3"},"rt":21606.10000000056,"radio_events":[17148.10000000056,18077.799999999814,20908.299999999814],"key_events":[],"mouse_events":[17148.10000000056,18077.799999999814,20908.299999999814,21601.10000000056],"survey":"map","page":2,"trial_type":"survey-map","trial_index":5,"time_elapsed":206045,"internal_node_id":"0.0-5.0","task_version":"prescreen-v0.3","browser_interactions":0},{"responses":{"Q07":"3","Q08":"0","Q09":"3"},"rt":13534.200000000186,"radio_events":[4819.200000000186,9742.5,12503.799999999814],"key_events":[],"mouse_events":[4819.200000000186,9742.5,12503.799999999814,13532.900000000373],"survey":"map","page":3,"trial_type":"survey-map","trial_index":6,"time_elapsed":219596,"internal_node_id":"0.0-6.0","task_version":"prescreen-v0.3","browser_interactions":0},{"responses":{"Q10":"2","Q11":"2","Q12":"1","Q13":"1","Q16":"0","Q14":"3","Q15":"3"},"rt":33638.39999999944,"radio_events":[5091.5999999996275,6001.200000000186,11171.599999999627,14822,18914.799999999814,23227,32717],"key_events":[],"mouse_events":[3491.5,5091.5999999996275,6001.200000000186,10440.599999999627,11171.599999999627,14822,18914.799999999814,23227,32717,33635.59999999963],"survey":"map","page":4,"trial_type":"survey-map","trial_index":7,"time_elapsed":253251,"internal_node_id":"0.0-7.0","task_version":"prescreen-v0.3","browser_interactions":0,"infrequency":0},{"view_history":[{"page_index":0,"viewing_time":2352.5},{"page_index":1,"viewing_time":4388.5999999996275}],"rt":6743.5,"trial_type":"instructions","trial_index":8,"time_elapsed":260008,"internal_node_id":"0.0-8.0","task_version":"prescreen-v0.3"},{"responses":{"01":"No","02":"Yes","02_ages_12":"12","02_ages_13":"13","02_ages_14":"14","02_ages_15":"15","02_ages_16":"16","02_ages_17":"17","02_ages_18":"18","03":"No","04":"No","05":"No","06":"No"},"rt":41572.10000000056,"item_order":[0,1,2,3,4,5],"radio_events":[17457.200000000186,20670.300000000745,35845.300000000745,37603.10000000056,39134.10000000056,40933.10000000056],"checkbox_events":[24898.300000000745,25747.800000000745,27872.10000000056,28523.400000000373,29175.10000000056,29817.400000000373,30518.300000000745,31220.10000000056,32534.800000000745],"key_events":[],"mouse_events":[0.5,17457.200000000186,20670.300000000745,24898.300000000745,25747.800000000745,27872.10000000056,28523.400000000373,29175.10000000056,29817.400000000373,30518.300000000745,31220.10000000056,32534.800000000745,35845.300000000745,37603.10000000056,39134.10000000056,40933.10000000056,41565.700000000186],"honeypot":0,"survey":"mace","page":1,"trial_type":"survey-mace","trial_index":9,"time_elapsed":301604,"internal_node_id":"0.0-9.0","task_version":"prescreen-v0.3","browser_interactions":0},{"responses":{"01":"No","02":"No","03":"No","04":"No","05":"No","06":"No","07":"No","08":"No"},"rt":13428.400000000373,"item_order":[0,1,2,3,4,5,6,7],"radio_events":[2143.5,3682.600000000559,5707.299999999814,6725.299999999814,8349.900000000373,9871,11522.100000000559,12302.400000000373],"checkbox_events":[],"key_events":[],"mouse_events":[2143.5,3682.600000000559,5707.299999999814,6725.299999999814,8349.900000000373,9871,11522.100000000559,12302.400000000373,12905.100000000559,13419.200000000186],"honeypot":0,"survey":"mace","page":2,"trial_type":"survey-mace","trial_index":10,"time_elapsed":315058,"internal_node_id":"0.0-10.0","task_version":"prescreen-v0.3","browser_interactions":0},{"responses":{"01":"No","02":"No","03":"No","04":"No"},"rt":9496.5,"item_order":[0,1,2,3],"radio_events":[3542.300000000745,5951.9000000003725,7660.800000000745,8895.100000000559],"checkbox_events":[],"key_events":[],"mouse_events":[3542.300000000745,4510.100000000559,5300.100000000559,5951.9000000003725,6870.800000000745,7660.800000000745,8895.100000000559,9488.100000000559],"honeypot":0,"survey":"mace","page":3,"trial_type":"survey-mace","trial_index":11,"time_elapsed":324578,"internal_node_id":"0.0-11.0","task_version":"prescreen-v0.3","browser_interactions":0},{"responses":{"01":"No","02":"No"},"rt":11170.200000000186,"item_order":[0,1],"radio_events":[6129.5,10397.100000000559],"checkbox_events":[],"key_events":[],"mouse_events":[6129.5,10397.100000000559,11167.600000000559],"honeypot":0,"survey":"mace","page":4,"trial_type":"survey-mace","trial_index":12,"time_elapsed":335769,"internal_node_id":"0.0-12.0","task_version":"prescreen-v0.3","browser_interactions":0},{"responses":{"01":"No","02":"No","03":"No","04":"No","05":"No"},"rt":20171.799999999814,"item_order":[0,1,2,3,4],"radio_events":[10109.900000000373,10929.400000000373,16741.60000000056,17738.299999999814,19487.299999999814],"checkbox_events":[],"key_events":[],"mouse_events":[8795.400000000373,10109.900000000373,10929.400000000373,14803.400000000373,16741.60000000056,17738.299999999814,19487.299999999814,20158.900000000373],"honeypot":0,"survey":"mace","page":5,"trial_type":"survey-mace","trial_index":13,"time_elapsed":355963,"internal_node_id":"0.0-13.0","task_version":"prescreen-v0.3","browser_interactions":0},{"responses":{"01":"Yes","01_ages_5":"5","01_ages_6":"6","01_ages_7":"7","01_ages_8":"8","01_ages_9":"9","01_ages_10":"10","01_ages_11":"11","01_ages_12":"12","01_ages_13":"13","01_ages_14":"14","01_ages_15":"15","01_ages_16":"16","01_ages_17":"17","01_ages_18":"18","02":"Yes","02_ages_12":"12","02_ages_13":"13","02_ages_14":"14","02_ages_15":"15","02_ages_16":"16","02_ages_17":"17","02_ages_18":"18","03":"No","04":"No","05":"No"},"rt":38520.299999999814,"item_order":[0,1,2,3,4],"radio_events":[5470,22122.5,35748.39999999944,36479.299999999814,37565.89999999944],"checkbox_events":[6854.799999999814,7576,8860.799999999814,9522.599999999627,10867,11528.5,12210.399999999441,12832.299999999814,13435.899999999441,14028,14660.5,15855.899999999441,17071.299999999814,18336.39999999944,23041.799999999814,23595.199999999255,25798.89999999944,27054.39999999944,28180.699999999255,29326.299999999814,30520.89999999944],"key_events":[],"mouse_events":[5470,6854.799999999814,7576,8198.5,8860.799999999814,9522.599999999627,10234.099999999627,10867,11528.5,12210.399999999441,12832.299999999814,13435.899999999441,14028,14660.5,15302.199999999255,15855.899999999441,16452.699999999255,17071.299999999814,17733.5,18336.39999999944,22122.5,23041.799999999814,23595.199999999255,24120.39999999944,25225.39999999944,25798.89999999944,26312.299999999814,27054.39999999944,27666.099999999627,28180.699999999255,28763.199999999255,29326.299999999814,29958.5,30520.89999999944,31212.5,35748.39999999944,36479.299999999814,37565.89999999944,38514.799999999814],"honeypot":0,"survey":"mace","page":6,"trial_type":"survey-mace","trial_index":14,"time_elapsed":394508,"internal_node_id":"0.0-14.0","task_version":"prescreen-v0.3","browser_interactions":0},{"responses":{"01":"No","02":"No","03":"No","04":"No","05":"No","06":"No","07":"No"},"rt":10433.5,"item_order":[0,1,2,3,4,5,6],"radio_events":[1985.9000000003725,3547.2000000001863,4783.4000000003725,5681.299999999814,7160.700000000186,7959.299999999814,9768.5],"checkbox_events":[],"key_events":[],"mouse_events":[1985.9000000003725,2766.7000000001863,3547.2000000001863,4783.4000000003725,5681.299999999814,7160.700000000186,7959.299999999814,8720.600000000559,9768.5,10422.600000000559],"honeypot":0,"survey":"mace","page":7,"trial_type":"survey-mace","trial_index":15,"time_elapsed":404969,"internal_node_id":"0.0-15.0","task_version":"prescreen-v0.3","browser_interactions":0},{"responses":{"01":"No","02":"No","03":"No","04":"No"},"rt":14763,"item_order":[0,1,2,3],"radio_events":[6129.700000000186,8056.299999999814,11041.299999999814,12592.700000000186],"checkbox_events":[],"key_events":[],"mouse_events":[6129.700000000186,8056.299999999814,11041.299999999814,11881.299999999814,12592.700000000186,13976.400000000373,14757.400000000373],"honeypot":0,"survey":"mace","page":8,"trial_type":"survey-mace","trial_index":16,"time_elapsed":419754,"internal_node_id":"0.0-16.0","task_version":"prescreen-v0.3","browser_interactions":0},{"responses":{"01":"Yes","01_ages_1":"1","01_ages_2":"2","01_ages_3":"3","01_ages_4":"4","01_ages_5":"5","01_ages_6":"6","01_ages_7":"7","01_ages_8":"8","01_ages_9":"9","01_ages_10":"10","01_ages_11":"11","01_ages_12":"12","01_ages_13":"13","01_ages_14":"14","01_ages_15":"15","01_ages_16":"16","01_ages_17":"17","01_ages_18":"18","02":"Yes","02_ages_1":"1","02_ages_2":"2","02_ages_3":"3","02_ages_4":"4","02_ages_5":"5","02_ages_6":"6","02_ages_7":"7","02_ages_8":"8","02_ages_9":"9","02_ages_10":"10","02_ages_11":"11","02_ages_12":"12","02_ages_13":"13","02_ages_14":"14","02_ages_15":"15","02_ages_16":"16","02_ages_17":"17","02_ages_18":"18","03":"Yes","03_ages_1":"1","03_ages_2":"2","03_ages_3":"3","03_ages_4":"4","03_ages_5":"5","03_ages_6":"6","03_ages_7":"7","03_ages_8":"8","03_ages_9":"9","03_ages_10":"10","03_ages_11":"11","03_ages_12":"12","03_ages_13":"13","03_ages_14":"14","03_ages_15":"15","03_ages_16":"16","03_ages_17":"17","03_ages_18":"18","04":"Yes","04_ages_1":"1","04_ages_2":"2","04_ages_3":"3","04_ages_4":"4","04_ages_5":"5","04_ages_6":"6","04_ages_7":"7","04_ages_8":"8","04_ages_9":"9","04_ages_10":"10","04_ages_11":"11","04_ages_12":"12","04_ages_13":"13","04_ages_14":"14","04_ages_15":"15","04_ages_16":"16","04_ages_17":"17","04_ages_18":"18"},"rt":88706,"item_order":[0,1,2,3],"radio_events":[4602.100000000559,25961.400000000373,26490.299999999814,26711.60000000056,50139.200000000186,51019],"checkbox_events":[6163.100000000559,6757.200000000186,7309.4000000003725,10066.700000000186,10827.5,11607.100000000559,12279,13070.200000000186,13770.900000000373,14472.299999999814,15167.100000000559,16013.400000000373,16705,18137.200000000186,18957.60000000056,19787.5,20498.799999999814,21190.799999999814,28967,34104.90000000037,34793.5,35485.60000000056,36098.40000000037,36661.40000000037,37748.10000000056,38400.5,39042.60000000056,40297.299999999814,41058,41828.10000000056,42470.90000000037,43122.799999999814,43745.799999999814,44348.299999999814,45167.60000000056,49051.799999999814,54251.10000000056,55762.60000000056,56424.40000000037,57343.40000000037,58232.10000000056,59161.299999999814,60178.700000000186,61067.700000000186,61838.5,62678.799999999814,63508,64308.40000000037,65296.10000000056,66037.79999999981,66680.5,67548.5,68457.5,69277.60000000056,70611,71225.5,72063.60000000056,73387.40000000037,74227.20000000019,74939.20000000019,75728.90000000037,76441.90000000037,77231.29999999981,77923,80452.40000000037,81389.90000000037,82121.40000000037,82872.5,84018.60000000056,84749.60000000056,86864.10000000056,88009],"key_events":[26490.299999999814,26711.60000000056],"mouse_events":[4602.100000000559,6163.100000000559,6757.200000000186,7309.4000000003725,7893.4000000003725,8506,9562.700000000186,10066.700000000186,10827.5,11607.100000000559,12279,13070.200000000186,13770.900000000373,14472.299999999814,15167.100000000559,16013.400000000373,16705,17544.700000000186,18137.200000000186,18957.60000000056,19787.5,20498.799999999814,21190.799999999814,25961.400000000373,28967,34104.90000000037,34793.5,35485.60000000056,36098.40000000037,36661.40000000037,37244.40000000037,37748.10000000056,38400.5,39042.60000000056,39734.200000000186,40297.299999999814,41058,41828.10000000056,42470.90000000037,43122.799999999814,43745.799999999814,44348.299999999814,45167.60000000056,45879.10000000056,49051.799999999814,50139.200000000186,51019,53638.200000000186,54251.10000000056,55762.60000000056,56424.40000000037,57343.40000000037,58232.10000000056,59161.299999999814,60178.700000000186,61067.700000000186,61838.5,62678.799999999814,63508,64308.40000000037,65296.10000000056,66037.79999999981,66680.5,67548.5,68457.5,69277.60000000056,70611,71225.5,72063.60000000056,73387.40000000037,74227.20000000019,74939.20000000019,75728.90000000037,76441.90000000037,77231.29999999981,77923,78989.5,80452.40000000037,81389.90000000037,82121.40000000037,82872.5,84018.60000000056,84749.60000000056,85431.40000000037,86113.29999999981,86864.10000000056,88009,88701.90000000037],"honeypot":0,"survey":"mace","page":9,"trial_type":"survey-mace","trial_index":17,"time_elapsed":508489,"internal_node_id":"0.0-17.0","task_version":"prescreen-v0.3","browser_interactions":3},{"responses":{"01":"No","02":"No","03":"No","04":"No","05":"No","06":"Yes","06_ages_17":"17","07":"Yes","07_ages_1":"1","07_ages_2":"2","07_ages_3":"3","07_ages_4":"4","07_ages_5":"5","07_ages_6":"6","07_ages_7":"7","07_ages_8":"8","07_ages_9":"9","07_ages_10":"10","07_ages_11":"11","07_ages_12":"12","07_ages_13":"13","07_ages_14":"14","07_ages_15":"15","07_ages_16":"16","07_ages_17":"17","07_ages_18":"18","08":"Yes","08_ages_1":"1","08_ages_2":"2","08_ages_3":"3","08_ages_4":"4","08_ages_5":"5","08_ages_6":"6","08_ages_7":"7","08_ages_8":"8","08_ages_9":"9","08_ages_10":"10","08_ages_11":"11","08_ages_12":"12","08_ages_13":"13","08_ages_14":"14","08_ages_15":"15","08_ages_16":"16","08_ages_17":"17","08_ages_18":"18"},"rt":60476.5,"item_order":[0,1,2,3,4,5,6,7],"radio_events":[4085.7999999998137,5392.200000000186,6656.5,7683.899999999441,9343.899999999441,10667.599999999627,13819.200000000186,25854.89999999944,30577.599999999627],"checkbox_events":[15993.099999999627,32950,33630.799999999814,34816.700000000186,35458.200000000186,36110.5,37029.700000000186,37642.5,38432.39999999944,39341.89999999944,39955.59999999963,40665.700000000186,41328.59999999963,42019.700000000186,42673.09999999963,43333.39999999944,44133.89999999944,45031.89999999944,45734.09999999963,46920.200000000186,47739.59999999963,48421.700000000186,49498.700000000186,50239.5,50901.89999999944,51603.09999999963,52284.89999999944,52946.700000000186,53569.200000000186,54232,54942.89999999944,55683.799999999814,56395.09999999963,57136,57818.5,58559.700000000186,59280.700000000186],"key_events":[],"mouse_events":[4085.7999999998137,5392.200000000186,6656.5,7683.899999999441,9343.899999999441,10667.599999999627,13819.200000000186,15993.099999999627,25233.599999999627,25854.89999999944,26695,27575.799999999814,30577.599999999627,32950,33630.799999999814,34253.5,34816.700000000186,35458.200000000186,36110.5,37029.700000000186,37642.5,38432.39999999944,39341.89999999944,39955.59999999963,40665.700000000186,41328.59999999963,42019.700000000186,42673.09999999963,43333.39999999944,44133.89999999944,45031.89999999944,45734.09999999963,46920.200000000186,47739.59999999963,48421.700000000186,49498.700000000186,50239.5,50901.89999999944,51603.09999999963,52284.89999999944,52946.700000000186,53569.200000000186,54232,54942.89999999944,55683.799999999814,56395.09999999963,57136,57818.5,58559.700000000186,59280.700000000186,60466.700000000186],"honeypot":0,"survey":"mace","page":10,"trial_type":"survey-mace","trial_index":18,"time_elapsed":568991,"internal_node_id":"0.0-18.0","task_version":"prescreen-v0.3","browser_interactions":0,"instructed":0},{"rt":3118,"trial_type":"mental-health-alert","trial_index":19,"time_elapsed":572124,"internal_node_id":"0.0-19.0","task_version":"prescreen-v0.3","interactions":"[{\"event\":\"blur\",\"trial\":17,\"time\":451998},{\"event\":\"focus\",\"trial\":17,\"time\":453880},{\"event\":\"focus\",\"trial\":17,\"time\":453880}]"}]