[{"view_history":[{"page_index":0,"viewing_time":2623},{"page_index":1,"viewing_time":2884},{"page_index":2,"viewing_time":3273},{"page_index":3,"viewing_time":1358}],"rt":10139,"trial_type":"instructions","trial_index":0,"time_elapsed":10144,"internal_node_id":"0.0-0.0","task_version":"prescreen-v0.3"},{"rt":13001,"responses":{"age":"26","gender-categorical":"Female","gender-free-response":"","ethnicity":"Hispanic or Latino","race":["Rather not say"],"education":"Bachelor degree"},"trial_type":"survey-demo","trial_index":1,"time_elapsed":23153,"internal_node_id":"0.0-1.0","task_version":"prescreen-v0.3"},{"responses":{"Q04":"1","Q14":"1","Q10":"2","Q08":"1","Q09":"3","Q15":"2","Q16":"1","Q21":"3","Q18":"1","Q12":"2","Q01":"2","Q19":"1","Q02":"1","Q05":"2","Q17":"2","Q03":"0","Q13":"1","Q07":"0","Q11":"2","Q06":"2","Q20":"1"},"rt":90337,"item_order":[3,13,9,7,8,14,15,20,17,11,0,18,1,4,16,2,12,6,10,5,19],"radio_events":[7126,14366,17142,21252,24373.000000000007,30124,33774,37426,43786,47750,50334,55992,59746.000000000015,66518,71355,73916,76491,80360,83470,87217,89210.00000000001],"key_events":[],"mouse_events":[7126,8774.999999999996,13605,14366,17142,20301,21252,24373.000000000007,29449.000000000007,30124,33774,36742.00000000001,37426,43786,47750,50334,55992,58579,59746.000000000015,66518,71355,73916,76491,80360,83470,87217,89210.00000000001,90323],"straightlining":0.42857142857142855,"zigzagging":0.5,"honeypot":0,"survey":"sns","trial_type":"survey-template","trial_index":2,"time_elapsed":113495,"internal_node_id":"0.0-2.0","task_version":"prescreen-v0.3","browser_interactions":0,"infrequency":0},{"responses":{"Q11":"1","Q07":"2","Q06":"3","Q01":"3","Q05":"2","Q12":"1","Q13":"0","Q09":"1","Q03":"3","Q10":"1","Q04":"2","Q08":"2","Q02":"3"},"rt":47996.999999999985,"item_order":[10,6,5,0,4,11,12,8,2,9,3,7,1],"radio_events":[6468.999999999985,8257.999999999985,12854.999999999985,16067,20460.000000000015,25506.999999999985,27156.999999999985,33411.999999999985,37256.999999999985,39504.999999999985,41925.999999999985,44514.999999999985,47005.999999999985],"key_events":[],"mouse_events":[5692.999999999985,6468.999999999985,8257.999999999985,11686.999999999985,12854.999999999985,16067,20460.000000000015,25506.999999999985,27156.999999999985,33411.999999999985,36568.999999999985,37256.999999999985,39504.999999999985,41925.999999999985,44514.999999999985,47005.999999999985,47986.999999999985],"straightlining":0.3076923076923077,"zigzagging":0.6666666666666666,"honeypot":0,"survey":"bisbas","trial_type":"survey-template","trial_index":3,"time_elapsed":161496,"internal_node_id":"0.0-3.0","task_version":"prescreen-v0.3","browser_interactions":0,"infrequency":0},{"responses":{"Q01":"3","Q02":"2","Q03":"3"},"rt":12967,"radio_events":[5259,8721,11670],"key_events":[],"mouse_events":[5259,8721,11670,12964],"survey":"map","page":1,"trial_type":"survey-map","trial_index":4,"time_elapsed":174469,"internal_node_id":"0.0-4.0","task_version":"prescreen-v0.3","browser_interactions":0},{"responses":{"Q04":"3","Q05":"3","Q06":"3"},"rt":11602,"radio_events":[5373,7787,10833],"key_events":[],"mouse_events":[5373,7787,9630,10833,11598.00000000003],"survey":"map","page":2,"trial_type":"survey-map","trial_index":5,"time_elapsed":186075,"internal_node_id":"0.0-5.0","task_version":"prescreen-v0.3","browser_interactions":0},{"responses":{"Q07":"2","Q08":"2","Q09":"4"},"rt":13919.00000000003,"radio_events":[4789,10031,12855],"key_events":[],"mouse_events":[4789,9316,10031,11655,12044.00000000003,12258.00000000003,12855,13914],"survey":"map","page":3,"trial_type":"survey-map","trial_index":6,"time_elapsed":200000,"internal_node_id":"0.0-6.0","task_version":"prescreen-v0.3","browser_interactions":0},{"responses":{"Q10":"3","Q11":"2","Q12":"2","Q13":"3","Q16":"0","Q14":"2","Q15":"3"},"rt":33565.99999999997,"radio_events":[11075.99999999997,14446.99999999997,16996.99999999997,21480.99999999997,25674.99999999997,30382.99999999997,32512.99999999997],"key_events":[],"mouse_events":[10379.99999999997,11075.99999999997,13738,14446.99999999997,16996.99999999997,21480.99999999997,25674.99999999997,29664.99999999997,30382.99999999997,32512.99999999997,33559.99999999997],"survey":"map","page":4,"trial_type":"survey-map","trial_index":7,"time_elapsed":233571,"internal_node_id":"0.0-7.0","task_version":"prescreen-v0.3","browser_interactions":0,"infrequency":0},{"view_history":[{"page_index":0,"viewing_time":1642.000000000029},{"page_index":1,"viewing_time":54442.99999999997}],"rt":56085,"trial_type":"instructions","trial_index":8,"time_elapsed":289659,"internal_node_id":"0.0-8.0","task_version":"prescreen-v0.3"},{"responses":{"01":"No","02":"Yes","02_ages_10":"10","02_ages_11":"11","02_ages_12":"12","02_ages_13":"13","03":"No","04":"No","05":"No","06":"No"},"rt":25051,"item_order":[0,1,2,3,4,5],"radio_events":[6072,7972,17678,19576,22050,24404],"checkbox_events":[11554,12424,14818,15484],"key_events":[],"mouse_events":[1,6072,7972,11554,12424,13069,14818,15484,17678,19576,20815,22050,23780,24404,25041],"honeypot":0,"survey":"mace","page":1,"trial_type":"survey-mace","trial_index":9,"time_elapsed":314717,"internal_node_id":"0.0-9.0","task_version":"prescreen-v0.3","browser_interactions":0},{"responses":{"01":"No","02":"No","03":"Yes","03_ages_8":"8","03_ages_9":"9","03_ages_10":"10","04":"No","05":"Yes","05_ages_7":"7","05_ages_8":"8","05_ages_9":"9","05_ages_10":"10","06":"No","07":"No","08":"No"},"rt":23550,"item_order":[0,1,2,3,4,5,6,7],"radio_events":[3134,5457,7698,12853.000000000058,15061,20502,21768,22932],"checkbox_events":[9004,9554,10134,16750,17284,17794,18398],"key_events":[],"mouse_events":[3134,5457,7698,9004,9554,10134,12853.000000000058,15061,16750,17284,17794,18398,20502,21768,22932,23537],"honeypot":0,"survey":"mace","page":2,"trial_type":"survey-mace","trial_index":10,"time_elapsed":338275,"internal_node_id":"0.0-10.0","task_version":"prescreen-v0.3","browser_interactions":0},{"responses":{"01":"No","02":"No","03":"No","04":"No"},"rt":9157,"item_order":[0,1,2,3],"radio_events":[3563,5859,7458,8517],"checkbox_events":[],"key_events":[],"mouse_events":[3563,5085,5859,7458,8517,9151],"honeypot":0,"survey":"mace","page":3,"trial_type":"survey-mace","trial_index":11,"time_elapsed":347437,"internal_node_id":"0.0-11.0","task_version":"prescreen-v0.3","browser_interactions":0},{"responses":{"01":"No","02":"No"},"rt":6333,"item_order":[0,1],"radio_events":[3763,5564],"checkbox_events":[],"key_events":[],"mouse_events":[3763,5564,6329],"honeypot":0,"survey":"mace","page":4,"trial_type":"survey-mace","trial_index":12,"time_elapsed":353775,"internal_node_id":"0.0-12.0","task_version":"prescreen-v0.3","browser_interactions":0},{"responses":{"01":"No","02":"No","03":"No","04":"No","05":"No"},"rt":13674.000000000058,"item_order":[0,1,2,3,4],"radio_events":[8069,9276,10568.000000000058,11961,12839],"checkbox_events":[],"key_events":[],"mouse_events":[8069,9276,10568.000000000058,11961,12839,13668],"honeypot":0,"survey":"mace","page":5,"trial_type":"survey-mace","trial_index":13,"time_elapsed":367457,"internal_node_id":"0.0-13.0","task_version":"prescreen-v0.3","browser_interactions":0},{"responses":{"01":"Yes","01_ages_8":"8","01_ages_9":"9","01_ages_10":"10","01_ages_11":"11","01_ages_12":"12","01_ages_13":"13","02":"Yes","02_ages_8":"8","02_ages_9":"9","02_ages_10":"10","02_ages_11":"11","02_ages_12":"12","02_ages_13":"13","03":"Yes","03_ages_11":"11","03_ages_12":"12","03_ages_13":"13","03_ages_14":"14","04":"Yes","04_ages_8":"8","04_ages_9":"9","04_ages_10":"10","04_ages_11":"11","05":"No"},"rt":38970,"item_order":[0,1,2,3,4],"radio_events":[6577,15931,23979,32719,38319],"checkbox_events":[8073,9359,10317,10889,11785,12335,18074,19037,19572,20115,20697,21952,28641.00000000006,29240,29839,30405,34221,34757,35297,35857],"key_events":[],"mouse_events":[6577,8073,8818,9359,10317,10889,11785,12335,15216,15931,16866,17456,18074,19037,19572,20115,20697,21952,23979,28641.00000000006,29240,29839,30405,32719,34221,34757,35297,35857,38319,38960],"honeypot":0,"survey":"mace","page":6,"trial_type":"survey-mace","trial_index":14,"time_elapsed":406434,"internal_node_id":"0.0-14.0","task_version":"prescreen-v0.3","browser_interactions":0},{"responses":{"01":"No","02":"No","03":"No","04":"No","05":"No","06":"No","07":"No"},"rt":15626.000000000058,"item_order":[0,1,2,3,4,5,6],"radio_events":[3744,5883.000000000058,8933,9762,11789,12788,15056.000000000058],"checkbox_events":[],"key_events":[],"mouse_events":[3744,5883.000000000058,7559,8933,9762,11789,12788,13811.000000000058,14491,15056.000000000058,15617],"honeypot":0,"survey":"mace","page":7,"trial_type":"survey-mace","trial_index":15,"time_elapsed":422069,"internal_node_id":"0.0-15.0","task_version":"prescreen-v0.3","browser_interactions":0},{"responses":{"01":"No","02":"No","03":"Yes","03_ages_10":"10","03_ages_11":"11","03_ages_12":"12","03_ages_13":"13","04":"No"},"rt":19523.00000000006,"item_order":[0,1,2,3],"radio_events":[5806,7710,14232,18756],"checkbox_events":[15569,16105,17256,17910.00000000006],"key_events":[],"mouse_events":[5806,7710,14232,15569,16105,16656,17256,17910.00000000006,18756,19517],"honeypot":0,"survey":"mace","page":8,"trial_type":"survey-mace","trial_index":16,"time_elapsed":441599,"internal_node_id":"0.0-16.0","task_version":"prescreen-v0.3","browser_interactions":0},{"responses":{"01":"Yes","01_ages_1":"1","01_ages_2":"2","01_ages_3":"3","01_ages_4":"4","01_ages_5":"5","01_ages_6":"6","01_ages_7":"7","01_ages_8":"8","01_ages_9":"9","01_ages_10":"10","01_ages_11":"11","01_ages_12":"12","01_ages_13":"13","01_ages_14":"14","01_ages_15":"15","01_ages_16":"16","01_ages_17":"17","01_ages_18":"18","02":"Yes","02_ages_1":"1","02_ages_2":"2","02_ages_3":"3","02_ages_4":"4","02_ages_5":"5","02_ages_6":"6","02_ages_7":"7","02_ages_8":"8","02_ages_9":"9","02_ages_10":"10","02_ages_11":"11","02_ages_12":"12","02_ages_13":"13","02_ages_14":"14","02_ages_15":"15","02_ages_16":"16","02_ages_17":"17","02_ages_18":"18","03":"Yes","03_ages_1":"1","03_ages_2":"2","03_ages_3":"3","03_ages_4":"4","03_ages_5":"5","03_ages_6":"6","03_ages_7":"7","03_ages_8":"8","03_ages_9":"9","03_ages_10":"10","03_ages_11":"11","03_ages_12":"12","03_ages_13":"13","03_ages_14":"14","03_ages_15":"15","03_ages_16":"16","03_ages_17":"17","03_ages_18":"18","04":"Yes","04_ages_1":"1","04_ages_2":"2","04_ages_3":"3","04_ages_4":"4","04_ages_5":"5","04_ages_6":"6","04_ages_7":"7","04_ages_8":"8","04_ages_9":"9","04_ages_10":"10","04_ages_11":"11","04_ages_12":"12","04_ages_13":"13","04_ages_14":"14","04_ages_15":"15","04_ages_16":"16","04_ages_17":"17","04_ages_18":"18"},"rt":75478.00000000006,"item_order":[0,1,2,3],"radio_events":[3028,23438,44200,60368.00000000006],"checkbox_events":[7443,8026,8613,10010.000000000058,10578,11506,12338,13040,13625,14167,15294,15879,16516,17164,18376,19352,19969.00000000006,20558.00000000006,26914,27635.00000000006,28204,29324,29892.00000000006,30446,30958,31462.00000000006,32448,32944,33424,33938,34546.00000000006,35042,35564,36092,37348,37973,45390,45870,46414,46964,47524,49244,50356.00000000006,51476,52111.00000000006,52655,53225,53873.00000000006,54784.00000000006,55344.00000000006,56384,56958,57638,58412,61360,62566,63558.00000000006,64084,64676,65251,65770,66322,66906,67482,68089,68705,69265,70480,71406.00000000006,71981.99999999994,72566,74110],"key_events":[],"mouse_events":[3028,7443,8026,8613,10010.000000000058,10578,11506,12338,13040,13625,14167,14727,15294,15879,16516,17164,18376,19352,19969.00000000006,20558.00000000006,22551,23438,26914,27635.00000000006,28204,28741,29324,29892.00000000006,30446,30958,31462.00000000006,32448,32944,33424,33938,34546.00000000006,35042,35564,36092,36573,37348,37973,43385.00000000006,44200,45390,45870,46414,46964,47524,48070.00000000006,49244,49773,50356.00000000006,50925,51476,52111.00000000006,52655,53225,53873.00000000006,54784.00000000006,55344.00000000006,56384,56958,57638,58412,59467,60368.00000000006,61360,61904.00000000006,62566,63558.00000000006,64084,64676,65251,65770,66322,66906,67482,68089,68705,69265,69841,70480,71406.00000000006,71981.99999999994,72566,73095,74110,75469.00000000006],"honeypot":0,"survey":"mace","page":9,"trial_type":"survey-mace","trial_index":17,"time_elapsed":517082,"internal_node_id":"0.0-17.0","task_version":"prescreen-v0.3","browser_interactions":0},{"responses":{"01":"No","02":"No","03":"No","04":"No","05":"No","06":"Yes","06_ages_17":"17","07":"Yes","07_ages_9":"9","07_ages_10":"10","07_ages_11":"11","07_ages_12":"12","07_ages_13":"13","07_ages_14":"14","07_ages_15":"15","07_ages_16":"16","07_ages_17":"17","07_ages_18":"18","08":"Yes","08_ages_14":"14","08_ages_15":"15","08_ages_16":"16","08_ages_17":"17","08_ages_18":"18"},"rt":36393.99999999994,"item_order":[0,1,2,3,4,5,6,7],"radio_events":[2717,3612.999999999942,4717,5676.999999999942,8258.999999999942,10676.999999999942,15526.999999999942,17743.99999999994],"checkbox_events":[12144.999999999942,20276.99999999994,20805.99999999994,21319.99999999994,21853.99999999994,22404.99999999994,25890.99999999994,27522.99999999994,27722.99999999994,28640.99999999994,29993.99999999994,31471.99999999994,32021.99999999994,32621.99999999994,33817.99999999994,34425.99999999994,35054.99999999994,35591.99999999994],"key_events":[],"mouse_events":[2717,3612.999999999942,4717,5676.999999999942,7572.000000000058,8258.999999999942,10676.999999999942,12144.999999999942,15526.999999999942,17743.99999999994,20276.99999999994,20805.99999999994,21319.99999999994,21853.99999999994,22404.99999999994,25890.99999999994,26363.99999999994,26875.99999999994,27522.99999999994,27722.99999999994,28640.99999999994,29113.99999999994,29993.99999999994,30521.99999999994,31471.99999999994,32021.99999999994,32621.99999999994,33163.99999999994,33817.99999999994,34425.99999999994,35054.99999999994,35591.99999999994,36383.99999999994],"honeypot":0,"survey":"mace","page":10,"trial_type":"survey-mace","trial_index":18,"time_elapsed":553484,"internal_node_id":"0.0-18.0","task_version":"prescreen-v0.3","browser_interactions":0,"instructed":0},{"rt":3242,"trial_type":"mental-health-alert","trial_index":19,"time_elapsed":556732,"internal_node_id":"0.0-19.0","task_version":"prescreen-v0.3","interactions":"[]"}]