[{"view_history":[{"page_index":0,"viewing_time":5041.100000000093},{"page_index":1,"viewing_time":5396},{"page_index":2,"viewing_time":6359.600000000093},{"page_index":3,"viewing_time":2046.6000000000931}],"rt":18846.600000000093,"trial_type":"instructions","trial_index":0,"time_elapsed":18888,"internal_node_id":"0.0-0.0","task_version":"prescreen-v0.3"},{"rt":31051.200000000186,"responses":{"age":"29","gender-categorical":"Other","gender-free-response":"nonbinary","ethnicity":"Not Hispanic or Latino","race":["White"],"education":"Some college"},"trial_type":"survey-demo","trial_index":1,"time_elapsed":49973,"internal_node_id":"0.0-1.0","task_version":"prescreen-v0.3"},{"responses":{"Q04":"2","Q01":"3","Q05":"1","Q15":"3","Q06":"1","Q17":"3","Q11":"3","Q08":"3","Q20":"3","Q16":"3","Q21":"3","Q03":"2","Q07":"2","Q19":"3","Q10":"2","Q14":"3","Q13":"3","Q18":"3","Q12":"1","Q09":"2","Q02":"2"},"rt":125143.3999999999,"item_order":[3,0,4,14,5,16,10,7,19,15,20,2,6,18,9,13,12,17,11,8,1],"radio_events":[11267,16742.100000000093,22982.600000000093,32828.10000000009,41800.30000000028,44524.200000000186,47076.39999999991,50584.30000000028,52100.39999999991,57533.700000000186,61109.30000000028,65194.89999999991,72715,76411.8999999999,85196.8999999999,94967.80000000028,99844.8999999999,101792.80000000028,105258.5,113098.20000000019,119608.1000000001,122350.70000000019,124326.3999999999],"key_events":[],"mouse_events":[11267,16742.100000000093,22982.600000000093,32828.10000000009,41800.30000000028,44524.200000000186,47076.39999999991,50584.30000000028,52100.39999999991,57533.700000000186,60038.200000000186,61109.30000000028,63238.89999999991,65194.89999999991,72715,76411.8999999999,85196.8999999999,94967.80000000028,99844.8999999999,101792.80000000028,104090.70000000019,105258.5,113098.20000000019,119608.1000000001,122350.70000000019,124326.3999999999,125132.20000000019],"straightlining":0.5714285714285714,"zigzagging":0.3,"honeypot":0,"survey":"sns","trial_type":"survey-template","trial_index":2,"time_elapsed":175149,"internal_node_id":"0.0-2.0","task_version":"prescreen-v0.3","browser_interactions":0,"infrequency":0},{"responses":{"Q10":"1","Q13":"0","Q05":"1","Q02":"0","Q08":"0","Q06":"1","Q09":"1","Q03":"1","Q04":"2","Q07":"1","Q11":"1","Q12":"1","Q01":"2"},"rt":63049.40000000037,"item_order":[9,12,4,1,7,5,8,2,3,6,10,11,0],"radio_events":[7634.200000000186,10863.700000000186,16393.900000000373,20944.900000000373,25557.5,31388,35722.90000000037,41716,45247.90000000037,47670.10000000009,53688.5,59860.60000000009,61990.700000000186],"key_events":[],"mouse_events":[7634.200000000186,9804.400000000373,10863.700000000186,16393.900000000373,20944.900000000373,25557.5,31388,34928.5,35722.90000000037,40866.10000000009,41716,45247.90000000037,47670.10000000009,53688.5,59860.60000000009,61990.700000000186,63034.10000000009],"straightlining":0.6153846153846154,"zigzagging":0.5833333333333334,"honeypot":0,"survey":"bisbas","trial_type":"survey-template","trial_index":3,"time_elapsed":238216,"internal_node_id":"0.0-3.0","task_version":"prescreen-v0.3","browser_interactions":0,"infrequency":0},{"responses":{"Q01":"0","Q02":"0","Q03":"0"},"rt":18657,"radio_events":[4710.399999999907,7424.100000000093,12302.19999999972,17564.799999999814],"key_events":[],"mouse_events":[4710.399999999907,7424.100000000093,12302.19999999972,17564.799999999814,18650.69999999972],"survey":"map","page":1,"trial_type":"survey-map","trial_index":4,"time_elapsed":256896,"internal_node_id":"0.0-4.0","task_version":"prescreen-v0.3","browser_interactions":0},{"responses":{"Q04":"2","Q05":"2","Q06":"2"},"rt":15344.299999999814,"radio_events":[5901.699999999721,11727.100000000093,14356.899999999907],"key_events":[],"mouse_events":[5901.699999999721,11727.100000000093,14356.899999999907,15338.5],"survey":"map","page":2,"trial_type":"survey-map","trial_index":5,"time_elapsed":272255,"internal_node_id":"0.0-5.0","task_version":"prescreen-v0.3","browser_interactions":0},{"responses":{"Q07":"0","Q08":"1","Q09":"0"},"rt":20666.69999999972,"radio_events":[5780.299999999814,14333.600000000093,19748.19999999972],"key_events":[],"mouse_events":[5780.299999999814,14333.600000000093,19748.19999999972,20660.19999999972],"survey":"map","page":3,"trial_type":"survey-map","trial_index":6,"time_elapsed":292934,"internal_node_id":"0.0-6.0","task_version":"prescreen-v0.3","browser_interactions":0},{"responses":{"Q10":"0","Q11":"0","Q12":"2","Q13":"2","Q16":"0","Q14":"1","Q15":"1"},"rt":38171.39999999991,"radio_events":[8191.300000000279,11421.5,15999.700000000186,21039,25717,33735.39999999991,37244.30000000028],"key_events":[],"mouse_events":[8191.300000000279,11421.5,15999.700000000186,21039,23301.5,23740.100000000093,23928.200000000186,24143.80000000028,25717,33735.39999999991,37244.30000000028,38156.700000000186],"survey":"map","page":4,"trial_type":"survey-map","trial_index":7,"time_elapsed":331124,"internal_node_id":"0.0-7.0","task_version":"prescreen-v0.3","browser_interactions":0,"infrequency":0},{"view_history":[{"page_index":0,"viewing_time":3379.5},{"page_index":1,"viewing_time":4964.5}],"rt":8349.599999999627,"trial_type":"instructions","trial_index":8,"time_elapsed":339480,"internal_node_id":"0.0-8.0","task_version":"prescreen-v0.3"},{"responses":{"01":"Yes","01_ages_1":"1","01_ages_2":"2","01_ages_3":"3","01_ages_4":"4","01_ages_5":"5","01_ages_6":"6","01_ages_7":"7","01_ages_8":"8","01_ages_9":"9","01_ages_10":"10","01_ages_11":"11","01_ages_12":"12","01_ages_13":"13","01_ages_14":"14","01_ages_15":"15","01_ages_16":"16","01_ages_17":"17","01_ages_18":"18","02":"Yes","02_ages_4":"4","02_ages_5":"5","02_ages_6":"6","02_ages_7":"7","02_ages_8":"8","02_ages_9":"9","02_ages_10":"10","02_ages_11":"11","02_ages_12":"12","02_ages_13":"13","02_ages_14":"14","02_ages_15":"15","02_ages_16":"16","02_ages_17":"17","02_ages_18":"18","03":"Yes","03_ages_9":"9","03_ages_10":"10","03_ages_11":"11","03_ages_12":"12","03_ages_13":"13","03_ages_14":"14","03_ages_15":"15","03_ages_16":"16","03_ages_17":"17","03_ages_18":"18","04":"Yes","04_ages_3":"3","04_ages_4":"4","05":"No","06":"Yes","06_ages_1":"1","06_ages_2":"2","06_ages_3":"3","06_ages_4":"4","06_ages_14":"14"},"rt":99338.70000000019,"item_order":[0,1,2,3,4,5],"radio_events":[10984,28323.5,46738.5,68631,79226.40000000037,84172.80000000028],"checkbox_events":[15457.700000000186,16180.100000000093,17659.700000000186,18064.600000000093,19009.100000000093,19371.200000000186,19985.100000000093,20436.5,20859.30000000028,21348.5,21782,22233,22722.600000000093,23258.30000000028,23643.600000000093,24122.5,24577.100000000093,25074.100000000093,25545.80000000028,26015.900000000373,29139.400000000373,29375.30000000028,29665.900000000373,29963.30000000028,30712.100000000093,31040.5,31355.80000000028,31664.100000000093,32384.80000000028,32805.200000000186,33121,33477.700000000186,33861.80000000028,34226.200000000186,34773.700000000186,35147.60000000009,35618.90000000037,36128.200000000186,39064.90000000037,39563.40000000037,41631.5,51900.90000000037,53503.5,53907.30000000028,54357.80000000028,54984.80000000028,55462.90000000037,58123.200000000186,58488.40000000037,59007.200000000186,60179.80000000028,60629.80000000028,61233.60000000009,70199.80000000028,70697.70000000019,71318.20000000019,71919.6000000001,87332.80000000028,91231.80000000028,91576,92040.80000000028,92421.80000000028],"key_events":[],"mouse_events":[0.8000000002793968,3617.100000000093,3832.600000000093,4109.100000000093,7241.600000000093,7463.800000000279,7620.100000000093,10984,14121.700000000186,15457.700000000186,16180.100000000093,17659.700000000186,18064.600000000093,19009.100000000093,19371.200000000186,19985.100000000093,20436.5,20859.30000000028,21348.5,21782,22233,22722.600000000093,23258.30000000028,23643.600000000093,24122.5,24577.100000000093,25074.100000000093,25545.80000000028,26015.900000000373,28323.5,29139.400000000373,29375.30000000028,29665.900000000373,29963.30000000028,30712.100000000093,31040.5,31355.80000000028,31664.100000000093,32384.80000000028,32805.200000000186,33121,33477.700000000186,33861.80000000028,34226.200000000186,34773.700000000186,35147.60000000009,35618.90000000037,36128.200000000186,39064.90000000037,39563.40000000037,41631.5,46632.10000000009,46738.5,51900.90000000037,53503.5,53907.30000000028,54357.80000000028,54984.80000000028,55462.90000000037,58123.200000000186,58488.40000000037,59007.200000000186,60179.80000000028,60629.80000000028,61233.60000000009,68631,70199.80000000028,70697.70000000019,71318.20000000019,71919.6000000001,79226.40000000037,84172.80000000028,87332.80000000028,91231.80000000028,91576,92040.80000000028,92421.80000000028,99314.30000000028],"honeypot":0,"survey":"mace","page":1,"trial_type":"survey-mace","trial_index":9,"time_elapsed":438860,"internal_node_id":"0.0-9.0","task_version":"prescreen-v0.3","browser_interactions":0},{"responses":{"01":"Yes","01_ages_1":"1","01_ages_2":"2","01_ages_3":"3","01_ages_4":"4","02":"Yes","02_ages_1":"1","02_ages_2":"2","02_ages_3":"3","02_ages_4":"4","03":"Yes","03_ages_3":"3","03_ages_4":"4","03_ages_5":"5","03_ages_6":"6","04":"Yes","04_ages_3":"3","04_ages_4":"4","04_ages_5":"5","04_ages_6":"6","05":"Yes","05_ages_3":"3","05_ages_4":"4","05_ages_5":"5","05_ages_6":"6","06":"Yes","06_ages_1":"1","06_ages_2":"2","06_ages_3":"3","06_ages_4":"4","06_ages_18":"18","07":"Yes","07_ages_1":"1","07_ages_2":"2","07_ages_3":"3","07_ages_4":"4","08":"Yes","08_ages_1":"1","08_ages_2":"2","08_ages_3":"3","08_ages_4":"4"},"rt":61343.200000000186,"item_order":[0,1,2,3,4,5,6,7],"radio_events":[3134.600000000093,14086.700000000186,20043.399999999907,31349.600000000093,37917.700000000186,43116.799999999814,49996.700000000186,57515.10000000009],"checkbox_events":[4222.700000000186,4604.299999999814,5075.299999999814,5525.700000000186,15297.700000000186,15842.100000000093,16361.100000000093,16811.799999999814,23174.100000000093,24056,24585.200000000186,25082.899999999907,25544.299999999814,32339.899999999907,32710.700000000186,33171.89999999991,33614,35086.799999999814,38756.10000000009,39205,39662.39999999991,40095.5,44557.700000000186,44861.200000000186,45333.5,47186.799999999814,48071.799999999814,50809.39999999991,51221.200000000186,51592.799999999814,52064.799999999814,58304.89999999991,58627.89999999991,59027.60000000009,59590.39999999991],"key_events":[],"mouse_events":[3134.600000000093,4222.700000000186,4604.299999999814,5075.299999999814,5525.700000000186,14086.700000000186,15297.700000000186,15842.100000000093,16361.100000000093,16811.799999999814,20043.399999999907,23174.100000000093,24056,24585.200000000186,25082.899999999907,25544.299999999814,31349.600000000093,32339.899999999907,32710.700000000186,33171.89999999991,33614,35086.799999999814,37917.700000000186,38756.10000000009,39205,39662.39999999991,40095.5,43116.799999999814,44557.700000000186,44861.200000000186,45333.5,47186.799999999814,48071.799999999814,49996.700000000186,50809.39999999991,51221.200000000186,51592.799999999814,52064.799999999814,57515.10000000009,58304.89999999991,58627.89999999991,59027.60000000009,59590.39999999991,61313.200000000186],"honeypot":0,"survey":"mace","page":2,"trial_type":"survey-mace","trial_index":10,"time_elapsed":500220,"internal_node_id":"0.0-10.0","task_version":"prescreen-v0.3","browser_interactions":0},{"responses":{"01":"No","02":"No","03":"No","04":"No"},"rt":13946.80000000028,"item_order":[0,1,2,3],"radio_events":[2977.399999999907,6691,9132.399999999907,11392.899999999907],"checkbox_events":[],"key_events":[],"mouse_events":[2977.399999999907,6691,9132.399999999907,11392.899999999907,13925.100000000093],"honeypot":0,"survey":"mace","page":3,"trial_type":"survey-mace","trial_index":11,"time_elapsed":514181,"internal_node_id":"0.0-11.0","task_version":"prescreen-v0.3","browser_interactions":0},{"responses":{"01":"Yes","01_ages_1":"1","01_ages_2":"2","01_ages_3":"3","01_ages_4":"4","01_ages_14":"14","01_ages_15":"15","01_ages_16":"16","01_ages_17":"17","01_ages_18":"18","02":"Yes","02_ages_8":"8","02_ages_14":"14"},"rt":56556.5,"item_order":[0,1],"radio_events":[10764.299999999814,26973.099999999627],"checkbox_events":[13696.399999999907,14006,14483.19999999972,14982.099999999627,16710.899999999907,17392.69999999972,17728.69999999972,18168.69999999972,18629.099999999627,30219.099999999627,39730.09999999963,40402.799999999814,40911,41650.5,46800.39999999991,47250.19999999972,47639.59999999963,53760.5,55059.69999999972],"key_events":[],"mouse_events":[10764.299999999814,13696.399999999907,14006,14483.19999999972,14982.099999999627,16710.899999999907,17392.69999999972,17728.69999999972,18168.69999999972,18629.099999999627,22243.899999999907,26973.099999999627,30219.099999999627,39730.09999999963,40402.799999999814,40911,41650.5,46800.39999999991,47250.19999999972,47639.59999999963,53760.5,55059.69999999972,56541],"honeypot":0,"survey":"mace","page":4,"trial_type":"survey-mace","trial_index":12,"time_elapsed":570753,"internal_node_id":"0.0-12.0","task_version":"prescreen-v0.3","browser_interactions":0},{"responses":{"01":"No","02":"No","03":"No","04":"No","05":"No"},"rt":19172.69999999972,"item_order":[0,1,2,3,4],"radio_events":[5127.699999999721,11820.799999999814,14243,14731.899999999907,17335],"checkbox_events":[],"key_events":[],"mouse_events":[5127.699999999721,6440.5,9727.599999999627,11820.799999999814,14243,14731.899999999907,17335,19152.599999999627],"honeypot":0,"survey":"mace","page":5,"trial_type":"survey-mace","trial_index":13,"time_elapsed":589949,"internal_node_id":"0.0-13.0","task_version":"prescreen-v0.3","browser_interactions":0},{"responses":{"01":"Yes","01_ages_7":"7","01_ages_8":"8","01_ages_9":"9","01_ages_10":"10","01_ages_11":"11","01_ages_12":"12","01_ages_13":"13","01_ages_14":"14","01_ages_15":"15","01_ages_16":"16","01_ages_17":"17","01_ages_18":"18","02":"Yes","02_ages_7":"7","02_ages_8":"8","02_ages_9":"9","02_ages_10":"10","02_ages_11":"11","02_ages_12":"12","02_ages_13":"13","02_ages_14":"14","02_ages_15":"15","02_ages_16":"16","02_ages_17":"17","02_ages_18":"18","03":"Yes","03_ages_7":"7","03_ages_8":"8","03_ages_9":"9","03_ages_10":"10","03_ages_11":"11","03_ages_12":"12","03_ages_13":"13","03_ages_14":"14","03_ages_15":"15","03_ages_16":"16","03_ages_17":"17","03_ages_18":"18","04":"Yes","04_ages_12":"12","04_ages_13":"13","04_ages_14":"14","04_ages_15":"15","04_ages_16":"16","04_ages_17":"17","04_ages_18":"18","05":"Yes","05_ages_13":"13","05_ages_14":"14","05_ages_15":"15","05_ages_16":"16","05_ages_17":"17","05_ages_18":"18"},"rt":54991.89999999991,"item_order":[0,1,2,3,4],"radio_events":[7734,17814.799999999814,24484.399999999907,32894.299999999814,43327.69999999972],"checkbox_events":[9869.299999999814,11717.299999999814,12393.600000000093,12874.69999999972,13411.299999999814,13777.5,14199.799999999814,14632.799999999814,15105,15569.899999999907,15995.899999999907,16438.69999999972,18688.399999999907,18956.899999999907,19186.600000000093,19471.69999999972,19794.399999999907,20059.69999999972,20395.600000000093,20656.600000000093,20953,21366.899999999907,21713.399999999907,22145,26125.69999999972,26370.299999999814,26581.69999999972,26783.399999999907,26996.19999999972,28319.299999999814,28831.299999999814,29138.19999999972,29377.600000000093,29637.69999999972,29876.100000000093,30126.69999999972,30415.19999999972,30655.69999999972,37301.69999999972,38149.89999999991,38500.89999999991,38864.69999999972,39319.39999999991,39666.799999999814,40317.10000000009,40721.19999999972,41098.10000000009,41539.69999999972,48275,51445.89999999991,51854.299999999814,53440.299999999814,53718.799999999814,53939.5,54190.5],"key_events":[],"mouse_events":[2617,2822.1999999997206,2972.7999999998137,5755.699999999721,7734,9869.299999999814,11717.299999999814,12393.600000000093,12874.69999999972,13411.299999999814,13777.5,14199.799999999814,14632.799999999814,15105,15569.899999999907,15995.899999999907,16438.69999999972,17814.799999999814,18688.399999999907,18956.899999999907,19186.600000000093,19471.69999999972,19794.399999999907,20059.69999999972,20395.600000000093,20656.600000000093,20953,21366.899999999907,21713.399999999907,22145,24484.399999999907,26125.69999999972,26370.299999999814,26581.69999999972,26783.399999999907,26996.19999999972,28319.299999999814,28831.299999999814,29138.19999999972,29377.600000000093,29637.69999999972,29876.100000000093,30126.69999999972,30415.19999999972,30655.69999999972,32894.299999999814,37301.69999999972,38149.89999999991,38500.89999999991,38864.69999999972,39319.39999999991,39666.799999999814,40317.10000000009,40721.19999999972,41098.10000000009,41539.69999999972,43327.69999999972,48275,51445.89999999991,51854.299999999814,53440.299999999814,53718.799999999814,53939.5,54190.5,54969.69999999972],"honeypot":0,"survey":"mace","page":6,"trial_type":"survey-mace","trial_index":14,"time_elapsed":644962,"internal_node_id":"0.0-14.0","task_version":"prescreen-v0.3","browser_interactions":0},{"responses":{"01":"Yes","01_ages_14":"14","01_ages_15":"15","02":"Yes","02_ages_12":"12","02_ages_13":"13","02_ages_14":"14","02_ages_15":"15","02_ages_16":"16","02_ages_17":"17","02_ages_18":"18","03":"Yes","03_ages_13":"13","03_ages_14":"14","04":"Yes","04_ages_13":"13","04_ages_14":"14","05":"Yes","05_ages_13":"13","06":"Yes","06_ages_8":"8","06_ages_14":"14","06_ages_15":"15","06_ages_18":"18","07":"Yes","07_ages_8":"8","07_ages_14":"14","07_ages_15":"15","07_ages_18":"18"},"rt":65118.30000000028,"item_order":[0,1,2,3,4,5,6],"radio_events":[7231.600000000093,17683.5,29095.900000000373,37778.40000000037,40719.5,51472,60932.200000000186],"checkbox_events":[9473,9746.100000000093,20843.900000000373,22456.600000000093,22792.700000000186,23205.100000000093,23543.900000000373,23867.400000000373,24354.5,32543.80000000028,33192.60000000009,38944.90000000037,39168,42007.5,42204.40000000037,42829.700000000186,43569.60000000009,47977.10000000009,53697,54281.10000000009,54955,59199.200000000186,61677.80000000028,62695.200000000186,62936.200000000186,63624.700000000186],"key_events":[],"mouse_events":[7231.600000000093,9473,9746.100000000093,17683.5,20843.900000000373,22456.600000000093,22792.700000000186,23205.100000000093,23543.900000000373,23867.400000000373,24354.5,29095.900000000373,32543.80000000028,33192.60000000009,34079.10000000009,34225.30000000028,37778.40000000037,38944.90000000037,39168,40719.5,42007.5,42204.40000000037,42829.700000000186,43569.60000000009,47977.10000000009,51472,53697,54281.10000000009,54955,59199.200000000186,60932.200000000186,61677.80000000028,62695.200000000186,62936.200000000186,63624.700000000186,65091.700000000186],"honeypot":0,"survey":"mace","page":7,"trial_type":"survey-mace","trial_index":15,"time_elapsed":710104,"internal_node_id":"0.0-15.0","task_version":"prescreen-v0.3","browser_interactions":0},{"responses":{"01":"No","02":"Yes","02_ages_7":"7","02_ages_8":"8","02_ages_9":"9","02_ages_10":"10","02_ages_11":"11","02_ages_12":"12","02_ages_13":"13","02_ages_14":"14","02_ages_15":"15","02_ages_16":"16","02_ages_17":"17","02_ages_18":"18","03":"Yes","03_ages_7":"7","03_ages_8":"8","03_ages_9":"9","03_ages_10":"10","03_ages_11":"11","03_ages_12":"12","03_ages_13":"13","03_ages_14":"14","03_ages_15":"15","03_ages_16":"16","03_ages_17":"17","03_ages_18":"18","04":"Yes","04_ages_1":"1","04_ages_2":"2","04_ages_3":"3","04_ages_4":"4","04_ages_7":"7","04_ages_8":"8","04_ages_9":"9","04_ages_10":"10","04_ages_11":"11","04_ages_12":"12","04_ages_13":"13","04_ages_14":"14","04_ages_15":"15","04_ages_16":"16","04_ages_17":"17","04_ages_18":"18"},"rt":53551.799999999814,"item_order":[0,1,2,3],"radio_events":[16540.099999999627,25677,36681,44584.89999999991],"checkbox_events":[28798.899999999907,29053.899999999907,29361.799999999814,29812.099999999627,30186.69999999972,30541.099999999627,30991.099999999627,31299.69999999972,31589,31857.5,32105.69999999972,32309.799999999814,32509,33126.09999999963,33394.89999999991,33690.59999999963,39362.39999999991,39608.69999999972,39859.19999999972,40099.69999999972,40358.19999999972,40603.5,40846.299999999814,41106.69999999972,41376.59999999963,41625.59999999963,41874.299999999814,42124.09999999963,46659.799999999814,46877.799999999814,47386.799999999814,48117.5,48385.39999999991,48693.69999999972,49122.09999999963,49941.89999999991,50383.799999999814,50652.59999999963,51104.39999999991,51286.19999999972,51679.59999999963,52200.799999999814,52571.299999999814,53092.69999999972],"key_events":[],"mouse_events":[16540.099999999627,25677,28798.899999999907,29053.899999999907,29361.799999999814,29812.099999999627,30186.69999999972,30541.099999999627,30991.099999999627,31299.69999999972,31589,31857.5,32105.69999999972,32309.799999999814,32509,33126.09999999963,33394.89999999991,33690.59999999963,36681,39362.39999999991,39608.69999999972,39859.19999999972,40099.69999999972,40358.19999999972,40603.5,40846.299999999814,41106.69999999972,41376.59999999963,41625.59999999963,41874.299999999814,42124.09999999963,44584.89999999991,46659.799999999814,46877.799999999814,47386.799999999814,48117.5,48385.39999999991,48693.69999999972,49122.09999999963,49941.89999999991,50383.799999999814,50652.59999999963,51104.39999999991,51286.19999999972,51679.59999999963,52200.799999999814,52571.299999999814,53092.69999999972,53535.39999999991],"honeypot":0,"survey":"mace","page":8,"trial_type":"survey-mace","trial_index":16,"time_elapsed":763668,"internal_node_id":"0.0-16.0","task_version":"prescreen-v0.3","browser_interactions":0},{"responses":{"01":"No","02":"No","03":"No","04":"No"},"rt":23904.19999999972,"item_order":[0,1,2,3],"radio_events":[6054.5999999996275,9640.099999999627,13844.399999999907,17801.399999999907],"checkbox_events":[],"key_events":[],"mouse_events":[3555.2999999998137,3786.1999999997206,3937.2999999998137,5010.0999999996275,6054.5999999996275,9640.099999999627,10900.599999999627,13844.399999999907,16328.19999999972,17801.399999999907,23883.19999999972],"honeypot":0,"survey":"mace","page":9,"trial_type":"survey-mace","trial_index":17,"time_elapsed":787590,"internal_node_id":"0.0-17.0","task_version":"prescreen-v0.3","browser_interactions":0},{"responses":{"01":"Yes","01_ages_13":"13","01_ages_14":"14","01_ages_15":"15","01_ages_16":"16","01_ages_17":"17","01_ages_18":"18","02":"No","03":"No","04":"No","05":"Yes","05_ages_1":"1","05_ages_2":"2","05_ages_3":"3","05_ages_4":"4","05_ages_5":"5","05_ages_6":"6","05_ages_7":"7","05_ages_8":"8","05_ages_9":"9","05_ages_10":"10","05_ages_11":"11","05_ages_12":"12","05_ages_13":"13","05_ages_14":"14","05_ages_15":"15","05_ages_16":"16","05_ages_17":"17","05_ages_18":"18","06":"Yes","06_ages_17":"17","07":"No","08":"No"},"rt":44921,"item_order":[0,1,2,3,4,5,6,7],"radio_events":[3868.399999999907,10662.5,12272.399999999907,17113.899999999907,19593.200000000186,25413.299999999814,37577.799999999814,42786.200000000186,43900.89999999991],"checkbox_events":[6103.799999999814,6385.700000000186,6674.700000000186,7635.899999999907,8150.899999999907,9109.600000000093,28812.600000000093,29079.799999999814,29328.600000000093,29600.799999999814,29875.399999999907,30166.299999999814,30462.200000000186,31056.700000000186,31536.100000000093,31825.200000000186,32075.700000000186,32335,32614.399999999907,32873.5,33148.39999999991,33476.299999999814,34017.39999999991,34274.299999999814,38656],"key_events":[],"mouse_events":[3868.399999999907,6103.799999999814,6385.700000000186,6674.700000000186,7635.899999999907,8150.899999999907,9109.600000000093,10662.5,12272.399999999907,17113.899999999907,19593.200000000186,25413.299999999814,28812.600000000093,29079.799999999814,29328.600000000093,29600.799999999814,29875.399999999907,30166.299999999814,30462.200000000186,31056.700000000186,31536.100000000093,31825.200000000186,32075.700000000186,32335,32614.399999999907,32873.5,33148.39999999991,33476.299999999814,34017.39999999991,34274.299999999814,36731.299999999814,37577.799999999814,38656,42786.200000000186,43900.89999999991,44890.39999999991],"honeypot":0,"survey":"mace","page":10,"trial_type":"survey-mace","trial_index":18,"time_elapsed":832536,"internal_node_id":"0.0-18.0","task_version":"prescreen-v0.3","browser_interactions":0,"instructed":0},{"rt":6437.199999999721,"trial_type":"mental-health-alert","trial_index":19,"time_elapsed":838981,"internal_node_id":"0.0-19.0","task_version":"prescreen-v0.3","interactions":"[]"}]