[{"view_history":[{"page_index":0,"viewing_time":2989.900000035763},{"page_index":1,"viewing_time":3913.800000011921},{"page_index":2,"viewing_time":2919},{"page_index":3,"viewing_time":922.0999999642372}],"rt":10746.400000035763,"trial_type":"instructions","trial_index":0,"time_elapsed":10768,"internal_node_id":"0.0-0.0","task_version":"prescreen-v0.3"},{"rt":17682,"responses":{"age":"22","gender-categorical":"Female","gender-free-response":"","ethnicity":"Not Hispanic or Latino","race":["White"],"education":"Bachelor degree"},"trial_type":"survey-demo","trial_index":1,"time_elapsed":28461,"internal_node_id":"0.0-1.0","task_version":"prescreen-v0.3"},{"responses":{"Q16":"2","Q10":"1","Q20":"0","Q09":"1","Q04":"2","Q06":"1","Q11":"0","Q19":"0","Q18":"0","Q13":"2","Q07":"0","Q15":"2","Q08":"1","Q02":"1","Q05":"0","Q12":"1","Q01":"1","Q21":"3","Q17":"1","Q03":"0","Q14":"2"},"rt":77795.90000003576,"item_order":[15,9,19,8,3,5,10,18,17,12,6,14,7,1,4,11,0,20,16,2,13],"radio_events":[8058.5,11788.200000047684,13703.300000011921,17633.900000035763,22118.100000023842,26129,28216.30000001192,34174.90000003576,38545.700000047684,38802,40581.10000002384,44607.60000002384,48650.90000003576,51555.90000003576,55148.80000001192,58912.30000001192,62384.700000047684,64808.200000047684,68373,71225,73368.60000002384,76954.30000001192],"key_events":[],"mouse_events":[8058.5,11788.200000047684,13703.300000011921,17633.900000035763,22118.100000023842,26129,28216.30000001192,34174.90000003576,38545.700000047684,38802,40581.10000002384,44607.60000002384,48650.90000003576,51555.90000003576,55148.80000001192,58912.30000001192,62384.700000047684,64808.200000047684,68373,71225,73368.60000002384,76377.90000003576,76954.30000001192,77788],"straightlining":0.38095238095238093,"zigzagging":0.5,"honeypot":0,"survey":"sns","trial_type":"survey-template","trial_index":2,"time_elapsed":106269,"internal_node_id":"0.0-2.0","task_version":"prescreen-v0.3","browser_interactions":0,"infrequency":0},{"responses":{"Q09":"1","Q11":"1","Q02":"3","Q12":"1","Q07":"3","Q03":"3","Q05":"3","Q10":"1","Q13":"0","Q01":"2","Q06":"2","Q04":"2","Q08":"3"},"rt":48659.80000001192,"item_order":[8,10,1,11,6,2,4,9,12,0,5,3,7],"radio_events":[8414.600000023842,9736.899999976158,13307.399999976158,14865.899999976158,16749,20400,21449.600000023842,25436.30000001192,28108.69999998808,29872.69999998808,33707.30000001192,35758.5,38013.89999997616,40194.19999998808,43316.19999998808,45964.5,48119.89999997616],"key_events":[],"mouse_events":[8414.600000023842,9736.899999976158,13307.399999976158,14865.899999976158,16749,20400,21449.600000023842,25436.30000001192,28108.69999998808,29872.69999998808,33707.30000001192,35758.5,38013.89999997616,40194.19999998808,43316.19999998808,45964.5,48119.89999997616,48657.10000002384],"straightlining":0.38461538461538464,"zigzagging":0.16666666666666666,"honeypot":0,"survey":"bisbas","trial_type":"survey-template","trial_index":3,"time_elapsed":154936,"internal_node_id":"0.0-3.0","task_version":"prescreen-v0.3","browser_interactions":0,"infrequency":0},{"responses":{"Q01":"4","Q02":"3","Q03":"3"},"rt":14298.300000011921,"radio_events":[6224.400000035763,8837.800000011921,13695.200000047684],"key_events":[],"mouse_events":[6224.400000035763,8837.800000011921,13695.200000047684,14296.300000011921],"survey":"map","page":1,"trial_type":"survey-map","trial_index":4,"time_elapsed":169242,"internal_node_id":"0.0-4.0","task_version":"prescreen-v0.3","browser_interactions":0},{"responses":{"Q04":"2","Q05":"2","Q06":"3"},"rt":14095.100000023842,"radio_events":[7318.899999976158,10978.600000023842,13611.800000011921],"key_events":[],"mouse_events":[7318.899999976158,10978.600000023842,13611.800000011921,14093],"survey":"map","page":2,"trial_type":"survey-map","trial_index":5,"time_elapsed":183343,"internal_node_id":"0.0-5.0","task_version":"prescreen-v0.3","browser_interactions":0},{"responses":{"Q07":"4","Q08":"4","Q09":"1"},"rt":13509.399999976158,"radio_events":[6115.800000011921,9216.600000023842,12458.399999976158],"key_events":[],"mouse_events":[6115.800000011921,9216.600000023842,12458.399999976158,13508.100000023842],"survey":"map","page":3,"trial_type":"survey-map","trial_index":6,"time_elapsed":196858,"internal_node_id":"0.0-6.0","task_version":"prescreen-v0.3","browser_interactions":0},{"responses":{"Q10":"3","Q11":"2","Q12":"2","Q13":"2","Q16":"0","Q14":"1","Q15":"1"},"rt":32021.5,"radio_events":[5779.199999988079,7758.599999964237,13125.800000011921,18836.099999964237,22831.399999976158,28023.599999964237,30740.899999976158],"key_events":[],"mouse_events":[4268.199999988079,5779.199999988079,7758.599999964237,13125.800000011921,18836.099999964237,22138.5,22831.399999976158,28023.599999964237,30740.899999976158,32019],"survey":"map","page":4,"trial_type":"survey-map","trial_index":7,"time_elapsed":228888,"internal_node_id":"0.0-7.0","task_version":"prescreen-v0.3","browser_interactions":0,"infrequency":0},{"view_history":[{"page_index":0,"viewing_time":1932.199999988079},{"page_index":1,"viewing_time":4172.099999964237}],"rt":6104.899999976158,"trial_type":"instructions","trial_index":8,"time_elapsed":234997,"internal_node_id":"0.0-8.0","task_version":"prescreen-v0.3"},{"responses":{"01":"No","02":"No","03":"No","04":"No","05":"No","06":"No"},"rt":23056.099999964237,"item_order":[0,1,2,3,4,5],"radio_events":[11264.5,14689.800000011921,17014,18837,19751.099999964237,21714.399999976158],"checkbox_events":[],"key_events":[],"mouse_events":[0.19999998807907104,11264.5,14689.800000011921,17014,18837,19751.099999964237,21714.399999976158,23049.30000001192],"honeypot":0,"survey":"mace","page":1,"trial_type":"survey-mace","trial_index":9,"time_elapsed":258063,"internal_node_id":"0.0-9.0","task_version":"prescreen-v0.3","browser_interactions":0},{"responses":{"01":"No","02":"No","03":"No","04":"No","05":"No","06":"No","07":"No","08":"No"},"rt":23819.400000035763,"item_order":[0,1,2,3,4,5,6,7],"radio_events":[2437.900000035763,3949.900000035763,4943.5,6835.400000035763,9107.300000011921,11015.300000011921,11832.100000023842,22741.100000023842],"checkbox_events":[],"key_events":[],"mouse_events":[2437.900000035763,3949.900000035763,4943.5,6835.400000035763,9107.300000011921,11015.300000011921,11832.100000023842,22741.100000023842,23811.200000047684],"honeypot":0,"survey":"mace","page":2,"trial_type":"survey-mace","trial_index":10,"time_elapsed":281889,"internal_node_id":"0.0-10.0","task_version":"prescreen-v0.3","browser_interactions":0},{"responses":{"01":"No","02":"No","03":"No","04":"No"},"rt":9881.800000011921,"item_order":[0,1,2,3],"radio_events":[3645.600000023842,6266.5,7388.800000011921,9003.5],"checkbox_events":[],"key_events":[],"mouse_events":[3645.600000023842,6266.5,7388.800000011921,8346.400000035763,9003.5,9877.5],"honeypot":0,"survey":"mace","page":3,"trial_type":"survey-mace","trial_index":11,"time_elapsed":291777,"internal_node_id":"0.0-11.0","task_version":"prescreen-v0.3","browser_interactions":0},{"responses":{"01":"No","02":"No"},"rt":15230,"item_order":[0,1],"radio_events":[3024.099999964237,4562.299999952316],"checkbox_events":[],"key_events":[],"mouse_events":[3024.099999964237,4562.299999952316,15227.099999964237],"honeypot":0,"survey":"mace","page":4,"trial_type":"survey-mace","trial_index":12,"time_elapsed":307013,"internal_node_id":"0.0-12.0","task_version":"prescreen-v0.3","browser_interactions":0},{"responses":{"01":"No","02":"No","03":"No","04":"No","05":"No"},"rt":19613.100000023842,"item_order":[0,1,2,3,4],"radio_events":[10614.700000047684,12999.5,15162.900000035763,17282.80000001192,19038.200000047684],"checkbox_events":[],"key_events":[],"mouse_events":[10614.700000047684,12999.5,15162.900000035763,17282.80000001192,19038.200000047684,19607.30000001192],"honeypot":0,"survey":"mace","page":5,"trial_type":"survey-mace","trial_index":13,"time_elapsed":326634,"internal_node_id":"0.0-13.0","task_version":"prescreen-v0.3","browser_interactions":0},{"responses":{"01":"Yes","01_ages_7":"7","01_ages_8":"8","01_ages_9":"9","02":"Yes","02_ages_7":"7","02_ages_8":"8","02_ages_9":"9","02_ages_10":"10","02_ages_13":"13","02_ages_14":"14","03":"No","04":"Yes","04_ages_14":"14","04_ages_15":"15","04_ages_16":"16","04_ages_17":"17","04_ages_18":"18","05":"No"},"rt":46919.799999952316,"item_order":[0,1,2,3,4],"radio_events":[7366.5,24289.799999952316,34744.69999998808,36457.59999996424,46319.59999996424],"checkbox_events":[14622,15488.5,19529.399999976158,28085.19999998808,28573.599999964237,29134.5,29803.099999964237,30765.399999976158,31382.099999964237,40621.69999998808,41494.89999997616,41995.799999952316,42477,42997.19999998808],"key_events":[],"mouse_events":[7366.5,14622,15488.5,19529.399999976158,24289.799999952316,28085.19999998808,28573.599999964237,29134.5,29803.099999964237,30765.399999976158,31382.099999964237,34744.69999998808,36457.59999996424,40621.69999998808,41494.89999997616,41995.799999952316,42477,42997.19999998808,46319.59999996424,46912.69999998808],"honeypot":0,"survey":"mace","page":6,"trial_type":"survey-mace","trial_index":14,"time_elapsed":373564,"internal_node_id":"0.0-14.0","task_version":"prescreen-v0.3","browser_interactions":0},{"responses":{"01":"No","02":"No","03":"No","04":"No","05":"No","06":"No","07":"No"},"rt":16009.300000011921,"item_order":[0,1,2,3,4,5,6],"radio_events":[4430,6609.800000011921,8800.699999988079,9946.399999976158,12382.699999988079,14117.599999964237,15432],"checkbox_events":[],"key_events":[],"mouse_events":[4430,6609.800000011921,8800.699999988079,9946.399999976158,12382.699999988079,14117.599999964237,15432,16000.399999976158],"honeypot":0,"survey":"mace","page":7,"trial_type":"survey-mace","trial_index":15,"time_elapsed":389580,"internal_node_id":"0.0-15.0","task_version":"prescreen-v0.3","browser_interactions":0},{"responses":{"01":"No","02":"No","03":"No","04":"No"},"rt":19368.599999964237,"item_order":[0,1,2,3],"radio_events":[6246.299999952316,14068.599999964237,16223.899999976158,18416.19999998808],"checkbox_events":[],"key_events":[],"mouse_events":[6246.299999952316,14068.599999964237,16223.899999976158,18416.19999998808,19362.099999964237],"honeypot":0,"survey":"mace","page":8,"trial_type":"survey-mace","trial_index":16,"time_elapsed":408955,"internal_node_id":"0.0-16.0","task_version":"prescreen-v0.3","browser_interactions":0},{"responses":{"01":"Yes","01_ages_1":"1","01_ages_2":"2","01_ages_3":"3","01_ages_4":"4","01_ages_5":"5","01_ages_6":"6","01_ages_7":"7","01_ages_8":"8","01_ages_9":"9","01_ages_10":"10","01_ages_11":"11","01_ages_12":"12","01_ages_13":"13","01_ages_14":"14","01_ages_15":"15","01_ages_16":"16","01_ages_17":"17","01_ages_18":"18","02":"Yes","02_ages_1":"1","02_ages_2":"2","02_ages_3":"3","02_ages_4":"4","02_ages_5":"5","02_ages_6":"6","02_ages_7":"7","02_ages_8":"8","02_ages_9":"9","02_ages_10":"10","02_ages_11":"11","02_ages_12":"12","02_ages_13":"13","02_ages_14":"14","02_ages_15":"15","02_ages_16":"16","02_ages_17":"17","02_ages_18":"18","03":"Yes","03_ages_1":"1","03_ages_2":"2","03_ages_3":"3","03_ages_4":"4","03_ages_5":"5","03_ages_6":"6","03_ages_7":"7","03_ages_8":"8","03_ages_9":"9","03_ages_10":"10","03_ages_11":"11","03_ages_12":"12","03_ages_13":"13","03_ages_14":"14","03_ages_15":"15","03_ages_16":"16","03_ages_17":"17","03_ages_18":"18","04":"Yes","04_ages_3":"3","04_ages_7":"7","04_ages_12":"12"},"rt":67366.20000004768,"item_order":[0,1,2,3],"radio_events":[4580.5,25948.400000035763,39756.90000003576,56929.60000002384],"checkbox_events":[11012.300000011921,11501.400000035763,12551.200000047684,13801.900000035763,14314.5,15107.900000035763,15604.900000035763,16101.400000035763,17144,17705.100000023842,18474.30000001192,19042.80000001192,19733.200000047684,20341.700000047684,20830.700000047684,21655.700000047684,22930.600000023842,23475.30000001192,27102,27599.100000023842,28112.100000023842,28625.100000023842,29146.200000047684,29643.100000023842,30164,30685.200000047684,31224.200000047684,31750.600000023842,32696.400000035763,33297.60000002384,34115.30000001192,34996.5,35501.5,36022.40000003576,36591.30000001192,37448.80000001192,40670.5,41166.60000002384,42064.60000002384,43034.200000047684,43579.10000002384,44156.40000003576,45224.90000003576,45960.10000002384,46873.5,47410,47963.60000002384,48813.10000002384,49654.40000003576,50440.40000003576,51129.10000002384,51730.30000001192,52419.90000003576,53261,60044.700000047684,61294.90000003576,65437.5],"key_events":[],"mouse_events":[4580.5,11012.300000011921,11501.400000035763,11982.200000047684,12551.200000047684,13120.100000023842,13801.900000035763,14314.5,15107.900000035763,15604.900000035763,16101.400000035763,16606.5,17144,17705.100000023842,18474.30000001192,19042.80000001192,19733.200000047684,20341.700000047684,20830.700000047684,21655.700000047684,22137.600000023842,22930.600000023842,23475.30000001192,25948.400000035763,27102,27599.100000023842,28112.100000023842,28625.100000023842,29146.200000047684,29643.100000023842,30164,30685.200000047684,31224.200000047684,31750.600000023842,32696.400000035763,33297.60000002384,34115.30000001192,34996.5,35501.5,36022.40000003576,36591.30000001192,37448.80000001192,39756.90000003576,40670.5,41166.60000002384,42064.60000002384,42577.700000047684,43034.200000047684,43579.10000002384,44156.40000003576,44661.5,45224.90000003576,45960.10000002384,46873.5,47410,47963.60000002384,48813.10000002384,49654.40000003576,50440.40000003576,51129.10000002384,51730.30000001192,52419.90000003576,53261,56929.60000002384,60044.700000047684,61294.90000003576,65437.5,67361.10000002384],"honeypot":0,"survey":"mace","page":9,"trial_type":"survey-mace","trial_index":17,"time_elapsed":476331,"internal_node_id":"0.0-17.0","task_version":"prescreen-v0.3","browser_interactions":2},{"responses":{"01":"No","02":"No","03":"No","04":"No","05":"No","06":"Yes","06_ages_17":"17","07":"Yes","07_ages_1":"1","07_ages_2":"2","07_ages_3":"3","07_ages_4":"4","07_ages_5":"5","07_ages_6":"6","07_ages_7":"7","07_ages_8":"8","07_ages_9":"9","07_ages_10":"10","07_ages_11":"11","07_ages_12":"12","07_ages_13":"13","07_ages_14":"14","07_ages_15":"15","07_ages_16":"16","07_ages_17":"17","07_ages_18":"18","08":"Yes","08_ages_1":"1","08_ages_2":"2","08_ages_3":"3","08_ages_4":"4","08_ages_5":"5","08_ages_6":"6","08_ages_7":"7","08_ages_8":"8","08_ages_9":"9","08_ages_10":"10","08_ages_11":"11","08_ages_12":"12","08_ages_13":"13","08_ages_14":"14","08_ages_15":"15","08_ages_16":"16","08_ages_17":"17","08_ages_18":"18"},"rt":53736.60000002384,"item_order":[0,1,2,3,4,5,6,7],"radio_events":[2450.800000011921,3476.399999976158,5588,9951.600000023842,12916.899999976158,14123.100000023842,16415.100000023842,21307.600000023842,35609.60000002384],"checkbox_events":[18783.30000001192,26001.100000023842,26489.80000001192,27042.100000023842,27627,28805.30000001192,29390,30006.600000023842,30624.19999998808,31233.600000023842,31786.69999998808,33461.69999998808,37099.69999998808,37613,38110.10000002384,38622.30000001192,39143.89999997616,39696.89999997616,40234,40746.60000002384,41588.30000001192,42109.10000002384,42702.19999998808,43262.80000001192,43807.5,44689.69999998808,45715.39999997616,46212.5,46733.5,47278.10000002384,48111.69999998808,48897.19999998808,49481.89999997616,50035,51204.89999997616,51677.5,52503],"key_events":[],"mouse_events":[2450.800000011921,3476.399999976158,5588,9951.600000023842,12916.899999976158,14123.100000023842,16415.100000023842,18783.30000001192,21307.600000023842,26001.100000023842,26489.80000001192,27042.100000023842,27627,28228.69999998808,28805.30000001192,29390,30006.600000023842,30624.19999998808,31233.600000023842,31786.69999998808,33461.69999998808,35609.60000002384,37099.69999998808,37613,38110.10000002384,38622.30000001192,39143.89999997616,39696.89999997616,40234,40746.60000002384,41588.30000001192,42109.10000002384,42702.19999998808,43262.80000001192,43807.5,44689.69999998808,45715.39999997616,46212.5,46733.5,47278.10000002384,48111.69999998808,48897.19999998808,49481.89999997616,50035,51204.89999997616,51677.5,52503,53729.19999998808],"honeypot":0,"survey":"mace","page":10,"trial_type":"survey-mace","trial_index":18,"time_elapsed":530077,"internal_node_id":"0.0-18.0","task_version":"prescreen-v0.3","browser_interactions":0,"instructed":0},{"rt":3758.199999988079,"trial_type":"mental-health-alert","trial_index":19,"time_elapsed":533838,"internal_node_id":"0.0-19.0","task_version":"prescreen-v0.3","interactions":"[{\"event\":\"blur\",\"trial\":17,\"time\":419146},{\"event\":\"focus\",\"trial\":17,\"time\":419147}]"}]