[{"view_history":[{"page_index":0,"viewing_time":3587},{"page_index":1,"viewing_time":8020},{"page_index":2,"viewing_time":17854},{"page_index":3,"viewing_time":1055}],"rt":30517.000000000004,"trial_type":"instructions","trial_index":0,"time_elapsed":30529,"internal_node_id":"0.0-0.0","task_version":"prescreen-v0.3"},{"rt":15374,"responses":{"age":"50","gender-categorical":"Female","gender-free-response":"","ethnicity":"Not Hispanic or Latino","race":["White"],"education":"Bachelor degree"},"trial_type":"survey-demo","trial_index":1,"time_elapsed":45912,"internal_node_id":"0.0-1.0","task_version":"prescreen-v0.3"},{"responses":{"Q17":"1","Q05":"1","Q08":"3","Q20":"0","Q13":"1","Q16":"2","Q11":"1","Q14":"2","Q06":"2","Q03":"1","Q04":"2","Q07":"1","Q10":"1","Q18":"2","Q01":"2","Q15":"2","Q12":"3","Q19":"2","Q21":"2","Q02":"1","Q09":"1"},"rt":106295,"item_order":[16,4,7,19,12,15,10,13,5,2,3,6,9,17,0,14,11,18,20,1,8],"radio_events":[8625,17002.000000000007,20857.000000000015,23647,28000.000000000015,33307,36558,43568,47433,50106,56265.000000000015,60010,63455,66153,70181,71664,75806,79614,82393.00000000001,86770,95086,98286,102200,105239],"key_events":[],"mouse_events":[8025,8625,17002.000000000007,20857.000000000015,23647,28000.000000000015,33307,36558,43568,47433,50106,56265.000000000015,60010,63455,66153,68584,70181,71129,71664,75806,79614,82393.00000000001,86770,95086,98286,102200,105239,106276],"straightlining":0.42857142857142855,"zigzagging":0.6,"honeypot":0,"survey":"sns","trial_type":"survey-template","trial_index":2,"time_elapsed":152215,"internal_node_id":"0.0-2.0","task_version":"prescreen-v0.3","browser_interactions":0,"infrequency":0.5},{"responses":{"Q04":"3","Q05":"2","Q01":"3","Q13":"0","Q11":"1","Q08":"2","Q09":"1","Q07":"3","Q03":"2","Q02":"2","Q12":"1","Q10":"2","Q06":"2"},"rt":72732,"item_order":[3,4,0,12,10,7,8,6,2,1,11,9,5],"radio_events":[18096,22052,25082,29314,39184.00000000003,44039,47516,51269,56318,58610,65235,68735,71914],"key_events":[],"mouse_events":[18096,22052,25082,29314,39184.00000000003,44039,47516,51269,56318,58610,65235,68735,71914,72718],"straightlining":0.46153846153846156,"zigzagging":0.75,"honeypot":0,"survey":"bisbas","trial_type":"survey-template","trial_index":3,"time_elapsed":224953,"internal_node_id":"0.0-3.0","task_version":"prescreen-v0.3","browser_interactions":0,"infrequency":0},{"responses":{"Q01":"4","Q02":"3","Q03":"3"},"rt":29667.99999999997,"radio_events":[18808.99999999997,22132.99999999997,23144.99999999997,28989],"key_events":[],"mouse_events":[18808.99999999997,22132.99999999997,23144.99999999997,28989,29661.99999999997],"survey":"map","page":1,"trial_type":"survey-map","trial_index":4,"time_elapsed":254627,"internal_node_id":"0.0-4.0","task_version":"prescreen-v0.3","browser_interactions":0},{"responses":{"Q04":"3","Q05":"2","Q06":"3"},"rt":27152,"radio_events":[19534,22647,25508,26399],"key_events":[],"mouse_events":[19534,22647,25508,26399,27146],"survey":"map","page":2,"trial_type":"survey-map","trial_index":5,"time_elapsed":281783,"internal_node_id":"0.0-5.0","task_version":"prescreen-v0.3","browser_interactions":0},{"responses":{"Q07":"1","Q08":"4","Q09":"2"},"rt":21026,"radio_events":[9170,14280,18727,20155],"key_events":[],"mouse_events":[9170,14280,18727,20155,21022.00000000006],"survey":"map","page":3,"trial_type":"survey-map","trial_index":6,"time_elapsed":302814,"internal_node_id":"0.0-6.0","task_version":"prescreen-v0.3","browser_interactions":0},{"responses":{"Q10":"1","Q11":"1","Q12":"1","Q13":"2","Q16":"0","Q14":"3","Q15":"3"},"rt":63304,"radio_events":[24111,29307,32956,36877,42558,45492,49400,58401,62388],"key_events":[],"mouse_events":[24111,29307,32217.00000000006,32956,36877,42558,45492,49400,58401,62388,63296],"survey":"map","page":4,"trial_type":"survey-map","trial_index":7,"time_elapsed":366124,"internal_node_id":"0.0-7.0","task_version":"prescreen-v0.3","browser_interactions":0,"infrequency":0},{"view_history":[{"page_index":0,"viewing_time":3433.999999999942},{"page_index":1,"viewing_time":5131}],"rt":8564.999999999942,"trial_type":"instructions","trial_index":8,"time_elapsed":374690,"internal_node_id":"0.0-8.0","task_version":"prescreen-v0.3"},{"responses":{"01":"Yes","01_ages_13":"13","01_ages_14":"14","01_ages_15":"15","01_ages_16":"16","02":"Yes","02_ages_12":"12","02_ages_13":"13","02_ages_14":"14","02_ages_15":"15","02_ages_16":"16","03":"Yes","03_ages_10":"10","03_ages_11":"11","03_ages_12":"12","03_ages_13":"13","03_ages_14":"14","03_ages_15":"15","04":"Yes","04_ages_14":"14","04_ages_15":"15","05":"No","06":"Yes","06_ages_10":"10","06_ages_11":"11","06_ages_12":"12"},"rt":73668,"item_order":[0,1,2,3,4,5],"radio_events":[19859,34694,48032,56281,64268,67828],"checkbox_events":[24566,25183,25872,28100.00000000006,37937,39070,39848,40779,41915.00000000006,49304,49936,51564.00000000006,52115,52625,53606,59400,60348,69463.00000000006,70962,71756],"key_events":[],"mouse_events":[0,19859,24566,25183,25872,28100.00000000006,34694,37937,39070,39848,40779,41915.00000000006,48032,49304,49936,50496,51564.00000000006,52115,52625,53606,56281,59400,60348,64268,67828,69463.00000000006,70962,71756,73652],"honeypot":0,"survey":"mace","page":1,"trial_type":"survey-mace","trial_index":9,"time_elapsed":448369,"internal_node_id":"0.0-9.0","task_version":"prescreen-v0.3","browser_interactions":0},{"responses":{"01":"No","02":"No","03":"Yes","03_ages_8":"8","03_ages_9":"9","03_ages_10":"10","03_ages_11":"11","03_ages_12":"12","04":"No","05":"No","06":"No","07":"No","08":"No"},"rt":44019,"item_order":[0,1,2,3,4,5,6,7],"radio_events":[17278.00000000006,21204,23740,32606,35619,38520,41137,43415.00000000006],"checkbox_events":[25727,26325,27217,28068,28700],"key_events":[],"mouse_events":[17278.00000000006,21204,23133,23740,25727,26325,26780,27217,28068,28700,32606,35619,38520,41137,43415.00000000006,44006],"honeypot":0,"survey":"mace","page":2,"trial_type":"survey-mace","trial_index":10,"time_elapsed":492396,"internal_node_id":"0.0-10.0","task_version":"prescreen-v0.3","browser_interactions":0},{"responses":{"01":"Yes","01_ages_15":"15","01_ages_16":"16","02":"No","03":"No","04":"No"},"rt":57672,"item_order":[0,1,2,3],"radio_events":[43297,53734,56060,57073],"checkbox_events":[48119,48815],"key_events":[],"mouse_events":[42745,43297,48119,48815,53734,56060,57073,57663],"honeypot":0,"survey":"mace","page":3,"trial_type":"survey-mace","trial_index":11,"time_elapsed":550074,"internal_node_id":"0.0-11.0","task_version":"prescreen-v0.3","browser_interactions":0},{"responses":{"01":"No","02":"No"},"rt":13591,"item_order":[0,1],"radio_events":[9680,12735],"checkbox_events":[],"key_events":[],"mouse_events":[9680,12735,13585],"honeypot":0,"survey":"mace","page":4,"trial_type":"survey-mace","trial_index":12,"time_elapsed":563669,"internal_node_id":"0.0-12.0","task_version":"prescreen-v0.3","browser_interactions":0},{"responses":{"01":"No","02":"No","03":"No","04":"No","05":"No"},"rt":28974,"item_order":[0,1,2,3,4],"radio_events":[11957,15782,20349,25659,28178],"checkbox_events":[],"key_events":[],"mouse_events":[11957,15782,20349,25659,28178,28965],"honeypot":0,"survey":"mace","page":5,"trial_type":"survey-mace","trial_index":13,"time_elapsed":592649,"internal_node_id":"0.0-13.0","task_version":"prescreen-v0.3","browser_interactions":0},{"responses":{"01":"Yes","01_ages_8":"8","01_ages_9":"9","01_ages_10":"10","01_ages_14":"14","01_ages_15":"15","02":"No","03":"Yes","03_ages_12":"12","03_ages_13":"13","03_ages_14":"14","04":"Yes","04_ages_15":"15","04_ages_16":"16","05":"No"},"rt":35432,"item_order":[0,1,2,3,4],"radio_events":[7359,19084,22757.000000000116,28597,34861],"checkbox_events":[9075,9890,10650,12685,13180.000000000116,24011,24513,24919,29888,30859],"key_events":[],"mouse_events":[341,7359,9075,9890,10650,12685,13180.000000000116,19084,22757.000000000116,24011,24513,24919,28597,29888,30859,34861,35420],"honeypot":0,"survey":"mace","page":6,"trial_type":"survey-mace","trial_index":14,"time_elapsed":628088,"internal_node_id":"0.0-14.0","task_version":"prescreen-v0.3","browser_interactions":0},{"responses":{"01":"No","02":"No","03":"No","04":"No","05":"No","06":"No","07":"No"},"rt":40481,"item_order":[0,1,2,3,4,5,6],"radio_events":[14997,18028,19406,22777,24712,27378,35884,39571],"checkbox_events":[],"key_events":[],"mouse_events":[14997,18028,19406,21950,22777,24712,27378,35884,39571,40471],"honeypot":0,"survey":"mace","page":7,"trial_type":"survey-mace","trial_index":15,"time_elapsed":668576,"internal_node_id":"0.0-15.0","task_version":"prescreen-v0.3","browser_interactions":0},{"responses":{"01":"No","02":"Yes","02_ages_15":"15","02_ages_16":"16","03":"Yes","03_ages_14":"14","03_ages_15":"15","03_ages_16":"16","04":"Yes","04_ages_15":"15","04_ages_16":"16"},"rt":60397,"item_order":[0,1,2,3],"radio_events":[43095,44302,50867,57333.00000000012],"checkbox_events":[45453.00000000012,46279,51984,52786,53507,58628,59122],"key_events":[],"mouse_events":[43095,44302,45453.00000000012,46279,50867,51984,52786,53507,57333.00000000012,58628,59122,60387],"honeypot":0,"survey":"mace","page":8,"trial_type":"survey-mace","trial_index":16,"time_elapsed":728979,"internal_node_id":"0.0-16.0","task_version":"prescreen-v0.3","browser_interactions":0},{"responses":{"01":"Yes","01_ages_1":"1","01_ages_2":"2","01_ages_3":"3","01_ages_4":"4","01_ages_5":"5","01_ages_6":"6","01_ages_7":"7","01_ages_8":"8","01_ages_9":"9","01_ages_10":"10","01_ages_11":"11","01_ages_12":"12","01_ages_13":"13","01_ages_14":"14","01_ages_15":"15","01_ages_16":"16","01_ages_17":"17","01_ages_18":"18","02":"No","03":"Yes","03_ages_1":"1","03_ages_2":"2","03_ages_3":"3","03_ages_4":"4","03_ages_5":"5","03_ages_6":"6","03_ages_7":"7","03_ages_8":"8","03_ages_9":"9","03_ages_10":"10","03_ages_11":"11","03_ages_12":"12","03_ages_13":"13","03_ages_14":"14","03_ages_15":"15","03_ages_16":"16","03_ages_17":"17","03_ages_18":"18","04":"No"},"rt":61003,"item_order":[0,1,2,3],"radio_events":[8233,9252,34035,37977.00000000012,60022],"checkbox_events":[16423,17135,17809,18367,18853,19477.000000000116,20467.000000000116,21324,21972.000000000116,22776,23292,25424.000000000116,26317,27012,27669.000000000116,29355,30101,30628,39306,40206,40709,41530.00000000012,42112,42688,43598,44189,45316,46022,47165,48327,50549.00000000012,51220,51861,52607,53459,54181],"key_events":[],"mouse_events":[8233,9252,16423,17135,17809,18367,18853,19477.000000000116,20467.000000000116,21324,21972.000000000116,22776,23292,24209,24792,25424.000000000116,26317,27012,27669.000000000116,28131,28820,29355,30101,30628,34035,37977.00000000012,39306,40206,40709,41530.00000000012,42112,42688,43598,44189,45316,46022,46638,47165,47846,48327,50549.00000000012,51220,51861,52607,53459,54181,60022,60994],"honeypot":0,"survey":"mace","page":9,"trial_type":"survey-mace","trial_index":17,"time_elapsed":789991,"internal_node_id":"0.0-17.0","task_version":"prescreen-v0.3","browser_interactions":0},{"responses":{"01":"No","02":"No","03":"No","04":"No","05":"No","06":"Yes","06_ages_17":"17","07":"Yes","07_ages_1":"1","07_ages_2":"2","07_ages_3":"3","07_ages_4":"4","07_ages_5":"5","07_ages_6":"6","07_ages_7":"7","07_ages_8":"8","07_ages_9":"9","07_ages_10":"10","07_ages_11":"11","07_ages_12":"12","07_ages_13":"13","07_ages_14":"14","07_ages_15":"15","07_ages_16":"16","07_ages_17":"17","07_ages_18":"18","08":"No"},"rt":48064,"item_order":[0,1,2,3,4,5,6,7],"radio_events":[3644,4926,5826,8583,10733.000000000116,13871,27461,47372],"checkbox_events":[15412,29800,31315.000000000116,31834.000000000116,33326,34673,35629,36531.00000000012,37123,38005,39376,40091,41291.00000000012,42442,42960,43617,44397.00000000012,44963,45710],"key_events":[],"mouse_events":[3644,4926,5826,8583,10733.000000000116,13871,15412,27461,29800,30390,31315.000000000116,31834.000000000116,33326,34673,35629,36531.00000000012,37123,38005,38589.00000000012,38945.00000000012,39376,40091,40690.00000000012,41291.00000000012,41906.00000000012,42442,42960,43617,44397.00000000012,44963,45710,47372,48053],"honeypot":0,"survey":"mace","page":10,"trial_type":"survey-mace","trial_index":18,"time_elapsed":838062,"internal_node_id":"0.0-18.0","task_version":"prescreen-v0.3","browser_interactions":0,"instructed":0},{"rt":3813.0000000001164,"trial_type":"mental-health-alert","trial_index":19,"time_elapsed":841879,"internal_node_id":"0.0-19.0","task_version":"prescreen-v0.3","interactions":"[]"}]