[{"view_history":[{"page_index":0,"viewing_time":3033.2999999523163},{"page_index":1,"viewing_time":5497.799999952316},{"page_index":2,"viewing_time":4356},{"page_index":3,"viewing_time":1024.1000000238419}],"rt":13912,"trial_type":"instructions","trial_index":0,"time_elapsed":13931,"internal_node_id":"0.0-0.0","task_version":"prescreen-v0.3"},{"rt":23466.200000047684,"responses":{"age":"26","gender-categorical":"Female","gender-free-response":"","ethnicity":"Not Hispanic or Latino","race":["White"],"education":"Some college"},"trial_type":"survey-demo","trial_index":1,"time_elapsed":37401,"internal_node_id":"0.0-1.0","task_version":"prescreen-v0.3"},{"responses":{"Q07":"2","Q15":"2","Q06":"2","Q05":"2","Q10":"1","Q16":"2","Q17":"1","Q02":"2","Q21":"3","Q08":"1","Q19":"2","Q04":"2","Q20":"0","Q18":"2","Q01":"1","Q09":"1","Q03":"2","Q14":"1","Q11":"2","Q13":"2","Q12":"2"},"rt":146291.5,"item_order":[6,14,5,4,9,15,16,1,20,7,18,3,19,17,0,8,2,13,10,12,11],"radio_events":[29595.700000047684,33719.5,41669.5,51499.60000002384,55371.90000009537,61353.700000047684,64679.40000009537,69817.5,73385.70000004768,75673.40000009537,79625.80000007153,85597.60000002384,90993.5,97401.30000007153,107083.40000009537,112775.80000007153,116733.60000002384,121369.60000002384,122447.5,126225.70000004768,131925.70000004768,134961.90000009537,138529.40000009537,144870.40000009537],"key_events":[],"mouse_events":[28316.5,29595.700000047684,33719.5,41669.5,51499.60000002384,55371.90000009537,61353.700000047684,64679.40000009537,69817.5,73385.70000004768,75673.40000009537,79625.80000007153,85597.60000002384,90993.5,97401.30000007153,107083.40000009537,112775.80000007153,116733.60000002384,120917.5,121369.60000002384,122447.5,126225.70000004768,131925.70000004768,134321.40000009537,134961.90000009537,138529.40000009537,144870.40000009537,146289.80000007153],"straightlining":0.6190476190476191,"zigzagging":0.5,"honeypot":0,"survey":"sns","trial_type":"survey-template","trial_index":2,"time_elapsed":183698,"internal_node_id":"0.0-2.0","task_version":"prescreen-v0.3","browser_interactions":0,"infrequency":0},{"responses":{"Q10":"1","Q11":"2","Q09":"2","Q01":"3","Q07":"3","Q05":"3","Q03":"3","Q13":"0","Q12":"2","Q08":"3","Q02":"3","Q04":"3","Q06":"3"},"rt":79873.30000007153,"item_order":[9,10,8,0,6,4,2,12,11,7,1,3,5],"radio_events":[5248.100000023842,8894.100000023842,34988,37886,40032.10000002384,42726,46527.89999997616,51274,63861.10000002384,67504.60000002384,69574,77240.10000002384,79434.5],"key_events":[],"mouse_events":[5248.100000023842,8894.100000023842,34597.89999997616,34988,37886,40032.10000002384,42726,46527.89999997616,51274,63861.10000002384,67504.60000002384,69574,77240.10000002384,79434.5,79872.30000007153],"straightlining":0.6153846153846154,"zigzagging":0.3333333333333333,"honeypot":0,"survey":"bisbas","trial_type":"survey-template","trial_index":3,"time_elapsed":263576,"internal_node_id":"0.0-3.0","task_version":"prescreen-v0.3","browser_interactions":0,"infrequency":0},{"responses":{"Q01":"1","Q02":"2","Q03":"3"},"rt":23650.599999904633,"radio_events":[6341.799999952316,11557.599999904633,22869.699999928474],"key_events":[],"mouse_events":[6341.799999952316,11557.599999904633,22869.699999928474,23650.099999904633],"survey":"map","page":1,"trial_type":"survey-map","trial_index":4,"time_elapsed":287230,"internal_node_id":"0.0-4.0","task_version":"prescreen-v0.3","browser_interactions":0},{"responses":{"Q04":"3","Q05":"2","Q06":"2"},"rt":42535.59999990463,"radio_events":[11253.299999952316,22979.199999928474,38661.5,42013.299999952316],"key_events":[],"mouse_events":[11253.299999952316,22979.199999928474,38661.5,41435.199999928474,42013.299999952316,42535.199999928474],"survey":"map","page":2,"trial_type":"survey-map","trial_index":5,"time_elapsed":329767,"internal_node_id":"0.0-5.0","task_version":"prescreen-v0.3","browser_interactions":0},{"responses":{"Q07":"1","Q08":"4","Q09":"3"},"rt":16166.600000023842,"radio_events":[8101.700000047684,12106,15611.899999976158],"key_events":[],"mouse_events":[8101.700000047684,10928.700000047684,12106,15611.899999976158,16166],"survey":"map","page":3,"trial_type":"survey-map","trial_index":6,"time_elapsed":345935,"internal_node_id":"0.0-6.0","task_version":"prescreen-v0.3","browser_interactions":0},{"responses":{"Q10":"3","Q11":"2","Q12":"4","Q13":"3","Q16":"0","Q14":"4","Q15":"3"},"rt":37126.40000009537,"radio_events":[5343.600000023842,8505.700000047684,14679.400000095367,20649.700000047684,28615.600000023842,31995.5,36581.700000047684],"key_events":[],"mouse_events":[5343.600000023842,8505.700000047684,14679.400000095367,19621.600000023842,20207.700000047684,20649.700000047684,28615.600000023842,31995.5,36581.700000047684,37125.60000002384],"survey":"map","page":4,"trial_type":"survey-map","trial_index":7,"time_elapsed":383064,"internal_node_id":"0.0-7.0","task_version":"prescreen-v0.3","browser_interactions":0,"infrequency":0},{"view_history":[{"page_index":0,"viewing_time":1487.7000000476837},{"page_index":1,"viewing_time":3675.7999999523163}],"rt":5164.200000047684,"trial_type":"instructions","trial_index":8,"time_elapsed":388229,"internal_node_id":"0.0-8.0","task_version":"prescreen-v0.3"},{"responses":{"01":"Yes","01_ages_8":"8","01_ages_9":"9","01_ages_10":"10","01_ages_11":"11","01_ages_12":"12","01_ages_13":"13","01_ages_14":"14","01_ages_15":"15","01_ages_16":"16","02":"Yes","02_ages_4":"4","02_ages_5":"5","02_ages_6":"6","02_ages_7":"7","02_ages_8":"8","02_ages_9":"9","02_ages_10":"10","02_ages_11":"11","02_ages_12":"12","02_ages_13":"13","02_ages_14":"14","02_ages_15":"15","02_ages_16":"16","02_ages_17":"17","03":"Yes","03_ages_4":"4","03_ages_5":"5","03_ages_6":"6","03_ages_7":"7","03_ages_8":"8","03_ages_9":"9","03_ages_10":"10","03_ages_11":"11","03_ages_12":"12","03_ages_13":"13","03_ages_15":"15","03_ages_16":"16","03_ages_17":"17","04":"Yes","04_ages_4":"4","04_ages_5":"5","04_ages_6":"6","04_ages_7":"7","04_ages_8":"8","04_ages_9":"9","04_ages_10":"10","04_ages_11":"11","04_ages_12":"12","04_ages_13":"13","04_ages_14":"14","04_ages_15":"15","04_ages_16":"16","04_ages_17":"17","05":"No","06":"Yes","06_ages_5":"5","06_ages_6":"6","06_ages_7":"7","06_ages_8":"8","06_ages_9":"9","06_ages_12":"12"},"rt":106503.60000002384,"item_order":[0,1,2,3,4,5],"radio_events":[9122.800000071526,37956.5,59022.800000071526,72658.39999997616,88174.5,90100.39999997616],"checkbox_events":[17622.800000071526,19176.700000047684,21588.5,22392.800000071526,22868.700000047684,23766.800000071526,24678.700000047684,25458.700000047684,27185.600000023842,27693.100000023842,28690.700000047684,29260.600000023842,30838.300000071526,33904.60000002384,35176.800000071526,40337.39999997616,41086.5,42014.60000002384,42850.800000071526,43302.800000071526,44114.60000002384,44644.60000002384,46050.700000047684,46409.39999997616,47586.700000047684,48242.60000002384,48611.300000071526,49178.60000002384,53722.5,59896.700000047684,60466.60000002384,60902.60000002384,61300.700000047684,61714.700000047684,62190.60000002384,63048.700000047684,63572.800000071526,64322.700000047684,65694.80000007153,67264.5,67826.39999997616,68810.39999997616,69714.39999997616,70574.5,74378.5,74928.39999997616,76232.5,76622.60000002384,77630.60000002384,77996.5,78464.60000002384,79472.89999997616,79846.39999997616,80212.60000002384,80884.5,81258.5,82000.5,82500.5,83054.39999997616,83538.5,83974.5,85324.60000002384,91974.60000002384,95276.60000002384,96400.89999997616,96712.5,97329.39999997616,100770.30000007153],"key_events":[],"mouse_events":[0.10000002384185791,9122.800000071526,17622.800000071526,19176.700000047684,21588.5,22392.800000071526,22868.700000047684,23766.800000071526,24678.700000047684,25458.700000047684,27185.600000023842,27693.100000023842,28690.700000047684,29260.600000023842,30432.600000023842,30838.300000071526,33904.60000002384,34326.60000002384,35176.800000071526,37598.60000002384,37956.5,40337.39999997616,40680.89999997616,41086.5,42014.60000002384,42428.300000071526,42850.800000071526,43302.800000071526,44114.60000002384,44644.60000002384,46050.700000047684,46409.39999997616,46970.700000047684,47586.700000047684,48242.60000002384,48611.300000071526,49178.60000002384,53722.5,58709.200000047684,59022.800000071526,59896.700000047684,60466.60000002384,60902.60000002384,61300.700000047684,61714.700000047684,62190.60000002384,62596.60000002384,63048.700000047684,63572.800000071526,64322.700000047684,65694.80000007153,67264.5,67826.39999997616,68810.39999997616,69714.39999997616,70574.5,72658.39999997616,74378.5,74928.39999997616,75850.60000002384,76232.5,76622.60000002384,77630.60000002384,77996.5,78464.60000002384,78874.5,79136.30000007153,79472.89999997616,79846.39999997616,80212.60000002384,80618.39999997616,80884.5,81258.5,82000.5,82500.5,83054.39999997616,83538.5,83974.5,84412.39999997616,85324.60000002384,88174.5,90100.39999997616,91974.60000002384,95276.60000002384,96400.89999997616,96712.5,97329.39999997616,100770.30000007153,106501.30000007153],"honeypot":0,"survey":"mace","page":1,"trial_type":"survey-mace","trial_index":9,"time_elapsed":494740,"internal_node_id":"0.0-9.0","task_version":"prescreen-v0.3","browser_interactions":0},{"responses":{"01":"No","02":"No","03":"No","04":"No","05":"No","06":"Yes","06_ages_13":"13","06_ages_14":"14","06_ages_15":"15","06_ages_16":"16","06_ages_17":"17","07":"No","08":"No"},"rt":67225,"item_order":[0,1,2,3,4,5,6,7],"radio_events":[12436,33587.800000071526,48831.700000047684,52899.700000047684,53913.700000047684,56567.60000002384,64201.700000047684,66635.89999997616],"checkbox_events":[59579.60000002384,60017.700000047684,61173.700000047684,61593.700000047684,62553.700000047684],"key_events":[],"mouse_events":[12436,19061.700000047684,33587.800000071526,48831.700000047684,52899.700000047684,53913.700000047684,56567.60000002384,59579.60000002384,60017.700000047684,61173.700000047684,61593.700000047684,62553.700000047684,64201.700000047684,66635.89999997616,67221.89999997616],"honeypot":0,"survey":"mace","page":2,"trial_type":"survey-mace","trial_index":10,"time_elapsed":561968,"internal_node_id":"0.0-10.0","task_version":"prescreen-v0.3","browser_interactions":0},{"responses":{"01":"No","02":"No","03":"No","04":"No"},"rt":13889,"item_order":[0,1,2,3],"radio_events":[5083.399999976158,8931.299999952316,12163.399999976158,13553.199999928474],"checkbox_events":[],"key_events":[],"mouse_events":[5083.399999976158,8931.299999952316,12163.399999976158,13005.199999928474,13553.199999928474,13887.399999976158],"honeypot":0,"survey":"mace","page":3,"trial_type":"survey-mace","trial_index":11,"time_elapsed":575860,"internal_node_id":"0.0-11.0","task_version":"prescreen-v0.3","browser_interactions":0},{"responses":{"01":"Yes","01_ages_13":"13","01_ages_14":"14","01_ages_15":"15","01_ages_16":"16","02":"Yes","02_ages_13":"13","02_ages_14":"14","02_ages_15":"15","02_ages_16":"16"},"rt":19518.699999928474,"item_order":[0,1],"radio_events":[6953.799999952316,17075.899999976158],"checkbox_events":[9692,10691.699999928474,12313.899999976158,12641.5,17949.899999976158,18269.699999928474,18629.599999904633,19152.599999904633],"key_events":[],"mouse_events":[6953.799999952316,9692,10691.699999928474,12313.899999976158,12641.5,17075.899999976158,17949.899999976158,18269.699999928474,18629.599999904633,19152.599999904633,19517.899999976158],"honeypot":0,"survey":"mace","page":4,"trial_type":"survey-mace","trial_index":12,"time_elapsed":595381,"internal_node_id":"0.0-12.0","task_version":"prescreen-v0.3","browser_interactions":0},{"responses":{"01":"Yes","01_ages_3":"3","01_ages_7":"7","01_ages_8":"8","01_ages_9":"9","01_ages_10":"10","01_ages_11":"11","01_ages_12":"12","01_ages_13":"13","01_ages_14":"14","01_ages_15":"15","02":"Yes","02_ages_10":"10","02_ages_11":"11","02_ages_12":"12","02_ages_13":"13","02_ages_14":"14","03":"Yes","03_ages_10":"10","03_ages_11":"11","03_ages_12":"12","03_ages_13":"13","03_ages_14":"14","04":"Yes","04_ages_3":"3","04_ages_4":"4","04_ages_5":"5","04_ages_6":"6","04_ages_7":"7","04_ages_8":"8","04_ages_9":"9","04_ages_10":"10","04_ages_11":"11","04_ages_12":"12","04_ages_13":"13","05":"Yes","05_ages_8":"8","05_ages_9":"9","05_ages_10":"10"},"rt":63306.800000071526,"item_order":[0,1,2,3,4],"radio_events":[8614.800000071526,26684.899999976158,33381.10000002384,42934.800000071526,57646.60000002384],"checkbox_events":[10278.700000047684,14438.600000023842,14906.700000047684,15460.700000047684,16818.700000047684,18358.700000047684,18840.600000023842,20752.5,21586.5,22134.700000047684,27449,27886.5,28300.700000047684,29486.800000071526,29978.600000023842,36002.800000071526,36752.700000047684,39242.60000002384,40046.800000071526,40436.800000071526,45110.89999997616,46104.60000002384,46627.200000047684,47102.60000002384,47648.60000002384,48014.800000071526,48576.700000047684,49504.800000071526,49852.60000002384,50410.700000047684,50854.5,52916.700000047684,54234.60000002384,59580.800000071526,62086.700000047684,62530.800000071526],"key_events":[],"mouse_events":[8614.800000071526,10278.700000047684,14438.600000023842,14906.700000047684,15460.700000047684,16146.600000023842,16818.700000047684,17988.800000071526,18358.700000047684,18840.600000023842,20174.700000047684,20752.5,21586.5,22134.700000047684,26317.5,26684.899999976158,27449,27886.5,28300.700000047684,29486.800000071526,29978.600000023842,33381.10000002384,35518.39999997616,36002.800000071526,36752.700000047684,39242.60000002384,40046.800000071526,40436.800000071526,42934.800000071526,44674.5,45110.89999997616,45549,46104.60000002384,46627.200000047684,47102.60000002384,47648.60000002384,48014.800000071526,48576.700000047684,48998.60000002384,49504.800000071526,49852.60000002384,50410.700000047684,50854.5,52916.700000047684,54234.60000002384,57646.60000002384,58566.60000002384,59580.800000071526,62086.700000047684,62530.800000071526,63304.89999997616],"honeypot":0,"survey":"mace","page":5,"trial_type":"survey-mace","trial_index":13,"time_elapsed":658691,"internal_node_id":"0.0-13.0","task_version":"prescreen-v0.3","browser_interactions":0},{"responses":{"01":"No","02":"No","03":"Yes","03_ages_6":"6","03_ages_7":"7","03_ages_8":"8","03_ages_9":"9","03_ages_10":"10","04":"Yes","04_ages_6":"6","04_ages_7":"7","04_ages_8":"8","04_ages_9":"9","04_ages_10":"10","04_ages_11":"11","04_ages_12":"12","04_ages_13":"13","04_ages_14":"14","04_ages_15":"15","05":"No"},"rt":30949.100000023842,"item_order":[0,1,2,3,4],"radio_events":[7425.199999928474,8487.100000023842,10345,16477,20332.799999952316,30627],"checkbox_events":[17859.299999952316,18219.100000023842,18585,18936.899999976158,19598.899999976158,21957.899999976158,22449,22869.100000023842,23236.799999952316,23680.899999976158,24127.799999952316,25334.899999976158,25797.399999976158,26413,27286.899999976158],"key_events":[],"mouse_events":[7425.199999928474,7901.5,8143,8487.100000023842,8970.799999952316,9961,10345,11085.100000023842,16477,17859.299999952316,18219.100000023842,18585,18936.899999976158,19334.899999976158,19598.899999976158,20332.799999952316,21957.899999976158,22449,22869.100000023842,23236.799999952316,23680.899999976158,24127.799999952316,24500.899999976158,24977,25334.899999976158,25797.399999976158,26413,26709.699999928474,26982.899999976158,27286.899999976158,30627,30947.100000023842],"honeypot":0,"survey":"mace","page":6,"trial_type":"survey-mace","trial_index":14,"time_elapsed":689643,"internal_node_id":"0.0-14.0","task_version":"prescreen-v0.3","browser_interactions":0},{"responses":{"01":"No","02":"Yes","02_ages_13":"13","02_ages_14":"14","02_ages_15":"15","02_ages_16":"16","03":"Yes","03_ages_13":"13","03_ages_14":"14","03_ages_15":"15","03_ages_16":"16","04":"Yes","04_ages_13":"13","04_ages_14":"14","04_ages_15":"15","04_ages_16":"16","05":"Yes","05_ages_13":"13","05_ages_14":"14","05_ages_15":"15","05_ages_16":"16","06":"Yes","06_ages_13":"13","06_ages_14":"14","06_ages_15":"15","06_ages_16":"16","07":"Yes","07_ages_13":"13","07_ages_14":"14","07_ages_15":"15","07_ages_16":"16"},"rt":46943.5,"item_order":[0,1,2,3,4,5,6],"radio_events":[11459.099999904633,13199,19683,24972.899999976158,32846.799999952316,38171,43530.89999997616],"checkbox_events":[14922.899999976158,15570.699999928474,17496.899999976158,17943.099999904633,21125,21593.099999904633,21976.899999976158,22404.899999976158,27665,28055,28648.899999976158,29101,34610.89999997616,34992.89999997616,35516.89999997616,35952.89999997616,39830.89999997616,40220.699999928474,40634.799999952316,41079,45316.89999997616,45730.699999928474,46182.799999952316,46526.699999928474],"key_events":[],"mouse_events":[11459.099999904633,13199,14922.899999976158,15570.699999928474,17013.899999976158,17496.899999976158,17943.099999904633,19683,21125,21593.099999904633,21976.899999976158,22404.899999976158,24144.799999952316,24972.899999976158,27665,28055,28648.899999976158,29101,32846.799999952316,34610.89999997616,34992.89999997616,35516.89999997616,35952.89999997616,38171,39830.89999997616,40220.699999928474,40634.799999952316,41079,43530.89999997616,45316.89999997616,45730.699999928474,46182.799999952316,46526.699999928474,46940.89999997616],"honeypot":0,"survey":"mace","page":7,"trial_type":"survey-mace","trial_index":15,"time_elapsed":736590,"internal_node_id":"0.0-15.0","task_version":"prescreen-v0.3","browser_interactions":0},{"responses":{"01":"Yes","01_ages_1":"1","01_ages_2":"2","01_ages_3":"3","01_ages_4":"4","01_ages_5":"5","01_ages_6":"6","01_ages_7":"7","01_ages_8":"8","01_ages_9":"9","01_ages_10":"10","01_ages_11":"11","01_ages_12":"12","01_ages_13":"13","01_ages_14":"14","01_ages_15":"15","01_ages_16":"16","01_ages_17":"17","01_ages_18":"18","02":"Yes","02_ages_8":"8","02_ages_9":"9","02_ages_10":"10","02_ages_11":"11","02_ages_12":"12","02_ages_13":"13","02_ages_14":"14","03":"No","04":"Yes","04_ages_13":"13","04_ages_14":"14","04_ages_15":"15","04_ages_16":"16"},"rt":48082.59999990463,"item_order":[0,1,2,3],"radio_events":[7946.599999904633,26614.5,34870.39999997616,43718.39999997616],"checkbox_events":[12575.099999904633,13043,13972.5,14580.299999952316,15336.399999976158,15728.399999976158,16570.299999952316,16936.5,17678.399999976158,17982.399999976158,18482.399999976158,18926.399999976158,19372.5,19902.399999976158,20301.199999928474,21306.399999976158,21721.099999904633,22182.699999928474,28588.5,29040.299999952316,29502.399999976158,29877.099999904633,30455.099999904633,31178.5,31560.399999976158,46224.199999928474,46610.5,46997,47456.59999990463],"key_events":[],"mouse_events":[7946.599999904633,12575.099999904633,13043,13542.299999952316,13972.5,14580.299999952316,15336.399999976158,15728.399999976158,16086.399999976158,16570.299999952316,16936.5,17390.5,17678.399999976158,17982.399999976158,18482.399999976158,18926.399999976158,19372.5,19902.399999976158,20301.199999928474,20761,21306.399999976158,21721.099999904633,22182.699999928474,26614.5,28588.5,29040.299999952316,29502.399999976158,29877.099999904633,30455.099999904633,31178.5,31560.399999976158,34870.39999997616,43718.39999997616,45552.89999997616,46224.199999928474,46610.5,46997,47456.59999990463,48081],"honeypot":0,"survey":"mace","page":8,"trial_type":"survey-mace","trial_index":16,"time_elapsed":784675,"internal_node_id":"0.0-16.0","task_version":"prescreen-v0.3","browser_interactions":0},{"responses":{"01":"Yes","01_ages_16":"16","01_ages_17":"17","02":"Yes","02_ages_18":"18","03":"No","04":"Yes","04_ages_14":"14","04_ages_15":"15","04_ages_16":"16"},"rt":31538.899999976158,"item_order":[0,1,2,3],"radio_events":[6317.699999928474,14853.399999976158,16321.599999904633,20512.099999904633,24747.5],"checkbox_events":[8063.599999904633,8345.399999976158,17187.399999976158,25927.399999976158,26503.5,27511.5,28751.399999976158,29157.399999976158,30055.399999976158,30811.5],"key_events":[],"mouse_events":[6317.699999928474,8063.599999904633,8345.399999976158,14853.399999976158,16321.599999904633,17187.399999976158,20512.099999904633,24747.5,25927.399999976158,26503.5,27511.5,28415.699999928474,28751.399999976158,29157.399999976158,29696.299999952316,30055.399999976158,30507.399999976158,30811.5,31537.399999976158],"honeypot":0,"survey":"mace","page":9,"trial_type":"survey-mace","trial_index":17,"time_elapsed":816217,"internal_node_id":"0.0-17.0","task_version":"prescreen-v0.3","browser_interactions":0},{"responses":{"01":"No","02":"Yes","02_ages_1":"1","02_ages_2":"2","02_ages_3":"3","02_ages_4":"4","02_ages_5":"5","02_ages_6":"6","02_ages_7":"7","02_ages_8":"8","02_ages_9":"9","02_ages_10":"10","02_ages_11":"11","02_ages_12":"12","03":"Yes","03_ages_7":"7","03_ages_8":"8","03_ages_9":"9","03_ages_10":"10","03_ages_11":"11","03_ages_12":"12","03_ages_13":"13","03_ages_14":"14","03_ages_15":"15","04":"Yes","04_ages_1":"1","04_ages_2":"2","04_ages_3":"3","04_ages_4":"4","04_ages_5":"5","04_ages_6":"6","04_ages_7":"7","04_ages_8":"8","04_ages_9":"9","04_ages_10":"10","04_ages_11":"11","04_ages_12":"12","04_ages_13":"13","04_ages_14":"14","04_ages_15":"15","04_ages_16":"16","04_ages_17":"17","04_ages_18":"18","05":"No","06":"Yes","06_ages_17":"17","07":"No","08":"No"},"rt":49940.10000002384,"item_order":[0,1,2,3,4,5,6,7],"radio_events":[2991.100000023842,3975,17122.899999976158,25456.899999976158,41009.199999928474,43397,47892.89999997616,49571.10000002384],"checkbox_events":[5739.100000023842,6589.100000023842,7604.199999928474,7899.100000023842,8345,9929.100000023842,10348.899999976158,10747,11847.100000023842,12315.100000023842,12744.899999976158,13183.199999928474,18332.799999952316,18769,19777.299999952316,20339.100000023842,20745,21079,21461.699999928474,21837.199999928474,22320.899999976158,22896.899999976158,23327.100000023842,26565.100000023842,26940.899999976158,27331.600000023842,29047.100000023842,29547.100000023842,29953.100000023842,30951.899999976158,31254.899999976158,31645.100000023842,32043.100000023842,32457.100000023842,32839.5,33364,35445.10000002384,36125.39999997616,36867,37343,38169,44669.10000002384],"key_events":[],"mouse_events":[2991.100000023842,3975,5739.100000023842,6215,6589.100000023842,6931,7245.100000023842,7604.199999928474,7899.100000023842,8345,9929.100000023842,10348.899999976158,10747,11201.100000023842,11847.100000023842,12315.100000023842,12744.899999976158,13183.199999928474,17122.899999976158,18332.799999952316,18769,19777.299999952316,20339.100000023842,20745,21079,21461.699999928474,21837.199999928474,22320.899999976158,22896.899999976158,23327.100000023842,25456.899999976158,26565.100000023842,26940.899999976158,27331.600000023842,27750.899999976158,28407.799999952316,28751.5,29047.100000023842,29547.100000023842,29953.100000023842,30430.399999976158,30951.899999976158,31254.899999976158,31645.100000023842,32043.100000023842,32457.100000023842,32839.5,33364,33761.199999928474,35445.10000002384,36125.39999997616,36867,37343,37873.199999928474,38169,41009.199999928474,43397,44669.10000002384,47892.89999997616,49571.10000002384,49937.10000002384],"honeypot":0,"survey":"mace","page":10,"trial_type":"survey-mace","trial_index":18,"time_elapsed":866161,"internal_node_id":"0.0-18.0","task_version":"prescreen-v0.3","browser_interactions":0,"instructed":0},{"rt":8586.399999976158,"trial_type":"mental-health-alert","trial_index":19,"time_elapsed":874749,"internal_node_id":"0.0-19.0","task_version":"prescreen-v0.3","interactions":"[]"}]