[{"view_history":[{"page_index":0,"viewing_time":9839},{"page_index":1,"viewing_time":7673},{"page_index":2,"viewing_time":6508},{"page_index":3,"viewing_time":2311}],"rt":26332,"trial_type":"instructions","trial_index":0,"time_elapsed":26335,"internal_node_id":"0.0-0.0","task_version":"prescreen-v0.3"},{"rt":20054,"responses":{"age":"23","gender-categorical":"Female","gender-free-response":"","ethnicity":"Hispanic or Latino","race":["White"],"education":"Some college"},"trial_type":"survey-demo","trial_index":1,"time_elapsed":46403,"internal_node_id":"0.0-1.0","task_version":"prescreen-v0.3"},{"responses":{"Q14":"2","Q18":"1","Q15":"3","Q06":"2","Q04":"2","Q08":"2","Q07":"0","Q19":"1","Q05":"1","Q17":"0","Q10":"0","Q09":"1","Q03":"0","Q20":"1","Q11":"0","Q02":"0","Q21":"3","Q01":"0","Q13":"2","Q16":"1","Q12":"3"},"rt":149284,"item_order":[13,17,14,5,3,7,6,18,4,16,9,8,2,19,10,1,20,0,12,15,11],"radio_events":[7068,15213,22728,29439,35917,40909,42892,52315,60478,66144,72624,87694,92456,97286,100792,112534,117565,122574,128219,132079,136023,142378,147814],"key_events":[],"mouse_events":[7068,15213,22728,29439,35917,40909,42892,52315,53605,60478,66144,72624,87694,92456,97286,100792,102265,112534,117565,122574,128219,132079,136023,142378,147814,149284],"straightlining":0.3333333333333333,"zigzagging":0.55,"honeypot":0,"survey":"sns","trial_type":"survey-template","trial_index":2,"time_elapsed":195698,"internal_node_id":"0.0-2.0","task_version":"prescreen-v0.3","browser_interactions":0,"infrequency":0},{"responses":{"Q11":"3","Q12":"3","Q06":"3","Q13":"0","Q01":"3","Q07":"3","Q10":"3","Q02":"3","Q08":"3","Q09":"3","Q04":"3","Q05":"3","Q03":"3"},"rt":80667,"item_order":[10,11,5,12,0,6,9,1,7,8,3,4,2],"radio_events":[7727,23935,28150,34118,39225,43038,46684,53749,59295,62799,68965,72730,79235],"key_events":[],"mouse_events":[7727,23935,28150,34118,39225,43038,46684,47601,53749,59295,62799,68965,72730,79235,80667],"straightlining":0.9230769230769231,"zigzagging":0.16666666666666666,"honeypot":0,"survey":"bisbas","trial_type":"survey-template","trial_index":3,"time_elapsed":276373,"internal_node_id":"0.0-3.0","task_version":"prescreen-v0.3","browser_interactions":0,"infrequency":0},{"responses":{"Q01":"3","Q02":"4","Q03":"3"},"rt":29444,"radio_events":[9376,19462,27471],"key_events":[],"mouse_events":[9376,19462,27471,29444],"survey":"map","page":1,"trial_type":"survey-map","trial_index":4,"time_elapsed":305822,"internal_node_id":"0.0-4.0","task_version":"prescreen-v0.3","browser_interactions":0},{"responses":{"Q04":"2","Q05":"2","Q06":"3"},"rt":32135,"radio_events":[11443,23634,29364],"key_events":[],"mouse_events":[11443,23634,29364,32135],"survey":"map","page":2,"trial_type":"survey-map","trial_index":5,"time_elapsed":337962,"internal_node_id":"0.0-5.0","task_version":"prescreen-v0.3","browser_interactions":0},{"responses":{"Q07":"4","Q08":"4","Q09":"4"},"rt":26009,"radio_events":[10604,18467,24840],"key_events":[],"mouse_events":[10604,18467,24840,26009],"survey":"map","page":3,"trial_type":"survey-map","trial_index":6,"time_elapsed":363975,"internal_node_id":"0.0-6.0","task_version":"prescreen-v0.3","browser_interactions":0},{"responses":{"Q10":"4","Q11":"4","Q12":"3","Q13":"3","Q16":"0","Q14":"1","Q15":"1"},"rt":76033,"radio_events":[6464,11544,20456,32347,45171,58205,74070],"key_events":[],"mouse_events":[6464,11544,20456,21695,32347,45171,47861,58205,72847,74070,76033],"survey":"map","page":4,"trial_type":"survey-map","trial_index":7,"time_elapsed":440012,"internal_node_id":"0.0-7.0","task_version":"prescreen-v0.3","browser_interactions":0,"infrequency":0},{"view_history":[{"page_index":0,"viewing_time":4875},{"page_index":1,"viewing_time":22468}],"rt":27344,"trial_type":"instructions","trial_index":8,"time_elapsed":467358,"internal_node_id":"0.0-8.0","task_version":"prescreen-v0.3"},{"responses":{"01":"No","02":"Yes","02_ages_12":"12","02_ages_13":"13","02_ages_14":"14","02_ages_15":"15","02_ages_16":"16","02_ages_17":"17","03":"Yes","03_ages_15":"15","04":"Yes","04_ages_15":"15","04_ages_16":"16","04_ages_17":"17","04_ages_18":"18","05":"No","06":"Yes","06_ages_12":"12","06_ages_13":"13","06_ages_14":"14","06_ages_15":"15","06_ages_16":"16","06_ages_17":"17","06_ages_18":"18"},"rt":152480,"item_order":[0,1,2,3,4,5],"radio_events":[43885,51527,84517,98975,121713,133679],"checkbox_events":[68189,70323,71353,73653,74554,75594,76713,78743,88404,92283,93628,100984,101903,103624,104612,136659,139346,139719,141109,142137,143119,144082,145161,146015,146574,150059],"key_events":[],"mouse_events":[0,43885,51527,68189,69249,70323,71353,73653,74554,75594,76713,78743,84517,88404,92283,93628,94795,98975,100984,101903,102792,103624,104612,105666,121713,133679,136659,139346,139719,141109,142137,143119,144082,145161,146015,146574,147632,150059,152480],"honeypot":0,"survey":"mace","page":1,"trial_type":"survey-mace","trial_index":9,"time_elapsed":619855,"internal_node_id":"0.0-9.0","task_version":"prescreen-v0.3","browser_interactions":0},{"responses":{"01":"Yes","01_ages_14":"14","02":"No","03":"Yes","03_ages_1":"1","03_ages_2":"2","03_ages_3":"3","03_ages_4":"4","03_ages_5":"5","03_ages_6":"6","03_ages_7":"7","03_ages_8":"8","03_ages_9":"9","03_ages_10":"10","03_ages_11":"11","03_ages_12":"12","03_ages_13":"13","03_ages_14":"14","03_ages_15":"15","03_ages_16":"16","03_ages_17":"17","03_ages_18":"18","04":"Yes","04_ages_1":"1","04_ages_2":"2","04_ages_3":"3","04_ages_4":"4","04_ages_5":"5","04_ages_6":"6","04_ages_7":"7","04_ages_8":"8","04_ages_9":"9","04_ages_10":"10","04_ages_11":"11","04_ages_12":"12","04_ages_13":"13","05":"Yes","05_ages_6":"6","05_ages_7":"7","05_ages_8":"8","05_ages_9":"9","05_ages_10":"10","05_ages_11":"11","05_ages_12":"12","05_ages_13":"13","06":"No","07":"No","08":"No"},"rt":128198,"item_order":[0,1,2,3,4,5,6,7],"radio_events":[9370,18017,20150,51214,72874,109360,117404,126011],"checkbox_events":[11551,23374,23601,24654,25660,26579,27410,28284,29438,30510,32779,33650,34600,35644,36718,38348,39785,40669,41659,43765,44849,53843,54868,55821,57086,58109,59098,60014,60994,61918,62794,64738,66634,67769,77267,78114,79001,80265,81197,82153,83109,84435],"key_events":[],"mouse_events":[9370,11551,18017,20150,23374,23601,24654,25660,26579,27410,28284,29438,30510,31949,32779,33650,34600,35644,36718,38348,39785,40669,41659,42828,43765,44849,45774,51214,53843,54868,55821,57086,58109,59098,60014,60994,61918,62794,64738,65639,66634,67769,68993,72874,77267,78114,79001,80265,81197,82153,83109,84435,85697,108215,109360,110315,117404,126011,128198],"honeypot":0,"survey":"mace","page":2,"trial_type":"survey-mace","trial_index":10,"time_elapsed":748066,"internal_node_id":"0.0-10.0","task_version":"prescreen-v0.3","browser_interactions":0},{"responses":{"01":"No","02":"No","03":"No","04":"No"},"rt":23858,"item_order":[0,1,2,3],"radio_events":[7615,17630,20858,22425],"checkbox_events":[],"key_events":[],"mouse_events":[7615,17630,20858,22425,23858],"honeypot":0,"survey":"mace","page":3,"trial_type":"survey-mace","trial_index":11,"time_elapsed":771934,"internal_node_id":"0.0-11.0","task_version":"prescreen-v0.3","browser_interactions":0},{"responses":{"01":"No","02":"No"},"rt":16287,"item_order":[0,1],"radio_events":[10628,14263],"checkbox_events":[],"key_events":[],"mouse_events":[10628,14263,16286],"honeypot":0,"survey":"mace","page":4,"trial_type":"survey-mace","trial_index":12,"time_elapsed":788228,"internal_node_id":"0.0-12.0","task_version":"prescreen-v0.3","browser_interactions":0},{"responses":{"01":"No","02":"No","03":"No","04":"Yes","04_ages_8":"8","04_ages_9":"9","04_ages_10":"10","04_ages_11":"11","04_ages_12":"12","04_ages_13":"13","04_ages_14":"14","04_ages_15":"15","05":"No"},"rt":93563,"item_order":[0,1,2,3,4],"radio_events":[23293,30009,47318,52533,88209],"checkbox_events":[60458,61268,62218,67326,68623,69877,72027,74719,76083,77056,78128,79198,80333,81324],"key_events":[],"mouse_events":[23293,30009,47318,52533,54212,60458,61268,62218,63128,67326,68623,69877,72027,74719,76083,77056,78128,79198,80333,81324,88209,89997,93562],"honeypot":0,"survey":"mace","page":5,"trial_type":"survey-mace","trial_index":13,"time_elapsed":881801,"internal_node_id":"0.0-13.0","task_version":"prescreen-v0.3","browser_interactions":0},{"responses":{"01":"Yes","01_ages_6":"6","01_ages_7":"7","01_ages_8":"8","01_ages_9":"9","01_ages_10":"10","01_ages_11":"11","01_ages_12":"12","01_ages_13":"13","01_ages_14":"14","02":"Yes","02_ages_8":"8","02_ages_9":"9","02_ages_10":"10","02_ages_11":"11","02_ages_12":"12","02_ages_13":"13","02_ages_14":"14","02_ages_15":"15","02_ages_16":"16","03":"Yes","03_ages_8":"8","03_ages_9":"9","03_ages_10":"10","03_ages_11":"11","03_ages_12":"12","03_ages_13":"13","03_ages_14":"14","03_ages_15":"15","04":"Yes","04_ages_8":"8","04_ages_9":"9","04_ages_10":"10","04_ages_11":"11","04_ages_12":"12","05":"No"},"rt":96164,"item_order":[0,1,2,3,4],"radio_events":[11899,36300,62039,83430,92361],"checkbox_events":[14069,15379,17592,17984,18728,19689,21194,22149,24260,24659,25361,26379,28819,38781,39839,40920,41810,42850,45105,45510,46230,49830,51795,52190,52869,53909,65137,65520,66380,67460,68780,69920,71060,72119,73220,74199,85470,86429,87390,88249,89110],"key_events":[],"mouse_events":[11899,14069,15379,17592,17984,18728,19689,21194,22149,24260,24659,25361,26379,27640,28819,36300,38781,39839,40920,41810,42850,45105,45510,46230,49830,51795,52190,52869,53909,55830,62039,65137,65520,66380,67460,68780,69920,71060,72119,73220,74199,75260,83430,85470,86429,87390,88249,89110,90150,92361,96164],"honeypot":0,"survey":"mace","page":6,"trial_type":"survey-mace","trial_index":14,"time_elapsed":977974,"internal_node_id":"0.0-14.0","task_version":"prescreen-v0.3","browser_interactions":0},{"responses":{"01":"No","02":"No","03":"No","04":"No","05":"No","06":"No","07":"No"},"rt":37738,"item_order":[0,1,2,3,4,5,6],"radio_events":[13323,18404,23563,27513,31913,34293,36673],"checkbox_events":[],"key_events":[],"mouse_events":[13323,18404,23563,27513,28412,31913,34293,36673,37738],"honeypot":0,"survey":"mace","page":7,"trial_type":"survey-mace","trial_index":15,"time_elapsed":1015722,"internal_node_id":"0.0-15.0","task_version":"prescreen-v0.3","browser_interactions":0},{"responses":{"01":"Yes","01_ages_10":"10","01_ages_11":"11","01_ages_12":"12","01_ages_13":"13","01_ages_14":"14","01_ages_15":"15","01_ages_16":"16","01_ages_17":"17","01_ages_18":"18","02":"Yes","02_ages_17":"17","02_ages_18":"18","03":"Yes","03_ages_10":"10","03_ages_11":"11","03_ages_12":"12","03_ages_13":"13","03_ages_14":"14","03_ages_15":"15","03_ages_16":"16","03_ages_17":"17","03_ages_18":"18","04":"No"},"rt":99871,"item_order":[0,1,2,3],"radio_events":[26058,47598,59393,92868],"checkbox_events":[29075,29497,30198,31517,32374,33439,34318,35277,36257,37178,38238,51297,52298,61848,63815,64207,64864,67012,67407,68128,71599,72577,73657,75658,76698,80698],"key_events":[],"mouse_events":[26058,29075,29497,30198,31517,32374,33439,34318,35277,36257,37178,38238,47598,51297,52298,53217,59393,61848,63815,64207,64864,67012,67407,68128,69228,71599,72577,73657,75658,76698,77637,80698,92868,99871],"honeypot":0,"survey":"mace","page":8,"trial_type":"survey-mace","trial_index":16,"time_elapsed":1115602,"internal_node_id":"0.0-16.0","task_version":"prescreen-v0.3","browser_interactions":0},{"responses":{"01":"Yes","01_ages_1":"1","01_ages_2":"2","01_ages_3":"3","01_ages_4":"4","01_ages_5":"5","01_ages_6":"6","01_ages_7":"7","01_ages_8":"8","01_ages_9":"9","01_ages_10":"10","01_ages_11":"11","01_ages_12":"12","01_ages_13":"13","01_ages_14":"14","01_ages_15":"15","01_ages_16":"16","01_ages_17":"17","01_ages_18":"18","02":"Yes","02_ages_6":"6","02_ages_7":"7","02_ages_8":"8","02_ages_9":"9","02_ages_10":"10","02_ages_11":"11","02_ages_12":"12","02_ages_13":"13","02_ages_14":"14","02_ages_15":"15","02_ages_16":"16","02_ages_17":"17","02_ages_18":"18","03":"Yes","03_ages_1":"1","03_ages_2":"2","03_ages_3":"3","03_ages_4":"4","03_ages_5":"5","03_ages_6":"6","03_ages_7":"7","03_ages_8":"8","03_ages_9":"9","03_ages_10":"10","03_ages_11":"11","03_ages_12":"12","03_ages_13":"13","03_ages_14":"14","03_ages_15":"15","03_ages_16":"16","03_ages_17":"17","03_ages_18":"18","04":"Yes","04_ages_1":"1","04_ages_2":"2","04_ages_3":"3","04_ages_4":"4","04_ages_5":"5","04_ages_6":"6","04_ages_7":"7","04_ages_8":"8","04_ages_9":"9","04_ages_10":"10","04_ages_11":"11","04_ages_12":"12","04_ages_13":"13","04_ages_14":"14","04_ages_15":"15","04_ages_16":"16","04_ages_17":"17","04_ages_18":"18"},"rt":124688,"item_order":[0,1,2,3],"radio_events":[4985,37125,60865,98825],"checkbox_events":[7525,10086,10465,11365,13285,14325,15265,16165,18185,19165,20165,21184,22105,23004,23925,24745,25684,26545,28025,29175,39175,42634,43615,44595,45574,47535,48595,49555,50495,51505,52704,53654,54695,63545,64485,65445,66405,67985,68985,69965,71265,72265,73280,78416,81795,82771,86665,87665,88645,89845,90945,100225,101125,102045,102925,103805,104584,105305,106045,107454,108374,111315,112435,114960,115356,116035,116955,119195,120175,121155,122205],"key_events":[],"mouse_events":[4985,7525,10086,10465,11365,13285,14325,15265,16165,18185,19165,20165,21184,22105,23004,23925,24745,25684,26545,28025,29175,37125,39175,42634,43615,44595,45574,47535,48595,49555,50495,51505,52704,53654,54695,56455,60865,63545,64485,65445,66405,67985,68985,69965,71265,72265,73280,78416,79455,81795,82771,86665,87665,88645,89845,90945,92285,98825,100225,101125,102045,102925,103805,104584,105305,106045,107454,108374,109334,111315,112435,114960,115356,116035,116955,118255,119195,120175,121155,122205,122925,124688],"honeypot":0,"survey":"mace","page":9,"trial_type":"survey-mace","trial_index":17,"time_elapsed":1240303,"internal_node_id":"0.0-17.0","task_version":"prescreen-v0.3","browser_interactions":0},{"responses":{"01":"No","02":"No","03":"Yes","03_ages_11":"11","03_ages_12":"12","03_ages_13":"13","03_ages_14":"14","03_ages_15":"15","03_ages_16":"16","03_ages_17":"17","03_ages_18":"18","04":"Yes","04_ages_14":"14","04_ages_15":"15","04_ages_16":"16","04_ages_17":"17","04_ages_18":"18","05":"Yes","05_ages_14":"14","05_ages_15":"15","05_ages_16":"16","05_ages_17":"17","05_ages_18":"18","06":"Yes","06_ages_17":"17","07":"Yes","07_ages_6":"6","07_ages_7":"7","07_ages_8":"8","07_ages_9":"9","07_ages_10":"10","07_ages_11":"11","07_ages_12":"12","07_ages_13":"13","07_ages_14":"14","07_ages_15":"15","07_ages_16":"16","07_ages_17":"17","07_ages_18":"18","08":"Yes","08_ages_11":"11","08_ages_12":"12","08_ages_13":"13","08_ages_14":"14","08_ages_15":"15","08_ages_16":"16","08_ages_17":"17","08_ages_18":"18"},"rt":200739,"item_order":[0,1,2,3,4,5,6,7],"radio_events":[67617,70326,73507,91577,101387,114317,123177,186986],"checkbox_events":[78607,79467,80357,81257,82116,83037,84878,85257,85952,86857,92957,93737,94537,95938,96797,103763,104147,104847,105786,106727,107607,108827,117078,126766,129734,130815,131777,133137,134077,135757,136917,176616,177717,178717,180564,180977,181656,182577,188976,190537,191497,192397,193597,194697,196717,197877],"key_events":[],"mouse_events":[67617,70326,73507,78607,79467,80357,81257,82116,83037,84878,85257,85952,86857,87537,91577,92957,93737,94537,95938,96797,101387,103763,104147,104847,105786,106727,107607,108827,109467,114317,117078,117996,123177,126766,129734,130815,131777,133137,134077,135757,136917,171877,176616,177717,178717,180564,180977,181656,182577,186986,188976,190537,191497,192397,193597,194697,196717,197877,198677,200739],"honeypot":0,"survey":"mace","page":10,"trial_type":"survey-mace","trial_index":18,"time_elapsed":1441050,"internal_node_id":"0.0-18.0","task_version":"prescreen-v0.3","browser_interactions":0,"instructed":0},{"rt":7705,"trial_type":"mental-health-alert","trial_index":19,"time_elapsed":1448758,"internal_node_id":"0.0-19.0","task_version":"prescreen-v0.3","interactions":"[{\"event\":\"focus\",\"trial\":0,\"time\":1}]"}]