[{"view_history":[{"page_index":0,"viewing_time":1854.4000000059605},{"page_index":1,"viewing_time":1788},{"page_index":2,"viewing_time":3749.2000000029802},{"page_index":3,"viewing_time":765.6999999880791}],"rt":8159,"trial_type":"instructions","trial_index":0,"time_elapsed":8190,"internal_node_id":"0.0-0.0","task_version":"prescreen-v0.3"},{"rt":28834.80000001192,"responses":{"age":"20","gender-categorical":"Female","gender-free-response":"","ethnicity":"Not Hispanic or Latino","race":["White"],"education":"Some college"},"trial_type":"survey-demo","trial_index":1,"time_elapsed":37038,"internal_node_id":"0.0-1.0","task_version":"prescreen-v0.3"},{"responses":{"Q18":"2","Q19":"1","Q13":"1","Q15":"2","Q01":"2","Q02":"1","Q07":"1","Q04":"0","Q06":"1","Q03":"0","Q08":"2","Q21":"3","Q12":"2","Q17":"1","Q09":"1","Q11":"1","Q05":"1","Q16":"1","Q10":"2","Q14":"1","Q20":"0"},"rt":180494,"item_order":[17,18,12,14,0,1,6,3,5,2,7,20,11,16,8,10,4,15,9,13,19],"radio_events":[5256.70000000298,9130.90000000596,12756.90000000596,16489.70000000298,18298.40000000596,19164.59999999404,22913.79999999702,23708,32189,37958.20000000298,40933.79999999702,43993.20000000298,46755.79999999702,50028.40000000596,73793.5,115211.40000000596,148987.29999999702,154687.90000000596,156460.40000000596,162407.90000000596,167905.5,169914.09999999404,176111.09999999404,177458.70000000298,179507.79999999702],"key_events":[],"mouse_events":[5256.70000000298,9130.90000000596,12756.90000000596,16489.70000000298,18298.40000000596,19164.59999999404,22913.79999999702,23708,32189,37958.20000000298,40933.79999999702,43993.20000000298,46755.79999999702,50028.40000000596,73793.5,115211.40000000596,148987.29999999702,154687.90000000596,156460.40000000596,162407.90000000596,167905.5,169914.09999999404,176111.09999999404,177458.70000000298,179507.79999999702,180486.79999999702],"straightlining":0.5238095238095238,"zigzagging":0.6,"honeypot":0,"survey":"sns","trial_type":"survey-template","trial_index":2,"time_elapsed":217547,"internal_node_id":"0.0-2.0","task_version":"prescreen-v0.3","browser_interactions":0,"infrequency":0},{"responses":{"Q10":"2","Q07":"3","Q11":"2","Q06":"3","Q13":"0","Q08":"2","Q09":"2","Q03":"3","Q05":"3","Q01":"3","Q04":"3","Q12":"1","Q02":"2"},"rt":52392.39999999106,"item_order":[9,6,10,5,12,7,8,2,4,0,3,11,1],"radio_events":[5780.0999999940395,7087.70000000298,14037.29999999702,16038.29999999702,18961.5,21086.59999999404,25517.39999999106,27374,33749.89999999106,36672.89999999106,38389,40205.59999999404,44644.59999999404,48021,48722.89999999106,51794.09999999404],"key_events":[],"mouse_events":[5780.0999999940395,7087.70000000298,14037.29999999702,16038.29999999702,18961.5,21086.59999999404,25517.39999999106,27374,33749.89999999106,36672.89999999106,38389,40205.59999999404,43213,44644.59999999404,48021,48722.89999999106,51794.09999999404,52388.09999999404],"straightlining":0.46153846153846156,"zigzagging":0.5,"honeypot":0,"survey":"bisbas","trial_type":"survey-template","trial_index":3,"time_elapsed":269948,"internal_node_id":"0.0-3.0","task_version":"prescreen-v0.3","browser_interactions":0,"infrequency":0},{"responses":{"Q01":"1","Q02":"2","Q03":"2"},"rt":21803.20000000298,"radio_events":[5577.100000008941,13268.5,14716.29999999702,21179.79999999702],"key_events":[],"mouse_events":[5577.100000008941,13268.5,14716.29999999702,21179.79999999702,21801.40000000596],"survey":"map","page":1,"trial_type":"survey-map","trial_index":4,"time_elapsed":291757,"internal_node_id":"0.0-4.0","task_version":"prescreen-v0.3","browser_interactions":0},{"responses":{"Q04":"1","Q05":"1","Q06":"1"},"rt":8304.89999999106,"radio_events":[3614.0999999940395,5587.5,7448.79999999702],"key_events":[],"mouse_events":[3614.0999999940395,5587.5,6895.20000000298,7448.79999999702,8303],"survey":"map","page":2,"trial_type":"survey-map","trial_index":5,"time_elapsed":300068,"internal_node_id":"0.0-5.0","task_version":"prescreen-v0.3","browser_interactions":0},{"responses":{"Q07":"4","Q08":"0","Q09":"3"},"rt":13982.20000000298,"radio_events":[5259,7713.4000000059605,13346.90000000596],"key_events":[],"mouse_events":[5259,7713.4000000059605,13346.90000000596,13980.5],"survey":"map","page":3,"trial_type":"survey-map","trial_index":6,"time_elapsed":314054,"internal_node_id":"0.0-6.0","task_version":"prescreen-v0.3","browser_interactions":0},{"responses":{"Q10":"2","Q11":"2","Q12":"2","Q13":"2","Q16":"0","Q14":"1","Q15":"1"},"rt":30841.5,"radio_events":[8774.20000000298,11641.59999999404,16329.09999999404,18779.29999999702,21210.09999999404,25663.59999999404,30196.09999999404],"key_events":[],"mouse_events":[8774.20000000298,11079.79999999702,11641.59999999404,16329.09999999404,18278.20000000298,18779.29999999702,21210.09999999404,25663.59999999404,29570.79999999702,30196.09999999404,30837.89999999106],"survey":"map","page":4,"trial_type":"survey-map","trial_index":7,"time_elapsed":344903,"internal_node_id":"0.0-7.0","task_version":"prescreen-v0.3","browser_interactions":0,"infrequency":0},{"view_history":[{"page_index":0,"viewing_time":1398.7000000029802},{"page_index":1,"viewing_time":865.7999999970198}],"rt":2265.7000000029802,"trial_type":"instructions","trial_index":8,"time_elapsed":347171,"internal_node_id":"0.0-8.0","task_version":"prescreen-v0.3"},{"responses":{"01":"No","02":"No","03":"No","04":"No","05":"No","06":"No"},"rt":20712.29999999702,"item_order":[0,1,2,3,4,5],"radio_events":[8933,13396.199999988079,15854.09999999404,17024.5,17962.79999999702,19057.19999998808],"checkbox_events":[],"key_events":[],"mouse_events":[0.19999998807907104,8011.29999999702,8933,13396.199999988079,15854.09999999404,17024.5,17962.79999999702,19057.19999998808,20701.5],"honeypot":0,"survey":"mace","page":1,"trial_type":"survey-mace","trial_index":9,"time_elapsed":367898,"internal_node_id":"0.0-9.0","task_version":"prescreen-v0.3","browser_interactions":0},{"responses":{"01":"No","02":"No","03":"No","04":"No","05":"No","06":"No","07":"No","08":"No"},"rt":11444.10000000894,"item_order":[0,1,2,3,4,5,6,7],"radio_events":[1770.300000011921,3691,4917.800000011921,5743.600000008941,7551.70000000298,8385.70000000298,9011,10811.5],"checkbox_events":[],"key_events":[],"mouse_events":[1770.300000011921,3691,4917.800000011921,5743.600000008941,7551.70000000298,8385.70000000298,9011,9588.40000000596,10318.40000000596,10811.5,11428.800000011921],"honeypot":0,"survey":"mace","page":2,"trial_type":"survey-mace","trial_index":10,"time_elapsed":379350,"internal_node_id":"0.0-10.0","task_version":"prescreen-v0.3","browser_interactions":0},{"responses":{"01":"No","02":"No","03":"No","04":"No"},"rt":5970.0999999940395,"item_order":[0,1,2,3],"radio_events":[2814.699999988079,3359.699999988079,4406.29999999702,5304.399999991059],"checkbox_events":[],"key_events":[],"mouse_events":[1884.199999988079,2814.699999988079,3359.699999988079,4406.29999999702,5304.399999991059,5962.5999999940395],"honeypot":0,"survey":"mace","page":3,"trial_type":"survey-mace","trial_index":11,"time_elapsed":385328,"internal_node_id":"0.0-11.0","task_version":"prescreen-v0.3","browser_interactions":0},{"responses":{"01":"No","02":"No"},"rt":8779.29999999702,"item_order":[0,1],"radio_events":[1862.5999999940395,7965.5999999940395],"checkbox_events":[],"key_events":[],"mouse_events":[1862.5999999940395,7965.5999999940395,8775.5],"honeypot":0,"survey":"mace","page":4,"trial_type":"survey-mace","trial_index":12,"time_elapsed":394113,"internal_node_id":"0.0-12.0","task_version":"prescreen-v0.3","browser_interactions":0},{"responses":{"01":"No","02":"No","03":"No","04":"No","05":"No"},"rt":11907.20000000298,"item_order":[0,1,2,3,4],"radio_events":[5290.29999999702,8405.39999999106,9792.79999999702,10566.89999999106,11128.39999999106],"checkbox_events":[],"key_events":[],"mouse_events":[5290.29999999702,8405.39999999106,9792.79999999702,10566.89999999106,11128.39999999106,11898.20000000298],"honeypot":0,"survey":"mace","page":5,"trial_type":"survey-mace","trial_index":13,"time_elapsed":406028,"internal_node_id":"0.0-13.0","task_version":"prescreen-v0.3","browser_interactions":0},{"responses":{"01":"Yes","01_ages_7":"7","02":"Yes","02_ages_8":"8","02_ages_10":"10","03":"Yes","03_ages_8":"8","03_ages_9":"9","03_ages_10":"10","03_ages_11":"11","03_ages_12":"12","03_ages_13":"13","04":"No","05":"No"},"rt":33731,"item_order":[0,1,2,3,4],"radio_events":[5921.29999999702,12994.79999999702,22603.79999999702,30587.79999999702,33021.90000000596],"checkbox_events":[9751.70000000298,17622,18531.90000000596,23422.10000000894,24231.90000000596,25427,26068.60000000894,26569.79999999702,27019.10000000894,27452,27901.10000000894],"key_events":[],"mouse_events":[5921.29999999702,9751.70000000298,12994.79999999702,17622,18531.90000000596,22094.60000000894,22603.79999999702,23422.10000000894,24231.90000000596,25427,26068.60000000894,26569.79999999702,27019.10000000894,27452,27901.10000000894,30587.79999999702,33021.90000000596,33720.20000000298],"honeypot":0,"survey":"mace","page":6,"trial_type":"survey-mace","trial_index":14,"time_elapsed":439769,"internal_node_id":"0.0-14.0","task_version":"prescreen-v0.3","browser_interactions":0},{"responses":{"01":"No","02":"No","03":"No","04":"No","05":"No","06":"No","07":"No"},"rt":9321.89999999106,"item_order":[0,1,2,3,4,5,6],"radio_events":[1894.3999999910593,3337.7999999970198,4580.899999991059,5439.29999999702,6758.399999991059,7600.5,8498.70000000298],"checkbox_events":[],"key_events":[],"mouse_events":[1894.3999999910593,3337.7999999970198,4580.899999991059,5439.29999999702,6758.399999991059,7600.5,8498.70000000298,9309],"honeypot":0,"survey":"mace","page":7,"trial_type":"survey-mace","trial_index":15,"time_elapsed":449098,"internal_node_id":"0.0-15.0","task_version":"prescreen-v0.3","browser_interactions":0},{"responses":{"01":"No","02":"No","03":"No","04":"No"},"rt":14510.70000000298,"item_order":[0,1,2,3],"radio_events":[7104.70000000298,10256.39999999106,11720.20000000298,14062.09999999404],"checkbox_events":[],"key_events":[],"mouse_events":[7104.70000000298,10256.39999999106,11720.20000000298,13604.70000000298,14062.09999999404,14503.20000000298],"honeypot":0,"survey":"mace","page":8,"trial_type":"survey-mace","trial_index":16,"time_elapsed":463614,"internal_node_id":"0.0-16.0","task_version":"prescreen-v0.3","browser_interactions":0},{"responses":{"01":"Yes","01_ages_1":"1","01_ages_2":"2","01_ages_3":"3","01_ages_4":"4","01_ages_5":"5","01_ages_6":"6","01_ages_7":"7","01_ages_8":"8","01_ages_9":"9","01_ages_10":"10","01_ages_11":"11","01_ages_12":"12","01_ages_13":"13","01_ages_14":"14","01_ages_15":"15","01_ages_16":"16","01_ages_17":"17","01_ages_18":"18","02":"Yes","02_ages_1":"1","02_ages_2":"2","02_ages_3":"3","02_ages_4":"4","02_ages_5":"5","02_ages_6":"6","02_ages_7":"7","02_ages_8":"8","02_ages_9":"9","02_ages_10":"10","02_ages_11":"11","02_ages_12":"12","02_ages_13":"13","02_ages_14":"14","02_ages_15":"15","02_ages_16":"16","02_ages_17":"17","02_ages_18":"18","03":"Yes","03_ages_1":"1","03_ages_2":"2","03_ages_3":"3","03_ages_4":"4","03_ages_5":"5","03_ages_6":"6","03_ages_7":"7","03_ages_8":"8","03_ages_9":"9","03_ages_10":"10","03_ages_11":"11","03_ages_12":"12","03_ages_13":"13","03_ages_14":"14","03_ages_15":"15","03_ages_16":"16","03_ages_17":"17","03_ages_18":"18","04":"Yes","04_ages_1":"1","04_ages_2":"2","04_ages_3":"3","04_ages_4":"4","04_ages_5":"5","04_ages_6":"6","04_ages_7":"7","04_ages_8":"8","04_ages_9":"9","04_ages_10":"10","04_ages_11":"11","04_ages_12":"12","04_ages_13":"13","04_ages_14":"14","04_ages_15":"15","04_ages_16":"16","04_ages_17":"17","04_ages_18":"18"},"rt":75570.40000000596,"item_order":[0,1,2,3],"radio_events":[5089.0999999940395,24060.29999999702,25431.40000000596,27199.59999999404],"checkbox_events":[6873.0999999940395,7907.9000000059605,8517.40000000596,9571.90000000596,10237.5,12122.70000000298,12724.40000000596,13213.70000000298,13690.79999999702,14155.90000000596,14573.09999999404,15078.20000000298,16546.20000000298,17332.29999999702,17913.79999999702,18435.40000000596,19477.59999999404,20496.09999999404,31276.90000000596,32367.59999999404,33987.59999999404,34761.40000000596,35402.90000000596,35883.79999999702,36405.20000000298,36926.79999999702,37448.09999999404,37977.20000000298,38478.59999999404,39665.29999999702,40202.79999999702,40716.09999999404,41277.29999999702,41934.70000000298,42504.5,43109.90000000596,46333.70000000298,49834.5,50853,51362.40000000596,51931.70000000298,52533.29999999702,53046.79999999702,55115.59999999404,55689.20000000298,56170.70000000298,56683.90000000596,57189,57830.59999999404,58351.90000000596,58816.20000000298,59346.5,59968,60529.5,61980.79999999702,62702.70000000298,63247.90000000596,64286.5,65288.40000000596,65850.20000000298,66379.5,66876.59999999404,67325.90000000596,67822.29999999702,69222.20000000298,70104.20000000298,70858.29999999702,71917,72735.20000000298,73561.29999999702,74270.90000000596,74816.29999999702],"key_events":[],"mouse_events":[5089.0999999940395,6873.0999999940395,7409.79999999702,7907.9000000059605,8517.40000000596,9054.59999999404,9571.90000000596,10237.5,12122.70000000298,12724.40000000596,13213.70000000298,13690.79999999702,14155.90000000596,14573.09999999404,15078.20000000298,15631.90000000596,16064.70000000298,16546.20000000298,17332.29999999702,17913.79999999702,18435.40000000596,18972.20000000298,19477.59999999404,19998.90000000596,20496.09999999404,24060.29999999702,24829.90000000596,25431.40000000596,27199.59999999404,31276.90000000596,32367.59999999404,33987.59999999404,34761.40000000596,35402.90000000596,35883.79999999702,36405.20000000298,36926.79999999702,37448.09999999404,37977.20000000298,38478.59999999404,39104.09999999404,39665.29999999702,40202.79999999702,40716.09999999404,41277.29999999702,41934.70000000298,42504.5,43109.90000000596,46333.70000000298,49834.5,50853,51362.40000000596,51931.70000000298,52533.29999999702,53046.79999999702,53776.70000000298,54555,55115.59999999404,55689.20000000298,56170.70000000298,56683.90000000596,57189,57830.59999999404,58351.90000000596,58816.20000000298,59346.5,59968,60529.5,61980.79999999702,62702.70000000298,63247.90000000596,63797.40000000596,64286.5,65288.40000000596,65850.20000000298,66379.5,66876.59999999404,67325.90000000596,67822.29999999702,69222.20000000298,70104.20000000298,70858.29999999702,71917,72735.20000000298,73561.29999999702,74270.90000000596,74816.29999999702,75562.90000000596],"honeypot":0,"survey":"mace","page":9,"trial_type":"survey-mace","trial_index":17,"time_elapsed":539193,"internal_node_id":"0.0-17.0","task_version":"prescreen-v0.3","browser_interactions":0},{"responses":{"01":"No","02":"No","03":"No","04":"No","05":"Yes","05_ages_8":"8","05_ages_9":"9","05_ages_10":"10","05_ages_11":"11","05_ages_12":"12","05_ages_13":"13","05_ages_14":"14","05_ages_15":"15","05_ages_16":"16","05_ages_17":"17","05_ages_18":"18","06":"Yes","06_ages_17":"17","07":"Yes","07_ages_1":"1","07_ages_2":"2","07_ages_3":"3","07_ages_4":"4","07_ages_5":"5","07_ages_6":"6","07_ages_7":"7","07_ages_8":"8","07_ages_9":"9","07_ages_10":"10","07_ages_11":"11","07_ages_12":"12","07_ages_13":"13","07_ages_14":"14","07_ages_15":"15","07_ages_16":"16","07_ages_17":"17","07_ages_18":"18","08":"Yes","08_ages_1":"1","08_ages_2":"2","08_ages_3":"3","08_ages_4":"4","08_ages_5":"5","08_ages_6":"6","08_ages_7":"7","08_ages_8":"8","08_ages_9":"9","08_ages_10":"10","08_ages_11":"11","08_ages_12":"12","08_ages_13":"13","08_ages_14":"14","08_ages_15":"15","08_ages_16":"16","08_ages_17":"17","08_ages_18":"18"},"rt":65763.70000000298,"item_order":[0,1,2,3,4,5,6,7],"radio_events":[3909.4000000059605,4599.100000008941,6211,7346.100000008941,10934.79999999702,14327.20000000298,18148.5,19700.20000000298],"checkbox_events":[15486,23513.60000000894,25213.5,26520.60000000894,26989.60000000894,27438.5,27943.70000000298,28585.29999999702,29299,29851.40000000596,30357.5,30918.90000000596,31917.40000000596,32366.40000000596,38312.5,40409.40000000596,40994.60000000894,41965.29999999702,42991.40000000596,43544.90000000596,44278.70000000298,44879.90000000596,45409.10000000894,46780,47269.20000000298,47846.40000000596,48363.60000000894,48957.10000000894,49454,49959.20000000298,50448.40000000596,50961.5,51514.79999999702,52480.90000000596,54686.29999999702,55215.40000000596,55817.20000000298,56362.29999999702,56919.79999999702,57529.10000000894,58162.79999999702,58804,59469.60000000894,60215.20000000298,60784.5,61430.10000000894,61991.20000000298,62592.79999999702,63210.20000000298,63779.5,64381,64982.5],"key_events":[],"mouse_events":[2738.2000000029802,3909.4000000059605,4599.100000008941,6211,7346.100000008941,10934.79999999702,14327.20000000298,15486,18148.5,19700.20000000298,20928.60000000894,23513.60000000894,25213.5,26520.60000000894,26989.60000000894,27438.5,27943.70000000298,28585.29999999702,29299,29851.40000000596,30357.5,30918.90000000596,31420.10000000894,31917.40000000596,32366.40000000596,38312.5,39395.10000000894,40409.40000000596,40994.60000000894,41524.20000000298,41965.29999999702,42446.40000000596,42991.40000000596,43544.90000000596,44278.70000000298,44879.90000000596,45409.10000000894,46780,47269.20000000298,47846.40000000596,48363.60000000894,48957.10000000894,49454,49959.20000000298,50448.40000000596,50961.5,51514.79999999702,52028,52480.90000000596,54686.29999999702,55215.40000000596,55817.20000000298,56362.29999999702,56919.79999999702,57529.10000000894,58162.79999999702,58804,59469.60000000894,60215.20000000298,60784.5,61430.10000000894,61991.20000000298,62592.79999999702,63210.20000000298,63779.5,64381,64982.5,65748.90000000596],"honeypot":0,"survey":"mace","page":10,"trial_type":"survey-mace","trial_index":18,"time_elapsed":604968,"internal_node_id":"0.0-18.0","task_version":"prescreen-v0.3","browser_interactions":0,"instructed":0},{"rt":1598.9000000059605,"trial_type":"mental-health-alert","trial_index":19,"time_elapsed":606569,"internal_node_id":"0.0-19.0","task_version":"prescreen-v0.3","interactions":"[]"}]