[{"view_history":[{"page_index":0,"viewing_time":3230.2999999821186},{"page_index":1,"viewing_time":3069.5999999940395},{"page_index":2,"viewing_time":3333.100000023842},{"page_index":3,"viewing_time":1120.5}],"rt":10755.699999988079,"trial_type":"instructions","trial_index":0,"time_elapsed":10777,"internal_node_id":"0.0-0.0","task_version":"prescreen-v0.3"},{"rt":10991.5,"responses":{"age":"19","gender-categorical":"Female","gender-free-response":"","ethnicity":"Not Hispanic or Latino","race":["White"],"education":"Some college"},"trial_type":"survey-demo","trial_index":1,"time_elapsed":21781,"internal_node_id":"0.0-1.0","task_version":"prescreen-v0.3"},{"responses":{"Q17":"0","Q02":"1","Q13":"1","Q14":"0","Q05":"0","Q03":"0","Q11":"0","Q07":"0","Q21":"3","Q04":"0","Q12":"0","Q01":"1","Q20":"0","Q16":"1","Q10":"0","Q09":"0","Q08":"0","Q18":"1","Q15":"2","Q06":"0","Q19":"1"},"rt":116893.29999998212,"item_order":[16,1,12,13,4,2,10,6,20,3,11,0,19,15,9,8,7,17,14,5,18],"radio_events":[26288.09999999404,31081.19999998808,34867.19999998808,37378.19999998808,47540.69999998808,50300,51831.5,58485.69999998808,61974.69999998808,64557.29999998212,72244,76310.69999998808,78091.89999997616,89649.09999999404,92874.39999997616,95513.5,97662.89999997616,101882.89999997616,107492.89999997616,112537.39999997616,115785.89999997616],"key_events":[],"mouse_events":[26288.09999999404,31081.19999998808,34867.19999998808,37378.19999998808,47540.69999998808,50300,51831.5,58485.69999998808,61974.69999998808,64557.29999998212,72244,76310.69999998808,78091.89999997616,89649.09999999404,92874.39999997616,95513.5,97662.89999997616,101882.89999997616,107492.89999997616,112537.39999997616,115785.89999997616,116885.19999998808],"straightlining":0.6190476190476191,"zigzagging":0.55,"honeypot":0,"survey":"sns","trial_type":"survey-template","trial_index":2,"time_elapsed":138680,"internal_node_id":"0.0-2.0","task_version":"prescreen-v0.3","browser_interactions":2,"infrequency":0},{"responses":{"Q08":"3","Q11":"3","Q13":"0","Q06":"3","Q01":"2","Q10":"3","Q04":"3","Q03":"3","Q09":"3","Q07":"3","Q05":"3","Q12":"2","Q02":"2"},"rt":59073.29999998212,"item_order":[7,10,12,5,0,9,3,2,8,6,4,11,1],"radio_events":[7057.699999988079,12929.09999999404,17611.19999998808,20172.19999998808,24631.40000000596,29725.09999999404,34181.5,37318.09999999404,39641.40000000596,42055.69999998808,48177.90000000596,49613.09999999404,57695.90000000596],"key_events":[],"mouse_events":[7057.699999988079,9793.09999999404,12929.09999999404,17611.19999998808,20172.19999998808,23051.29999998212,24631.40000000596,29725.09999999404,34181.5,37318.09999999404,39641.40000000596,42055.69999998808,46212.69999998808,48177.90000000596,49613.09999999404,50270,52573,57695.90000000596,59068.5],"straightlining":0.6923076923076923,"zigzagging":0.4166666666666667,"honeypot":0,"survey":"bisbas","trial_type":"survey-template","trial_index":3,"time_elapsed":197757,"internal_node_id":"0.0-3.0","task_version":"prescreen-v0.3","browser_interactions":0,"infrequency":0},{"responses":{"Q01":"2","Q02":"2","Q03":"3"},"rt":82081.10000002384,"radio_events":[73342.40000000596,76688.30000001192,81276.80000001192],"key_events":[],"mouse_events":[73342.40000000596,76688.30000001192,81276.80000001192,82078.40000000596],"survey":"map","page":1,"trial_type":"survey-map","trial_index":4,"time_elapsed":279840,"internal_node_id":"0.0-4.0","task_version":"prescreen-v0.3","browser_interactions":0},{"responses":{"Q04":"1","Q05":"1","Q06":"2"},"rt":16375.90000000596,"radio_events":[4941.699999988079,9599.699999988079,13610.40000000596,15623.799999982119],"key_events":[],"mouse_events":[4941.699999988079,8300.40000000596,9599.699999988079,13610.40000000596,15623.799999982119,16374.699999988079],"survey":"map","page":2,"trial_type":"survey-map","trial_index":5,"time_elapsed":296220,"internal_node_id":"0.0-5.0","task_version":"prescreen-v0.3","browser_interactions":0},{"responses":{"Q07":"4","Q08":"2","Q09":"3"},"rt":10641.59999999404,"radio_events":[4286.5999999940395,7383.199999988079,9884.799999982119],"key_events":[],"mouse_events":[4286.5999999940395,7383.199999988079,9884.799999982119,10639.59999999404],"survey":"map","page":3,"trial_type":"survey-map","trial_index":6,"time_elapsed":306865,"internal_node_id":"0.0-6.0","task_version":"prescreen-v0.3","browser_interactions":0},{"responses":{"Q10":"4","Q11":"4","Q12":"4","Q13":"4","Q16":"0","Q14":"3","Q15":"4"},"rt":37398.59999999404,"radio_events":[4643.5,7287.4000000059605,19148.90000000596,24336.30000001192,30810.40000000596,34114.30000001192,36544.5],"key_events":[],"mouse_events":[4643.5,7287.4000000059605,19148.90000000596,24336.30000001192,30810.40000000596,34114.30000001192,36544.5,37394.69999998808],"survey":"map","page":4,"trial_type":"survey-map","trial_index":7,"time_elapsed":344268,"internal_node_id":"0.0-7.0","task_version":"prescreen-v0.3","browser_interactions":0,"infrequency":0},{"view_history":[{"page_index":0,"viewing_time":2340.699999988079},{"page_index":1,"viewing_time":40903.90000000596}],"rt":43245.5,"trial_type":"instructions","trial_index":8,"time_elapsed":387514,"internal_node_id":"0.0-8.0","task_version":"prescreen-v0.3"},{"responses":{"01":"No","02":"No","03":"No","04":"No","05":"No","06":"No"},"rt":19865.59999999404,"item_order":[0,1,2,3,4,5],"radio_events":[7464.5999999940395,10486.90000000596,13382.300000011921,17150.5,18217.5,19316.19999998808],"checkbox_events":[],"key_events":[],"mouse_events":[0.09999999403953552,7464.5999999940395,10486.90000000596,13382.300000011921,17150.5,18217.5,19316.19999998808,19854.09999999404],"honeypot":0,"survey":"mace","page":1,"trial_type":"survey-mace","trial_index":9,"time_elapsed":407391,"internal_node_id":"0.0-9.0","task_version":"prescreen-v0.3","browser_interactions":0},{"responses":{"01":"No","02":"No","03":"No","04":"No","05":"No","06":"No","07":"No","08":"No"},"rt":12676.59999999404,"item_order":[0,1,2,3,4,5,6,7],"radio_events":[2908,4408.5,5362.4000000059605,6422.800000011921,7815.4000000059605,9244,10480.200000017881,11444.59999999404],"checkbox_events":[],"key_events":[],"mouse_events":[2908,4408.5,5362.4000000059605,6422.800000011921,7815.4000000059605,9244,10480.200000017881,11444.59999999404,12661.59999999404],"honeypot":0,"survey":"mace","page":2,"trial_type":"survey-mace","trial_index":10,"time_elapsed":420074,"internal_node_id":"0.0-10.0","task_version":"prescreen-v0.3","browser_interactions":0},{"responses":{"01":"No","02":"No","03":"No","04":"No"},"rt":7254.5,"item_order":[0,1,2,3],"radio_events":[2970.800000011921,3965.199999988079,5432.800000011921,6539.699999988079],"checkbox_events":[],"key_events":[],"mouse_events":[2970.800000011921,3965.199999988079,5432.800000011921,6539.699999988079,7246],"honeypot":0,"survey":"mace","page":3,"trial_type":"survey-mace","trial_index":11,"time_elapsed":427333,"internal_node_id":"0.0-11.0","task_version":"prescreen-v0.3","browser_interactions":0},{"responses":{"01":"No","02":"No"},"rt":6094.299999982119,"item_order":[0,1],"radio_events":[3033.5,5504.5999999940395],"checkbox_events":[],"key_events":[],"mouse_events":[3033.5,5504.5999999940395,6090.5],"honeypot":0,"survey":"mace","page":4,"trial_type":"survey-mace","trial_index":12,"time_elapsed":433432,"internal_node_id":"0.0-12.0","task_version":"prescreen-v0.3","browser_interactions":0},{"responses":{"01":"No","02":"No","03":"No","04":"No","05":"No"},"rt":16659.09999999404,"item_order":[0,1,2,3,4],"radio_events":[9437.799999982119,11106.399999976158,12598.5,14900.09999999404,15999],"checkbox_events":[],"key_events":[],"mouse_events":[9437.799999982119,11106.399999976158,12598.5,14900.09999999404,15999,16648.79999998212],"honeypot":0,"survey":"mace","page":5,"trial_type":"survey-mace","trial_index":13,"time_elapsed":450096,"internal_node_id":"0.0-13.0","task_version":"prescreen-v0.3","browser_interactions":0},{"responses":{"01":"No","02":"No","03":"Yes","03_ages_17":"17","03_ages_18":"18","04":"No","05":"No"},"rt":21666.30000001192,"item_order":[0,1,2,3,4],"radio_events":[7386,9592,11244,19369.80000001192,21100],"checkbox_events":[15303.90000000596,15801.300000011921],"key_events":[],"mouse_events":[7386,9592,11244,15303.90000000596,15801.300000011921,19369.80000001192,21100,21656.20000001788],"honeypot":0,"survey":"mace","page":6,"trial_type":"survey-mace","trial_index":14,"time_elapsed":471767,"internal_node_id":"0.0-14.0","task_version":"prescreen-v0.3","browser_interactions":0},{"responses":{"01":"No","02":"No","03":"No","04":"No","05":"No","06":"No","07":"No"},"rt":27627.59999999404,"item_order":[0,1,2,3,4,5,6],"radio_events":[4208.799999982119,19882.59999999404,22480.59999999404,23451.19999998808,24805.09999999404,26123,27028.29999998212],"checkbox_events":[],"key_events":[],"mouse_events":[4208.799999982119,19882.59999999404,22480.59999999404,23451.19999998808,24805.09999999404,26123,27028.29999998212,27615.09999999404],"honeypot":0,"survey":"mace","page":7,"trial_type":"survey-mace","trial_index":15,"time_elapsed":499401,"internal_node_id":"0.0-15.0","task_version":"prescreen-v0.3","browser_interactions":0},{"responses":{"01":"No","02":"No","03":"No","04":"No"},"rt":16557.69999998808,"item_order":[0,1,2,3],"radio_events":[10990.5,12313.199999988079,14463.699999988079,15898.40000000596],"checkbox_events":[],"key_events":[],"mouse_events":[10990.5,12313.199999988079,14463.699999988079,15898.40000000596,16549.09999999404],"honeypot":0,"survey":"mace","page":8,"trial_type":"survey-mace","trial_index":16,"time_elapsed":515962,"internal_node_id":"0.0-16.0","task_version":"prescreen-v0.3","browser_interactions":0},{"responses":{"01":"Yes","01_ages_1":"1","01_ages_2":"2","01_ages_3":"3","01_ages_4":"4","01_ages_5":"5","01_ages_6":"6","01_ages_7":"7","01_ages_8":"8","01_ages_9":"9","01_ages_10":"10","01_ages_11":"11","01_ages_12":"12","01_ages_13":"13","01_ages_14":"14","01_ages_15":"15","01_ages_16":"16","01_ages_17":"17","01_ages_18":"18","02":"Yes","02_ages_1":"1","02_ages_2":"2","02_ages_3":"3","02_ages_4":"4","02_ages_5":"5","02_ages_6":"6","02_ages_7":"7","02_ages_8":"8","02_ages_9":"9","02_ages_10":"10","02_ages_11":"11","02_ages_12":"12","02_ages_13":"13","02_ages_14":"14","02_ages_15":"15","02_ages_16":"16","02_ages_17":"17","02_ages_18":"18","03":"Yes","03_ages_1":"1","03_ages_2":"2","03_ages_3":"3","03_ages_4":"4","03_ages_5":"5","03_ages_6":"6","03_ages_7":"7","03_ages_8":"8","03_ages_9":"9","03_ages_10":"10","03_ages_11":"11","03_ages_12":"12","03_ages_13":"13","03_ages_14":"14","03_ages_15":"15","03_ages_16":"16","03_ages_17":"17","03_ages_18":"18","04":"Yes","04_ages_1":"1","04_ages_10":"10","04_ages_12":"12"},"rt":77695.5,"item_order":[0,1,2,3],"radio_events":[6490.0999999940395,22658.5,42989.5,60393.5],"checkbox_events":[9040.199999988079,9536.09999999404,10492.300000011921,11462.40000000596,12032,12577.90000000596,13154.5,14229.5,15319.40000000596,16170,16627.40000000596,17108.19999998808,17750.40000000596,18118.90000000596,19178.19999998808,19923.80000001192,20509.19999998808,21014.69999998808,27142.30000001192,27751.30000001192,28249.09999999404,28747.80000001192,29451.69999998808,30494.69999998808,31231.40000000596,31896.40000000596,32572.40000000596,33093,33774.30000001192,35339.40000000596,35899.80000001192,36782.40000000596,37255.59999999404,39035.80000001192,39764.30000001192,40518.59999999404,44265.30000001192,44906.59999999404,45467.80000001192,46166,46806.80000001192,47544.69999998808,48195.09999999404,48749.59999999404,49430.19999998808,50584.59999999404,51483.19999998808,52116.59999999404,52797.59999999404,53303.69999998808,54675.09999999404,55467.90000000596,56191.40000000596,56735.90000000596,68142.69999998808,74863.19999998808,76145.5],"key_events":[],"mouse_events":[6490.0999999940395,9040.199999988079,9536.09999999404,10492.300000011921,10868.800000011921,11462.40000000596,12032,12577.90000000596,13154.5,14229.5,15319.40000000596,16170,16627.40000000596,17108.19999998808,17750.40000000596,18118.90000000596,18704.90000000596,19178.19999998808,19546.59999999404,19923.80000001192,20509.19999998808,21014.69999998808,22658.5,25425.59999999404,27142.30000001192,27751.30000001192,28249.09999999404,28747.80000001192,29451.69999998808,30004.90000000596,30494.69999998808,31231.40000000596,31896.40000000596,32572.40000000596,33093,33774.30000001192,34486.5,34873.09999999404,35339.40000000596,35899.80000001192,36782.40000000596,37255.59999999404,37944.69999998808,38393.90000000596,39035.80000001192,39764.30000001192,40518.59999999404,42989.5,44265.30000001192,44906.59999999404,45467.80000001192,46166,46806.80000001192,47544.69999998808,48195.09999999404,48749.59999999404,49430.19999998808,50143.90000000596,50584.59999999404,51483.19999998808,52116.59999999404,52797.59999999404,53303.69999998808,54041.59999999404,54675.09999999404,55467.90000000596,56191.40000000596,56735.90000000596,60393.5,67565,68142.69999998808,74863.19999998808,76145.5,77686.19999998808],"honeypot":0,"survey":"mace","page":9,"trial_type":"survey-mace","trial_index":17,"time_elapsed":593659,"internal_node_id":"0.0-17.0","task_version":"prescreen-v0.3","browser_interactions":0},{"responses":{"01":"No","02":"No","03":"No","04":"No","05":"Yes","05_ages_15":"15","06":"Yes","06_ages_17":"17","07":"Yes","07_ages_1":"1","07_ages_2":"2","07_ages_3":"3","07_ages_4":"4","07_ages_5":"5","07_ages_6":"6","07_ages_7":"7","07_ages_8":"8","07_ages_9":"9","07_ages_10":"10","07_ages_11":"11","07_ages_12":"12","07_ages_13":"13","07_ages_14":"14","07_ages_15":"15","07_ages_16":"16","07_ages_17":"17","07_ages_18":"18","08":"Yes","08_ages_1":"1","08_ages_2":"2","08_ages_3":"3","08_ages_4":"4","08_ages_5":"5","08_ages_6":"6","08_ages_7":"7","08_ages_8":"8","08_ages_9":"9","08_ages_10":"10","08_ages_11":"11","08_ages_12":"12","08_ages_13":"13","08_ages_14":"14","08_ages_15":"15","08_ages_16":"16","08_ages_17":"17","08_ages_18":"18"},"rt":56762.19999998808,"item_order":[0,1,2,3,4,5,6,7],"radio_events":[3665.5,4682.699999988079,7217.899999976158,8629,11926,16769.69999998808,27769.79999998212,42650.09999999404],"checkbox_events":[14026.799999982119,18117,29063.79999998212,29568.59999999404,30049.399999976158,30619.79999998212,31782.79999998212,32280,32977.5,34229.39999997616,34701.59999999404,35327.39999997616,35961,36426,37605.19999998808,38174.89999997616,38936.29999998212,39489.79999998212,40139.59999999404,40612.19999998808,44237.69999998808,44710.79999998212,45384.29999998212,46812.59999999404,47919.5,48416.69999998808,49019,49642.09999999404,50119,50807.79999998212,51247,52498.19999998808,53020.09999999404,53829.5,54415.89999997616,55079.79999998212,55754.69999998808,56275.09999999404],"key_events":[],"mouse_events":[3665.5,4682.699999988079,7217.899999976158,8629,11926,14026.799999982119,16769.69999998808,18117,27769.79999998212,29063.79999998212,29568.59999999404,30049.399999976158,30619.79999998212,31229.29999998212,31782.79999998212,32280,32977.5,33602.69999998808,34229.39999997616,34701.59999999404,35327.39999997616,35961,36426,37075.79999998212,37605.19999998808,38174.89999997616,38936.29999998212,39489.79999998212,40139.59999999404,40612.19999998808,42650.09999999404,44237.69999998808,44710.79999998212,45384.29999998212,46026.39999997616,46812.59999999404,47260.29999998212,47919.5,48416.69999998808,49019,49642.09999999404,50119,50807.79999998212,51247,51944.19999998808,52498.19999998808,53020.09999999404,53829.5,54415.89999997616,55079.79999998212,55754.69999998808,56275.09999999404,56749],"honeypot":0,"survey":"mace","page":10,"trial_type":"survey-mace","trial_index":18,"time_elapsed":650426,"internal_node_id":"0.0-18.0","task_version":"prescreen-v0.3","browser_interactions":0,"instructed":0},{"rt":3244.9000000059605,"trial_type":"mental-health-alert","trial_index":19,"time_elapsed":653674,"internal_node_id":"0.0-19.0","task_version":"prescreen-v0.3","interactions":"[{\"event\":\"blur\",\"trial\":2,\"time\":24046},{\"event\":\"focus\",\"trial\":2,\"time\":43542},{\"event\":\"blur\",\"trial\":8,\"time\":348552},{\"event\":\"focus\",\"trial\":8,\"time\":355687},{\"event\":\"blur\",\"trial\":8,\"time\":359746},{\"event\":\"focus\",\"trial\":8,\"time\":385437}]"}]