[{"view_history":[{"page_index":0,"viewing_time":3769},{"page_index":1,"viewing_time":5233.300000011921},{"page_index":2,"viewing_time":4225.5},{"page_index":3,"viewing_time":1678.9000000357628}],"rt":14908.300000011921,"trial_type":"instructions","trial_index":0,"time_elapsed":14915,"internal_node_id":"0.0-0.0","task_version":"prescreen-v0.3"},{"rt":28072.099999964237,"responses":{"age":"46","gender-categorical":"Male","gender-free-response":"","ethnicity":"Not Hispanic or Latino","race":["White"],"education":"Some college","siblings":"4"},"trial_type":"survey-demo","trial_index":1,"time_elapsed":42995,"internal_node_id":"0.0-1.0","task_version":"prescreen-v0.3"},{"responses":{"Q19":"2","Q04":"2","Q13":"2","Q15":"3","Q03":"2","Q11":"2","Q18":"2","Q12":"3","Q14":"2","Q21":"3","Q05":"1","Q09":"2","Q10":"3","Q02":"2","Q17":"2","Q16":"1","Q01":"2","Q06":"0","Q08":"2","Q07":"1","Q20":"1"},"rt":112798.60000002384,"item_order":[18,3,12,14,2,10,17,11,13,20,4,8,9,1,16,15,0,5,7,6,19],"radio_events":[13519.199999988079,20794,25422.400000035763,30420.5,32737,36824.69999998808,41689.19999998808,47390,51332.60000002384,54149.30000001192,61707.19999998808,65842.60000002384,68576.69999998808,72129.60000002384,78948.90000003576,84421.40000003576,87979.10000002384,90306.80000001192,97863.19999998808,101534,107125.30000001192,109488.10000002384],"key_events":[],"mouse_events":[11509.5,13519.199999988079,20794,25422.400000035763,30420.5,32737,35325.90000003576,36824.69999998808,41689.19999998808,47390,51332.60000002384,54149.30000001192,61707.19999998808,65842.60000002384,68576.69999998808,72129.60000002384,78948.90000003576,84421.40000003576,87979.10000002384,90306.80000001192,96239.80000001192,97863.19999998808,101534,107125.30000001192,109488.10000002384,112794],"straightlining":0.5714285714285714,"zigzagging":0.55,"honeypot":0,"survey":"sns","trial_type":"survey-template","trial_index":2,"time_elapsed":155804,"internal_node_id":"0.0-2.0","task_version":"prescreen-v0.3","browser_interactions":0,"infrequency":0},{"responses":{"Q05":"2","Q03":"3","Q10":"1","Q01":"2","Q06":"2","Q08":"2","Q04":"2","Q09":"1","Q07":"2","Q12":"1","Q11":"1","Q13":"0","Q02":"3"},"rt":50113.90000003576,"item_order":[4,2,9,0,5,7,3,8,6,11,10,12,1],"radio_events":[4634.300000011921,10854.900000035763,14261.800000011921,17024.80000001192,20016.600000023842,21897.100000023842,24557.900000035763,29513.400000035763,31928.200000047684,38299.80000001192,43309.5,45503.10000002384,48856.700000047684],"key_events":[],"mouse_events":[4634.300000011921,10854.900000035763,14261.800000011921,17024.80000001192,18823.100000023842,20016.600000023842,21897.100000023842,24557.900000035763,29513.400000035763,31928.200000047684,34641.80000001192,38299.80000001192,43309.5,45503.10000002384,48856.700000047684,50112.30000001192],"straightlining":0.46153846153846156,"zigzagging":0.5833333333333334,"honeypot":0,"survey":"bisbas","trial_type":"survey-template","trial_index":3,"time_elapsed":205923,"internal_node_id":"0.0-3.0","task_version":"prescreen-v0.3","browser_interactions":0,"infrequency":0},{"responses":{"Q01":"1","Q02":"1","Q03":"2"},"rt":21333.69999998808,"radio_events":[6342,10141.699999988079,19902.19999998808],"key_events":[],"mouse_events":[6342,10141.699999988079,18852.100000023842,19902.19999998808,21332.5],"survey":"map","page":1,"trial_type":"survey-map","trial_index":4,"time_elapsed":227263,"internal_node_id":"0.0-4.0","task_version":"prescreen-v0.3","browser_interactions":0},{"responses":{"Q04":"2","Q05":"1","Q06":"1"},"rt":26838.69999998808,"radio_events":[5033.399999976158,7884.5,11674.599999964237,24454.5],"key_events":[],"mouse_events":[5033.399999976158,7884.5,11674.599999964237,24454.5,26837.5],"survey":"map","page":2,"trial_type":"survey-map","trial_index":5,"time_elapsed":254106,"internal_node_id":"0.0-5.0","task_version":"prescreen-v0.3","browser_interactions":0},{"responses":{"Q07":"2","Q08":"0","Q09":"1"},"rt":18453.400000035763,"radio_events":[6741,11047.100000023842,16386.5],"key_events":[],"mouse_events":[6741,11047.100000023842,16386.5,18452.30000001192],"survey":"map","page":3,"trial_type":"survey-map","trial_index":6,"time_elapsed":272563,"internal_node_id":"0.0-6.0","task_version":"prescreen-v0.3","browser_interactions":0},{"responses":{"Q10":"1","Q11":"1","Q12":"1","Q13":"0","Q16":"0","Q14":"1","Q15":"1"},"rt":39740.30000001192,"radio_events":[4384,9714.600000023842,15101.900000035763,17844.5,24943.69999998808,30156.80000001192,34094.69999998808,37333,38496.10000002384],"key_events":[],"mouse_events":[4384,9714.600000023842,13565.400000035763,15101.900000035763,17844.5,24943.69999998808,30156.80000001192,34094.69999998808,37333,38496.10000002384,39737.69999998808],"survey":"map","page":4,"trial_type":"survey-map","trial_index":7,"time_elapsed":312308,"internal_node_id":"0.0-7.0","task_version":"prescreen-v0.3","browser_interactions":0,"infrequency":0},{"view_history":[{"page_index":0,"viewing_time":2804.099999964237},{"page_index":1,"viewing_time":5243.600000023842}],"rt":8048.699999988079,"trial_type":"instructions","trial_index":8,"time_elapsed":320358,"internal_node_id":"0.0-8.0","task_version":"prescreen-v0.3"},{"responses":{"01":"No","02":"No","03":"No","04":"No","05":"No","06":"No"},"rt":35002.10000002384,"item_order":[0,1,2,3,4,5],"radio_events":[14274.800000011921,19763.80000001192,23411.30000001192,25207.5,27164.600000023842,33578.80000001192],"checkbox_events":[],"key_events":[],"mouse_events":[0.19999998807907104,14274.800000011921,19763.80000001192,23411.30000001192,25207.5,27164.600000023842,33578.80000001192,34999.30000001192],"honeypot":0,"survey":"mace","page":1,"trial_type":"survey-mace","trial_index":9,"time_elapsed":355366,"internal_node_id":"0.0-9.0","task_version":"prescreen-v0.3","browser_interactions":0},{"responses":{"01":"No","02":"No","03":"Yes","03_ages_5":"5","03_ages_6":"6","03_ages_7":"7","03_ages_8":"8","04":"No","05":"No","06":"No","07":"No","08":"No"},"rt":57417.30000001192,"item_order":[0,1,2,3,4,5,6,7],"radio_events":[3544.899999976158,8972.699999988079,11224.899999976158,37936.89999997616,42336.80000001192,44774.59999996424,46157.30000001192,48902.30000001192],"checkbox_events":[18426.80000001192,19386.599999964237,25383.80000001192,26263.69999998808,30430.399999976158,31295.099999964237,32220.099999964237,34327.5],"key_events":[],"mouse_events":[3544.899999976158,6853.699999988079,8972.699999988079,11224.899999976158,18426.80000001192,19386.599999964237,20313.30000001192,25383.80000001192,26263.69999998808,30430.399999976158,31295.099999964237,32220.099999964237,34327.5,37936.89999997616,42336.80000001192,44774.59999996424,46157.30000001192,48902.30000001192,57411.39999997616],"honeypot":0,"survey":"mace","page":2,"trial_type":"survey-mace","trial_index":10,"time_elapsed":412788,"internal_node_id":"0.0-10.0","task_version":"prescreen-v0.3","browser_interactions":0},{"responses":{"01":"No","02":"No","03":"No","04":"No"},"rt":10316.600000023842,"item_order":[0,1,2,3],"radio_events":[3790,5410.699999988079,7170.699999988079,9258.800000011921],"checkbox_events":[],"key_events":[],"mouse_events":[3790,5410.699999988079,7170.699999988079,9258.800000011921,10312.399999976158],"honeypot":0,"survey":"mace","page":3,"trial_type":"survey-mace","trial_index":11,"time_elapsed":423107,"internal_node_id":"0.0-11.0","task_version":"prescreen-v0.3","browser_interactions":0},{"responses":{"01":"Yes","01_ages_7":"7","02":"No"},"rt":43572,"item_order":[0,1],"radio_events":[11050.100000023842,12983.900000035763,34282.60000002384],"checkbox_events":[38227.60000002384],"key_events":[],"mouse_events":[11050.100000023842,12983.900000035763,34282.60000002384,38227.60000002384,43570.90000003576],"honeypot":0,"survey":"mace","page":4,"trial_type":"survey-mace","trial_index":12,"time_elapsed":466681,"internal_node_id":"0.0-12.0","task_version":"prescreen-v0.3","browser_interactions":0},{"responses":{"01":"No","02":"No","03":"No","04":"No","05":"No"},"rt":30076,"item_order":[0,1,2,3,4],"radio_events":[16948.099999964237,20103.299999952316,22799.399999976158,24410.399999976158,26591.19999998808],"checkbox_events":[],"key_events":[],"mouse_events":[16948.099999964237,20103.299999952316,22799.399999976158,24410.399999976158,26591.19999998808,30070.599999964237],"honeypot":0,"survey":"mace","page":5,"trial_type":"survey-mace","trial_index":13,"time_elapsed":496760,"internal_node_id":"0.0-13.0","task_version":"prescreen-v0.3","browser_interactions":0},{"responses":{"01":"Yes","01_ages_6":"6","01_ages_7":"7","01_ages_8":"8","01_ages_9":"9","01_ages_10":"10","01_ages_11":"11","01_ages_12":"12","01_ages_13":"13","01_ages_14":"14","01_ages_15":"15","01_ages_16":"16","01_ages_17":"17","01_ages_18":"18","02":"Yes","02_ages_6":"6","02_ages_7":"7","02_ages_8":"8","02_ages_9":"9","02_ages_10":"10","02_ages_11":"11","02_ages_12":"12","02_ages_13":"13","02_ages_14":"14","02_ages_15":"15","02_ages_16":"16","02_ages_17":"17","02_ages_18":"18","03":"No","04":"No","05":"Yes","05_ages_6":"6","05_ages_7":"7","05_ages_8":"8","05_ages_9":"9","05_ages_10":"10","05_ages_11":"11","05_ages_12":"12","05_ages_13":"13","05_ages_14":"14","05_ages_15":"15","05_ages_16":"16","05_ages_17":"17","05_ages_18":"18"},"rt":83118,"item_order":[0,1,2,3,4],"radio_events":[11116.900000035763,39351.10000002384,58041.40000003576,62774,65887.19999998808],"checkbox_events":[20528.5,22099.100000023842,22899.400000035763,24913,27131.69999998808,28173.100000023842,29116.30000001192,30098.400000035763,31025.5,31967.69999998808,32866.40000003576,33872.90000003576,34816.30000001192,41794.80000001192,43431.69999998808,44278.60000002384,45236.19999998808,46145.69999998808,47027.10000002384,47951.30000001192,48819.60000002384,49730.60000002384,50610.40000003576,51522.60000002384,52472.40000003576,53456.80000001192,67566.10000002384,70298,71183,71998.69999998808,72926,73790,74630.5,75503,76411.69999998808,77306.30000001192,78198,79078.69999998808,81342.60000002384],"key_events":[],"mouse_events":[11116.900000035763,20528.5,22099.100000023842,22899.400000035763,23826.30000001192,24913,25907,27131.69999998808,28173.100000023842,29116.30000001192,30098.400000035763,31025.5,31967.69999998808,32866.40000003576,33872.90000003576,34816.30000001192,39351.10000002384,40835.19999998808,41794.80000001192,42597,43431.69999998808,44278.60000002384,45236.19999998808,46145.69999998808,47027.10000002384,47951.30000001192,48819.60000002384,49730.60000002384,50610.40000003576,51522.60000002384,52472.40000003576,53456.80000001192,58041.40000003576,62774,65887.19999998808,67566.10000002384,70298,71183,71998.69999998808,72926,73790,74630.5,75503,76411.69999998808,77306.30000001192,78198,79078.69999998808,80287.69999998808,81342.60000002384,83115.60000002384],"honeypot":0,"survey":"mace","page":6,"trial_type":"survey-mace","trial_index":14,"time_elapsed":579884,"internal_node_id":"0.0-14.0","task_version":"prescreen-v0.3","browser_interactions":0},{"responses":{"01":"No","02":"No","03":"No","04":"No","05":"No","06":"Yes","06_ages_7":"7","07":"Yes","07_ages_7":"7"},"rt":60346.19999998808,"item_order":[0,1,2,3,4,5,6],"radio_events":[5918.300000011921,10668.300000011921,21994.19999998808,27789.69999998808,30741.900000035763,37088.40000003576,45721.40000003576,53722.5],"checkbox_events":[50108.5,56014.10000002384],"key_events":[],"mouse_events":[5918.300000011921,10668.300000011921,21994.19999998808,27789.69999998808,30741.900000035763,37088.40000003576,45721.40000003576,48632.69999998808,50108.5,53722.5,56014.10000002384,60341.90000003576],"honeypot":0,"survey":"mace","page":7,"trial_type":"survey-mace","trial_index":15,"time_elapsed":640233,"internal_node_id":"0.0-15.0","task_version":"prescreen-v0.3","browser_interactions":0},{"responses":{"01":"No","02":"No","03":"No","04":"No"},"rt":21058.5,"item_order":[0,1,2,3],"radio_events":[8266.699999988079,14287.800000011921,17546,19553.19999998808],"checkbox_events":[],"key_events":[],"mouse_events":[8266.699999988079,12544.899999976158,14287.800000011921,17546,19553.19999998808,21053.69999998808],"honeypot":0,"survey":"mace","page":8,"trial_type":"survey-mace","trial_index":16,"time_elapsed":661294,"internal_node_id":"0.0-16.0","task_version":"prescreen-v0.3","browser_interactions":0},{"responses":{"01":"Yes","01_ages_1":"1","01_ages_2":"2","01_ages_3":"3","01_ages_4":"4","01_ages_5":"5","01_ages_6":"6","01_ages_7":"7","01_ages_8":"8","01_ages_9":"9","01_ages_10":"10","01_ages_11":"11","01_ages_12":"12","01_ages_13":"13","01_ages_14":"14","01_ages_15":"15","01_ages_16":"16","01_ages_17":"17","01_ages_18":"18","02":"Yes","02_ages_1":"1","02_ages_2":"2","02_ages_3":"3","02_ages_4":"4","02_ages_5":"5","02_ages_6":"6","02_ages_7":"7","02_ages_8":"8","02_ages_9":"9","02_ages_10":"10","02_ages_11":"11","02_ages_12":"12","02_ages_13":"13","02_ages_14":"14","02_ages_15":"15","02_ages_16":"16","02_ages_17":"17","02_ages_18":"18","03":"Yes","03_ages_1":"1","03_ages_2":"2","03_ages_3":"3","03_ages_4":"4","03_ages_5":"5","03_ages_6":"6","03_ages_7":"7","03_ages_8":"8","03_ages_9":"9","03_ages_10":"10","03_ages_11":"11","03_ages_12":"12","03_ages_13":"13","03_ages_14":"14","03_ages_15":"15","03_ages_16":"16","03_ages_17":"17","03_ages_18":"18","04":"Yes","04_ages_1":"1","04_ages_2":"2","04_ages_3":"3","04_ages_4":"4","04_ages_5":"5","04_ages_6":"6","04_ages_7":"7","04_ages_8":"8","04_ages_9":"9","04_ages_10":"10","04_ages_11":"11","04_ages_12":"12","04_ages_13":"13","04_ages_14":"14","04_ages_15":"15","04_ages_16":"16","04_ages_17":"17","04_ages_18":"18"},"rt":100856.69999998808,"item_order":[0,1,2,3],"radio_events":[5407.399999976158,36608.5,56980.89999997616,81339.80000001192],"checkbox_events":[15179.699999988079,16191.099999964237,17496.099999964237,18238.19999998808,19026.399999976158,19815.899999976158,20571.899999976158,21347.19999998808,22104.899999976158,24346.30000001192,25324.30000001192,26354.69999998808,27319.19999998808,28298.899999976158,29226.19999998808,30935.19999998808,32293.899999976158,33476.80000001192,38165.5,39035.89999997616,39961.09999996424,40843.30000001192,41705.09999996424,42555,43389.39999997616,44254,45090.5,45968.5,46978.69999998808,47824,48736,49664.59999996424,50544.80000001192,51485.30000001192,52535.69999998808,53713.80000001192,58565.19999998808,59395.59999996424,60232.69999998808,61851.09999996424,62254.80000001192,63565.30000001192,64528.19999998808,65390.59999996424,66571.19999998808,67712,68590.69999998808,69427.5,70481.69999998808,71638.30000001192,72642.5,73683.89999997616,74685.19999998808,75655.09999996424,76697.39999997616,77780.30000001192,82667.39999997616,83512.69999998808,84361.89999997616,85177.09999996424,86024.80000001192,86834.09999996424,88620.19999998808,89483.09999996424,90385.59999996424,91318.19999998808,92202.59999996424,93085.30000001192,94002.09999996424,94840.39999997616,95710.80000001192,96717.89999997616,97876.59999996424,98907.5],"key_events":[],"mouse_events":[5407.399999976158,15179.699999988079,16191.099999964237,17496.099999964237,18238.19999998808,19026.399999976158,19815.899999976158,20571.899999976158,21347.19999998808,22104.899999976158,23210,24346.30000001192,25324.30000001192,26354.69999998808,27319.19999998808,28298.899999976158,29226.19999998808,30935.19999998808,32293.899999976158,33476.80000001192,36608.5,38165.5,39035.89999997616,39961.09999996424,40843.30000001192,41705.09999996424,42555,43389.39999997616,44254,45090.5,45968.5,46978.69999998808,47824,48736,49664.59999996424,50544.80000001192,51485.30000001192,52535.69999998808,53713.80000001192,56980.89999997616,58565.19999998808,59395.59999996424,60232.69999998808,61851.09999996424,62254.80000001192,63565.30000001192,64528.19999998808,65390.59999996424,66571.19999998808,67712,68590.69999998808,69427.5,70481.69999998808,71638.30000001192,72642.5,73683.89999997616,74685.19999998808,75655.09999996424,76697.39999997616,77780.30000001192,81339.80000001192,82667.39999997616,83512.69999998808,84361.89999997616,85177.09999996424,86024.80000001192,86834.09999996424,87744.09999996424,88620.19999998808,89483.09999996424,90385.59999996424,91318.19999998808,92202.59999996424,93085.30000001192,94002.09999996424,94840.39999997616,95710.80000001192,96717.89999997616,97876.59999996424,98907.5,100853.80000001192],"honeypot":0,"survey":"mace","page":9,"trial_type":"survey-mace","trial_index":17,"time_elapsed":762154,"internal_node_id":"0.0-17.0","task_version":"prescreen-v0.3","browser_interactions":0},{"responses":{"01":"No","02":"No","03":"No","04":"No","05":"No","06":"Yes","06_ages_17":"17","07":"Yes","07_ages_1":"1","07_ages_2":"2","07_ages_3":"3","07_ages_4":"4","07_ages_5":"5","07_ages_6":"6","07_ages_7":"7","07_ages_8":"8","07_ages_9":"9","07_ages_10":"10","07_ages_11":"11","07_ages_12":"12","07_ages_13":"13","07_ages_14":"14","07_ages_15":"15","07_ages_16":"16","07_ages_17":"17","07_ages_18":"18","08":"Yes","08_ages_1":"1","08_ages_2":"2","08_ages_3":"3","08_ages_4":"4","08_ages_5":"5","08_ages_6":"6","08_ages_7":"7","08_ages_8":"8","08_ages_9":"9","08_ages_10":"10","08_ages_11":"11","08_ages_12":"12","08_ages_13":"13","08_ages_14":"14","08_ages_15":"15","08_ages_16":"16","08_ages_17":"17","08_ages_18":"18"},"rt":69082.5,"item_order":[0,1,2,3,4,5,6,7],"radio_events":[6439.400000035763,7925.699999988079,9726.100000023842,12748.600000023842,16035,18515.100000023842,25422.80000001192,49837.69999998808],"checkbox_events":[20412.69999998808,29453.80000001192,30234.900000035763,31008.100000023842,32661.19999998808,33064.40000003576,34292.10000002384,35908.19999998808,36742.10000002384,37685.60000002384,38536.90000003576,39418.10000002384,40282.19999998808,41162,42013.19999998808,42863.30000001192,43709.69999998808,44641.19999998808,45675.90000003576,46590.90000003576,47547.69999998808,51380.60000002384,52230.5,53049.19999998808,53911.5,54775.10000002384,55651.10000002384,56560,57421.30000001192,58252.19999998808,59268.40000003576,60158,61425.5,62429.90000003576,63464.90000003576,64533.30000001192,65724.5,66687.30000001192,67595.90000003576],"key_events":[],"mouse_events":[6439.400000035763,7925.699999988079,9726.100000023842,12748.600000023842,16035,18515.100000023842,20412.69999998808,25422.80000001192,29453.80000001192,30234.900000035763,31008.100000023842,32661.19999998808,33064.40000003576,34292.10000002384,35908.19999998808,36742.10000002384,37685.60000002384,38536.90000003576,39418.10000002384,40282.19999998808,41162,42013.19999998808,42863.30000001192,43709.69999998808,44641.19999998808,45675.90000003576,46590.90000003576,47547.69999998808,49837.69999998808,51380.60000002384,52230.5,53049.19999998808,53911.5,54775.10000002384,55651.10000002384,56560,57421.30000001192,58252.19999998808,59268.40000003576,60158,61425.5,62429.90000003576,63464.90000003576,64533.30000001192,65724.5,66687.30000001192,67595.90000003576,69075.80000001192],"honeypot":0,"survey":"mace","page":10,"trial_type":"survey-mace","trial_index":18,"time_elapsed":831240,"internal_node_id":"0.0-18.0","task_version":"prescreen-v0.3","browser_interactions":0,"instructed":0},{"rt":10054,"trial_type":"mental-health-alert","trial_index":19,"time_elapsed":841296,"internal_node_id":"0.0-19.0","task_version":"prescreen-v0.3","interactions":"[]"}]