[{"view_history":[{"page_index":0,"viewing_time":1528.9000000357628},{"page_index":1,"viewing_time":4393.699999988079},{"page_index":2,"viewing_time":1577.5999999642372},{"page_index":3,"viewing_time":1376.4000000357628}],"rt":8877.100000023842,"trial_type":"instructions","trial_index":0,"time_elapsed":8882,"internal_node_id":"0.0-0.0","task_version":"prescreen-v0.3"},{"rt":15097.100000023842,"responses":{"age":"37","gender-categorical":"Female","gender-free-response":"","ethnicity":"Not Hispanic or Latino","race":["White"],"education":"Bachelor degree"},"trial_type":"survey-demo","trial_index":1,"time_elapsed":23983,"internal_node_id":"0.0-1.0","task_version":"prescreen-v0.3"},{"responses":{"Q11":"2","Q10":"1","Q15":"1","Q02":"1","Q18":"0","Q21":"3","Q09":"1","Q05":"2","Q04":"0","Q16":"0","Q01":"0","Q17":"1","Q03":"1","Q06":"0","Q12":"1","Q14":"0","Q20":"1","Q08":"1","Q19":"0","Q13":"0","Q07":"0"},"rt":145701.69999998808,"item_order":[10,9,14,1,17,20,8,4,3,15,0,16,2,5,11,13,19,7,18,12,6],"radio_events":[9218.300000011921,14610,20910,25256,29687.599999964237,35073.69999998808,40812,55212.5,64607.69999998808,68539.80000001192,72535.89999997616,76349.89999997616,80251.69999998808,88257.80000001192,93580.39999997616,98256.19999998808,101381.80000001192,106120.09999996424,112693.69999998808,119157.80000001192,123358,144535.80000001192],"key_events":[9218.300000011921,14610,20910,24616.899999976158,25256,29687.599999964237,33949.80000001192,35073.69999998808,38896.09999996424,39927.80000001192,40812,55212.5,64607.69999998808,68539.80000001192,72535.89999997616,75763.89999997616,76349.89999997616,80251.69999998808,87170.39999997616,87788.19999998808,88257.80000001192,93580.39999997616,98256.19999998808,101381.80000001192,106120.09999996424,112263.80000001192,112693.69999998808,118579.89999997616,119157.80000001192,122497.80000001192,123358,143668.19999998808,144535.80000001192,145700.19999998808],"mouse_events":[],"straightlining":0.42857142857142855,"zigzagging":0.5,"honeypot":0,"survey":"sns","trial_type":"survey-template","trial_index":2,"time_elapsed":169690,"internal_node_id":"0.0-2.0","task_version":"prescreen-v0.3","browser_interactions":0,"infrequency":0},{"responses":{"Q12":"2","Q06":"3","Q09":"3","Q08":"3","Q04":"2","Q02":"3","Q07":"3","Q10":"2","Q01":"2","Q05":"3","Q03":"2","Q13":"0","Q11":"2"},"rt":94619.19999998808,"item_order":[11,5,8,7,3,1,6,9,0,4,2,12,10],"radio_events":[19068.299999952316,23328.19999998808,25445.899999976158,28238.099999964237,33124.89999997616,63502.69999998808,65894.19999998808,70014.09999996424,74621,78098.29999995232,83900.29999995232,87644.59999996424,93664.09999996424],"key_events":[19068.299999952316,22836.19999998808,23328.19999998808,25445.899999976158,28238.099999964237,32027.899999976158,32780.09999996424,33124.89999997616,62876.09999996424,63502.69999998808,65894.19999998808,70014.09999996424,74072.19999998808,74621,78098.29999995232,83900.29999995232,86674.09999996424,87644.59999996424,93102.09999996424,93664.09999996424,94618.39999997616],"mouse_events":[],"straightlining":0.46153846153846156,"zigzagging":0.5,"honeypot":0,"survey":"bisbas","trial_type":"survey-template","trial_index":3,"time_elapsed":264313,"internal_node_id":"0.0-3.0","task_version":"prescreen-v0.3","browser_interactions":4,"infrequency":0},{"responses":{"Q01":"3","Q02":"4","Q03":"3"},"rt":17110.5,"radio_events":[5422.400000035763,10393.5,16459.600000023842],"key_events":[5422.400000035763,9995.400000035763,10393.5,15013.800000011921,15569.600000023842,16459.600000023842,17109.900000035763],"mouse_events":[],"survey":"map","page":1,"trial_type":"survey-map","trial_index":4,"time_elapsed":281426,"internal_node_id":"0.0-4.0","task_version":"prescreen-v0.3","browser_interactions":0},{"responses":{"Q04":"3","Q05":"3","Q06":"3"},"rt":14469,"radio_events":[7557,10862.699999988079,14006.399999976158],"key_events":[7041.299999952316,7557,10862.699999988079,14006.399999976158,14468.599999964237],"mouse_events":[],"survey":"map","page":2,"trial_type":"survey-map","trial_index":5,"time_elapsed":295898,"internal_node_id":"0.0-5.0","task_version":"prescreen-v0.3","browser_interactions":0},{"responses":{"Q07":"4","Q08":"0","Q09":"4"},"rt":26018.30000001192,"radio_events":[5462.300000011921,7972.5,20121.600000023842,25524],"key_events":[5462.300000011921,6376,7455.800000011921,7972.5,20121.600000023842,25524,26017.900000035763],"mouse_events":[],"survey":"map","page":3,"trial_type":"survey-map","trial_index":6,"time_elapsed":321918,"internal_node_id":"0.0-6.0","task_version":"prescreen-v0.3","browser_interactions":0},{"responses":{"Q10":"2","Q11":"2","Q12":"4","Q13":"4","Q16":"0","Q14":"3","Q15":"3"},"rt":38107.60000002384,"radio_events":[5891,8728.699999988079,13413.199999988079,23264.19999998808,31056.80000001192,34488.80000001192,37397.19999998808],"key_events":[5891,8728.699999988079,12770.899999976158,13413.199999988079,23264.19999998808,31056.80000001192,34488.80000001192,37397.19999998808,38106.89999997616],"mouse_events":[],"survey":"map","page":4,"trial_type":"survey-map","trial_index":7,"time_elapsed":360028,"internal_node_id":"0.0-7.0","task_version":"prescreen-v0.3","browser_interactions":0,"infrequency":0},{"view_history":[{"page_index":0,"viewing_time":3148.900000035763},{"page_index":1,"viewing_time":1741.7999999523163}],"rt":4891.199999988079,"trial_type":"instructions","trial_index":8,"time_elapsed":364921,"internal_node_id":"0.0-8.0","task_version":"prescreen-v0.3"},{"responses":{"01":"No","02":"No","03":"No","04":"No","05":"No","06":"No"},"rt":26757.5,"item_order":[0,1,2,3,4,5],"radio_events":[11199.5,15529.199999988079,18258.100000023842,20195.30000001192,22627,26301.100000023842],"checkbox_events":[],"key_events":[0.19999998807907104,11199.5,15529.199999988079,18258.100000023842,20195.30000001192,22143.400000035763,22627,26301.100000023842,26755.5],"mouse_events":[],"honeypot":0,"survey":"mace","page":1,"trial_type":"survey-mace","trial_index":9,"time_elapsed":391684,"internal_node_id":"0.0-9.0","task_version":"prescreen-v0.3","browser_interactions":0},{"responses":{"01":"No","02":"No","03":"Yes","03_ages_5":"5","03_ages_6":"6","03_ages_7":"7","03_ages_8":"8","04":"No","05":"No","06":"No","07":"No","08":"No"},"rt":29183,"item_order":[0,1,2,3,4,5,6,7],"radio_events":[5823,7550.5,9644.300000011921,20457.100000023842,22784.900000035763,25413.5,27968.400000035763,28585.5],"checkbox_events":[14687.199999988079,15196.199999988079,16546.900000035763,17742.30000001192],"key_events":[5182.699999988079,5823,7550.5,9644.300000011921,14687.199999988079,15196.199999988079,16546.900000035763,17431.19999998808,17742.30000001192,20457.100000023842,22784.900000035763,25413.5,26475,27968.400000035763,28585.5,29180.400000035763],"mouse_events":[],"honeypot":0,"survey":"mace","page":2,"trial_type":"survey-mace","trial_index":10,"time_elapsed":420873,"internal_node_id":"0.0-10.0","task_version":"prescreen-v0.3","browser_interactions":0},{"responses":{"01":"No","02":"No","03":"No","04":"No"},"rt":10484.5,"item_order":[0,1,2,3],"radio_events":[4957.800000011921,6527.099999964237,8505.399999976158,10028.899999976158],"checkbox_events":[],"key_events":[4957.800000011921,6527.099999964237,8505.399999976158,10028.899999976158,10483.099999964237],"mouse_events":[],"honeypot":0,"survey":"mace","page":3,"trial_type":"survey-mace","trial_index":11,"time_elapsed":431361,"internal_node_id":"0.0-11.0","task_version":"prescreen-v0.3","browser_interactions":0},{"responses":{"01":"No","02":"No"},"rt":5953.199999988079,"item_order":[0,1],"radio_events":[3699.899999976158,5154.5],"checkbox_events":[],"key_events":[3699.899999976158,5154.5,5952.399999976158],"mouse_events":[],"honeypot":0,"survey":"mace","page":4,"trial_type":"survey-mace","trial_index":12,"time_elapsed":437317,"internal_node_id":"0.0-12.0","task_version":"prescreen-v0.3","browser_interactions":0},{"responses":{"01":"No","02":"No","03":"No","04":"No","05":"No"},"rt":24642.5,"item_order":[0,1,2,3,4],"radio_events":[8210.099999964237,10827.800000011921,13211.599999964237,21576.30000001192,24124.19999998808],"checkbox_events":[],"key_events":[8210.099999964237,10827.800000011921,13211.599999964237,21576.30000001192,24124.19999998808,24640.80000001192],"mouse_events":[],"honeypot":0,"survey":"mace","page":5,"trial_type":"survey-mace","trial_index":13,"time_elapsed":461963,"internal_node_id":"0.0-13.0","task_version":"prescreen-v0.3","browser_interactions":0},{"responses":{"01":"Yes","01_ages_7":"7","01_ages_8":"8","01_ages_9":"9","02":"Yes","02_ages_7":"7","02_ages_8":"8","02_ages_9":"9","02_ages_10":"10","02_ages_11":"11","02_ages_12":"12","03":"Yes","03_ages_10":"10","03_ages_11":"11","03_ages_12":"12","03_ages_13":"13","03_ages_14":"14","04":"Yes","04_ages_7":"7","04_ages_8":"8","04_ages_9":"9","04_ages_10":"10","05":"No"},"rt":58923.90000003576,"item_order":[0,1,2,3,4],"radio_events":[19543.900000035763,29910.900000035763,41983.69999998808,50081.90000003576,58406.60000002384],"checkbox_events":[24742.19999998808,25109.80000001192,25945.69999998808,34084.80000001192,35334.19999998808,35904,36232,36989.60000002384,37639.69999998808,43569.69999998808,43929.80000001192,44282.5,45900.30000001192,46369.80000001192,51872.60000002384,52199.90000003576,52903.69999998808,53302.10000002384],"key_events":[19543.900000035763,24742.19999998808,25109.80000001192,25492.400000035763,25945.69999998808,29910.900000035763,34084.80000001192,34724,35028.10000002384,35334.19999998808,35904,36232,36591.69999998808,36989.60000002384,37302,37639.69999998808,41983.69999998808,43569.69999998808,43929.80000001192,44282.5,44618,45109.60000002384,45900.30000001192,46369.80000001192,50081.90000003576,50864,51457.69999998808,51872.60000002384,52199.90000003576,52903.69999998808,53302.10000002384,58406.60000002384,58922.19999998808],"mouse_events":[],"honeypot":0,"survey":"mace","page":6,"trial_type":"survey-mace","trial_index":14,"time_elapsed":520890,"internal_node_id":"0.0-14.0","task_version":"prescreen-v0.3","browser_interactions":0},{"responses":{"01":"No","02":"No","03":"No","04":"No","05":"No","06":"No","07":"No"},"rt":19970.400000035763,"item_order":[0,1,2,3,4,5,6],"radio_events":[7796.900000035763,10148.400000035763,14042.300000011921,15598.600000023842,16488.600000023842,18146.100000023842,19444.900000035763],"checkbox_events":[],"key_events":[7796.900000035763,10148.400000035763,14042.300000011921,15598.600000023842,16488.600000023842,18146.100000023842,19444.900000035763,19968.200000047684],"mouse_events":[],"honeypot":0,"survey":"mace","page":7,"trial_type":"survey-mace","trial_index":15,"time_elapsed":540865,"internal_node_id":"0.0-15.0","task_version":"prescreen-v0.3","browser_interactions":0},{"responses":{"01":"No","02":"No","03":"No","04":"No"},"rt":19543.399999976158,"item_order":[0,1,2,3],"radio_events":[9975.899999976158,12257.899999976158,15939.899999976158,19127.899999976158],"checkbox_events":[],"key_events":[9975.899999976158,12257.899999976158,15939.899999976158,19127.899999976158,19541.899999976158],"mouse_events":[],"honeypot":0,"survey":"mace","page":8,"trial_type":"survey-mace","trial_index":16,"time_elapsed":560411,"internal_node_id":"0.0-16.0","task_version":"prescreen-v0.3","browser_interactions":0},{"responses":{"01":"Yes","01_ages_1":"1","01_ages_2":"2","01_ages_3":"3","01_ages_4":"4","01_ages_5":"5","01_ages_6":"6","01_ages_7":"7","01_ages_8":"8","01_ages_9":"9","01_ages_10":"10","01_ages_11":"11","01_ages_12":"12","01_ages_13":"13","01_ages_14":"14","01_ages_15":"15","01_ages_16":"16","01_ages_17":"17","01_ages_18":"18","02":"Yes","02_ages_1":"1","02_ages_2":"2","02_ages_3":"3","02_ages_4":"4","02_ages_5":"5","02_ages_6":"6","02_ages_7":"7","02_ages_8":"8","02_ages_9":"9","02_ages_10":"10","02_ages_11":"11","02_ages_12":"12","02_ages_13":"13","02_ages_14":"14","02_ages_15":"15","02_ages_16":"16","02_ages_17":"17","02_ages_18":"18","03":"Yes","03_ages_1":"1","03_ages_2":"2","03_ages_3":"3","03_ages_4":"4","03_ages_5":"5","03_ages_6":"6","03_ages_7":"7","03_ages_8":"8","03_ages_9":"9","03_ages_10":"10","03_ages_11":"11","03_ages_12":"12","03_ages_13":"13","03_ages_14":"14","03_ages_15":"15","03_ages_16":"16","03_ages_17":"17","03_ages_18":"18","04":"Yes","04_ages_1":"1","04_ages_2":"2","04_ages_3":"3","04_ages_4":"4","04_ages_5":"5","04_ages_6":"6","04_ages_7":"7","04_ages_8":"8","04_ages_9":"9","04_ages_10":"10","04_ages_11":"11","04_ages_12":"12","04_ages_13":"13","04_ages_14":"14","04_ages_15":"15","04_ages_16":"16","04_ages_17":"17","04_ages_18":"18"},"rt":65063.700000047684,"item_order":[0,1,2,3],"radio_events":[4671.600000023842,21538.400000035763,37391.60000002384,49718.30000001192],"checkbox_events":[7219.900000035763,7547.700000047684,7908.200000047684,8252.5,8625.5,8961.700000047684,9289.5,10456.200000047684,11877.700000047684,12299.5,12931.900000035763,13316.800000011921,14041.700000047684,14667.600000023842,15605.700000047684,15996.200000047684,16621.600000023842,17060.200000047684,23141.80000001192,23453.900000035763,24351.700000047684,24711.600000023842,25353.600000023842,25743.80000001192,26587.700000047684,27197.900000035763,27885.80000001192,28573.5,28964,29332.400000035763,29745.600000023842,30199.700000047684,31161.5,31528,32161.5,32785.60000002384,39179.90000003576,40104,40876.40000003576,41791.700000047684,42190.200000047684,42652,43073.5,43869.60000002384,44613.700000047684,45307.700000047684,45683.700000047684,46059.700000047684,46433.60000002384,46786.60000002384,47154.60000002384,48005.80000001192,48505.40000003576,48896.10000002384,56931.80000001192,57283.90000003576,58527.60000002384,58949.60000002384,59348.10000002384,59785.5,60168,60543.90000003576,60903.700000047684,61247.60000002384,61607.60000002384,61974.90000003576,62341.700000047684,63177.60000002384,63513.80000001192,63857.60000002384,64225.5,64592.10000002384],"key_events":[3951.400000035763,4671.600000023842,7219.900000035763,7547.700000047684,7908.200000047684,8252.5,8625.5,8961.700000047684,9289.5,9641.900000035763,10141.5,10456.200000047684,11423.700000047684,11877.700000047684,12299.5,12931.900000035763,13316.800000011921,13716.300000011921,14041.700000047684,14379.800000011921,14667.600000023842,15302.400000035763,15605.700000047684,15996.200000047684,16621.600000023842,17060.200000047684,20091.900000035763,20718.700000047684,21241.5,21538.400000035763,23141.80000001192,23453.900000035763,23797.5,24351.700000047684,24711.600000023842,25063.700000047684,25353.600000023842,25743.80000001192,26135.600000023842,26587.700000047684,27197.900000035763,27885.80000001192,28573.5,28964,29332.400000035763,29745.600000023842,30199.700000047684,30599.100000023842,31161.5,31528,32161.5,32785.60000002384,37391.60000002384,39179.90000003576,40104,40876.40000003576,41791.700000047684,42190.200000047684,42652,43073.5,43472.700000047684,43869.60000002384,44347.5,44613.700000047684,45019.90000003576,45307.700000047684,45683.700000047684,46059.700000047684,46433.60000002384,46786.60000002384,47154.60000002384,47527.700000047684,48005.80000001192,48505.40000003576,48896.10000002384,49718.30000001192,56931.80000001192,57283.90000003576,57620.5,58042,58527.60000002384,58949.60000002384,59348.10000002384,59785.5,60168,60543.90000003576,60903.700000047684,61247.60000002384,61607.60000002384,61974.90000003576,62341.700000047684,62725.700000047684,63177.60000002384,63513.80000001192,63857.60000002384,64225.5,64592.10000002384,65062.30000001192],"mouse_events":[],"honeypot":0,"survey":"mace","page":9,"trial_type":"survey-mace","trial_index":17,"time_elapsed":625478,"internal_node_id":"0.0-17.0","task_version":"prescreen-v0.3","browser_interactions":0},{"responses":{"01":"No","02":"No","03":"No","04":"No","05":"No","06":"Yes","06_ages_17":"17","07":"Yes","07_ages_1":"1","07_ages_2":"2","07_ages_3":"3","07_ages_4":"4","07_ages_5":"5","07_ages_6":"6","07_ages_7":"7","07_ages_8":"8","07_ages_9":"9","07_ages_10":"10","07_ages_11":"11","07_ages_12":"12","07_ages_13":"13","07_ages_14":"14","07_ages_15":"15","07_ages_16":"16","07_ages_17":"17","07_ages_18":"18","08":"Yes","08_ages_1":"1","08_ages_2":"2","08_ages_3":"3","08_ages_4":"4","08_ages_5":"5","08_ages_6":"6","08_ages_7":"7","08_ages_8":"8","08_ages_9":"9","08_ages_10":"10","08_ages_11":"11","08_ages_12":"12","08_ages_13":"13","08_ages_14":"14","08_ages_15":"15","08_ages_16":"16","08_ages_17":"17","08_ages_18":"18"},"rt":59869.60000002384,"item_order":[0,1,2,3,4,5,6,7],"radio_events":[10674.200000047684,12675.300000011921,15904.5,18820.100000023842,21438.900000035763,25972.200000047684,30694.5,48658.10000002384],"checkbox_events":[27246.600000023842,34846.10000002384,35401,36870.60000002384,37550.200000047684,38418.200000047684,38956.40000003576,39316.200000047684,39668.30000001192,40450.10000002384,41262.5,41842.90000003576,42240.40000003576,42593.30000001192,42936.5,43718.200000047684,44094.40000003576,44828.40000003576,45078.10000002384,45554.200000047684,45968.30000001192,50017,50378.200000047684,50736.10000002384,51096.200000047684,51456.200000047684,51792.30000001192,52134.200000047684,52502.10000002384,53542,54504.200000047684,54902.10000002384,55700.60000002384,56068,56824.90000003576,57474.60000002384,57872.10000002384,58694.5,59100.30000001192],"key_events":[10674.200000047684,12675.300000011921,15318.300000011921,15904.5,18310.30000001192,18820.100000023842,21438.900000035763,25972.200000047684,27246.600000023842,30694.5,34846.10000002384,35401,35752.40000003576,36166.200000047684,36470.40000003576,36870.60000002384,37550.200000047684,37988.200000047684,38418.200000047684,38956.40000003576,39316.200000047684,39668.30000001192,40004.700000047684,40450.10000002384,40778.30000001192,41262.5,41842.90000003576,42240.40000003576,42593.30000001192,42936.5,43295.10000002384,43718.200000047684,44094.40000003576,44477.200000047684,44828.40000003576,45078.10000002384,45554.200000047684,45968.30000001192,48384.200000047684,48658.10000002384,50017,50378.200000047684,50736.10000002384,51096.200000047684,51456.200000047684,51792.30000001192,52134.200000047684,52502.10000002384,52846.30000001192,53542,53910.30000001192,54222.80000001192,54504.200000047684,54902.10000002384,55340.5,55700.60000002384,56068,56458.700000047684,56824.90000003576,57474.60000002384,57872.10000002384,58342.30000001192,58694.5,59100.30000001192,59867],"mouse_events":[],"honeypot":0,"survey":"mace","page":10,"trial_type":"survey-mace","trial_index":18,"time_elapsed":685352,"internal_node_id":"0.0-18.0","task_version":"prescreen-v0.3","browser_interactions":0,"instructed":0},{"rt":2713.199999988079,"trial_type":"mental-health-alert","trial_index":19,"time_elapsed":688067,"internal_node_id":"0.0-19.0","task_version":"prescreen-v0.3","interactions":"[{\"event\":\"blur\",\"trial\":3,\"time\":169966},{\"event\":\"focus\",\"trial\":3,\"time\":172765},{\"event\":\"blur\",\"trial\":3,\"time\":206617},{\"event\":\"focus\",\"trial\":3,\"time\":232453}]"}]