[{"view_history":[{"page_index":0,"viewing_time":4724},{"page_index":1,"viewing_time":9245},{"page_index":2,"viewing_time":3273},{"page_index":3,"viewing_time":1181}],"rt":18423,"trial_type":"instructions","trial_index":0,"time_elapsed":18426,"internal_node_id":"0.0-0.0","task_version":"prescreen-v0.3"},{"rt":14970,"responses":{"age":"28","gender-categorical":"Male","gender-free-response":"","ethnicity":"Not Hispanic or Latino","race":["White"],"education":"High school","siblings":"2"},"trial_type":"survey-demo","trial_index":1,"time_elapsed":33401,"internal_node_id":"0.0-1.0","task_version":"prescreen-v0.3"},{"responses":{"Q15":"3","Q05":"1","Q14":"2","Q12":"2","Q04":"3","Q07":"1","Q06":"0","Q16":"2","Q03":"3","Q01":"3","Q09":"2","Q17":"2","Q20":"0","Q02":"2","Q10":"2","Q11":"3","Q19":"1","Q08":"2","Q18":"2","Q21":"3","Q13":"2"},"rt":113233,"item_order":[14,4,13,11,3,6,5,15,2,0,8,16,19,1,9,10,18,7,17,20,12],"radio_events":[24920,32797,36234,39617,43898,49665,53368,64406,66265,68603,72253,78153,80319,84815,85830,89603,91342,96099,98399,104084,106920,112602],"key_events":[24920,32797,36234,39617,42469,43898,49665,53368,63018,64406,66265,68264,68603,72253,78153,80319,84815,85830,89603,91342,95663,96099,98399,104084,106920,112602,113233],"mouse_events":[],"straightlining":0.47619047619047616,"zigzagging":0.45,"honeypot":0,"survey":"sns","trial_type":"survey-template","trial_index":2,"time_elapsed":146638,"internal_node_id":"0.0-2.0","task_version":"prescreen-v0.3","browser_interactions":0,"infrequency":0},{"responses":{"Q04":"2","Q06":"3","Q01":"2","Q12":"1","Q02":"2","Q08":"2","Q07":"2","Q03":"2","Q10":"2","Q05":"2","Q09":"2","Q13":"0","Q11":"2"},"rt":71550,"item_order":[3,5,0,11,1,7,6,2,9,4,8,12,10],"radio_events":[6771,12451,14293,17750,20727,29862,32182,38843,54541,56881,61212,62900,65205,71023],"key_events":[6771,12451,14293,17750,20727,29862,32182,38843,54541,56881,61212,62900,65205,70660,71023,71550],"mouse_events":[],"straightlining":0.7692307692307693,"zigzagging":0.3333333333333333,"honeypot":0,"survey":"bisbas","trial_type":"survey-template","trial_index":3,"time_elapsed":218192,"internal_node_id":"0.0-3.0","task_version":"prescreen-v0.3","browser_interactions":0,"infrequency":0},{"responses":{"Q01":"1","Q02":"1","Q03":"2"},"rt":25678,"radio_events":[15635,21762,24978],"key_events":[15635,21762,24978,25677],"mouse_events":[],"survey":"map","page":1,"trial_type":"survey-map","trial_index":4,"time_elapsed":243872,"internal_node_id":"0.0-4.0","task_version":"prescreen-v0.3","browser_interactions":0},{"responses":{"Q04":"2","Q05":"3","Q06":"3"},"rt":21552,"radio_events":[8545,11852,21001],"key_events":[8545,11852,21001,21552],"mouse_events":[],"survey":"map","page":2,"trial_type":"survey-map","trial_index":5,"time_elapsed":265425,"internal_node_id":"0.0-5.0","task_version":"prescreen-v0.3","browser_interactions":0},{"responses":{"Q07":"2","Q08":"0","Q09":"0"},"rt":11691,"radio_events":[5836,9196,10934],"key_events":[5836,9196,10934,11691],"mouse_events":[],"survey":"map","page":3,"trial_type":"survey-map","trial_index":6,"time_elapsed":277117,"internal_node_id":"0.0-6.0","task_version":"prescreen-v0.3","browser_interactions":0},{"responses":{"Q10":"0","Q11":"0","Q12":"2","Q13":"1","Q16":"0","Q14":"3","Q15":"3"},"rt":35390,"radio_events":[8134,11029,15850,20978,22640,27126,31398,34737],"key_events":[8134,11029,15850,20978,22640,27126,31398,34737,35390],"mouse_events":[],"survey":"map","page":4,"trial_type":"survey-map","trial_index":7,"time_elapsed":312510,"internal_node_id":"0.0-7.0","task_version":"prescreen-v0.3","browser_interactions":0,"infrequency":0},{"view_history":[{"page_index":0,"viewing_time":7928},{"page_index":1,"viewing_time":4136}],"rt":12065,"trial_type":"instructions","trial_index":8,"time_elapsed":324575,"internal_node_id":"0.0-8.0","task_version":"prescreen-v0.3"},{"responses":{"01":"No","02":"No","03":"Yes","03_ages_13":"13","03_ages_14":"14","03_ages_15":"15","04":"No","05":"No","06":"No"},"rt":32501,"item_order":[0,1,2,3,4,5],"radio_events":[8869,14665,18748,21493,27251,28787,31569],"checkbox_events":[23531,24176,24506],"key_events":[0,8869,14665,18748,21493,23531,24176,24506,27251,28787,31569,32501],"mouse_events":[],"honeypot":0,"survey":"mace","page":1,"trial_type":"survey-mace","trial_index":9,"time_elapsed":357082,"internal_node_id":"0.0-9.0","task_version":"prescreen-v0.3","browser_interactions":0},{"responses":{"01":"No","02":"No","03":"No","04":"No","05":"No","06":"Yes","06_ages_12":"12","06_ages_13":"13","06_ages_14":"14","06_ages_15":"15","07":"Yes","07_ages_12":"12","07_ages_13":"13","07_ages_14":"14","07_ages_15":"15","08":"Yes","08_ages_12":"12","08_ages_13":"13","08_ages_14":"14","08_ages_15":"15"},"rt":51130,"item_order":[0,1,2,3,4,5,6,7],"radio_events":[2246,22468,24225,25803,27389,32271,40229,46641],"checkbox_events":[34698,35120,35468,38011,42284,42700,43115,44266,48104,48474,49381,49751],"key_events":[2246,22468,24225,25803,27389,32271,34698,35120,35468,38011,40229,42284,42700,43115,44266,46641,48104,48474,48774,49381,49751,51130],"mouse_events":[],"honeypot":0,"survey":"mace","page":2,"trial_type":"survey-mace","trial_index":10,"time_elapsed":408217,"internal_node_id":"0.0-10.0","task_version":"prescreen-v0.3","browser_interactions":0},{"responses":{"01":"No","02":"No","03":"No","04":"No"},"rt":12679,"item_order":[0,1,2,3],"radio_events":[7464,9141,11414,12244],"checkbox_events":[],"key_events":[7464,9141,11414,12244,12679],"mouse_events":[],"honeypot":0,"survey":"mace","page":3,"trial_type":"survey-mace","trial_index":11,"time_elapsed":420900,"internal_node_id":"0.0-11.0","task_version":"prescreen-v0.3","browser_interactions":0},{"responses":{"01":"No","02":"No"},"rt":12356,"item_order":[0,1],"radio_events":[8473,11956],"checkbox_events":[],"key_events":[8473,11956,12356],"mouse_events":[],"honeypot":0,"survey":"mace","page":4,"trial_type":"survey-mace","trial_index":12,"time_elapsed":433259,"internal_node_id":"0.0-12.0","task_version":"prescreen-v0.3","browser_interactions":0},{"responses":{"01":"No","02":"No","03":"No","04":"No","05":"No"},"rt":44793,"item_order":[0,1,2,3,4],"radio_events":[31975,35245,36781,43117,44118],"checkbox_events":[],"key_events":[31975,35245,36781,43117,44118,44793],"mouse_events":[],"honeypot":0,"survey":"mace","page":5,"trial_type":"survey-mace","trial_index":13,"time_elapsed":478056,"internal_node_id":"0.0-13.0","task_version":"prescreen-v0.3","browser_interactions":0},{"responses":{"01":"No","02":"Yes","02_ages_11":"11","02_ages_12":"12","03":"Yes","03_ages_12":"12","03_ages_13":"13","03_ages_14":"14","04":"No","05":"No"},"rt":22142,"item_order":[0,1,2,3,4],"radio_events":[5046,7654,13941,20861,21573],"checkbox_events":[8772,9054,15037,15440,16494],"key_events":[5046,7654,8772,9054,13941,15037,15440,16494,17320,20861,21573,22142],"mouse_events":[],"honeypot":0,"survey":"mace","page":6,"trial_type":"survey-mace","trial_index":14,"time_elapsed":500201,"internal_node_id":"0.0-14.0","task_version":"prescreen-v0.3","browser_interactions":0},{"responses":{"01":"No","02":"No","03":"No","04":"No","05":"No","06":"No","07":"No"},"rt":16061,"item_order":[0,1,2,3,4,5,6],"radio_events":[6309,8233,9589,10839,12818,13902,14822],"checkbox_events":[],"key_events":[6309,8233,9589,10839,12818,13902,14822,16061],"mouse_events":[],"honeypot":0,"survey":"mace","page":7,"trial_type":"survey-mace","trial_index":15,"time_elapsed":516267,"internal_node_id":"0.0-15.0","task_version":"prescreen-v0.3","browser_interactions":0},{"responses":{"01":"Yes","01_ages_14":"14","01_ages_15":"15","01_ages_16":"16","02":"Yes","02_ages_13":"13","02_ages_14":"14","02_ages_15":"15","02_ages_16":"16","02_ages_17":"17","02_ages_18":"18","03":"No","04":"No"},"rt":44981,"item_order":[0,1,2,3],"radio_events":[26118,31886,42028,44284],"checkbox_events":[27247,27534,28026,33143,33437,33757,34161,36399,37905],"key_events":[26118,27247,27534,28026,31886,33143,33437,33757,34161,36399,37905,42028,44284,44981],"mouse_events":[],"honeypot":0,"survey":"mace","page":8,"trial_type":"survey-mace","trial_index":16,"time_elapsed":561252,"internal_node_id":"0.0-16.0","task_version":"prescreen-v0.3","browser_interactions":0},{"responses":{"01":"Yes","01_ages_12":"12","01_ages_13":"13","01_ages_14":"14","01_ages_15":"15","01_ages_16":"16","01_ages_17":"17","01_ages_18":"18","02":"Yes","02_ages_12":"12","02_ages_13":"13","02_ages_14":"14","03":"Yes","03_ages_1":"1","03_ages_2":"2","03_ages_3":"3","03_ages_4":"4","03_ages_5":"5","03_ages_6":"6","03_ages_7":"7","03_ages_8":"8","03_ages_9":"9","03_ages_10":"10","03_ages_11":"11","03_ages_12":"12","03_ages_13":"13","03_ages_14":"14","03_ages_15":"15","03_ages_16":"16","03_ages_17":"17","03_ages_18":"18","04":"Yes","04_ages_1":"1","04_ages_2":"2","04_ages_3":"3","04_ages_4":"4","04_ages_5":"5","04_ages_6":"6","04_ages_7":"7","04_ages_8":"8","04_ages_9":"9","04_ages_10":"10","04_ages_11":"11","04_ages_12":"12","04_ages_13":"13","04_ages_14":"14","04_ages_15":"15","04_ages_16":"16","04_ages_17":"17","04_ages_18":"18"},"rt":51571,"item_order":[0,1,2,3],"radio_events":[6393,21382,26407,42099],"checkbox_events":[10233,10533,10789,11140,11661,11959,12303,22562,22842,23105,27449,27736,28042,28320,28605,29632,29910,30209,30948,32129,32452,33107,36674,37039,37395,37709,38497,38905,43353,43601,44470,44876,45217,45523,45796,46388,46701,47136,47436,47733,48237,48652,49390,50306,50702,51136],"key_events":[6393,10233,10533,10789,11140,11661,11959,12303,12847,21382,22562,22842,23105,26407,27449,27736,28042,28320,28605,28884,29341,29632,29910,30209,30501,30948,32129,32452,33107,36674,37039,37395,37709,38497,38905,42099,43353,43601,43921,44470,44876,45217,45523,45796,46104,46388,46701,47136,47436,47733,48237,48652,49098,49390,49787,50306,50702,51136,51571],"mouse_events":[],"honeypot":0,"survey":"mace","page":9,"trial_type":"survey-mace","trial_index":17,"time_elapsed":612829,"internal_node_id":"0.0-17.0","task_version":"prescreen-v0.3","browser_interactions":0},{"responses":{"01":"No","02":"Yes","02_ages_10":"10","02_ages_11":"11","02_ages_12":"12","02_ages_13":"13","02_ages_14":"14","03":"No","04":"Yes","04_ages_15":"15","04_ages_16":"16","04_ages_17":"17","04_ages_18":"18","05":"No","06":"Yes","06_ages_17":"17","07":"Yes","07_ages_10":"10","07_ages_11":"11","07_ages_12":"12","07_ages_13":"13","07_ages_14":"14","07_ages_15":"15","07_ages_16":"16","07_ages_17":"17","07_ages_18":"18","08":"Yes","08_ages_8":"8","08_ages_9":"9","08_ages_10":"10","08_ages_11":"11","08_ages_12":"12","08_ages_13":"13"},"rt":44293,"item_order":[0,1,2,3,4,5,6,7],"radio_events":[3854,5779,12736,16084,24912,25754,29402,38428],"checkbox_events":[7708,8493,8760,9323,9603,17215,17552,17869,18313,26730,30169,30452,30735,31034,31411,31972,33843,34188,34645,40365,40670,41011,41534,42155,43713],"key_events":[3854,5779,7708,8493,8760,9323,9603,12736,16084,17215,17552,17869,18313,24912,25754,26730,29402,30169,30452,30735,31034,31411,31707,31972,33843,34188,34645,38428,40365,40670,41011,41534,42155,43713,44293],"mouse_events":[],"honeypot":0,"survey":"mace","page":10,"trial_type":"survey-mace","trial_index":18,"time_elapsed":657128,"internal_node_id":"0.0-18.0","task_version":"prescreen-v0.3","browser_interactions":0,"instructed":0},{"rt":5522,"trial_type":"mental-health-alert","trial_index":19,"time_elapsed":662651,"internal_node_id":"0.0-19.0","task_version":"prescreen-v0.3","interactions":"[{\"event\":\"focus\",\"trial\":0,\"time\":0}]"}]