[{"view_history":[{"page_index":0,"viewing_time":2099.199999988079},{"page_index":1,"viewing_time":2666.100000023842},{"page_index":2,"viewing_time":3285.099999964237},{"page_index":3,"viewing_time":1024}],"rt":9075.5,"trial_type":"instructions","trial_index":0,"time_elapsed":9094,"internal_node_id":"0.0-0.0","task_version":"prescreen-v0.3"},{"rt":15090.599999964237,"responses":{"age":"29","gender-categorical":"Male","gender-free-response":"","ethnicity":"Not Hispanic or Latino","race":["White"],"education":"Bachelor degree","siblings":"7"},"trial_type":"survey-demo","trial_index":1,"time_elapsed":24192,"internal_node_id":"0.0-1.0","task_version":"prescreen-v0.3"},{"responses":{"Q12":"0","Q02":"0","Q21":"3","Q11":"1","Q18":"1","Q09":"1","Q19":"1","Q20":"1","Q16":"1","Q10":"0","Q08":"0","Q06":"0","Q03":"0","Q14":"0","Q15":"1","Q05":"0","Q07":"1","Q13":"1","Q04":"1","Q17":"1","Q01":"0"},"rt":88600.40000003576,"item_order":[11,1,20,10,17,8,18,19,15,9,7,5,2,13,14,4,6,12,3,16,0],"radio_events":[7946,12895.800000011921,14909.5,19735.80000001192,23359.19999998808,28015.400000035763,32706.900000035763,34778.30000001192,43138.69999998808,44092,47343.40000003576,49919.69999998808,52878,55049.40000003576,57828.10000002384,65399.60000002384,70113.69999998808,74704.30000001192,77223.5,82117,83736.90000003576,86066.10000002384,87843.5],"key_events":[],"mouse_events":[7946,11332.199999988079,12895.800000011921,14909.5,19735.80000001192,23359.19999998808,28015.400000035763,32706.900000035763,34778.30000001192,40367.90000003576,43138.69999998808,44092,47343.40000003576,49919.69999998808,52878,55049.40000003576,57828.10000002384,65399.60000002384,70113.69999998808,74704.30000001192,77223.5,82117,83736.90000003576,86066.10000002384,87843.5,88597.30000001192],"straightlining":0.5238095238095238,"zigzagging":0.3,"honeypot":0,"survey":"sns","trial_type":"survey-template","trial_index":2,"time_elapsed":112800,"internal_node_id":"0.0-2.0","task_version":"prescreen-v0.3","browser_interactions":0,"infrequency":0},{"responses":{"Q08":"2","Q07":"3","Q04":"2","Q02":"2","Q06":"2","Q01":"2","Q12":"3","Q11":"2","Q10":"3","Q09":"3","Q03":"2","Q05":"3","Q13":"0"},"rt":44002.60000002384,"item_order":[7,6,3,1,5,0,11,10,9,8,2,4,12],"radio_events":[4389.199999988079,7190.800000011921,13098,19025.899999976158,21073.19999998808,22659.399999976158,26473.5,28645,30680,33290.39999997616,37374.5,40085.30000001192,42031.80000001192],"key_events":[],"mouse_events":[4389.199999988079,7190.800000011921,13098,19025.899999976158,21073.19999998808,22659.399999976158,26473.5,28645,30680,33290.39999997616,37374.5,40085.30000001192,42031.80000001192,44000.80000001192],"straightlining":0.5384615384615384,"zigzagging":0.6666666666666666,"honeypot":0,"survey":"bisbas","trial_type":"survey-template","trial_index":3,"time_elapsed":156807,"internal_node_id":"0.0-3.0","task_version":"prescreen-v0.3","browser_interactions":0,"infrequency":0},{"responses":{"Q01":"3","Q02":"3","Q03":"4"},"rt":13023.5,"radio_events":[6667,9017.100000023842,12358.900000035763],"key_events":[],"mouse_events":[6667,9017.100000023842,12358.900000035763,13022.600000023842],"survey":"map","page":1,"trial_type":"survey-map","trial_index":4,"time_elapsed":169834,"internal_node_id":"0.0-4.0","task_version":"prescreen-v0.3","browser_interactions":0},{"responses":{"Q04":"3","Q05":"3","Q06":"2"},"rt":14508.900000035763,"radio_events":[5541.5,10142.5,13135.400000035763],"key_events":[],"mouse_events":[5541.5,10142.5,13135.400000035763,14508.100000023842],"survey":"map","page":2,"trial_type":"survey-map","trial_index":5,"time_elapsed":184346,"internal_node_id":"0.0-5.0","task_version":"prescreen-v0.3","browser_interactions":0},{"responses":{"Q07":"4","Q08":"4","Q09":"2"},"rt":12259,"radio_events":[6454,9006.800000011921,11167],"key_events":[],"mouse_events":[6454,9006.800000011921,11167,12258.300000011921],"survey":"map","page":3,"trial_type":"survey-map","trial_index":6,"time_elapsed":196608,"internal_node_id":"0.0-6.0","task_version":"prescreen-v0.3","browser_interactions":0},{"responses":{"Q10":"3","Q11":"2","Q12":"1","Q13":"1","Q16":"0","Q14":"2","Q15":"2"},"rt":25702.80000001192,"radio_events":[4236.200000047684,6802.5,9680.600000023842,14867.300000011921,18118.600000023842,21043.5,24744.600000023842],"key_events":[],"mouse_events":[4236.200000047684,6802.5,9680.600000023842,14867.300000011921,17094.80000001192,18118.600000023842,21043.5,24744.600000023842,25701.30000001192],"survey":"map","page":4,"trial_type":"survey-map","trial_index":7,"time_elapsed":222316,"internal_node_id":"0.0-7.0","task_version":"prescreen-v0.3","browser_interactions":0,"infrequency":0},{"view_history":[{"page_index":0,"viewing_time":1840.5},{"page_index":1,"viewing_time":4162.199999988079}],"rt":6003.799999952316,"trial_type":"instructions","trial_index":8,"time_elapsed":228322,"internal_node_id":"0.0-8.0","task_version":"prescreen-v0.3"},{"responses":{"01":"No","02":"No","03":"No","04":"No","05":"No","06":"No"},"rt":23541.900000035763,"item_order":[0,1,2,3,4,5],"radio_events":[7763,11972.5,14570.200000047684,17448.700000047684,18698.400000035763,19935.600000023842,21127.600000023842],"checkbox_events":[],"key_events":[],"mouse_events":[0.20000004768371582,7763,11972.5,14570.200000047684,17448.700000047684,18698.400000035763,19935.600000023842,21127.600000023842,23537.400000035763],"honeypot":0,"survey":"mace","page":1,"trial_type":"survey-mace","trial_index":9,"time_elapsed":251876,"internal_node_id":"0.0-9.0","task_version":"prescreen-v0.3","browser_interactions":0},{"responses":{"01":"No","02":"No","03":"No","04":"No","05":"No","06":"No","07":"No","08":"No"},"rt":14052.600000023842,"item_order":[0,1,2,3,4,5,6,7],"radio_events":[2337,3877.199999988079,5114.900000035763,7420.900000035763,9086.199999988079,10695,12348.900000035763,13338.300000011921],"checkbox_events":[],"key_events":[],"mouse_events":[2337,3877.199999988079,5114.900000035763,7420.900000035763,9086.199999988079,10695,12348.900000035763,13338.300000011921,14047.400000035763],"honeypot":0,"survey":"mace","page":2,"trial_type":"survey-mace","trial_index":10,"time_elapsed":265937,"internal_node_id":"0.0-10.0","task_version":"prescreen-v0.3","browser_interactions":0},{"responses":{"01":"No","02":"No","03":"No","04":"No"},"rt":8499.300000011921,"item_order":[0,1,2,3],"radio_events":[2477.5,4368.800000011921,6212.800000011921,7496.300000011921],"checkbox_events":[],"key_events":[],"mouse_events":[2477.5,4368.800000011921,6212.800000011921,7496.300000011921,8496.399999976158],"honeypot":0,"survey":"mace","page":3,"trial_type":"survey-mace","trial_index":11,"time_elapsed":274439,"internal_node_id":"0.0-11.0","task_version":"prescreen-v0.3","browser_interactions":0},{"responses":{"01":"No","02":"No"},"rt":4133.299999952316,"item_order":[0,1],"radio_events":[2400.2999999523163,3367.699999988079],"checkbox_events":[],"key_events":[],"mouse_events":[2400.2999999523163,3367.699999988079,4132.5],"honeypot":0,"survey":"mace","page":4,"trial_type":"survey-mace","trial_index":12,"time_elapsed":278576,"internal_node_id":"0.0-12.0","task_version":"prescreen-v0.3","browser_interactions":0},{"responses":{"01":"No","02":"No","03":"No","04":"No","05":"No"},"rt":14872.400000035763,"item_order":[0,1,2,3,4],"radio_events":[6239.100000023842,8759.100000023842,10975.900000035763,13056.800000011921,14237.900000035763],"checkbox_events":[],"key_events":[],"mouse_events":[6239.100000023842,8759.100000023842,10975.900000035763,13056.800000011921,14237.900000035763,14868.5],"honeypot":0,"survey":"mace","page":5,"trial_type":"survey-mace","trial_index":13,"time_elapsed":293453,"internal_node_id":"0.0-13.0","task_version":"prescreen-v0.3","browser_interactions":0},{"responses":{"01":"No","02":"Yes","02_ages_6":"6","02_ages_7":"7","02_ages_8":"8","03":"No","04":"Yes","04_ages_6":"6","04_ages_7":"7","04_ages_8":"8","05":"No"},"rt":26674.5,"item_order":[0,1,2,3,4],"radio_events":[5768.900000035763,10695.800000011921,18784.900000035763,20663.30000001192,25928.69999998808],"checkbox_events":[14611.400000035763,15173.699999988079,16062.300000011921,22744.5,23419.100000023842,23903.69999998808],"key_events":[],"mouse_events":[5768.900000035763,10695.800000011921,14611.400000035763,15173.699999988079,16062.300000011921,18784.900000035763,20663.30000001192,22744.5,23419.100000023842,23903.69999998808,25928.69999998808,26671],"honeypot":0,"survey":"mace","page":6,"trial_type":"survey-mace","trial_index":14,"time_elapsed":320138,"internal_node_id":"0.0-14.0","task_version":"prescreen-v0.3","browser_interactions":0},{"responses":{"01":"No","02":"No","03":"No","04":"No","05":"No","06":"No","07":"No"},"rt":13460.100000023842,"item_order":[0,1,2,3,4,5,6],"radio_events":[4037.600000023842,6501.399999976158,8053.800000011921,9325.100000023842,11417.600000023842,12271.899999976158,12936],"checkbox_events":[],"key_events":[],"mouse_events":[4037.600000023842,5590.100000023842,6501.399999976158,8053.800000011921,9325.100000023842,11417.600000023842,12271.899999976158,12936,13453.899999976158],"honeypot":0,"survey":"mace","page":7,"trial_type":"survey-mace","trial_index":15,"time_elapsed":333608,"internal_node_id":"0.0-15.0","task_version":"prescreen-v0.3","browser_interactions":0},{"responses":{"01":"No","02":"No","03":"No","04":"No"},"rt":16212,"item_order":[0,1,2,3],"radio_events":[9684.100000023842,11708.600000023842,13688.5,15647.399999976158],"checkbox_events":[],"key_events":[],"mouse_events":[9684.100000023842,11708.600000023842,13688.5,15647.399999976158,16209],"honeypot":0,"survey":"mace","page":8,"trial_type":"survey-mace","trial_index":16,"time_elapsed":349826,"internal_node_id":"0.0-16.0","task_version":"prescreen-v0.3","browser_interactions":0},{"responses":{"01":"Yes","01_ages_1":"1","01_ages_2":"2","01_ages_3":"3","01_ages_4":"4","01_ages_5":"5","01_ages_6":"6","01_ages_7":"7","01_ages_8":"8","01_ages_9":"9","01_ages_10":"10","01_ages_11":"11","01_ages_12":"12","01_ages_13":"13","01_ages_14":"14","01_ages_15":"15","01_ages_16":"16","01_ages_17":"17","01_ages_18":"18","02":"Yes","02_ages_1":"1","02_ages_2":"2","02_ages_3":"3","02_ages_4":"4","02_ages_5":"5","02_ages_6":"6","02_ages_7":"7","02_ages_8":"8","02_ages_9":"9","02_ages_10":"10","02_ages_11":"11","02_ages_12":"12","02_ages_13":"13","02_ages_14":"14","02_ages_15":"15","02_ages_16":"16","02_ages_17":"17","02_ages_18":"18","03":"Yes","03_ages_1":"1","03_ages_2":"2","03_ages_3":"3","03_ages_4":"4","03_ages_5":"5","03_ages_6":"6","03_ages_7":"7","03_ages_8":"8","03_ages_9":"9","03_ages_10":"10","03_ages_11":"11","03_ages_12":"12","03_ages_13":"13","03_ages_14":"14","03_ages_15":"15","03_ages_16":"16","03_ages_17":"17","03_ages_18":"18","04":"Yes","04_ages_1":"1","04_ages_2":"2","04_ages_3":"3","04_ages_4":"4","04_ages_5":"5","04_ages_6":"6","04_ages_7":"7","04_ages_8":"8","04_ages_9":"9","04_ages_10":"10","04_ages_11":"11","04_ages_12":"12","04_ages_13":"13","04_ages_14":"14","04_ages_15":"15","04_ages_16":"16","04_ages_17":"17","04_ages_18":"18"},"rt":69035.10000002384,"item_order":[0,1,2,3],"radio_events":[5727.5,24472,37216.700000047684,57545.60000002384],"checkbox_events":[11127.400000035763,11657.100000023842,12500.900000035763,13085.800000011921,14446.900000035763,15133,15594,16192.900000035763,16630.400000035763,17461.80000001192,18001.5,18856.700000047684,19351.700000047684,19936.80000001192,20499.400000035763,21095.700000047684,21601.80000001192,22344,25359.700000047684,25786.900000035763,26922.900000035763,27373.200000047684,28295.600000023842,29139,29825.700000047684,30264.700000047684,30849.400000035763,31310.600000023842,31840.400000035763,32741,33245.80000001192,33752.5,34258,34708.30000001192,35215.40000003576,35720.700000047684,38364.5,38780.10000002384,39522.80000001192,41007.700000047684,41469.30000001192,41908.40000003576,42493.90000003576,42977,43698.90000003576,44484.40000003576,45238.30000001192,45969.80000001192,46711.90000003576,47409.5,48050.30000001192,48613.200000047684,49221.5,49929.5,58457.10000002384,59064.30000001192,59526.30000001192,60009.60000002384,60448.10000002384,60875.30000001192,61359.5,61933,62641.80000001192,63339.40000003576,63957.90000003576,65015,65600.5,66298,66793.10000002384,67547.20000004768,68131.60000002384,68570],"key_events":[],"mouse_events":[4783,5727.5,11127.400000035763,11657.100000023842,12500.900000035763,13085.800000011921,14446.900000035763,15133,15594,16192.900000035763,16630.400000035763,17461.80000001192,18001.5,18856.700000047684,19351.700000047684,19936.80000001192,20499.400000035763,21095.700000047684,21601.80000001192,22344,24472,25359.700000047684,25786.900000035763,26304.30000001192,26922.900000035763,27373.200000047684,28295.600000023842,29139,29825.700000047684,30264.700000047684,30849.400000035763,31310.600000023842,31840.400000035763,32741,33245.80000001192,33752.5,34258,34708.30000001192,35215.40000003576,35720.700000047684,37216.700000047684,38364.5,38780.10000002384,39522.80000001192,41007.700000047684,41469.30000001192,41908.40000003576,42493.90000003576,42977,43698.90000003576,44113.10000002384,44484.40000003576,45238.30000001192,45969.80000001192,46711.90000003576,47409.5,48050.30000001192,48613.200000047684,49221.5,49929.5,55239,56983,57545.60000002384,58457.10000002384,59064.30000001192,59526.30000001192,60009.60000002384,60448.10000002384,60875.30000001192,61359.5,61933,62641.80000001192,63339.40000003576,63957.90000003576,64498.5,65015,65600.5,66298,66793.10000002384,67547.20000004768,68131.60000002384,68570,69032.20000004768],"honeypot":0,"survey":"mace","page":9,"trial_type":"survey-mace","trial_index":17,"time_elapsed":418867,"internal_node_id":"0.0-17.0","task_version":"prescreen-v0.3","browser_interactions":0},{"responses":{"01":"No","02":"No","03":"No","04":"Yes","04_ages_7":"7","04_ages_8":"8","04_ages_9":"9","04_ages_10":"10","04_ages_11":"11","04_ages_12":"12","05":"No","06":"Yes","06_ages_17":"17","07":"Yes","07_ages_1":"1","07_ages_2":"2","07_ages_3":"3","07_ages_4":"4","07_ages_5":"5","07_ages_6":"6","07_ages_7":"7","07_ages_8":"8","07_ages_9":"9","07_ages_10":"10","07_ages_11":"11","07_ages_12":"12","07_ages_13":"13","07_ages_14":"14","07_ages_15":"15","07_ages_16":"16","07_ages_17":"17","07_ages_18":"18","08":"Yes","08_ages_1":"1","08_ages_2":"2","08_ages_3":"3","08_ages_4":"4","08_ages_5":"5","08_ages_6":"6","08_ages_7":"7","08_ages_8":"8","08_ages_9":"9","08_ages_10":"10","08_ages_11":"11","08_ages_12":"12","08_ages_13":"13","08_ages_14":"14","08_ages_15":"15","08_ages_16":"16","08_ages_17":"17","08_ages_18":"18"},"rt":49093.09999996424,"item_order":[0,1,2,3,4,5,6,7],"radio_events":[3253.699999988079,5335.599999964237,6989.299999952316,9936.899999976158,17295.599999964237,18576.69999998808,22660.5,36441.69999998808],"checkbox_events":[11432.899999976158,12278,12895.699999988079,13435.799999952316,13851.599999964237,14346.599999964237,20027.899999976158,23774.099999964237,25146.899999976158,25574.099999964237,26159.299999952316,26631.799999952316,27554.19999998808,28173.099999964237,28938.5,29500,30029.899999976158,30534.899999976158,31122.299999952316,31761.5,32661.69999998808,33201.59999996424,33741.299999952316,34463,35069.19999998808,37713.39999997616,38411.59999996424,38984.19999998808,39458.69999998808,40131.59999996424,40660.39999997616,41154.799999952316,41650.69999998808,42145.5,42855.69999998808,43551.299999952316,44542.799999952316,45126.69999998808,45712.39999997616,46309.5,46735.69999998808,47827.59999996424,48412.69999998808],"key_events":[],"mouse_events":[2466.599999964237,3253.699999988079,5335.599999964237,6989.299999952316,9936.899999976158,11432.899999976158,11838.5,12278,12895.699999988079,13435.799999952316,13851.599999964237,14346.599999964237,17295.599999964237,18576.69999998808,20027.899999976158,22660.5,23774.099999964237,24404.399999976158,25146.899999976158,25574.099999964237,26159.299999952316,26631.799999952316,27554.19999998808,28173.099999964237,28938.5,29500,30029.899999976158,30534.899999976158,31122.299999952316,31761.5,32661.69999998808,33201.59999996424,33741.299999952316,34463,35069.19999998808,36441.69999998808,37713.39999997616,38411.59999996424,38984.19999998808,39458.69999998808,40131.59999996424,40660.39999997616,41154.799999952316,41650.69999998808,42145.5,42855.69999998808,43551.299999952316,44104.39999997616,44542.799999952316,45126.69999998808,45712.39999997616,46309.5,46735.69999998808,47827.59999996424,48412.69999998808,49087.59999996424],"honeypot":0,"survey":"mace","page":10,"trial_type":"survey-mace","trial_index":18,"time_elapsed":467967,"internal_node_id":"0.0-18.0","task_version":"prescreen-v0.3","browser_interactions":0,"instructed":0},{"rt":7437.400000035763,"trial_type":"mental-health-alert","trial_index":19,"time_elapsed":475407,"internal_node_id":"0.0-19.0","task_version":"prescreen-v0.3","interactions":"[]"}]