[{"view_history":[{"page_index":0,"viewing_time":7813.600000023842},{"page_index":1,"viewing_time":11096},{"page_index":2,"viewing_time":7193.399999976158},{"page_index":3,"viewing_time":3559.900000035763}],"rt":29666.600000023842,"trial_type":"instructions","trial_index":0,"time_elapsed":29695,"internal_node_id":"0.0-0.0","task_version":"prescreen-v0.3"},{"rt":29057,"responses":{"age":"45","gender-categorical":"Male","gender-free-response":"","ethnicity":"Not Hispanic or Latino","race":["Rather not say"],"education":"Bachelor degree","siblings":"3"},"trial_type":"survey-demo","trial_index":1,"time_elapsed":58776,"internal_node_id":"0.0-1.0","task_version":"prescreen-v0.3"},{"responses":{"Q09":"3","Q21":"3","Q10":"0","Q14":"0","Q07":"3","Q04":"0","Q19":"0","Q03":"0","Q12":"0","Q20":"0","Q08":"0","Q06":"0","Q05":"0","Q01":"0","Q13":"0","Q16":"0","Q18":"0","Q15":"0","Q11":"0","Q02":"0","Q17":"0"},"rt":157144.80000001192,"item_order":[8,20,9,13,6,3,18,2,11,19,7,5,4,0,12,15,17,14,10,1,16],"radio_events":[22539.30000001192,27069.899999976158,34977,41865.89999997616,53526.80000001192,60639.59999996424,68411.09999996424,82485.69999998808,88621.69999998808,92126.5,96481.19999998808,101679.69999998808,106802.09999996424,110091.09999996424,111050.80000001192,111870.39999997616,112132.89999997616,112532,123098.30000001192,131017,135467.30000001192,139555.19999998808,145061.59999996424,150191.80000001192,154276.69999998808],"key_events":[111050.80000001192,111870.39999997616,112132.89999997616,112532],"mouse_events":[22539.30000001192,27069.899999976158,34977,41865.89999997616,53526.80000001192,60639.59999996424,68411.09999996424,69820.89999997616,82485.69999998808,88621.69999998808,92126.5,96481.19999998808,101679.69999998808,106802.09999996424,110091.09999996424,114186.09999996424,123098.30000001192,131017,135467.30000001192,139555.19999998808,145061.59999996424,150191.80000001192,154276.69999998808,157106.80000001192],"straightlining":0.8571428571428571,"zigzagging":0.15,"honeypot":0,"survey":"sns","trial_type":"survey-template","trial_index":2,"time_elapsed":215951,"internal_node_id":"0.0-2.0","task_version":"prescreen-v0.3","browser_interactions":0,"infrequency":0},{"responses":{"Q04":"0","Q13":"0","Q01":"0","Q12":"0","Q02":"0","Q08":"3","Q06":"3","Q07":"3","Q09":"3","Q05":"3","Q03":"0","Q11":"3","Q10":"3"},"rt":117615.10000002384,"item_order":[3,12,0,11,1,7,5,6,8,4,2,10,9],"radio_events":[12688.699999988079,17399.400000035763,21102.100000023842,26297,29417.400000035763,39320.90000003576,43450.10000002384,55720,62186.80000001192,65577,106264.40000003576,112654.69999998808,116456.19999998808],"key_events":[],"mouse_events":[12688.699999988079,17399.400000035763,21102.100000023842,26297,29417.400000035763,39320.90000003576,43450.10000002384,54489.10000002384,55720,62186.80000001192,65577,106264.40000003576,112654.69999998808,116456.19999998808,117586.19999998808],"straightlining":0.5384615384615384,"zigzagging":0.25,"honeypot":0,"survey":"bisbas","trial_type":"survey-template","trial_index":3,"time_elapsed":333591,"internal_node_id":"0.0-3.0","task_version":"prescreen-v0.3","browser_interactions":0,"infrequency":0},{"responses":{"Q01":"4","Q02":"2","Q03":"4"},"rt":31688.600000023842,"radio_events":[12658.699999988079,18800.400000035763,22031.600000023842,30280],"key_events":[],"mouse_events":[11280.199999988079,12658.699999988079,18800.400000035763,22031.600000023842,30280,31678.900000035763],"survey":"map","page":1,"trial_type":"survey-map","trial_index":4,"time_elapsed":365311,"internal_node_id":"0.0-4.0","task_version":"prescreen-v0.3","browser_interactions":0},{"responses":{"Q04":"2","Q05":"2","Q06":"4"},"rt":19603.5,"radio_events":[10270.800000011921,15098.400000035763,18532.700000047684],"key_events":[],"mouse_events":[10270.800000011921,15098.400000035763,18532.700000047684,19594.30000001192],"survey":"map","page":2,"trial_type":"survey-map","trial_index":5,"time_elapsed":384933,"internal_node_id":"0.0-5.0","task_version":"prescreen-v0.3","browser_interactions":0},{"responses":{"Q07":"4","Q08":"4","Q09":"4"},"rt":28744.399999976158,"radio_events":[11707.5,17668,27629.19999998808],"key_events":[],"mouse_events":[11707.5,17668,27629.19999998808,28734.899999976158],"survey":"map","page":3,"trial_type":"survey-map","trial_index":6,"time_elapsed":413697,"internal_node_id":"0.0-6.0","task_version":"prescreen-v0.3","browser_interactions":0},{"responses":{"Q10":"2","Q11":"2","Q12":"4","Q13":"4","Q16":"2","Q14":"3","Q15":"4"},"rt":66230.90000003576,"radio_events":[9373.199999988079,27278.69999998808,35501.90000003576,46316.90000003576,53618.40000003576,59782.90000003576,65244.69999998808],"key_events":[],"mouse_events":[9373.199999988079,27278.69999998808,35501.90000003576,45211.19999998808,46316.90000003576,53618.40000003576,59782.90000003576,65244.69999998808,66213.69999998808],"survey":"map","page":4,"trial_type":"survey-map","trial_index":7,"time_elapsed":479948,"internal_node_id":"0.0-7.0","task_version":"prescreen-v0.3","browser_interactions":0,"infrequency":1},{"view_history":[{"page_index":0,"viewing_time":9552.300000011921},{"page_index":1,"viewing_time":11705.300000011921}],"rt":21259.600000023842,"trial_type":"instructions","trial_index":8,"time_elapsed":501222,"internal_node_id":"0.0-8.0","task_version":"prescreen-v0.3"},{"responses":{"01":"No","02":"No","03":"No","04":"No","05":"No","06":"No"},"rt":44506.19999998808,"item_order":[0,1,2,3,4,5],"radio_events":[24666,27791.19999998808,32073.600000023842,35916.60000002384,38171.80000001192,43361.80000001192],"checkbox_events":[],"key_events":[],"mouse_events":[0.699999988079071,24666,27791.19999998808,32073.600000023842,35916.60000002384,38171.80000001192,43361.80000001192,44464.90000003576],"honeypot":0,"survey":"mace","page":1,"trial_type":"survey-mace","trial_index":9,"time_elapsed":545760,"internal_node_id":"0.0-9.0","task_version":"prescreen-v0.3","browser_interactions":0},{"responses":{"01":"No","02":"No","03":"No","04":"No","05":"No","06":"No","07":"No","08":"No"},"rt":25796.799999952316,"item_order":[0,1,2,3,4,5,6,7],"radio_events":[4480.5,6341.699999988079,9364.699999988079,11880.099999964237,13984.699999988079,18247.5,21175.299999952316,23923],"checkbox_events":[],"key_events":[],"mouse_events":[4480.5,6341.699999988079,9364.699999988079,11880.099999964237,13984.699999988079,18247.5,21175.299999952316,23923,25730.69999998808],"honeypot":0,"survey":"mace","page":2,"trial_type":"survey-mace","trial_index":10,"time_elapsed":571607,"internal_node_id":"0.0-10.0","task_version":"prescreen-v0.3","browser_interactions":0},{"responses":{"01":"No","02":"No","03":"No","04":"No"},"rt":15718.199999988079,"item_order":[0,1,2,3],"radio_events":[7316,9336.5,11294.5,14276.100000023842],"checkbox_events":[],"key_events":[],"mouse_events":[7316,9336.5,11294.5,14276.100000023842,15684.600000023842],"honeypot":0,"survey":"mace","page":3,"trial_type":"survey-mace","trial_index":11,"time_elapsed":587363,"internal_node_id":"0.0-11.0","task_version":"prescreen-v0.3","browser_interactions":0},{"responses":{"01":"No","02":"No"},"rt":15819.699999988079,"item_order":[0,1],"radio_events":[12524.900000035763,14439.699999988079],"checkbox_events":[],"key_events":[],"mouse_events":[12524.900000035763,14439.699999988079,15804],"honeypot":0,"survey":"mace","page":4,"trial_type":"survey-mace","trial_index":12,"time_elapsed":603216,"internal_node_id":"0.0-12.0","task_version":"prescreen-v0.3","browser_interactions":0},{"responses":{"01":"No","02":"No","03":"No","04":"No","05":"No"},"rt":50093.89999997616,"item_order":[0,1,2,3,4],"radio_events":[12564.800000011921,16383.899999976158,39746.89999997616,46667.5,48895.19999998808],"checkbox_events":[],"key_events":[],"mouse_events":[12564.800000011921,16383.899999976158,39746.89999997616,46667.5,48895.19999998808,50059.09999996424],"honeypot":0,"survey":"mace","page":5,"trial_type":"survey-mace","trial_index":13,"time_elapsed":653353,"internal_node_id":"0.0-13.0","task_version":"prescreen-v0.3","browser_interactions":0},{"responses":{"01":"No","02":"No","03":"No","04":"No","05":"No"},"rt":25669.19999998808,"item_order":[0,1,2,3,4],"radio_events":[8318.300000011921,11697.199999988079,18368.600000023842,20768.19999998808,23744.69999998808],"checkbox_events":[],"key_events":[],"mouse_events":[8318.300000011921,11697.199999988079,18368.600000023842,20768.19999998808,23744.69999998808,25628.899999976158],"honeypot":0,"survey":"mace","page":6,"trial_type":"survey-mace","trial_index":14,"time_elapsed":679076,"internal_node_id":"0.0-14.0","task_version":"prescreen-v0.3","browser_interactions":0},{"responses":{"01":"No","02":"No","03":"No","04":"No","05":"No","06":"No","07":"No"},"rt":21334.599999964237,"item_order":[0,1,2,3,4,5,6],"radio_events":[5467.899999976158,8250.099999964237,10376.299999952316,12133.899999976158,13817.699999988079,18827.399999976158,20121.899999976158],"checkbox_events":[],"key_events":[],"mouse_events":[5467.899999976158,8250.099999964237,10376.299999952316,12133.899999976158,13817.699999988079,18827.399999976158,20121.899999976158,21273.5],"honeypot":0,"survey":"mace","page":7,"trial_type":"survey-mace","trial_index":15,"time_elapsed":700453,"internal_node_id":"0.0-15.0","task_version":"prescreen-v0.3","browser_interactions":0},{"responses":{"01":"No","02":"No","03":"No","04":"No"},"rt":25162.19999998808,"item_order":[0,1,2,3],"radio_events":[12456.899999976158,15438.399999976158,19278,24013],"checkbox_events":[],"key_events":[],"mouse_events":[12456.899999976158,15438.399999976158,19278,24013,25133.299999952316],"honeypot":0,"survey":"mace","page":8,"trial_type":"survey-mace","trial_index":16,"time_elapsed":725663,"internal_node_id":"0.0-16.0","task_version":"prescreen-v0.3","browser_interactions":0},{"responses":{"01":"No","02":"No","03":"No","04":"No"},"rt":43071.80000001192,"item_order":[0,1,2,3],"radio_events":[4954.700000047684,14280.5,19532.100000023842,27355.100000023842,40616.5,41886.80000001192],"checkbox_events":[],"key_events":[],"mouse_events":[4954.700000047684,14280.5,19532.100000023842,27355.100000023842,40616.5,41886.80000001192,43046.80000001192],"honeypot":0,"survey":"mace","page":9,"trial_type":"survey-mace","trial_index":17,"time_elapsed":768778,"internal_node_id":"0.0-17.0","task_version":"prescreen-v0.3","browser_interactions":0},{"responses":{"01":"No","02":"No","03":"Yes","03_ages_14":"14","04":"Yes","04_ages_14":"14","05":"No","06":"Yes","06_ages_17":"17","07":"No","08":"Yes","08_ages_14":"14"},"rt":65503.40000003576,"item_order":[0,1,2,3,4,5,6,7],"radio_events":[4989.100000023842,6872.699999988079,14777.300000011921,19506.900000035763,29096.69999998808,35442.90000003576,39523.69999998808,51810.30000001192,55368.90000003576],"checkbox_events":[23352.19999998808,31086.900000035763,42072.30000001192,58409.10000002384],"key_events":[],"mouse_events":[4989.100000023842,6872.699999988079,14777.300000011921,19506.900000035763,23352.19999998808,29096.69999998808,31086.900000035763,35442.90000003576,39523.69999998808,42072.30000001192,51810.30000001192,55368.90000003576,58409.10000002384,65459.10000002384],"honeypot":0,"survey":"mace","page":10,"trial_type":"survey-mace","trial_index":18,"time_elapsed":834321,"internal_node_id":"0.0-18.0","task_version":"prescreen-v0.3","browser_interactions":0,"instructed":0},{"rt":16925.100000023842,"trial_type":"mental-health-alert","trial_index":19,"time_elapsed":851263,"internal_node_id":"0.0-19.0","task_version":"prescreen-v0.3","interactions":"[]"}]