[{"view_history":[{"page_index":0,"viewing_time":5466},{"page_index":1,"viewing_time":4776},{"page_index":2,"viewing_time":3791.000000000002},{"page_index":3,"viewing_time":1290.9999999999982}],"rt":15325.000000000002,"trial_type":"instructions","trial_index":0,"time_elapsed":15331,"internal_node_id":"0.0-0.0","task_version":"prescreen-v0.3"},{"rt":14703,"responses":{"age":"23","gender-categorical":"Female","gender-free-response":"","ethnicity":"Not Hispanic or Latino","race":["White"],"education":"Bachelor degree"},"trial_type":"survey-demo","trial_index":1,"time_elapsed":30043,"internal_node_id":"0.0-1.0","task_version":"prescreen-v0.3"},{"responses":{"Q11":"2","Q14":"2","Q01":"2","Q07":"1","Q04":"2","Q05":"2","Q08":"3","Q02":"1","Q18":"2","Q16":"1","Q10":"0","Q17":"1","Q20":"1","Q15":"2","Q03":"1","Q12":"1","Q06":"2","Q13":"2","Q09":"2","Q21":"3","Q19":"1"},"rt":104568,"item_order":[10,13,0,6,3,4,7,1,17,15,9,16,19,14,2,11,5,12,8,20,18],"radio_events":[5504.999999999996,10790.999999999996,12192.999999999996,17419.999999999996,20526.999999999996,26910.999999999996,32679.999999999996,36784,40352,64970,68334,70803,73363,78996.00000000001,80470,83698,86587,91559,95734.00000000001,98916.00000000001,103655],"key_events":[],"mouse_events":[5504.999999999996,10790.999999999996,12192.999999999996,17419.999999999996,20526.999999999996,26910.999999999996,32679.999999999996,36784,40352,64970,68334,70803,73363,77432,78996.00000000001,80470,83698,86587,91559,95734.00000000001,98916.00000000001,103655,104553],"straightlining":0.47619047619047616,"zigzagging":0.55,"honeypot":0,"survey":"sns","trial_type":"survey-template","trial_index":2,"time_elapsed":134619,"internal_node_id":"0.0-2.0","task_version":"prescreen-v0.3","browser_interactions":0,"infrequency":0},{"responses":{"Q04":"2","Q06":"2","Q05":"3","Q03":"3","Q08":"2","Q11":"1","Q07":"3","Q01":"3","Q02":"3","Q12":"1","Q09":"2","Q10":"1","Q13":"0"},"rt":63132,"item_order":[3,5,4,2,7,10,6,0,1,11,8,9,12],"radio_events":[21752,25512,29370,30584,35583,38725,41156,43647,46287,48048,52530,55851,60272,61614],"key_events":[],"mouse_events":[21752,25512,29370,30584,35583,38725,41156,43647,46287,48048,51698,52530,55851,58342,60272,61614,63121],"straightlining":0.38461538461538464,"zigzagging":0.5,"honeypot":0,"survey":"bisbas","trial_type":"survey-template","trial_index":3,"time_elapsed":197757,"internal_node_id":"0.0-3.0","task_version":"prescreen-v0.3","browser_interactions":0,"infrequency":0},{"responses":{"Q01":"3","Q02":"3","Q03":"4"},"rt":57629.99999999997,"radio_events":[48508.99999999997,51564.99999999997,56508.99999999997],"key_events":[],"mouse_events":[47497.99999999997,48508.99999999997,51564.99999999997,56508.99999999997,57623.99999999997],"survey":"map","page":1,"trial_type":"survey-map","trial_index":4,"time_elapsed":255392,"internal_node_id":"0.0-4.0","task_version":"prescreen-v0.3","browser_interactions":0},{"responses":{"Q04":"2","Q05":"2","Q06":"3"},"rt":17887,"radio_events":[3438,8440,15757,17049.00000000006],"key_events":[],"mouse_events":[3438,6779,8440,15757,17049.00000000006,17883],"survey":"map","page":2,"trial_type":"survey-map","trial_index":5,"time_elapsed":273284,"internal_node_id":"0.0-5.0","task_version":"prescreen-v0.3","browser_interactions":0},{"responses":{"Q07":"1","Q08":"3","Q09":"4"},"rt":56658.00000000006,"radio_events":[47300,51347,53394,54407,55746],"key_events":[],"mouse_events":[47300,51347,53394,54407,55746,56653],"survey":"map","page":3,"trial_type":"survey-map","trial_index":6,"time_elapsed":329947,"internal_node_id":"0.0-6.0","task_version":"prescreen-v0.3","browser_interactions":0},{"responses":{"Q10":"3","Q11":"3","Q12":"2","Q13":"3","Q16":"0","Q14":"2","Q15":"3"},"rt":30330.00000000006,"radio_events":[4184,6426,9555,16488,18280,19673,24785,28942],"key_events":[],"mouse_events":[4184,6426,9555,16488,18280,19673,24785,28942,30323.00000000006],"survey":"map","page":4,"trial_type":"survey-map","trial_index":7,"time_elapsed":360282,"internal_node_id":"0.0-7.0","task_version":"prescreen-v0.3","browser_interactions":0,"infrequency":0},{"view_history":[{"page_index":0,"viewing_time":2553},{"page_index":1,"viewing_time":4371}],"rt":6925.000000000058,"trial_type":"instructions","trial_index":8,"time_elapsed":367208,"internal_node_id":"0.0-8.0","task_version":"prescreen-v0.3"},{"responses":{"01":"No","02":"Yes","02_ages_6":"6","02_ages_10":"10","02_ages_12":"12","02_ages_14":"14","02_ages_15":"15","02_ages_16":"16","02_ages_17":"17","02_ages_18":"18","03":"No","04":"No","05":"No","06":"No"},"rt":78232,"item_order":[0,1,2,3,4,5],"radio_events":[9261,14953,69794,71148,72832,77490.00000000006],"checkbox_events":[17565,57476,58708,59871,60689,61795,62835,63990.00000000006,64898,65555.00000000006,66281.00000000006,67028],"key_events":[],"mouse_events":[1,9261,14953,17565,57476,58708,59871,60689,61795,62835,63990.00000000006,64898,65555.00000000006,66281.00000000006,67028,69794,71148,72832,77490.00000000006,78221.00000000006],"honeypot":0,"survey":"mace","page":1,"trial_type":"survey-mace","trial_index":9,"time_elapsed":445449,"internal_node_id":"0.0-9.0","task_version":"prescreen-v0.3","browser_interactions":0},{"responses":{"01":"No","02":"No","03":"Yes","03_ages_2":"2","03_ages_3":"3","03_ages_4":"4","03_ages_5":"5","04":"No","05":"No","06":"No","07":"No","08":"No"},"rt":23912,"item_order":[0,1,2,3,4,5,6,7],"radio_events":[2424.000000000058,5419.000000000058,8002,16534,18735,20188,21621.00000000006,23281],"checkbox_events":[9258.000000000058,9997,10848,12468],"key_events":[],"mouse_events":[2424.000000000058,5419.000000000058,8002,9258.000000000058,9997,10848,12468,16534,18735,20188,21621.00000000006,23281,23900],"honeypot":0,"survey":"mace","page":2,"trial_type":"survey-mace","trial_index":10,"time_elapsed":469367,"internal_node_id":"0.0-10.0","task_version":"prescreen-v0.3","browser_interactions":0},{"responses":{"01":"Yes","01_ages_6":"6","01_ages_7":"7","01_ages_8":"8","01_ages_9":"9","01_ages_10":"10","01_ages_11":"11","01_ages_12":"12","02":"Yes","02_ages_6":"6","02_ages_7":"7","02_ages_8":"8","03":"No","04":"No"},"rt":30283,"item_order":[0,1,2,3],"radio_events":[5771,17807,22849.00000000006,29295],"checkbox_events":[7095,7945,9206,9862,10718,11562,12524,18914.00000000006,19712.00000000006,20862],"key_events":[],"mouse_events":[5771,7095,7945,9206,9862,10718,11562,12524,17807,18914.00000000006,19712.00000000006,20862,22849.00000000006,29295,30272],"honeypot":0,"survey":"mace","page":3,"trial_type":"survey-mace","trial_index":11,"time_elapsed":499654,"internal_node_id":"0.0-11.0","task_version":"prescreen-v0.3","browser_interactions":0},{"responses":{"01":"No","02":"No"},"rt":5501,"item_order":[0,1],"radio_events":[2134.000000000058,4621],"checkbox_events":[],"key_events":[],"mouse_events":[2134.000000000058,3811,4621,5495],"honeypot":0,"survey":"mace","page":4,"trial_type":"survey-mace","trial_index":12,"time_elapsed":505157,"internal_node_id":"0.0-12.0","task_version":"prescreen-v0.3","browser_interactions":0},{"responses":{"01":"No","02":"No","03":"No","04":"No","05":"No"},"rt":16856.99999999994,"item_order":[0,1,2,3,4],"radio_events":[3435,4957.000000000058,11733.000000000058,13999,15917],"checkbox_events":[],"key_events":[],"mouse_events":[3435,4957.000000000058,11733.000000000058,13999,15917,16848.00000000006],"honeypot":0,"survey":"mace","page":5,"trial_type":"survey-mace","trial_index":13,"time_elapsed":522020,"internal_node_id":"0.0-13.0","task_version":"prescreen-v0.3","browser_interactions":0},{"responses":{"01":"No","02":"Yes","02_ages_9":"9","02_ages_10":"10","02_ages_11":"11","02_ages_12":"12","02_ages_13":"13","02_ages_14":"14","03":"No","04":"No","05":"No"},"rt":26944.00000000006,"item_order":[0,1,2,3,4],"radio_events":[9912.000000000058,12822.000000000058,22598.00000000006,24179.00000000006,25951.00000000006],"checkbox_events":[14028.000000000058,16332.000000000175,17045.00000000006,17825.00000000006,18534.000000000175,19273.00000000006],"key_events":[],"mouse_events":[9912.000000000058,12822.000000000058,14028.000000000058,14767.000000000058,16332.000000000175,17045.00000000006,17825.00000000006,18534.000000000175,19273.00000000006,22598.00000000006,24179.00000000006,25951.00000000006,26935.00000000006],"honeypot":0,"survey":"mace","page":6,"trial_type":"survey-mace","trial_index":14,"time_elapsed":548970,"internal_node_id":"0.0-14.0","task_version":"prescreen-v0.3","browser_interactions":0},{"responses":{"01":"No","02":"No","03":"No","04":"No","05":"No","06":"No","07":"No"},"rt":13300.000000000116,"item_order":[0,1,2,3,4,5,6],"radio_events":[2246,3658,5508,7331,9171,11130,12445],"checkbox_events":[],"key_events":[],"mouse_events":[2246,3658,5508,7331,9171,11130,12445,13291],"honeypot":0,"survey":"mace","page":7,"trial_type":"survey-mace","trial_index":15,"time_elapsed":562276,"internal_node_id":"0.0-15.0","task_version":"prescreen-v0.3","browser_interactions":0},{"responses":{"01":"No","02":"No","03":"No","04":"No"},"rt":31632.999999999884,"item_order":[0,1,2,3],"radio_events":[10222.999999999884,12673,14261.999999999884,18760.999999999884,29411.999999999884,30741.999999999884],"checkbox_events":[],"key_events":[],"mouse_events":[10222.999999999884,12673,14261.999999999884,17077,18760.999999999884,29411.999999999884,30741.999999999884,31625],"honeypot":0,"survey":"mace","page":8,"trial_type":"survey-mace","trial_index":16,"time_elapsed":593915,"internal_node_id":"0.0-16.0","task_version":"prescreen-v0.3","browser_interactions":0},{"responses":{"01":"Yes","01_ages_4":"4","01_ages_5":"5","01_ages_6":"6","01_ages_7":"7","01_ages_8":"8","01_ages_9":"9","01_ages_10":"10","01_ages_11":"11","01_ages_12":"12","01_ages_13":"13","01_ages_14":"14","01_ages_15":"15","01_ages_16":"16","01_ages_17":"17","01_ages_18":"18","02":"No","03":"Yes","03_ages_1":"1","03_ages_2":"2","03_ages_3":"3","03_ages_4":"4","03_ages_5":"5","03_ages_6":"6","03_ages_7":"7","03_ages_8":"8","03_ages_9":"9","03_ages_10":"10","03_ages_11":"11","03_ages_12":"12","03_ages_13":"13","03_ages_14":"14","03_ages_15":"15","03_ages_16":"16","03_ages_17":"17","03_ages_18":"18","04":"Yes","04_ages_1":"1","04_ages_2":"2","04_ages_3":"3","04_ages_4":"4","04_ages_5":"5","04_ages_6":"6","04_ages_7":"7","04_ages_8":"8","04_ages_9":"9","04_ages_10":"10","04_ages_11":"11","04_ages_12":"12","04_ages_13":"13","04_ages_14":"14","04_ages_15":"15","04_ages_16":"16","04_ages_17":"17","04_ages_18":"18"},"rt":65230,"item_order":[0,1,2,3],"radio_events":[3833.0000000001164,21012,23549,47031],"checkbox_events":[7352,8019,8676,9366,9992.000000000116,10578,12386.000000000116,13157,14073,14862.000000000116,17224,17863,18552,19174,19842,26739,27645,29063,29591,32289,33743,34287,34848,35619,36241,37251,37917,38896,43353,43955,44776,45419,46037,49033,49795,50677,51922,52740,53810,54613,55584,56402,57120,57970,58685,59544,61416,62234,63044,63799,64458.00000000012],"key_events":[],"mouse_events":[3833.0000000001164,7352,8019,8676,9366,9992.000000000116,10578,12386.000000000116,13157,14073,14862.000000000116,15649,17224,17863,18552,19174,19842,21012,23549,26739,27172,27645,29063,29591,30963.000000000116,32289,33743,34287,34848,35619,36241,37251,37917,38896,43353,43955,44776,45419,46037,47031,49033,49795,50677,51922,52740,53810,54613,55584,56402,57120,57970,58685,59544,61416,62234,63044,63799,64458.00000000012,65220],"honeypot":0,"survey":"mace","page":9,"trial_type":"survey-mace","trial_index":17,"time_elapsed":659152,"internal_node_id":"0.0-17.0","task_version":"prescreen-v0.3","browser_interactions":0},{"responses":{"01":"No","02":"No","03":"No","04":"No","05":"No","06":"Yes","06_ages_17":"17","07":"Yes","07_ages_1":"1","07_ages_2":"2","07_ages_3":"3","07_ages_4":"4","07_ages_5":"5","07_ages_6":"6","07_ages_7":"7","07_ages_8":"8","07_ages_9":"9","07_ages_10":"10","07_ages_11":"11","07_ages_12":"12","07_ages_13":"13","07_ages_14":"14","07_ages_15":"15","07_ages_16":"16","07_ages_17":"17","07_ages_18":"18","08":"No"},"rt":34562,"item_order":[0,1,2,3,4,5,6,7],"radio_events":[2373,4104,6075,7342,8805,10843,14515,33515],"checkbox_events":[12143,17928,19228,19878,20569,21203.000000000116,21996.000000000116,22623,23285,24087,24929.000000000116,25747,27566,28378,29169.000000000116,29988,30783,31517,32344],"key_events":[],"mouse_events":[2373,4104,6075,7342,8805,10843,12143,14515,17928,18600,19228,19878,20569,21203.000000000116,21996.000000000116,22623,23285,24087,24929.000000000116,25747,26486,27566,28378,29169.000000000116,29988,30783,31517,32344,33515,34552],"honeypot":0,"survey":"mace","page":10,"trial_type":"survey-mace","trial_index":18,"time_elapsed":693722,"internal_node_id":"0.0-18.0","task_version":"prescreen-v0.3","browser_interactions":0,"instructed":0},{"rt":7133.999999999884,"trial_type":"mental-health-alert","trial_index":19,"time_elapsed":700860,"internal_node_id":"0.0-19.0","task_version":"prescreen-v0.3","interactions":"[]"}]