[{"view_history":[{"page_index":0,"viewing_time":4558.199999988079},{"page_index":1,"viewing_time":1552.800000011921},{"page_index":2,"viewing_time":2055.0999999940395},{"page_index":3,"viewing_time":888.8000000119209}],"rt":9055.40000000596,"trial_type":"instructions","trial_index":0,"time_elapsed":9067,"internal_node_id":"0.0-0.0","task_version":"prescreen-v0.3"},{"rt":13327.699999988079,"responses":{"age":"37","gender-categorical":"Female","gender-free-response":"","ethnicity":"Not Hispanic or Latino","race":["White"],"education":"Associate degree"},"trial_type":"survey-demo","trial_index":1,"time_elapsed":22398,"internal_node_id":"0.0-1.0","task_version":"prescreen-v0.3"},{"responses":{"Q06":"1","Q11":"0","Q01":"1","Q16":"3","Q09":"0","Q19":"0","Q03":"1","Q04":"0","Q14":"2","Q07":"1","Q08":"1","Q15":"2","Q02":"0","Q12":"1","Q13":"3","Q17":"0","Q20":"0","Q05":"0","Q18":"0","Q21":"2","Q10":"0"},"rt":60016.09999999404,"item_order":[5,10,0,15,8,18,2,3,13,6,7,14,1,11,12,16,19,4,17,20,9],"radio_events":[4761.4000000059605,6978.5999999940395,8573.59999999404,13299.300000011921,15246.700000017881,17878.59999999404,19831.40000000596,25712.59999999404,28234.59999999404,31918.20000001788,33428.90000000596,36678.59999999404,38324.80000001192,40033.80000001192,42944.30000001192,44618.20000001788,48260.90000000596,52818.30000001192,53732.30000001192,58439.70000001788,59294.5],"key_events":[],"mouse_events":[4761.4000000059605,6978.5999999940395,8573.59999999404,11001.59999999404,11692.800000011921,12601.40000000596,13299.300000011921,15246.700000017881,17878.59999999404,19180.09999999404,19831.40000000596,25712.59999999404,28234.59999999404,31918.20000001788,33428.90000000596,36678.59999999404,38324.80000001192,40033.80000001192,42944.30000001192,44618.20000001788,46843.09999999404,47832.5,48260.90000000596,51834.90000000596,52818.30000001192,53732.30000001192,56452.30000001192,58040.5,58439.70000001788,59294.5,60013.59999999404],"straightlining":0.47619047619047616,"zigzagging":0.45,"honeypot":0,"survey":"sns","trial_type":"survey-template","trial_index":2,"time_elapsed":82422,"internal_node_id":"0.0-2.0","task_version":"prescreen-v0.3","browser_interactions":0,"infrequency":0.5},{"responses":{"Q05":"3","Q07":"3","Q11":"2","Q03":"3","Q09":"2","Q13":"0","Q01":"3","Q06":"3","Q02":"2","Q08":"3","Q10":"2","Q12":"2","Q04":"3"},"rt":37151.40000000596,"item_order":[4,6,10,2,8,12,0,5,1,7,9,11,3],"radio_events":[6926.200000017881,8304.700000017881,10181.90000000596,13004.59999999404,14510.09999999404,16089.800000011921,20672.59999999404,24600.09999999404,26139.5,30355.90000000596,33658.5,34179.70000001788,36084.30000001192],"key_events":[],"mouse_events":[5182.700000017881,6926.200000017881,8304.700000017881,10181.90000000596,13004.59999999404,14510.09999999404,16089.800000011921,20192.30000001192,20672.59999999404,23495.30000001192,24600.09999999404,26139.5,30355.90000000596,31868.20000001788,32878.70000001788,33658.5,34179.70000001788,36084.30000001192,36620.09999999404,37149.80000001192],"straightlining":0.5384615384615384,"zigzagging":0.6666666666666666,"honeypot":0,"survey":"bisbas","trial_type":"survey-template","trial_index":3,"time_elapsed":119579,"internal_node_id":"0.0-3.0","task_version":"prescreen-v0.3","browser_interactions":0,"infrequency":0},{"responses":{"Q01":"3","Q02":"3","Q03":"3"},"rt":10897.700000017881,"radio_events":[4244.300000011921,9379.5,10083.700000017881],"key_events":[],"mouse_events":[3708.7000000178814,4244.300000011921,6347.700000017881,9379.5,10083.700000017881,10896.90000000596],"survey":"map","page":1,"trial_type":"survey-map","trial_index":4,"time_elapsed":130483,"internal_node_id":"0.0-4.0","task_version":"prescreen-v0.3","browser_interactions":0},{"responses":{"Q04":"3","Q05":"3","Q06":"3"},"rt":11042.100000023842,"radio_events":[6945.200000017881,8986.100000023842,10411.800000011921],"key_events":[],"mouse_events":[5943.200000017881,6945.200000017881,8043.9000000059605,8986.100000023842,10411.800000011921,11041.5],"survey":"map","page":2,"trial_type":"survey-map","trial_index":5,"time_elapsed":141529,"internal_node_id":"0.0-5.0","task_version":"prescreen-v0.3","browser_interactions":0},{"responses":{"Q07":"2","Q08":"4","Q09":"3"},"rt":12119.800000011921,"radio_events":[7068,10057.40000000596,11610.700000017881],"key_events":[],"mouse_events":[7068,10057.40000000596,11610.700000017881,12119.200000017881],"survey":"map","page":3,"trial_type":"survey-map","trial_index":6,"time_elapsed":153654,"internal_node_id":"0.0-6.0","task_version":"prescreen-v0.3","browser_interactions":0},{"responses":{"Q10":"2","Q11":"2","Q12":"3","Q13":"3","Q16":"0","Q14":"2","Q15":"2"},"rt":33365.19999998808,"radio_events":[8130.9000000059605,11385.90000000596,12707.90000000596,17089,23284.09999999404,24560.29999998212,24887.5,25521.90000000596,25766.29999998212,30657.69999998808,32665.79999998212],"key_events":[24560.29999998212,24887.5,25521.90000000596,25766.29999998212],"mouse_events":[6000.5,8130.9000000059605,9697.299999982119,11385.90000000596,12707.90000000596,17089,18477.40000000596,18912.5,23284.09999999404,27485.79999998212,29086.5,30224.40000000596,30657.69999998808,32665.79999998212,33364.09999999404],"survey":"map","page":4,"trial_type":"survey-map","trial_index":7,"time_elapsed":187025,"internal_node_id":"0.0-7.0","task_version":"prescreen-v0.3","browser_interactions":0,"infrequency":0},{"view_history":[{"page_index":0,"viewing_time":1599},{"page_index":1,"viewing_time":1851.2999999821186}],"rt":3450.699999988079,"trial_type":"instructions","trial_index":8,"time_elapsed":190480,"internal_node_id":"0.0-8.0","task_version":"prescreen-v0.3"},{"responses":{"01":"Yes","01_ages_15":"15","01_ages_16":"16","01_ages_17":"17","01_ages_18":"18","02":"Yes","02_ages_15":"15","02_ages_16":"16","02_ages_17":"17","02_ages_18":"18","03":"Yes","03_ages_15":"15","03_ages_16":"16","03_ages_17":"17","03_ages_18":"18","04":"Yes","04_ages_15":"15","05":"No","06":"Yes","06_ages_15":"15"},"rt":35641,"item_order":[0,1,2,3,4,5],"radio_events":[5228.5,16242,21617.80000001192,27016,30448.20000001788,33051.80000001192],"checkbox_events":[9467.200000017881,10042.59999999404,10605.90000000596,11161.90000000596,17528.80000001192,18173.59999999404,18689.30000001192,19148.90000000596,22533.59999999404,23231.09999999404,23673.40000000596,24113.30000001192,28134.20000001788,33919.30000001192],"key_events":[],"mouse_events":[0.09999999403953552,3037.7000000178814,4406.5,5228.5,9467.200000017881,10042.59999999404,10605.90000000596,11161.90000000596,16242,17528.80000001192,18173.59999999404,18689.30000001192,19148.90000000596,20838.20000001788,21617.80000001192,22533.59999999404,23231.09999999404,23673.40000000596,24113.30000001192,27016,28134.20000001788,30448.20000001788,32441.70000001788,33051.80000001192,33919.30000001192,35637],"honeypot":0,"survey":"mace","page":1,"trial_type":"survey-mace","trial_index":9,"time_elapsed":226129,"internal_node_id":"0.0-9.0","task_version":"prescreen-v0.3","browser_interactions":0},{"responses":{"01":"No","02":"No","03":"Yes","03_ages_7":"7","04":"No","05":"Yes","05_ages_7":"7","06":"No","07":"No","08":"No"},"rt":21404.30000001192,"item_order":[0,1,2,3,4,5,6,7],"radio_events":[3707.0999999940395,6953.699999988079,8270.199999988079,11733.699999988079,13950.59999999404,18285,19545.40000000596,20418.59999999404],"checkbox_events":[9591.09999999404,14915.300000011921],"key_events":[],"mouse_events":[2457.5999999940395,3707.0999999940395,6953.699999988079,8270.199999988079,9591.09999999404,11733.699999988079,13950.59999999404,14915.300000011921,18285,19545.40000000596,20418.59999999404,21396.80000001192],"honeypot":0,"survey":"mace","page":2,"trial_type":"survey-mace","trial_index":10,"time_elapsed":247539,"internal_node_id":"0.0-10.0","task_version":"prescreen-v0.3","browser_interactions":0},{"responses":{"01":"No","02":"No","03":"No","04":"No"},"rt":9487.90000000596,"item_order":[0,1,2,3],"radio_events":[4569.800000011921,5736.0999999940395,8361.199999988079,8970.90000000596],"checkbox_events":[],"key_events":[],"mouse_events":[4569.800000011921,5736.0999999940395,7566.699999988079,8361.199999988079,8970.90000000596,9485],"honeypot":0,"survey":"mace","page":3,"trial_type":"survey-mace","trial_index":11,"time_elapsed":257034,"internal_node_id":"0.0-11.0","task_version":"prescreen-v0.3","browser_interactions":0},{"responses":{"01":"Yes","01_ages_3":"3","02":"Yes","02_ages_3":"3"},"rt":11242.199999988079,"item_order":[0,1],"radio_events":[2175.9000000059605,3044,5187,9106.5],"checkbox_events":[6815.299999982119,10293],"key_events":[],"mouse_events":[2175.9000000059605,3044,4468.699999988079,5187,6265.9000000059605,6815.299999982119,9106.5,10293,11241.40000000596],"honeypot":0,"survey":"mace","page":4,"trial_type":"survey-mace","trial_index":12,"time_elapsed":268281,"internal_node_id":"0.0-12.0","task_version":"prescreen-v0.3","browser_interactions":0},{"responses":{"01":"No","02":"No","03":"No","04":"Yes","04_ages_7":"7","04_ages_8":"8","05":"No"},"rt":21320.70000001788,"item_order":[0,1,2,3,4],"radio_events":[7260.4000000059605,8853.800000011921,11871.200000017881,14428.40000000596,20694.09999999404],"checkbox_events":[16294.40000000596,17608.5],"key_events":[],"mouse_events":[7260.4000000059605,8853.800000011921,11871.200000017881,14428.40000000596,16294.40000000596,17608.5,20694.09999999404,21317.5],"honeypot":0,"survey":"mace","page":5,"trial_type":"survey-mace","trial_index":13,"time_elapsed":289608,"internal_node_id":"0.0-13.0","task_version":"prescreen-v0.3","browser_interactions":0},{"responses":{"01":"Yes","01_ages_7":"7","01_ages_8":"8","01_ages_9":"9","01_ages_10":"10","01_ages_11":"11","01_ages_12":"12","02":"Yes","02_ages_7":"7","02_ages_8":"8","02_ages_9":"9","02_ages_10":"10","02_ages_11":"11","02_ages_12":"12","03":"Yes","03_ages_7":"7","03_ages_8":"8","03_ages_9":"9","03_ages_10":"10","03_ages_11":"11","03_ages_12":"12","04":"Yes","04_ages_7":"7","04_ages_8":"8","04_ages_9":"9","04_ages_10":"10","04_ages_11":"11","04_ages_12":"12","05":"Yes","05_ages_7":"7","05_ages_8":"8","05_ages_9":"9","05_ages_10":"10","05_ages_11":"11","05_ages_12":"12"},"rt":39743.09999999404,"item_order":[0,1,2,3,4],"radio_events":[3028.7999999821186,10381.09999999404,18998.5,24165.59999999404,33637.69999998808],"checkbox_events":[4440.799999982119,5010.399999976158,5505.199999988079,5918.199999988079,6997.799999982119,11309.899999976158,11907.399999976158,12366.799999982119,12841.199999988079,13295.399999976158,13893.5,17086.19999998808,19853.29999998212,20321.69999998808,20794.899999976158,22062.399999976158,22742.399999976158,23324.69999998808,25238.19999998808,25780,26850.79999998212,27372.899999976158,28335,29596.5,34457.89999997616,34968,35922.69999998808,36424.29999998212,37569.59999999404,38085.09999999404],"key_events":[],"mouse_events":[3028.7999999821186,4440.799999982119,5010.399999976158,5505.199999988079,5918.199999988079,6332.5,6997.799999982119,9749.799999982119,10381.09999999404,11309.899999976158,11907.399999976158,12366.799999982119,12841.199999988079,13295.399999976158,13893.5,15052.399999976158,15601.299999982119,17086.19999998808,18998.5,19853.29999998212,20321.69999998808,20794.899999976158,21283,22062.399999976158,22742.399999976158,23324.69999998808,24165.59999999404,25238.19999998808,25780,26362.69999998808,26850.79999998212,27372.899999976158,28335,28992.79999998212,29596.5,32355.5,33155.89999997616,33637.69999998808,34457.89999997616,34968,35521.79999998212,35922.69999998808,36424.29999998212,36905.09999999404,37569.59999999404,38085.09999999404,39740.79999998212],"honeypot":0,"survey":"mace","page":6,"trial_type":"survey-mace","trial_index":14,"time_elapsed":329356,"internal_node_id":"0.0-14.0","task_version":"prescreen-v0.3","browser_interactions":0},{"responses":{"01":"Yes","01_ages_14":"14","02":"Yes","02_ages_14":"14","03":"Yes","03_ages_12":"12","04":"No","05":"No","06":"No","07":"No"},"rt":19663.80000001192,"item_order":[0,1,2,3,4,5,6],"radio_events":[3830.300000011921,8073,11545.300000011921,15597.800000011921,17523.09999999404,18561.09999999404,19184.90000000596],"checkbox_events":[5537.5,8969,12277.300000011921],"key_events":[],"mouse_events":[2947.4000000059605,3830.300000011921,5537.5,6968.9000000059605,8073,8969,11545.300000011921,12277.300000011921,13191.699999988079,15597.800000011921,17523.09999999404,18561.09999999404,19184.90000000596,19659.59999999404],"honeypot":0,"survey":"mace","page":7,"trial_type":"survey-mace","trial_index":15,"time_elapsed":349025,"internal_node_id":"0.0-15.0","task_version":"prescreen-v0.3","browser_interactions":0},{"responses":{"01":"Yes","01_ages_15":"15","01_ages_16":"16","01_ages_17":"17","01_ages_18":"18","02":"No","03":"Yes","03_ages_1":"1","03_ages_2":"2","03_ages_3":"3","03_ages_4":"4","03_ages_5":"5","03_ages_6":"6","03_ages_7":"7","03_ages_8":"8","03_ages_9":"9","03_ages_10":"10","03_ages_11":"11","03_ages_12":"12","03_ages_13":"13","03_ages_14":"14","03_ages_15":"15","03_ages_16":"16","03_ages_17":"17","03_ages_18":"18","04":"No"},"rt":33381,"item_order":[0,1,2,3],"radio_events":[7550.199999988079,14810.800000011921,16492.19999998808,32836],"checkbox_events":[9027.90000000596,9556,10085.199999988079,10790,11367.40000000596,12160.5,17604,18735.5,19304.80000001192,21007.59999999404,21534.30000001192,22069.09999999404,22863.59999999404,23453.19999998808,23929,24632.19999998808,25175.69999998808,25704.19999998808,26639.09999999404,27235.40000000596,27771.30000001192,28272,29208.30000001192,29710.59999999404],"key_events":[],"mouse_events":[6646.800000011921,7550.199999988079,9027.90000000596,9556,10085.199999988079,10790,11367.40000000596,12160.5,14810.800000011921,16492.19999998808,17604,18118.69999998808,18735.5,19304.80000001192,19841.09999999404,20382.19999998808,21007.59999999404,21534.30000001192,22069.09999999404,22863.59999999404,23453.19999998808,23929,24632.19999998808,25175.69999998808,25704.19999998808,26639.09999999404,27235.40000000596,27771.30000001192,28272,28821.40000000596,29208.30000001192,29710.59999999404,32455.09999999404,32836,33376.80000001192],"honeypot":0,"survey":"mace","page":8,"trial_type":"survey-mace","trial_index":16,"time_elapsed":382411,"internal_node_id":"0.0-16.0","task_version":"prescreen-v0.3","browser_interactions":0},{"responses":{"01":"Yes","01_ages_1":"1","01_ages_2":"2","01_ages_3":"3","01_ages_4":"4","01_ages_5":"5","01_ages_6":"6","01_ages_7":"7","01_ages_8":"8","01_ages_9":"9","01_ages_10":"10","01_ages_11":"11","01_ages_12":"12","01_ages_13":"13","01_ages_14":"14","02":"Yes","02_ages_1":"1","02_ages_2":"2","02_ages_3":"3","02_ages_4":"4","02_ages_5":"5","02_ages_6":"6","02_ages_7":"7","02_ages_8":"8","02_ages_9":"9","02_ages_10":"10","02_ages_11":"11","02_ages_12":"12","02_ages_13":"13","02_ages_14":"14","03":"Yes","03_ages_1":"1","03_ages_2":"2","03_ages_3":"3","03_ages_4":"4","03_ages_5":"5","03_ages_6":"6","03_ages_7":"7","03_ages_8":"8","03_ages_9":"9","03_ages_10":"10","03_ages_11":"11","03_ages_12":"12","03_ages_13":"13","03_ages_14":"14","04":"No"},"rt":178574.90000000596,"item_order":[0,1,2,3],"radio_events":[1938,147939.79999998212,159942.79999998212,175162.59999999404,177501.69999998808],"checkbox_events":[3536.9000000059605,4472.5999999940395,5400.4000000059605,5903,14828.09999999404,16536.5,17099.59999999404,17621.59999999404,18115.90000000596,18592.79999998212,19392.19999998808,19948,20516.69999998808,21017.90000000596,149674.59999999404,150637.59999999404,151146.40000000596,151810.19999998808,152318.40000000596,152901.69999998808,153374.90000000596,153979.29999998212,154447.19999998808,155008.69999998808,155510.90000000596,155970.5,156567.69999998808,157462.40000000596,157937.19999998808,162017.09999999404,163785.5,164227.19999998808,165107.69999998808,165541.40000000596,166400.90000000596,167073.19999998808,167540.79999998212,168895.19999998808,169485,170108.90000000596,170711.40000000596,171144.79999998212,171552.09999999404,171917.90000000596],"key_events":[12946.799999982119],"mouse_events":[1938,3536.9000000059605,4071.7999999821186,4472.5999999940395,5400.4000000059605,5903,14828.09999999404,16095.90000000596,16536.5,17099.59999999404,17621.59999999404,18115.90000000596,18592.79999998212,19392.19999998808,19948,20516.69999998808,21017.90000000596,147939.79999998212,149017.59999999404,149674.59999999404,150183.5,150637.59999999404,151146.40000000596,151810.19999998808,152318.40000000596,152901.69999998808,153374.90000000596,153979.29999998212,154447.19999998808,155008.69999998808,155510.90000000596,155970.5,156567.69999998808,156995.29999998212,157462.40000000596,157937.19999998808,159414.29999998212,159942.79999998212,162017.09999999404,163270.59999999404,163785.5,164227.19999998808,164713.69999998808,165107.69999998808,165541.40000000596,166043,166400.90000000596,167073.19999998808,167540.79999998212,168014.59999999404,168373.69999998808,168895.19999998808,169485,170108.90000000596,170711.40000000596,171144.79999998212,171552.09999999404,171917.90000000596,174464.79999998212,175162.59999999404,176587.19999998808,177501.69999998808,178572.40000000596],"honeypot":0,"survey":"mace","page":9,"trial_type":"survey-mace","trial_index":17,"time_elapsed":560991,"internal_node_id":"0.0-17.0","task_version":"prescreen-v0.3","browser_interactions":12},{"responses":{"01":"No","01_ages_18":"18","02":"No","03":"Yes","03_ages_15":"15","03_ages_16":"16","03_ages_17":"17","03_ages_18":"18","04":"Yes","04_ages_15":"15","04_ages_16":"16","04_ages_17":"17","04_ages_18":"18","05":"Yes","05_ages_1":"1","05_ages_2":"2","05_ages_3":"3","05_ages_4":"4","05_ages_5":"5","05_ages_6":"6","05_ages_7":"7","05_ages_8":"8","05_ages_9":"9","05_ages_10":"10","05_ages_11":"11","05_ages_12":"12","05_ages_13":"13","05_ages_14":"14","05_ages_15":"15","05_ages_16":"16","05_ages_17":"17","05_ages_18":"18","06":"Yes","06_ages_17":"17","07":"Yes","07_ages_1":"1","07_ages_2":"2","07_ages_3":"3","07_ages_4":"4","07_ages_5":"5","07_ages_6":"6","07_ages_7":"7","07_ages_8":"8","07_ages_9":"9","07_ages_10":"10","07_ages_11":"11","07_ages_12":"12","07_ages_13":"13","07_ages_14":"14","07_ages_15":"15","07_ages_16":"16","07_ages_17":"17","07_ages_18":"18","08":"Yes","08_ages_1":"1","08_ages_2":"2","08_ages_3":"3","08_ages_4":"4","08_ages_5":"5","08_ages_6":"6","08_ages_7":"7","08_ages_8":"8","08_ages_9":"9","08_ages_10":"10","08_ages_11":"11","08_ages_12":"12","08_ages_13":"13","08_ages_14":"14"},"rt":66573.09999999404,"item_order":[0,1,2,3,4,5,6,7],"radio_events":[2092.0999999940395,5282.799999982119,10607.299999982119,11489.09999999404,12972.399999976158,16935.09999999404,23344.69999998808,37443.79999998212,41299.5,55236.29999998212],"checkbox_events":[3764.199999988079,6765.199999988079,8664.399999976158,14164.59999999404,14666.699999988079,15106.299999982119,15580.699999988079,17971.399999976158,18427.399999976158,18873.19999998808,19333.399999976158,24340.899999976158,25479.79999998212,25919,26359.79999998212,26834.59999999404,27464.19999998808,27918,28427.79999998212,28913.899999976158,30194.59999999404,30859.09999999404,31423,31903.5,32405.59999999404,32844.89999997616,33461,34165.89999997616,35026.89999997616,35608.59999999404,36110.09999999404,38676.5,43413.19999998808,43901.19999998808,44382.09999999404,44905.19999998808,45405.69999998808,46049.39999997616,47458.79999998212,47932.19999998808,48570.5,49018.29999998212,49451,49925.19999998808,50725.19999998808,51800.5,52249.5,52696.19999998808,53130.59999999404,53583.5,57105.89999997616,57559.79999998212,58040.39999997616,58692.59999999404,59646.39999997616,60086.5,60547.79999998212,61008.69999998808,61732.29999998212,62199.89999997616,62667.69999998808,63114.59999999404,63529.29999998212,64889.69999998808],"key_events":[],"mouse_events":[2092.0999999940395,3764.199999988079,4848.699999988079,5282.799999982119,6765.199999988079,8664.399999976158,9286.699999988079,9815.699999988079,10607.299999982119,11489.09999999404,12972.399999976158,14164.59999999404,14666.699999988079,15106.299999982119,15580.699999988079,16935.09999999404,17971.399999976158,18427.399999976158,18873.19999998808,19333.399999976158,23344.69999998808,24340.899999976158,24808.5,25479.79999998212,25919,26359.79999998212,26834.59999999404,27464.19999998808,27918,28427.79999998212,28913.899999976158,29402,30194.59999999404,30859.09999999404,31423,31903.5,32405.59999999404,32844.89999997616,33461,34165.89999997616,34545.69999998808,35026.89999997616,35608.59999999404,36110.09999999404,37443.79999998212,38676.5,41299.5,42707.69999998808,43413.19999998808,43901.19999998808,44382.09999999404,44905.19999998808,45405.69999998808,46049.39999997616,46666.19999998808,47458.79999998212,47932.19999998808,48570.5,49018.29999998212,49451,49925.19999998808,50725.19999998808,51395.89999997616,51800.5,52249.5,52696.19999998808,53130.59999999404,53583.5,55236.29999998212,56307.09999999404,57105.89999997616,57559.79999998212,58040.39999997616,58692.59999999404,59126,59646.39999997616,60086.5,60547.79999998212,61008.69999998808,61732.29999998212,62199.89999997616,62667.69999998808,63114.59999999404,63529.29999998212,63913.39999997616,64889.69999998808,66569.79999998212],"honeypot":0,"survey":"mace","page":10,"trial_type":"survey-mace","trial_index":18,"time_elapsed":627570,"internal_node_id":"0.0-18.0","task_version":"prescreen-v0.3","browser_interactions":0,"instructed":0},{"rt":4677.4000000059605,"trial_type":"mental-health-alert","trial_index":19,"time_elapsed":632251,"internal_node_id":"0.0-19.0","task_version":"prescreen-v0.3","interactions":"[{\"event\":\"blur\",\"trial\":17,\"time\":405948},{\"event\":\"focus\",\"trial\":17,\"time\":440921},{\"event\":\"blur\",\"trial\":17,\"time\":441429},{\"event\":\"focus\",\"trial\":17,\"time\":441820},{\"event\":\"blur\",\"trial\":17,\"time\":442204},{\"event\":\"focus\",\"trial\":17,\"time\":442665},{\"event\":\"blur\",\"trial\":17,\"time\":443063},{\"event\":\"focus\",\"trial\":17,\"time\":443474},{\"event\":\"blur\",\"trial\":17,\"time\":443829},{\"event\":\"focus\",\"trial\":17,\"time\":444260},{\"event\":\"blur\",\"trial\":17,\"time\":444621},{\"event\":\"focus\",\"trial\":17,\"time\":526580}]"}]