[{"view_history":[{"page_index":0,"viewing_time":1916.4000000953674},{"page_index":1,"viewing_time":11411.700000047684},{"page_index":2,"viewing_time":1092.2000000476837},{"page_index":3,"viewing_time":787.8999998569489}],"rt":15208.600000143051,"trial_type":"instructions","trial_index":0,"time_elapsed":15232,"internal_node_id":"0.0-0.0","task_version":"prescreen-v0.3"},{"rt":12513.700000047684,"responses":{"age":"18","gender-categorical":"Female","gender-free-response":"","ethnicity":"Not Hispanic or Latino","race":["White"],"education":"High school"},"trial_type":"survey-demo","trial_index":1,"time_elapsed":27751,"internal_node_id":"0.0-1.0","task_version":"prescreen-v0.3"},{"responses":{"Q05":"1","Q16":"2","Q08":"0","Q07":"3","Q18":"2","Q06":"0","Q19":"0","Q11":"0","Q12":"1","Q01":"1","Q02":"0","Q13":"0","Q10":"0","Q04":"0","Q15":"1","Q21":"3","Q14":"0","Q20":"0","Q09":"0","Q17":"0","Q03":"0"},"rt":94607.40000009537,"item_order":[4,15,7,6,17,5,18,10,11,0,1,12,9,3,14,20,13,19,8,16,2],"radio_events":[15283.600000143051,20471.300000190735,23331.300000190735,28201.300000190735,33599.60000014305,38461.40000009537,48997.10000014305,53335.200000047684,54943.200000047684,58915.40000009537,61731.200000047684,65665.10000014305,66355.30000019073,68425.10000014305,75325,78603.10000014305,83815.10000014305,90975.10000014305,92547.20000004768,93227.10000014305,93851.20000004768],"key_events":[15283.600000143051,20471.300000190735,23331.300000190735,28201.300000190735,33599.60000014305,38461.40000009537,48997.10000014305,53335.200000047684,54943.200000047684,58915.40000009537,61731.200000047684,65665.10000014305,66355.30000019073,68425.10000014305,75325,78603.10000014305,83815.10000014305,90975.10000014305,92547.20000004768,93227.10000014305,93851.20000004768,94605.40000009537],"mouse_events":[],"straightlining":0.6190476190476191,"zigzagging":0.35,"honeypot":0,"survey":"sns","trial_type":"survey-template","trial_index":2,"time_elapsed":122364,"internal_node_id":"0.0-2.0","task_version":"prescreen-v0.3","browser_interactions":0,"infrequency":0},{"responses":{"Q04":"3","Q10":"2","Q11":"2","Q03":"3","Q02":"3","Q07":"3","Q01":"3","Q08":"2","Q05":"3","Q13":"0","Q12":"1","Q06":"3","Q09":"1"},"rt":49618.60000014305,"item_order":[3,9,10,2,1,6,0,7,4,12,11,5,8],"radio_events":[4947.5,8899.400000095367,12693.5,15811.400000095367,17595.400000095367,20765.299999952316,21425.5,28667.400000095367,32153.400000095367,33703.40000009537,38799.5,46857.40000009537,48901.40000009537],"key_events":[4947.5,8899.400000095367,12693.5,15811.400000095367,17595.400000095367,20765.299999952316,21425.5,28667.400000095367,32153.400000095367,33703.40000009537,38799.5,46857.40000009537,47881.299999952316,48901.40000009537,49617.5],"mouse_events":[],"straightlining":0.5384615384615384,"zigzagging":0.5,"honeypot":0,"survey":"bisbas","trial_type":"survey-template","trial_index":3,"time_elapsed":171986,"internal_node_id":"0.0-3.0","task_version":"prescreen-v0.3","browser_interactions":0,"infrequency":0},{"responses":{"Q01":"3","Q02":"3","Q03":"4"},"rt":21048.200000047684,"radio_events":[7633.700000047684,9003.600000143051,13143.600000143051,20137.60000014305],"key_events":[7633.700000047684,9003.600000143051,13143.600000143051,20137.60000014305,21047.60000014305],"mouse_events":[],"survey":"map","page":1,"trial_type":"survey-map","trial_index":4,"time_elapsed":193037,"internal_node_id":"0.0-4.0","task_version":"prescreen-v0.3","browser_interactions":0},{"responses":{"Q04":"3","Q05":"2","Q06":"4"},"rt":17495.799999952316,"radio_events":[7159.400000095367,14393.400000095367,16995.299999952316],"key_events":[7159.400000095367,14393.400000095367,16995.299999952316,17495.299999952316],"mouse_events":[],"survey":"map","page":2,"trial_type":"survey-map","trial_index":5,"time_elapsed":210535,"internal_node_id":"0.0-5.0","task_version":"prescreen-v0.3","browser_interactions":0},{"responses":{"Q07":"2","Q08":"1","Q09":"4"},"rt":19026.200000047684,"radio_events":[9095.600000143051,14871.600000143051,18455.5],"key_events":[9095.600000143051,14871.600000143051,18455.5,19025.60000014305],"mouse_events":[],"survey":"map","page":3,"trial_type":"survey-map","trial_index":6,"time_elapsed":229563,"internal_node_id":"0.0-6.0","task_version":"prescreen-v0.3","browser_interactions":0},{"responses":{"Q10":"3","Q11":"4","Q12":"1","Q13":"2","Q16":"0","Q14":"3","Q15":"3"},"rt":32985.699999809265,"radio_events":[5054.799999952316,5764.799999952316,10352.699999809265,11676.799999952316,17202.799999952316,21618.699999809265,31452.699999809265,32376.699999809265],"key_events":[5054.799999952316,5764.799999952316,10352.699999809265,11676.799999952316,17202.799999952316,21618.699999809265,31452.699999809265,32376.699999809265,32984.799999952316],"mouse_events":[],"survey":"map","page":4,"trial_type":"survey-map","trial_index":7,"time_elapsed":262552,"internal_node_id":"0.0-7.0","task_version":"prescreen-v0.3","browser_interactions":0,"infrequency":0},{"view_history":[{"page_index":0,"viewing_time":2249.100000143051},{"page_index":1,"viewing_time":2951.899999856949}],"rt":5201.600000143051,"trial_type":"instructions","trial_index":8,"time_elapsed":267754,"internal_node_id":"0.0-8.0","task_version":"prescreen-v0.3"},{"responses":{"01":"Yes","01_ages_12":"12","01_ages_13":"13","01_ages_14":"14","01_ages_15":"15","01_ages_16":"16","01_ages_17":"17","01_ages_18":"18","02":"Yes","02_ages_16":"16","02_ages_17":"17","02_ages_18":"18","03":"No","04":"No","05":"No","06":"No"},"rt":35580.199999809265,"item_order":[0,1,2,3,4,5],"radio_events":[9747.5,24725.39999985695,28745.5,30525.39999985695,31787.39999985695,34551.39999985695],"checkbox_events":[15825.899999856949,17565.299999952316,18113.5,18701.39999985695,19309.599999904633,19911.39999985695,20349.299999952316,25789.39999985695,26179.39999985695,26575.39999985695],"key_events":[0.09999990463256836,9747.5,15825.899999856949,17565.299999952316,18113.5,18701.39999985695,19309.599999904633,19911.39999985695,20349.299999952316,24725.39999985695,25789.39999985695,26179.39999985695,26575.39999985695,28745.5,30525.39999985695,31787.39999985695,34551.39999985695,35577.699999809265],"mouse_events":[],"honeypot":0,"survey":"mace","page":1,"trial_type":"survey-mace","trial_index":9,"time_elapsed":303342,"internal_node_id":"0.0-9.0","task_version":"prescreen-v0.3","browser_interactions":0},{"responses":{"01":"No","02":"No","03":"Yes","03_ages_1":"1","03_ages_2":"2","03_ages_3":"3","03_ages_4":"4","03_ages_5":"5","04":"No","05":"No","06":"No","07":"No","08":"No"},"rt":25222.39999985695,"item_order":[0,1,2,3,4,5,6,7],"radio_events":[4402.899999856949,5605,7006.799999952316,15478.899999856949,17170.89999985695,18998.89999985695,20746.89999985695,21854.699999809265],"checkbox_events":[10463,11518.899999856949,11901,12281,12844.899999856949],"key_events":[4402.899999856949,5605,7006.799999952316,10463,11518.899999856949,11901,12281,12844.899999856949,15478.899999856949,17170.89999985695,18998.89999985695,20746.89999985695,21854.699999809265,25219.099999904633],"mouse_events":[],"honeypot":0,"survey":"mace","page":2,"trial_type":"survey-mace","trial_index":10,"time_elapsed":328569,"internal_node_id":"0.0-10.0","task_version":"prescreen-v0.3","browser_interactions":0},{"responses":{"01":"No","02":"No","03":"No","04":"No"},"rt":12685.900000095367,"item_order":[0,1,2,3],"radio_events":[7406.200000047684,9320.100000143051,10210.100000143051,12066.100000143051],"checkbox_events":[],"key_events":[7406.200000047684,9320.100000143051,10210.100000143051,12066.100000143051,12684.200000047684],"mouse_events":[],"honeypot":0,"survey":"mace","page":3,"trial_type":"survey-mace","trial_index":11,"time_elapsed":341258,"internal_node_id":"0.0-11.0","task_version":"prescreen-v0.3","browser_interactions":0},{"responses":{"01":"No","02":"No"},"rt":8240.299999952316,"item_order":[0,1],"radio_events":[7103.299999952316,7801.299999952316],"checkbox_events":[],"key_events":[7103.299999952316,7801.299999952316,8239.299999952316],"mouse_events":[],"honeypot":0,"survey":"mace","page":4,"trial_type":"survey-mace","trial_index":12,"time_elapsed":349501,"internal_node_id":"0.0-12.0","task_version":"prescreen-v0.3","browser_interactions":0},{"responses":{"01":"No","02":"No","03":"No","04":"No","05":"No"},"rt":12566.199999809265,"item_order":[0,1,2,3,4],"radio_events":[2965.899999856949,4733.899999856949,7837.899999856949,10671.799999952316,11283.799999952316],"checkbox_events":[],"key_events":[2965.899999856949,4733.899999856949,7837.899999856949,10671.799999952316,11283.799999952316,12564],"mouse_events":[],"honeypot":0,"survey":"mace","page":5,"trial_type":"survey-mace","trial_index":13,"time_elapsed":362071,"internal_node_id":"0.0-13.0","task_version":"prescreen-v0.3","browser_interactions":0},{"responses":{"01":"Yes","01_ages_12":"12","01_ages_13":"13","01_ages_14":"14","01_ages_15":"15","01_ages_16":"16","01_ages_17":"17","01_ages_18":"18","02":"Yes","02_ages_14":"14","02_ages_15":"15","02_ages_16":"16","02_ages_17":"17","02_ages_18":"18","03":"Yes","03_ages_11":"11","03_ages_12":"12","03_ages_13":"13","03_ages_14":"14","04":"Yes","04_ages_10":"10","04_ages_11":"11","04_ages_12":"12","05":"No"},"rt":38006.09999990463,"item_order":[0,1,2,3,4],"radio_events":[5903.899999856949,17287.799999952316,25537.799999952316,30961.799999952316,36363.89999985695],"checkbox_events":[8175.899999856949,8559.799999952316,8994,10491.899999856949,11067.899999856949,11427.799999952316,11919.799999952316,18125.89999985695,18653.799999952316,19032,19421.89999985695,22359.799999952316,26553.799999952316,27395.799999952316,27795.799999952316,28355.89999985695,32395.799999952316,33083.799999952316,33749.799999952316],"key_events":[5903.899999856949,8175.899999856949,8559.799999952316,8994,9367.899999856949,9927.799999952316,10491.899999856949,11067.899999856949,11427.799999952316,11919.799999952316,17287.799999952316,18125.89999985695,18653.799999952316,19032,19421.89999985695,22359.799999952316,24929.699999809265,25537.799999952316,26553.799999952316,26903.799999952316,27395.799999952316,27795.799999952316,28355.89999985695,30961.799999952316,31999.799999952316,32395.799999952316,33083.799999952316,33749.799999952316,36363.89999985695,36943.799999952316,38004],"mouse_events":[],"honeypot":0,"survey":"mace","page":6,"trial_type":"survey-mace","trial_index":14,"time_elapsed":400081,"internal_node_id":"0.0-14.0","task_version":"prescreen-v0.3","browser_interactions":0},{"responses":{"01":"No","02":"No","03":"No","04":"No","05":"No","06":"No","07":"Yes","07_ages_13":"13"},"rt":25753.099999904633,"item_order":[0,1,2,3,4,5,6],"radio_events":[6619.799999952316,7481.799999952316,8751.700000047684,9221.700000047684,11639.599999904633,12657.799999952316,15373.700000047684,17463.799999952316,21673.599999904633],"checkbox_events":[22389.700000047684,24645.599999904633,25181.700000047684],"key_events":[6619.799999952316,7481.799999952316,8751.700000047684,9221.700000047684,10729.700000047684,11639.599999904633,12657.799999952316,15373.700000047684,17463.799999952316,21673.599999904633,22389.700000047684,24645.599999904633,25181.700000047684,25749.900000095367],"mouse_events":[],"honeypot":0,"survey":"mace","page":7,"trial_type":"survey-mace","trial_index":15,"time_elapsed":425839,"internal_node_id":"0.0-15.0","task_version":"prescreen-v0.3","browser_interactions":0},{"responses":{"01":"No","02":"No","03":"Yes","03_ages_12":"12","03_ages_13":"13","03_ages_14":"14","03_ages_15":"15","03_ages_16":"16","03_ages_17":"17","03_ages_18":"18","04":"No"},"rt":29388.400000095367,"item_order":[0,1,2,3],"radio_events":[6880.700000047684,14548.799999952316,15418.700000047684,28788.700000047684],"checkbox_events":[20732.700000047684,21256.700000047684,21738.700000047684,22262.599999904633,22706.700000047684,23238.599999904633,23786.599999904633],"key_events":[6880.700000047684,13774.700000047684,14548.799999952316,15418.700000047684,20732.700000047684,21256.700000047684,21738.700000047684,22262.599999904633,22706.700000047684,23238.599999904633,23786.599999904633,28788.700000047684,29386.799999952316],"mouse_events":[],"honeypot":0,"survey":"mace","page":8,"trial_type":"survey-mace","trial_index":16,"time_elapsed":455231,"internal_node_id":"0.0-16.0","task_version":"prescreen-v0.3","browser_interactions":0},{"responses":{"01":"Yes","01_ages_1":"1","01_ages_2":"2","01_ages_3":"3","01_ages_4":"4","01_ages_5":"5","01_ages_6":"6","01_ages_7":"7","01_ages_8":"8","01_ages_9":"9","01_ages_10":"10","01_ages_11":"11","01_ages_12":"12","01_ages_13":"13","01_ages_14":"14","01_ages_15":"15","01_ages_16":"16","01_ages_17":"17","01_ages_18":"18","02":"Yes","02_ages_1":"1","02_ages_2":"2","02_ages_3":"3","02_ages_4":"4","02_ages_5":"5","02_ages_6":"6","02_ages_7":"7","02_ages_8":"8","02_ages_9":"9","02_ages_10":"10","02_ages_11":"11","02_ages_12":"12","02_ages_13":"13","02_ages_14":"14","02_ages_15":"15","02_ages_16":"16","02_ages_17":"17","02_ages_18":"18","03":"Yes","03_ages_1":"1","03_ages_2":"2","03_ages_3":"3","03_ages_4":"4","03_ages_5":"5","03_ages_6":"6","03_ages_7":"7","03_ages_8":"8","03_ages_9":"9","03_ages_10":"10","03_ages_11":"11","03_ages_12":"12","03_ages_13":"13","03_ages_14":"14","03_ages_15":"15","03_ages_16":"16","03_ages_17":"17","03_ages_18":"18","04":"Yes","04_ages_1":"1","04_ages_2":"2","04_ages_3":"3","04_ages_4":"4","04_ages_5":"5","04_ages_6":"6","04_ages_7":"7","04_ages_8":"8","04_ages_9":"9","04_ages_10":"10","04_ages_11":"11","04_ages_12":"12","04_ages_13":"13","04_ages_14":"14","04_ages_15":"15","04_ages_16":"16","04_ages_17":"17","04_ages_18":"18"},"rt":60333.5,"item_order":[0,1,2,3],"radio_events":[5963.099999904633,21623.200000047684,38543.09999990463,39055.09999990463],"checkbox_events":[9641.200000047684,10029.200000047684,10569.200000047684,11277.200000047684,12043.099999904633,12495.099999904633,13175.099999904633,13589.200000047684,14069.200000047684,14517.200000047684,14915.200000047684,15303.200000047684,16237.099999904633,16655.200000047684,17163.099999904633,17679.200000047684,18143.299999952316,18619.200000047684,24713.200000047684,25111.200000047684,25499.099999904633,26183.200000047684,26857.299999952316,27263.200000047684,27661.200000047684,28105.200000047684,28517.200000047684,28987.099999904633,29407.299999952316,29853.200000047684,30281.299999952316,30735.5,31199,31803.200000047684,32855.200000047684,33359.200000047684,40159.5,40493.200000047684,40911.200000047684,41319.200000047684,41701.09999990463,42341.200000047684,42737.299999952316,43115.200000047684,44091.200000047684,44557.200000047684,45001.200000047684,45481.200000047684,46053.200000047684,46593.200000047684,47087.299999952316,47575.09999990463,48389.299999952316,48917.40000009537,50529.200000047684,50899,51291.09999990463,51689.299999952316,52241.09999990463,53087.09999990463,53675.09999990463,54179.09999990463,54595.09999990463,55367.299999952316,56161.299999952316,56923.09999990463,57805.09999990463,58195.09999990463,58611.09999990463,59071.40000009537,59461.200000047684,59855.200000047684],"key_events":[5963.099999904633,9641.200000047684,10029.200000047684,10569.200000047684,11277.200000047684,11661.200000047684,12043.099999904633,12495.099999904633,13175.099999904633,13589.200000047684,14069.200000047684,14517.200000047684,14915.200000047684,15303.200000047684,15693.200000047684,16237.099999904633,16655.200000047684,17163.099999904633,17679.200000047684,18143.299999952316,18619.200000047684,21623.200000047684,23641.099999904633,24713.200000047684,25111.200000047684,25499.099999904633,26183.200000047684,26857.299999952316,27263.200000047684,27661.200000047684,28105.200000047684,28517.200000047684,28987.099999904633,29407.299999952316,29853.200000047684,30281.299999952316,30735.5,31199,31803.200000047684,32303,32855.200000047684,33359.200000047684,38543.09999990463,39055.09999990463,40159.5,40493.200000047684,40911.200000047684,41319.200000047684,41701.09999990463,42341.200000047684,42737.299999952316,43115.200000047684,43671.09999990463,44091.200000047684,44557.200000047684,45001.200000047684,45481.200000047684,46053.200000047684,46593.200000047684,47087.299999952316,47575.09999990463,48115.200000047684,48389.299999952316,48917.40000009537,50529.200000047684,50899,51291.09999990463,51689.299999952316,52241.09999990463,52635.200000047684,53087.09999990463,53675.09999990463,54179.09999990463,54595.09999990463,55041.09999990463,55367.299999952316,55811.09999990463,56161.299999952316,56923.09999990463,57805.09999990463,58195.09999990463,58611.09999990463,59071.40000009537,59461.200000047684,59855.200000047684,60331.299999952316],"mouse_events":[],"honeypot":0,"survey":"mace","page":9,"trial_type":"survey-mace","trial_index":17,"time_elapsed":515567,"internal_node_id":"0.0-17.0","task_version":"prescreen-v0.3","browser_interactions":0},{"responses":{"01":"No","02":"No","03":"No","04":"No","05":"No","06":"Yes","06_ages_17":"17","07":"Yes","07_ages_1":"1","07_ages_2":"2","07_ages_3":"3","07_ages_4":"4","07_ages_5":"5","07_ages_6":"6","07_ages_7":"7","07_ages_8":"8","07_ages_9":"9","07_ages_10":"10","07_ages_11":"11","07_ages_12":"12","07_ages_13":"13","07_ages_14":"14","07_ages_15":"15","07_ages_16":"16","07_ages_17":"17","07_ages_18":"18","08":"Yes","08_ages_1":"1","08_ages_2":"2","08_ages_3":"3","08_ages_4":"4","08_ages_5":"5","08_ages_6":"6","08_ages_7":"7","08_ages_8":"8","08_ages_9":"9","08_ages_10":"10","08_ages_11":"11","08_ages_12":"12","08_ages_13":"13","08_ages_14":"14","08_ages_15":"15","08_ages_16":"16","08_ages_17":"17","08_ages_18":"18"},"rt":47982.799999952316,"item_order":[0,1,2,3,4,5,6,7],"radio_events":[5419.099999904633,7965.299999952316,9705.099999904633,10591.200000047684,14653.099999904633,19499.299999952316,23865.099999904633,29001.099999904633],"checkbox_events":[15985.200000047684,26363.200000047684,27801.400000095367,30291.099999904633,30939.200000047684,31363.099999904633,31729.299999952316,32127.099999904633,32543.200000047684,32941.200000047684,33333.09999990463,33933.59999990463,34295.09999990463,34759.09999990463,35235.09999990463,35693.09999990463,36213.40000009537,36749.200000047684,37095.200000047684,38747,39323.09999990463,39681.09999990463,40061.09999990463,40487.200000047684,40843.09999990463,41337.09999990463,41749.299999952316,42127.200000047684,42751.200000047684,43421.09999990463,43831.09999990463,44235.200000047684,45217,45951.200000047684,46353.299999952316,47083.09999990463,47523.09999990463],"key_events":[5419.099999904633,7075.299999952316,7965.299999952316,9705.099999904633,10591.200000047684,14653.099999904633,15985.200000047684,19499.299999952316,23865.099999904633,26363.200000047684,27801.400000095367,29001.099999904633,30291.099999904633,30939.200000047684,31363.099999904633,31729.299999952316,32127.099999904633,32543.200000047684,32941.200000047684,33333.09999990463,33933.59999990463,34295.09999990463,34759.09999990463,35235.09999990463,35693.09999990463,36213.40000009537,36749.200000047684,37095.200000047684,38747,39323.09999990463,39681.09999990463,40061.09999990463,40487.200000047684,40843.09999990463,41337.09999990463,41749.299999952316,42127.200000047684,42751.200000047684,43421.09999990463,43831.09999990463,44235.200000047684,45217,45951.200000047684,46353.299999952316,46745.200000047684,47083.09999990463,47523.09999990463,47977.59999990463],"mouse_events":[],"honeypot":0,"survey":"mace","page":10,"trial_type":"survey-mace","trial_index":18,"time_elapsed":563557,"internal_node_id":"0.0-18.0","task_version":"prescreen-v0.3","browser_interactions":0,"instructed":0},{"rt":4409.400000095367,"trial_type":"mental-health-alert","trial_index":19,"time_elapsed":567969,"internal_node_id":"0.0-19.0","task_version":"prescreen-v0.3","interactions":"[{\"event\":\"blur\",\"trial\":0,\"time\":6087},{\"event\":\"focus\",\"trial\":0,\"time\":13286}]"}]