[{"view_history":[{"page_index":0,"viewing_time":3851.800000000745},{"page_index":1,"viewing_time":5855.800000000745},{"page_index":2,"viewing_time":3931.800000000745},{"page_index":3,"viewing_time":1786.5999999977648}],"rt":15427.300000000745,"trial_type":"instructions","trial_index":0,"time_elapsed":15438,"internal_node_id":"0.0-0.0","task_version":"prescreen-v0.3"},{"rt":21428.5,"responses":{"age":"28","gender-categorical":"Female","gender-free-response":"","ethnicity":"Not Hispanic or Latino","race":["White"],"education":"Associate degree"},"trial_type":"survey-demo","trial_index":1,"time_elapsed":36874,"internal_node_id":"0.0-1.0","task_version":"prescreen-v0.3"},{"responses":{"Q05":"2","Q09":"2","Q12":"3","Q02":"2","Q03":"1","Q13":"2","Q15":"3","Q07":"1","Q18":"2","Q16":"2","Q20":"2","Q10":"1","Q01":"3","Q08":"3","Q06":"2","Q19":"2","Q11":"1","Q04":"1","Q21":"2","Q17":"1","Q14":"2"},"rt":168517,"item_order":[4,8,11,1,2,12,14,6,17,15,19,9,0,7,5,18,10,3,20,16,13],"radio_events":[8475.5,20108.199999999255,26184,30792.599999997765,35907.89999999851,38852.5,42396.099999997765,64642.199999999255,74448.89999999851,78140.59999999776,100992.69999999925,105218.59999999776,114215.5,117244.79999999702,120355.29999999702,128602.59999999776,140518.8999999985,145591.69999999925,148865.79999999702,153548.19999999925,162654.5,166564.5],"key_events":[],"mouse_events":[8475.5,20108.199999999255,26184,30792.599999997765,35907.89999999851,38852.5,42396.099999997765,64642.199999999255,74448.89999999851,78140.59999999776,100992.69999999925,105218.59999999776,114215.5,117244.79999999702,120355.29999999702,128602.59999999776,140518.8999999985,145591.69999999925,148865.79999999702,153548.19999999925,162654.5,166564.5,168513.79999999702],"straightlining":0.5238095238095238,"zigzagging":0.6,"honeypot":0,"survey":"sns","trial_type":"survey-template","trial_index":2,"time_elapsed":205413,"internal_node_id":"0.0-2.0","task_version":"prescreen-v0.3","browser_interactions":0,"infrequency":0.5},{"responses":{"Q10":"2","Q09":"2","Q08":"1","Q06":"1","Q13":"0","Q05":"2","Q02":"3","Q04":"3","Q11":"2","Q07":"2","Q03":"3","Q01":"3","Q12":"3"},"rt":71593.79999999702,"item_order":[9,8,7,5,12,4,1,3,10,6,2,0,11],"radio_events":[10712.599999997765,15374.199999999255,21107.89999999851,23967.39999999851,26854.39999999851,31381.89999999851,34839.099999997765,49127.699999999255,54209.5,57576,62122.099999997765,64642.199999999255,70191.69999999925],"key_events":[],"mouse_events":[10712.599999997765,15374.199999999255,21107.89999999851,23967.39999999851,26854.39999999851,31381.89999999851,34839.099999997765,49127.699999999255,54209.5,57576,62122.099999997765,64642.199999999255,70191.69999999925,71591.5],"straightlining":0.38461538461538464,"zigzagging":0.4166666666666667,"honeypot":0,"survey":"bisbas","trial_type":"survey-template","trial_index":3,"time_elapsed":277015,"internal_node_id":"0.0-3.0","task_version":"prescreen-v0.3","browser_interactions":0,"infrequency":0},{"responses":{"Q01":"1","Q02":"2","Q03":"1"},"rt":25955.199999999255,"radio_events":[7240.89999999851,18056.099999997765,23836.5],"key_events":[],"mouse_events":[7240.89999999851,18056.099999997765,23836.5,25954.099999997765],"survey":"map","page":1,"trial_type":"survey-map","trial_index":4,"time_elapsed":302984,"internal_node_id":"0.0-4.0","task_version":"prescreen-v0.3","browser_interactions":0},{"responses":{"Q04":"0","Q05":"0","Q06":"0"},"rt":14143.5,"radio_events":[5147.39999999851,8219.89999999851,11738.699999999255],"key_events":[],"mouse_events":[5147.39999999851,8219.89999999851,11738.699999999255,14142.800000000745],"survey":"map","page":2,"trial_type":"survey-map","trial_index":5,"time_elapsed":317130,"internal_node_id":"0.0-5.0","task_version":"prescreen-v0.3","browser_interactions":0},{"responses":{"Q07":"3","Q08":"3","Q09":"3"},"rt":24567.10000000149,"radio_events":[6645.699999999255,13395.900000002235,21984.800000000745],"key_events":[],"mouse_events":[6645.699999999255,13395.900000002235,21984.800000000745,24565.800000000745],"survey":"map","page":3,"trial_type":"survey-map","trial_index":6,"time_elapsed":341700,"internal_node_id":"0.0-6.0","task_version":"prescreen-v0.3","browser_interactions":0},{"responses":{"Q10":"0","Q11":"3","Q12":"0","Q13":"1","Q16":"0","Q14":"2","Q15":"0"},"rt":64871.699999999255,"radio_events":[5121.5,10398.89999999851,30396,44399.89999999851,50847.29999999702,57421.199999999255,62357],"key_events":[],"mouse_events":[5121.5,10398.89999999851,30396,44399.89999999851,50847.29999999702,57421.199999999255,62357,64869.699999999255],"survey":"map","page":4,"trial_type":"survey-map","trial_index":7,"time_elapsed":406583,"internal_node_id":"0.0-7.0","task_version":"prescreen-v0.3","browser_interactions":0,"infrequency":0},{"view_history":[{"page_index":0,"viewing_time":3665},{"page_index":1,"viewing_time":5800.5}],"rt":9466.300000000745,"trial_type":"instructions","trial_index":8,"time_elapsed":416052,"internal_node_id":"0.0-8.0","task_version":"prescreen-v0.3"},{"responses":{"01":"Yes","01_ages_6":"6","01_ages_7":"7","01_ages_8":"8","01_ages_9":"9","01_ages_10":"10","01_ages_11":"11","01_ages_12":"12","01_ages_13":"13","01_ages_14":"14","01_ages_15":"15","01_ages_16":"16","01_ages_17":"17","01_ages_18":"18","02":"Yes","02_ages_6":"6","02_ages_7":"7","02_ages_8":"8","02_ages_9":"9","02_ages_10":"10","02_ages_11":"11","02_ages_12":"12","02_ages_13":"13","02_ages_14":"14","02_ages_15":"15","02_ages_16":"16","02_ages_17":"17","02_ages_18":"18","03":"Yes","03_ages_10":"10","03_ages_11":"11","03_ages_12":"12","03_ages_13":"13","03_ages_14":"14","03_ages_15":"15","03_ages_16":"16","03_ages_17":"17","03_ages_18":"18","04":"Yes","04_ages_6":"6","04_ages_7":"7","04_ages_8":"8","04_ages_9":"9","04_ages_10":"10","04_ages_11":"11","04_ages_12":"12","04_ages_13":"13","04_ages_14":"14","04_ages_15":"15","04_ages_16":"16","04_ages_17":"17","04_ages_18":"18","05":"Yes","05_ages_9":"9","05_ages_10":"10","05_ages_11":"11","05_ages_12":"12","05_ages_13":"13","05_ages_14":"14","06":"Yes","06_ages_6":"6","06_ages_7":"7","06_ages_8":"8","06_ages_9":"9","06_ages_10":"10","06_ages_11":"11","06_ages_12":"12","06_ages_13":"13","06_ages_14":"14"},"rt":170684.20000000298,"item_order":[0,1,2,3,4,5],"radio_events":[8188.20000000298,53129,79950.70000000298,106105.30000000075,130178.5,146990.40000000224],"checkbox_events":[15836.70000000298,16698.5,18276.800000000745,19220.400000002235,20106.900000002235,21379.60000000149,23621,25074.400000002235,26473,27895.60000000149,30373.5,31875.10000000149,33049.10000000149,57312.900000002235,59633.400000002235,61389,62250.70000000298,63033.20000000298,63955.300000000745,65383.60000000149,66290.30000000075,68380.30000000075,69978.80000000075,71157.90000000224,72821,73805.70000000298,93304.10000000149,94554.70000000298,95868.70000000298,97681.90000000224,98760.5,99581.30000000075,100657.10000000149,101470.90000000224,103002.60000000149,111209,112239.60000000149,114468.70000000298,115579.30000000075,116430.5,118713.20000000298,120464.10000000149,121904.80000000075,123093,124618.70000000298,125468.80000000075,126318.20000000298,127427.5,135681.5,136523.90000000224,137678.40000000224,140484.90000000224,142503.6000000015,143723.40000000224,150234.20000000298,151318.30000000075,152555.40000000224,153345.30000000075,154818.5,155764.6000000015,156624.1000000015,157726.6000000015,158930.20000000298,163314.40000000224,164972.5],"key_events":[],"mouse_events":[0.20000000298023224,8188.20000000298,15836.70000000298,16698.5,18276.800000000745,19220.400000002235,20106.900000002235,21379.60000000149,22279.20000000298,23621,25074.400000002235,26473,27895.60000000149,30373.5,31875.10000000149,33049.10000000149,53129,57312.900000002235,58740.5,59633.400000002235,61389,62250.70000000298,63033.20000000298,63955.300000000745,65383.60000000149,66290.30000000075,67348.40000000224,68380.30000000075,69978.80000000075,71157.90000000224,72821,73805.70000000298,79950.70000000298,93304.10000000149,94554.70000000298,95868.70000000298,96826.40000000224,97681.90000000224,98760.5,99581.30000000075,100657.10000000149,101470.90000000224,103002.60000000149,106105.30000000075,111209,112239.60000000149,114468.70000000298,115579.30000000075,116430.5,117511.40000000224,118713.20000000298,120464.10000000149,121904.80000000075,123093,124618.70000000298,125468.80000000075,126318.20000000298,127427.5,130178.5,135681.5,136523.90000000224,137678.40000000224,140484.90000000224,141499.70000000298,142503.6000000015,143723.40000000224,146990.40000000224,150234.20000000298,151318.30000000075,152555.40000000224,153345.30000000075,154818.5,155764.6000000015,156624.1000000015,157726.6000000015,158930.20000000298,163314.40000000224,164972.5,170678.20000000298],"honeypot":0,"survey":"mace","page":1,"trial_type":"survey-mace","trial_index":9,"time_elapsed":586769,"internal_node_id":"0.0-9.0","task_version":"prescreen-v0.3","browser_interactions":0},{"responses":{"01":"Yes","01_ages_10":"10","01_ages_11":"11","01_ages_12":"12","01_ages_13":"13","01_ages_14":"14","02":"No","03":"Yes","03_ages_5":"5","03_ages_6":"6","03_ages_7":"7","03_ages_8":"8","03_ages_9":"9","03_ages_10":"10","03_ages_11":"11","03_ages_12":"12","03_ages_13":"13","03_ages_14":"14","04":"Yes","04_ages_5":"5","04_ages_6":"6","04_ages_7":"7","04_ages_8":"8","04_ages_9":"9","04_ages_10":"10","04_ages_11":"11","04_ages_12":"12","04_ages_13":"13","04_ages_14":"14","05":"Yes","05_ages_7":"7","05_ages_8":"8","05_ages_9":"9","05_ages_10":"10","05_ages_11":"11","05_ages_12":"12","05_ages_13":"13","05_ages_14":"14","06":"No","07":"No","08":"No"},"rt":101536.79999999702,"item_order":[0,1,2,3,4,5,6,7],"radio_events":[3885,6798.599999997765,19627.5,22522.099999997765,58493.5,76134.5,95105.19999999925,97690.59999999776,100134.09999999776],"checkbox_events":[9541.79999999702,11032.599999997765,12636.89999999851,13987.79999999702,15554.599999997765,26178.39999999851,27012.89999999851,28230.29999999702,29120.699999999255,30177.39999999851,32119.89999999851,38548.29999999702,42400,49068.699999999255,50325.699999999255,61199.5,62738.699999999255,64393,65144.29999999702,66142.89999999851,67246.5,68166.19999999925,69054.89999999851,69992.79999999702,71298.5,79983.39999999851,81454,82642.89999999851,85092.89999999851,86002,88902.79999999702,90232.69999999925,91179.29999999702],"key_events":[],"mouse_events":[3885,6798.599999997765,9541.79999999702,11032.599999997765,12636.89999999851,13987.79999999702,15554.599999997765,19627.5,22522.099999997765,26178.39999999851,27012.89999999851,28230.29999999702,29120.699999999255,30177.39999999851,32119.89999999851,38548.29999999702,42400,49068.699999999255,50325.699999999255,58493.5,61199.5,62738.699999999255,64393,65144.29999999702,66142.89999999851,67246.5,68166.19999999925,69054.89999999851,69992.79999999702,71298.5,76134.5,79983.39999999851,81454,82642.89999999851,83790.5,85092.89999999851,86002,87639.59999999776,88902.79999999702,90232.69999999925,91179.29999999702,95105.19999999925,97690.59999999776,100134.09999999776,101531],"honeypot":0,"survey":"mace","page":2,"trial_type":"survey-mace","trial_index":10,"time_elapsed":688329,"internal_node_id":"0.0-10.0","task_version":"prescreen-v0.3","browser_interactions":0},{"responses":{"01":"Yes","01_ages_3":"3","01_ages_4":"4","01_ages_5":"5","01_ages_6":"6","01_ages_7":"7","01_ages_8":"8","01_ages_9":"9","01_ages_10":"10","01_ages_11":"11","01_ages_12":"12","01_ages_13":"13","01_ages_14":"14","02":"No","03":"No","04":"No"},"rt":41057.699999999255,"item_order":[0,1,2,3],"radio_events":[5050,34875,36878.10000000149,39786.199999999255],"checkbox_events":[15349.10000000149,16697.10000000149,18056.60000000149,18905.300000000745,19919.60000000149,20744.300000000745,21793.10000000149,22700.60000000149,23890.5,24692.39999999851,25795.10000000149,29752.800000000745],"key_events":[],"mouse_events":[5050,15349.10000000149,16697.10000000149,18056.60000000149,18905.300000000745,19919.60000000149,20744.300000000745,21793.10000000149,22700.60000000149,23890.5,24692.39999999851,25795.10000000149,29752.800000000745,34875,36878.10000000149,39786.199999999255,41054.10000000149],"honeypot":0,"survey":"mace","page":3,"trial_type":"survey-mace","trial_index":11,"time_elapsed":729393,"internal_node_id":"0.0-11.0","task_version":"prescreen-v0.3","browser_interactions":0},{"responses":{"01":"No","02":"No"},"rt":9592.099999997765,"item_order":[0,1],"radio_events":[4059.89999999851,7191.39999999851],"checkbox_events":[],"key_events":[],"mouse_events":[4059.89999999851,7191.39999999851,9589.699999999255],"honeypot":0,"survey":"mace","page":4,"trial_type":"survey-mace","trial_index":12,"time_elapsed":738995,"internal_node_id":"0.0-12.0","task_version":"prescreen-v0.3","browser_interactions":0},{"responses":{"01":"Yes","01_ages_6":"6","01_ages_7":"7","01_ages_8":"8","01_ages_9":"9","01_ages_10":"10","01_ages_11":"11","01_ages_12":"12","01_ages_13":"13","01_ages_14":"14","02":"Yes","02_ages_6":"6","02_ages_7":"7","02_ages_8":"8","02_ages_9":"9","02_ages_10":"10","02_ages_11":"11","02_ages_12":"12","02_ages_13":"13","02_ages_14":"14","03":"No","04":"No","05":"No"},"rt":102104.19999999925,"item_order":[0,1,2,3,4],"radio_events":[5801.699999999255,72404.69999999925,91865.5,96963,100647],"checkbox_events":[18458.199999999255,19518.199999999255,23909.300000000745,25034.5,26289.800000000745,27433.60000000149,28602.5,29778.300000000745,31062.10000000149,32143.400000002235,34368.300000000745,74816.60000000149,76521.90000000224,77490.80000000075,78661.69999999925,80445.60000000149,81697,82576.10000000149,83564,84434.5],"key_events":[],"mouse_events":[5801.699999999255,18458.199999999255,19518.199999999255,23909.300000000745,25034.5,26289.800000000745,27433.60000000149,28602.5,29778.300000000745,31062.10000000149,32143.400000002235,34368.300000000745,67804.80000000075,67823.80000000075,72404.69999999925,74816.60000000149,75624.69999999925,76521.90000000224,77490.80000000075,78661.69999999925,79580.60000000149,80445.60000000149,81697,82576.10000000149,83564,84434.5,91865.5,96963,100647,102099],"honeypot":0,"survey":"mace","page":5,"trial_type":"survey-mace","trial_index":13,"time_elapsed":841114,"internal_node_id":"0.0-13.0","task_version":"prescreen-v0.3","browser_interactions":0},{"responses":{"01":"Yes","01_ages_6":"6","01_ages_7":"7","01_ages_8":"8","01_ages_9":"9","01_ages_10":"10","01_ages_11":"11","01_ages_12":"12","01_ages_13":"13","01_ages_14":"14","01_ages_15":"15","01_ages_16":"16","01_ages_17":"17","01_ages_18":"18","02":"Yes","02_ages_6":"6","02_ages_7":"7","02_ages_8":"8","02_ages_9":"9","02_ages_10":"10","02_ages_11":"11","02_ages_12":"12","02_ages_13":"13","02_ages_14":"14","02_ages_15":"15","02_ages_16":"16","02_ages_17":"17","02_ages_18":"18","03":"Yes","03_ages_6":"6","03_ages_7":"7","03_ages_8":"8","03_ages_9":"9","03_ages_10":"10","03_ages_11":"11","03_ages_12":"12","03_ages_13":"13","03_ages_14":"14","03_ages_15":"15","03_ages_16":"16","03_ages_17":"17","03_ages_18":"18","04":"Yes","04_ages_6":"6","04_ages_7":"7","04_ages_8":"8","04_ages_9":"9","04_ages_10":"10","04_ages_11":"11","04_ages_12":"12","04_ages_13":"13","04_ages_14":"14","04_ages_15":"15","04_ages_16":"16","04_ages_17":"17","04_ages_18":"18","05":"Yes","05_ages_6":"6","05_ages_7":"7","05_ages_8":"8","05_ages_9":"9","05_ages_10":"10","05_ages_11":"11","05_ages_12":"12","05_ages_13":"13","05_ages_14":"14","05_ages_15":"15","05_ages_16":"16","05_ages_17":"17","05_ages_18":"18"},"rt":167446.1000000015,"item_order":[0,1,2,3,4],"radio_events":[5822.800000000745,27046.800000000745,99219.70000000298,119837.10000000149,142836.90000000224],"checkbox_events":[8829.60000000149,9890.70000000298,11161.70000000298,12013.5,13510.5,14729.900000002235,15851.10000000149,18060.5,18995.900000002235,20099.900000002235,21263.10000000149,22627.900000002235,23810.300000000745,81182.10000000149,82382.90000000224,83470.80000000075,84768.30000000075,86315.20000000298,87505.40000000224,88934.5,90384,91905.80000000075,92954.40000000224,94577.5,95611,96799.40000000224,100796.40000000224,102284.60000000149,103567.10000000149,104702.60000000149,105973.80000000075,107239.30000000075,108750.5,109655,111096.90000000224,112666.10000000149,113564.40000000224,114976,116306.10000000149,122311.10000000149,123449.70000000298,125553.70000000298,126649.10000000149,127754.40000000224,128780.40000000224,130268.5,132171.80000000075,133034.70000000298,134353,135706.40000000224,137012.5,138118.6000000015,144728.40000000224,145820.1000000015,146149.20000000298,146806.5,147953,148999.80000000075,150141.20000000298,151327.20000000298,152413.6000000015,153642.20000000298,155086.20000000298,160285,161787.6000000015,162777.80000000075,164397.5],"key_events":[],"mouse_events":[5822.800000000745,8829.60000000149,9890.70000000298,11161.70000000298,12013.5,13510.5,14729.900000002235,15851.10000000149,17033.5,18060.5,18995.900000002235,20099.900000002235,21263.10000000149,22627.900000002235,23810.300000000745,27046.800000000745,78961.40000000224,81182.10000000149,82382.90000000224,83470.80000000075,84768.30000000075,86315.20000000298,87505.40000000224,88934.5,90384,91905.80000000075,92954.40000000224,94577.5,95611,96799.40000000224,99219.70000000298,100796.40000000224,102284.60000000149,103567.10000000149,104702.60000000149,105973.80000000075,107239.30000000075,108750.5,109655,111096.90000000224,112666.10000000149,113564.40000000224,114976,116306.10000000149,119837.10000000149,122311.10000000149,123449.70000000298,125553.70000000298,126649.10000000149,127754.40000000224,128780.40000000224,130268.5,132171.80000000075,133034.70000000298,134353,135706.40000000224,137012.5,138118.6000000015,142836.90000000224,144728.40000000224,145820.1000000015,146149.20000000298,146806.5,147953,148999.80000000075,150141.20000000298,151327.20000000298,152413.6000000015,153642.20000000298,155086.20000000298,160285,161787.6000000015,162777.80000000075,164397.5,167441.6000000015],"honeypot":0,"survey":"mace","page":6,"trial_type":"survey-mace","trial_index":14,"time_elapsed":1008578,"internal_node_id":"0.0-14.0","task_version":"prescreen-v0.3","browser_interactions":0},{"responses":{"01":"No","02":"Yes","02_ages_6":"6","02_ages_7":"7","02_ages_8":"8","02_ages_9":"9","02_ages_10":"10","02_ages_11":"11","02_ages_12":"12","03":"No","04":"No","05":"No","06":"Yes","06_ages_6":"6","06_ages_7":"7","06_ages_8":"8","07":"Yes","07_ages_6":"6","07_ages_7":"7","07_ages_8":"8"},"rt":83181.89999999851,"item_order":[0,1,2,3,4,5,6],"radio_events":[7254.099999997765,14809.5,33208.099999997765,36887.300000000745,52701.699999999255,59885.599999997765,61884.300000000745,65910.19999999925,74563.89999999851],"checkbox_events":[40000.199999999255,40857.599999997765,41654.099999997765,42793,44294.300000000745,45798.699999999255,46910.599999997765,67838.80000000075,68691.19999999925,70010.89999999851,76487.59999999776,78452.19999999925,79573.59999999776],"key_events":[],"mouse_events":[7254.099999997765,14809.5,33208.099999997765,36887.300000000745,40000.199999999255,40857.599999997765,41654.099999997765,42793,44294.300000000745,45798.699999999255,46910.599999997765,52701.699999999255,59885.599999997765,61884.300000000745,65910.19999999925,67838.80000000075,68691.19999999925,70010.89999999851,74563.89999999851,76487.59999999776,77536.19999999925,78452.19999999925,79573.59999999776,83174.09999999776],"honeypot":0,"survey":"mace","page":7,"trial_type":"survey-mace","trial_index":15,"time_elapsed":1091771,"internal_node_id":"0.0-15.0","task_version":"prescreen-v0.3","browser_interactions":0},{"responses":{"01":"Yes","01_ages_6":"6","01_ages_7":"7","01_ages_8":"8","01_ages_9":"9","01_ages_10":"10","01_ages_11":"11","01_ages_12":"12","01_ages_13":"13","01_ages_14":"14","01_ages_15":"15","01_ages_16":"16","01_ages_17":"17","01_ages_18":"18","02":"Yes","02_ages_1":"1","02_ages_2":"2","02_ages_3":"3","02_ages_4":"4","02_ages_5":"5","02_ages_6":"6","02_ages_7":"7","02_ages_8":"8","02_ages_9":"9","02_ages_10":"10","02_ages_11":"11","02_ages_12":"12","02_ages_13":"13","02_ages_14":"14","02_ages_15":"15","02_ages_16":"16","02_ages_17":"17","02_ages_18":"18","03":"No","04":"Yes","04_ages_9":"9","04_ages_10":"10","04_ages_11":"11","04_ages_12":"12","04_ages_13":"13","04_ages_14":"14","04_ages_15":"15","04_ages_16":"16","04_ages_17":"17","04_ages_18":"18"},"rt":98064.60000000149,"item_order":[0,1,2,3],"radio_events":[11594.900000002235,46859.900000002235,75800.30000000075,78729.70000000298],"checkbox_events":[23120.300000000745,25176.5,26658.900000002235,27631.10000000149,29125.5,30695.20000000298,31868.10000000149,33190.800000000745,34528,37781.400000002235,39164.20000000298,40268,41212.800000000745,49491.20000000298,50507.400000002235,51870.800000000745,52836.800000000745,53739.300000000745,54744.900000002235,55700.60000000149,56794.900000002235,58097.900000002235,58902.10000000149,60414.400000002235,61228.300000000745,62310.300000000745,63394.70000000298,64541.60000000149,65553.70000000298,66699.80000000075,67624.20000000298,86487.10000000149,87401.90000000224,88428.20000000298,89770.60000000149,91213.40000000224,92204.90000000224,93214.90000000224,94113.90000000224,95119.60000000149,96006.80000000075],"key_events":[],"mouse_events":[11594.900000002235,23120.300000000745,25176.5,26658.900000002235,27631.10000000149,29125.5,30695.20000000298,31868.10000000149,33190.800000000745,34528,37781.400000002235,39164.20000000298,40268,41212.800000000745,46859.900000002235,49491.20000000298,50507.400000002235,51870.800000000745,52836.800000000745,53739.300000000745,54744.900000002235,55700.60000000149,56794.900000002235,58097.900000002235,58902.10000000149,60414.400000002235,61228.300000000745,62310.300000000745,63394.70000000298,64541.60000000149,65553.70000000298,66699.80000000075,67624.20000000298,75800.30000000075,78729.70000000298,86487.10000000149,87401.90000000224,88428.20000000298,89770.60000000149,91213.40000000224,92204.90000000224,93214.90000000224,94113.90000000224,95119.60000000149,96006.80000000075,98060.90000000224],"honeypot":0,"survey":"mace","page":8,"trial_type":"survey-mace","trial_index":16,"time_elapsed":1189846,"internal_node_id":"0.0-16.0","task_version":"prescreen-v0.3","browser_interactions":0},{"responses":{"01":"No","02":"No","03":"No","04":"Yes","04_ages_1":"1","04_ages_2":"2","04_ages_3":"3","04_ages_4":"4","04_ages_5":"5","04_ages_6":"6","04_ages_7":"7","04_ages_8":"8","04_ages_9":"9","04_ages_10":"10","04_ages_11":"11","04_ages_12":"12"},"rt":52146.199999999255,"item_order":[0,1,2,3],"radio_events":[13568.699999999255,18558.199999999255,21938.699999999255,27153],"checkbox_events":[32558,33400.39999999851,34477.39999999851,35415.10000000149,37256.699999999255,38431.5,39321.699999999255,40147.39999999851,41986.300000000745,43502.699999999255,45514.5,46640.300000000745],"key_events":[],"mouse_events":[13568.699999999255,18558.199999999255,21938.699999999255,27153,32558,33400.39999999851,34477.39999999851,35415.10000000149,36310.60000000149,37256.699999999255,38431.5,39321.699999999255,40147.39999999851,40933.5,41986.300000000745,43502.699999999255,45514.5,46640.300000000745,52143.89999999851],"honeypot":0,"survey":"mace","page":9,"trial_type":"survey-mace","trial_index":17,"time_elapsed":1241999,"internal_node_id":"0.0-17.0","task_version":"prescreen-v0.3","browser_interactions":0},{"responses":{"01":"No","02":"No","03":"Yes","03_ages_8":"8","03_ages_9":"9","03_ages_10":"10","03_ages_11":"11","03_ages_12":"12","03_ages_13":"13","03_ages_14":"14","03_ages_15":"15","03_ages_16":"16","03_ages_17":"17","03_ages_18":"18","04":"Yes","04_ages_1":"1","04_ages_2":"2","04_ages_3":"3","04_ages_4":"4","04_ages_5":"5","04_ages_6":"6","04_ages_7":"7","04_ages_8":"8","04_ages_9":"9","04_ages_10":"10","04_ages_11":"11","04_ages_12":"12","04_ages_13":"13","04_ages_14":"14","04_ages_15":"15","04_ages_16":"16","04_ages_17":"17","04_ages_18":"18","05":"Yes","05_ages_1":"1","05_ages_2":"2","05_ages_3":"3","05_ages_4":"4","05_ages_5":"5","05_ages_6":"6","05_ages_7":"7","05_ages_8":"8","05_ages_9":"9","05_ages_10":"10","05_ages_11":"11","05_ages_12":"12","05_ages_13":"13","05_ages_14":"14","05_ages_15":"15","05_ages_16":"16","05_ages_17":"17","05_ages_18":"18","06":"Yes","06_ages_17":"17","07":"No","08":"No"},"rt":129020.89999999851,"item_order":[0,1,2,3,4,5,6,7],"radio_events":[5629.29999999702,9989,48311.79999999702,67125.19999999925,95471.69999999925,120058.59999999776,122012.59999999776,127772.59999999776],"checkbox_events":[12771.699999999255,13699.199999999255,14988,16027.699999999255,16883.5,17967,19207.29999999702,20998.099999997765,22020,23155.699999999255,28098.099999997765,69049,70666.5,71465.59999999776,72619.59999999776,73905.39999999851,75336.5,76234.19999999925,77204.19999999925,78367.59999999776,79505.19999999925,80449.59999999776,81413.09999999776,82498.79999999702,83631.09999999776,85005.79999999702,87798.59999999776,89092.79999999702,90295.29999999702,97472.29999999702,98524.89999999851,99599.59999999776,101426.39999999851,102614.59999999776,103776.39999999851,104637.29999999702,105890.29999999702,106720.19999999925,108165.59999999776,109042.29999999702,110211.89999999851,111257.79999999702,112181.59999999776,113051.19999999925,114146.39999999851,115184.69999999925,116242.19999999925,124007],"key_events":[],"mouse_events":[5629.29999999702,9989,12771.699999999255,13699.199999999255,14988,16027.699999999255,16883.5,17967,19207.29999999702,20998.099999997765,22020,23155.699999999255,24890.79999999702,28098.099999997765,48311.79999999702,67125.19999999925,69049,70666.5,71465.59999999776,72619.59999999776,73905.39999999851,75336.5,76234.19999999925,77204.19999999925,78367.59999999776,79505.19999999925,80449.59999999776,81413.09999999776,82498.79999999702,83631.09999999776,85005.79999999702,86622.29999999702,87798.59999999776,89092.79999999702,90295.29999999702,95471.69999999925,97472.29999999702,98524.89999999851,99599.59999999776,101426.39999999851,102614.59999999776,103776.39999999851,104637.29999999702,105890.29999999702,106720.19999999925,108165.59999999776,109042.29999999702,110211.89999999851,111257.79999999702,112181.59999999776,113051.19999999925,114146.39999999851,115184.69999999925,116242.19999999925,120058.59999999776,122012.59999999776,124007,127772.59999999776,129014.09999999776],"honeypot":0,"survey":"mace","page":10,"trial_type":"survey-mace","trial_index":18,"time_elapsed":1371045,"internal_node_id":"0.0-18.0","task_version":"prescreen-v0.3","browser_interactions":0,"instructed":0},{"rt":8001.10000000149,"trial_type":"mental-health-alert","trial_index":19,"time_elapsed":1379049,"internal_node_id":"0.0-19.0","task_version":"prescreen-v0.3","interactions":"[]"}]