[{"view_history":[{"page_index":0,"viewing_time":4350.600000023842},{"page_index":1,"viewing_time":3749.899999976158},{"page_index":2,"viewing_time":6231.900000095367},{"page_index":3,"viewing_time":1660}],"rt":15993.300000071526,"trial_type":"instructions","trial_index":0,"time_elapsed":16007,"internal_node_id":"0.0-0.0","task_version":"prescreen-v0.3"},{"rt":20143.199999928474,"responses":{"age":"22","gender-categorical":"Female","gender-free-response":"","ethnicity":"Not Hispanic or Latino","race":["White"],"education":"Bachelor degree"},"trial_type":"survey-demo","trial_index":1,"time_elapsed":36167,"internal_node_id":"0.0-1.0","task_version":"prescreen-v0.3"},{"responses":{"Q13":"2","Q17":"1","Q20":"3","Q19":"1","Q04":"1","Q07":"0","Q10":"2","Q01":"1","Q02":"1","Q09":"2","Q14":"3","Q18":"2","Q11":"2","Q15":"2","Q12":"2","Q06":"1","Q05":"0","Q03":"1","Q16":"2","Q21":"2","Q08":"2"},"rt":163409.29999995232,"item_order":[12,16,19,18,3,6,9,0,1,8,13,17,10,14,11,5,4,2,15,20,7],"radio_events":[23856.699999928474,28566.299999952316,35942.10000002384,46422.199999928474,51514.5,60628.199999928474,66478.29999995232,72068.19999992847,76224.10000002384,80552,87460.5,113682,116918.10000002384,120918.10000002384,128310,135796.19999992847,142064.19999992847,144972.39999997616,151404.10000002384,158384.29999995232,162032.19999992847],"key_events":[],"mouse_events":[23856.699999928474,28566.299999952316,35942.10000002384,45206.39999997616,46422.199999928474,51514.5,60628.199999928474,65712.29999995232,66478.29999995232,72068.19999992847,76224.10000002384,79716.69999992847,80552,87460.5,113682,116014,116918.10000002384,120918.10000002384,128310,133908.79999995232,135796.19999992847,142064.19999992847,144972.39999997616,151404.10000002384,158384.29999995232,162032.19999992847,163404.19999992847],"straightlining":0.47619047619047616,"zigzagging":0.5,"honeypot":0,"survey":"sns","trial_type":"survey-template","trial_index":2,"time_elapsed":199587,"internal_node_id":"0.0-2.0","task_version":"prescreen-v0.3","browser_interactions":4,"infrequency":0.5},{"responses":{"Q01":"3","Q07":"2","Q09":"1","Q02":"2","Q10":"1","Q05":"2","Q03":"3","Q11":"2","Q12":"1","Q04":"3","Q13":"0","Q06":"2","Q08":"2"},"rt":83767.40000009537,"item_order":[0,6,8,1,9,4,2,10,11,3,12,5,7],"radio_events":[8477.400000095367,11582,17233.400000095367,22901.800000071526,28561.700000047684,30845.400000095367,36481.300000071526,41979.40000009537,63100.200000047684,71269.40000009537,75689.5,79579.20000004768,81521.20000004768],"key_events":[],"mouse_events":[8477.400000095367,11582,17233.400000095367,22901.800000071526,28561.700000047684,30845.400000095367,36481.300000071526,41979.40000009537,63100.200000047684,71269.40000009537,75689.5,79579.20000004768,81521.20000004768,83766.10000002384],"straightlining":0.46153846153846156,"zigzagging":0.75,"honeypot":0,"survey":"bisbas","trial_type":"survey-template","trial_index":3,"time_elapsed":283359,"internal_node_id":"0.0-3.0","task_version":"prescreen-v0.3","browser_interactions":0,"infrequency":0},{"responses":{"Q01":"2","Q02":"1","Q03":"3"},"rt":27248.300000071526,"radio_events":[9871.700000047684,16980.900000095367,25446.900000095367],"key_events":[],"mouse_events":[9871.700000047684,16980.900000095367,25446.900000095367,27247.5],"survey":"map","page":1,"trial_type":"survey-map","trial_index":4,"time_elapsed":310612,"internal_node_id":"0.0-4.0","task_version":"prescreen-v0.3","browser_interactions":0},{"responses":{"Q04":"1","Q05":"1","Q06":"3"},"rt":46652.60000002384,"radio_events":[7237.700000047684,19797.700000047684,43859.700000047684],"key_events":[],"mouse_events":[7237.700000047684,19797.700000047684,43859.700000047684,46651.800000071526],"survey":"map","page":2,"trial_type":"survey-map","trial_index":5,"time_elapsed":357268,"internal_node_id":"0.0-5.0","task_version":"prescreen-v0.3","browser_interactions":0},{"responses":{"Q07":"2","Q08":"3","Q09":"2"},"rt":20520.5,"radio_events":[10659.899999976158,16412.099999904633,18836.299999952316],"key_events":[],"mouse_events":[10659.899999976158,16412.099999904633,18836.299999952316,20519.899999976158],"survey":"map","page":3,"trial_type":"survey-map","trial_index":6,"time_elapsed":377792,"internal_node_id":"0.0-6.0","task_version":"prescreen-v0.3","browser_interactions":0},{"responses":{"Q10":"0","Q11":"0","Q12":"0","Q13":"1","Q16":"0","Q14":"1","Q15":"0"},"rt":42260.299999952316,"radio_events":[4681.100000023842,10613,16739.199999928474,24737,29265.699999928474,36156.89999997616,40879],"key_events":[],"mouse_events":[4681.100000023842,9763.100000023842,10613,16739.199999928474,24737,29265.699999928474,36156.89999997616,40879,42259.299999952316],"survey":"map","page":4,"trial_type":"survey-map","trial_index":7,"time_elapsed":420057,"internal_node_id":"0.0-7.0","task_version":"prescreen-v0.3","browser_interactions":0,"infrequency":0},{"view_history":[{"page_index":0,"viewing_time":2995.7000000476837},{"page_index":1,"viewing_time":6416.100000023842}],"rt":9413,"trial_type":"instructions","trial_index":8,"time_elapsed":429472,"internal_node_id":"0.0-8.0","task_version":"prescreen-v0.3"},{"responses":{"01":"Yes","01_ages_11":"11","01_ages_12":"12","01_ages_13":"13","01_ages_14":"14","01_ages_15":"15","01_ages_16":"16","01_ages_17":"17","01_ages_18":"18","02":"Yes","02_ages_11":"11","02_ages_12":"12","02_ages_13":"13","02_ages_14":"14","02_ages_15":"15","02_ages_16":"16","02_ages_17":"17","02_ages_18":"18","03":"Yes","03_ages_14":"14","03_ages_15":"15","03_ages_16":"16","03_ages_17":"17","04":"Yes","04_ages_11":"11","04_ages_12":"12","04_ages_13":"13","04_ages_14":"14","04_ages_15":"15","04_ages_16":"16","04_ages_17":"17","04_ages_18":"18","05":"No","06":"Yes","06_ages_14":"14"},"rt":81905,"item_order":[0,1,2,3,4,5],"radio_events":[11832.700000047684,31856.200000047684,44662,59338.10000002384,69876,73578],"checkbox_events":[20252.100000023842,21694,22775.700000047684,23727.800000071526,24422.200000047684,25068.399999976158,26057.700000047684,26806.399999976158,34210.300000071526,35044.300000071526,35659.89999997616,36641.700000047684,37570.300000071526,38364.10000002384,39105.700000047684,39977.60000002384,49945.800000071526,50858.10000002384,51653.89999997616,52549.60000002384,61342.5,61917.700000047684,62954.300000071526,63507.5,64161.700000047684,65503.800000071526,66555.70000004768,67568.20000004768,77911.70000004768],"key_events":[],"mouse_events":[0.20000004768371582,11832.700000047684,20252.100000023842,21694,22775.700000047684,23727.800000071526,24422.200000047684,25068.399999976158,26057.700000047684,26806.399999976158,31856.200000047684,34210.300000071526,35044.300000071526,35659.89999997616,36641.700000047684,37570.300000071526,38364.10000002384,39105.700000047684,39977.60000002384,44662,49945.800000071526,50858.10000002384,51653.89999997616,52549.60000002384,59338.10000002384,61342.5,61917.700000047684,62954.300000071526,63507.5,64161.700000047684,64686.39999997616,65503.800000071526,66039.80000007153,66555.70000004768,67568.20000004768,69876,73578,77911.70000004768,78846.10000002384,81902.20000004768],"honeypot":0,"survey":"mace","page":1,"trial_type":"survey-mace","trial_index":9,"time_elapsed":511385,"internal_node_id":"0.0-9.0","task_version":"prescreen-v0.3","browser_interactions":0},{"responses":{"01":"No","02":"No","03":"No","04":"No","05":"No","06":"Yes","06_ages_13":"13","06_ages_14":"14","06_ages_15":"15","06_ages_16":"16","06_ages_17":"17","06_ages_18":"18","07":"No","08":"No"},"rt":46415,"item_order":[0,1,2,3,4,5,6,7],"radio_events":[4969.599999904633,6567.5,8500.099999904633,12301.399999976158,21787.5,24056,30259.599999904633,44769.39999997616],"checkbox_events":[31529.899999976158,32269.399999976158,32861.199999928474,33711.89999997616,34521.39999997616,36313.5],"key_events":[],"mouse_events":[4969.599999904633,6567.5,8500.099999904633,12301.399999976158,16175.699999928474,21787.5,24056,30259.599999904633,31529.899999976158,32269.399999976158,32861.199999928474,33711.89999997616,34521.39999997616,36313.5,40001.5,44769.39999997616,46407.59999990463],"honeypot":0,"survey":"mace","page":2,"trial_type":"survey-mace","trial_index":10,"time_elapsed":557813,"internal_node_id":"0.0-10.0","task_version":"prescreen-v0.3","browser_interactions":0},{"responses":{"01":"No","02":"No","03":"No","04":"No"},"rt":9619.700000047684,"item_order":[0,1,2,3],"radio_events":[3185.4000000953674,4283.5,6459.400000095367,8843.400000095367],"checkbox_events":[],"key_events":[],"mouse_events":[3185.4000000953674,4283.5,6459.400000095367,8843.400000095367,9615.600000023842],"honeypot":0,"survey":"mace","page":3,"trial_type":"survey-mace","trial_index":11,"time_elapsed":567437,"internal_node_id":"0.0-11.0","task_version":"prescreen-v0.3","browser_interactions":0},{"responses":{"01":"No","02":"No"},"rt":5868,"item_order":[0,1],"radio_events":[4089.2000000476837,4915.100000023842],"checkbox_events":[],"key_events":[],"mouse_events":[4089.2000000476837,4915.100000023842,5867],"honeypot":0,"survey":"mace","page":4,"trial_type":"survey-mace","trial_index":12,"time_elapsed":573308,"internal_node_id":"0.0-12.0","task_version":"prescreen-v0.3","browser_interactions":0},{"responses":{"01":"Yes","01_ages_11":"11","01_ages_12":"12","01_ages_13":"13","01_ages_14":"14","01_ages_15":"15","01_ages_16":"16","02":"No","03":"No","04":"No","05":"No"},"rt":40412.700000047684,"item_order":[0,1,2,3,4],"radio_events":[12011.800000071526,24869.900000095367,33412.300000071526,37176.10000002384,38780.40000009537],"checkbox_events":[13943.800000071526,14833.700000047684,16228,16859.800000071526,18315.600000023842,19064.5],"key_events":[],"mouse_events":[12011.800000071526,13943.800000071526,14833.700000047684,16228,16859.800000071526,17568,18315.600000023842,19064.5,24869.900000095367,33412.300000071526,37176.10000002384,38780.40000009537,40409.700000047684],"honeypot":0,"survey":"mace","page":5,"trial_type":"survey-mace","trial_index":13,"time_elapsed":613725,"internal_node_id":"0.0-13.0","task_version":"prescreen-v0.3","browser_interactions":0},{"responses":{"01":"Yes","01_ages_11":"11","01_ages_12":"12","01_ages_13":"13","01_ages_14":"14","01_ages_15":"15","01_ages_16":"16","01_ages_17":"17","01_ages_18":"18","02":"Yes","02_ages_11":"11","02_ages_12":"12","02_ages_13":"13","02_ages_14":"14","02_ages_15":"15","02_ages_16":"16","02_ages_17":"17","02_ages_18":"18","03":"Yes","03_ages_13":"13","03_ages_14":"14","03_ages_15":"15","03_ages_16":"16","03_ages_17":"17","03_ages_18":"18","04":"No","05":"Yes","05_ages_14":"14","05_ages_15":"15","05_ages_16":"16","05_ages_17":"17"},"rt":54545.299999952316,"item_order":[0,1,2,3,4],"radio_events":[9405.100000023842,19932.699999928474,30880.5,41562.5,46728.699999928474],"checkbox_events":[11360.600000023842,12078.399999976158,12530.600000023842,13496.399999976158,14524.399999976158,15288.399999976158,16083.100000023842,16732.399999976158,21397.100000023842,22230.399999976158,24453.199999928474,26821.399999976158,27374.5,28136.399999976158,28760.600000023842,29548.399999976158,33133.39999997616,33795.10000002384,34715,35220.60000002384,36132.5,37034.299999952316,49573.10000002384,50391.10000002384,51247,52486.299999952316],"key_events":[],"mouse_events":[9405.100000023842,11360.600000023842,12078.399999976158,12530.600000023842,13090.299999952316,13496.399999976158,14524.399999976158,15288.399999976158,16083.100000023842,16732.399999976158,19932.699999928474,21397.100000023842,22230.399999976158,22900.699999928474,24453.199999928474,25434.5,26228.399999976158,26821.399999976158,27374.5,28136.399999976158,28760.600000023842,29548.399999976158,30880.5,33133.39999997616,33795.10000002384,34715,35220.60000002384,36132.5,37034.299999952316,41562.5,46728.699999928474,49573.10000002384,50391.10000002384,51247,52486.299999952316,54543.10000002384],"honeypot":0,"survey":"mace","page":6,"trial_type":"survey-mace","trial_index":14,"time_elapsed":668276,"internal_node_id":"0.0-14.0","task_version":"prescreen-v0.3","browser_interactions":0},{"responses":{"01":"Yes","01_ages_14":"14","02":"No","03":"Yes","03_ages_14":"14","04":"No","05":"No","06":"No","07":"No"},"rt":34111.5,"item_order":[0,1,2,3,4,5,6],"radio_events":[7221.200000047684,15706.5,20420.5,23996.700000047684,26216.200000047684,30710.300000071526,32596.400000095367],"checkbox_events":[8740.600000023842,21844.900000095367],"key_events":[],"mouse_events":[7221.200000047684,8740.600000023842,15706.5,19976.200000047684,20420.5,21844.900000095367,23996.700000047684,26216.200000047684,27408.900000095367,27993,29598.600000023842,30126.300000071526,30710.300000071526,32004.100000023842,32596.400000095367,34108.700000047684],"honeypot":0,"survey":"mace","page":7,"trial_type":"survey-mace","trial_index":15,"time_elapsed":702395,"internal_node_id":"0.0-15.0","task_version":"prescreen-v0.3","browser_interactions":0},{"responses":{"01":"Yes","01_ages_10":"10","01_ages_11":"11","01_ages_12":"12","01_ages_13":"13","01_ages_14":"14","01_ages_15":"15","01_ages_16":"16","02":"Yes","02_ages_1":"1","02_ages_2":"2","02_ages_3":"3","02_ages_7":"7","02_ages_8":"8","02_ages_9":"9","02_ages_10":"10","02_ages_11":"11","02_ages_12":"12","02_ages_13":"13","02_ages_14":"14","02_ages_15":"15","02_ages_16":"16","02_ages_17":"17","02_ages_18":"18","03":"No","04":"Yes","04_ages_1":"1","04_ages_2":"2","04_ages_3":"3","04_ages_4":"4","04_ages_5":"5","04_ages_6":"6","04_ages_7":"7","04_ages_8":"8","04_ages_9":"9","04_ages_10":"10","04_ages_11":"11","04_ages_12":"12","04_ages_13":"13"},"rt":120436.60000002384,"item_order":[0,1,2,3],"radio_events":[15222.399999976158,49547.89999997616,92115.89999997616,96041.89999997616,100987.89999997616],"checkbox_events":[18197.799999952316,20488,21671.899999976158,22794.699999928474,23652.100000023842,24610.100000023842,25871.899999976158,27072.299999952316,28894.5,29970.100000023842,36801.89999997616,37589.89999997616,38298.10000002384,39022.699999928474,39941.799999952316,40588.5,41413.89999997616,45893.89999997616,46836.5,51230.299999952316,52096.199999928474,54057.89999997616,54735.799999952316,56652.60000002384,57127.89999997616,58499.799999952316,59630.5,60984.5,62013.89999997616,62783.89999997616,64077.799999952316,68767.89999997616,69398.29999995232,70185.89999997616,70691.79999995232,71137.10000002384,71900,72619.79999995232,73551,74181.89999997616,74975.89999997616,75872.10000002384,76969.79999995232,78013.89999997616,79098,83772.10000002384,84730,85259.79999995232,104542.10000002384,107585.79999995232,108317.69999992847,109807.69999992847,110680.10000002384,111872.10000002384,112550,113241.79999995232,114044.10000002384,115329.89999997616,116188.19999992847,117278.39999997616,118087.79999995232],"key_events":[],"mouse_events":[15222.399999976158,18197.799999952316,20488,21671.899999976158,22794.699999928474,23652.100000023842,24610.100000023842,25871.899999976158,27072.299999952316,28894.5,29970.100000023842,36801.89999997616,37589.89999997616,38298.10000002384,39022.699999928474,39592.199999928474,39941.799999952316,40588.5,41413.89999997616,45893.89999997616,46836.5,49547.89999997616,51230.299999952316,52096.199999928474,52709.89999997616,54057.89999997616,54735.799999952316,56652.60000002384,57127.89999997616,58032.799999952316,58499.799999952316,59630.5,60197.799999952316,60984.5,61608,62013.89999997616,62783.89999997616,64077.799999952316,68767.89999997616,69398.29999995232,70185.89999997616,70691.79999995232,71137.10000002384,71900,72619.79999995232,73551,74181.89999997616,74975.89999997616,75872.10000002384,76969.79999995232,78013.89999997616,79098,83772.10000002384,84730,85259.79999995232,92115.89999997616,96041.89999997616,100987.89999997616,104542.10000002384,107585.79999995232,108317.69999992847,109807.69999992847,110680.10000002384,111872.10000002384,112550,113241.79999995232,114044.10000002384,115329.89999997616,116188.19999992847,117278.39999997616,118087.79999995232,120432],"honeypot":0,"survey":"mace","page":8,"trial_type":"survey-mace","trial_index":16,"time_elapsed":822837,"internal_node_id":"0.0-16.0","task_version":"prescreen-v0.3","browser_interactions":0},{"responses":{"01":"Yes","01_ages_1":"1","01_ages_2":"2","01_ages_3":"3","01_ages_4":"4","01_ages_5":"5","01_ages_6":"6","01_ages_7":"7","01_ages_8":"8","01_ages_9":"9","01_ages_10":"10","01_ages_11":"11","01_ages_12":"12","02":"No","03":"No","04":"Yes","04_ages_1":"1","04_ages_2":"2","04_ages_3":"3","04_ages_4":"4","04_ages_5":"5","04_ages_6":"6","04_ages_7":"7","04_ages_8":"8","04_ages_9":"9","04_ages_10":"10","04_ages_11":"11","04_ages_12":"12","04_ages_13":"13","04_ages_14":"14","04_ages_15":"15","04_ages_16":"16","04_ages_17":"17","04_ages_18":"18"},"rt":57530.89999997616,"item_order":[0,1,2,3],"radio_events":[4556.899999976158,26774.899999976158,34782.89999997616,39715.699999928474],"checkbox_events":[12884.899999976158,13874.899999976158,14677.299999952316,15247.299999952316,15909.299999952316,17442.699999928474,18113.099999904633,18713.199999928474,19444.699999928474,20488.799999952316,21775.199999928474,22442.799999952316,42121,42846.699999928474,43608.699999928474,44388.799999952316,45301.39999997616,46250.699999928474,46786.699999928474,47698.699999928474,48780.699999928474,49576.799999952316,50440.799999952316,51197.39999997616,52216.59999990463,53595,54374.59999990463,55371.299999952316,55955.39999997616,56632.89999997616],"key_events":[],"mouse_events":[4556.899999976158,12884.899999976158,13874.899999976158,14677.299999952316,15247.299999952316,15909.299999952316,17442.699999928474,18113.099999904633,18713.199999928474,19444.699999928474,19991.5,20488.799999952316,21189,21775.199999928474,22442.799999952316,26774.899999976158,34782.89999997616,39715.699999928474,42121,42846.699999928474,43608.699999928474,44388.799999952316,45301.39999997616,46250.699999928474,46786.699999928474,47698.699999928474,48780.699999928474,49576.799999952316,50440.799999952316,51197.39999997616,52216.59999990463,53150.59999990463,53595,54374.59999990463,55371.299999952316,55955.39999997616,56632.89999997616,57529.199999928474],"honeypot":0,"survey":"mace","page":9,"trial_type":"survey-mace","trial_index":17,"time_elapsed":880372,"internal_node_id":"0.0-17.0","task_version":"prescreen-v0.3","browser_interactions":2},{"responses":{"01":"Yes","01_ages_11":"11","01_ages_12":"12","01_ages_13":"13","01_ages_14":"14","02":"No","03":"Yes","03_ages_11":"11","03_ages_12":"12","03_ages_13":"13","03_ages_14":"14","03_ages_15":"15","03_ages_16":"16","03_ages_17":"17","03_ages_18":"18","04":"Yes","04_ages_11":"11","04_ages_12":"12","04_ages_13":"13","04_ages_14":"14","04_ages_15":"15","04_ages_16":"16","04_ages_17":"17","04_ages_18":"18","05":"No","06":"Yes","06_ages_17":"17","07":"No","08":"No"},"rt":80091.60000002384,"item_order":[0,1,2,3,4,5,6,7],"radio_events":[3840.3000000715256,30649.800000071526,32691.600000023842,47467.5,63691.700000047684,65591.60000002384,74517.60000002384,79175.70000004768],"checkbox_events":[5522,6145.700000047684,7009.900000095367,8459.700000047684,9121.900000095367,10157.900000095367,11325.900000095367,12337.700000047684,14035.5,14845.800000071526,15757.800000071526,16707.700000047684,17797.600000023842,18608.200000047684,20370.300000071526,21327.700000047684,22167.5,23134.300000071526,36383.700000047684,38346.10000002384,39163.700000047684,40246.200000047684,41010.10000002384,42091.800000071526,42863.700000047684,43665.700000047684,51899.90000009537,53409.700000047684,54454,55209.800000071526,55753.700000047684,56316.200000047684,57219.700000047684,57747.60000002384,67195.60000002384],"key_events":[],"mouse_events":[3449.7000000476837,3840.3000000715256,5522,6145.700000047684,7009.900000095367,8459.700000047684,9121.900000095367,10157.900000095367,11325.900000095367,12337.700000047684,13023.700000047684,14035.5,14845.800000071526,15392.100000023842,15757.800000071526,16707.700000047684,17151.600000023842,17797.600000023842,18608.200000047684,20370.300000071526,21327.700000047684,22167.5,23134.300000071526,27619.600000023842,30649.800000071526,32691.600000023842,36383.700000047684,37193.700000047684,38346.10000002384,39163.700000047684,40246.200000047684,41010.10000002384,42091.800000071526,42863.700000047684,43665.700000047684,47467.5,51899.90000009537,53409.700000047684,54454,55209.800000071526,55753.700000047684,56316.200000047684,57219.700000047684,57747.60000002384,63691.700000047684,65591.60000002384,67195.60000002384,74517.60000002384,79175.70000004768,80087.70000004768],"honeypot":0,"survey":"mace","page":10,"trial_type":"survey-mace","trial_index":18,"time_elapsed":960472,"internal_node_id":"0.0-18.0","task_version":"prescreen-v0.3","browser_interactions":0,"instructed":0},{"rt":4414.200000047684,"trial_type":"mental-health-alert","trial_index":19,"time_elapsed":964889,"internal_node_id":"0.0-19.0","task_version":"prescreen-v0.3","interactions":"[{\"event\":\"blur\",\"trial\":2,\"time\":45117},{\"event\":\"focus\",\"trial\":2,\"time\":45427},{\"event\":\"blur\",\"trial\":2,\"time\":55853},{\"event\":\"focus\",\"trial\":2,\"time\":56190},{\"event\":\"blur\",\"trial\":17,\"time\":855348},{\"event\":\"focus\",\"trial\":17,\"time\":855427}]"}]