[{"view_history":[{"page_index":0,"viewing_time":2122.899999976158},{"page_index":1,"viewing_time":1492.1000000238419},{"page_index":2,"viewing_time":1319.3999999761581},{"page_index":3,"viewing_time":1348.7000000476837}],"rt":6284.300000011921,"trial_type":"instructions","trial_index":0,"time_elapsed":6311,"internal_node_id":"0.0-0.0","task_version":"prescreen-v0.3"},{"rt":17581.900000035763,"responses":{"age":"20","gender-categorical":"Female","gender-free-response":"","ethnicity":"Not Hispanic or Latino","race":["Black or African American","White"],"education":"High school"},"trial_type":"survey-demo","trial_index":1,"time_elapsed":23906,"internal_node_id":"0.0-1.0","task_version":"prescreen-v0.3"},{"responses":{"Q17":"2","Q05":"3","Q20":"0","Q21":"3","Q01":"2","Q10":"1","Q07":"1","Q15":"0","Q09":"1","Q08":"1","Q12":"0","Q11":"1","Q16":"0","Q19":"0","Q13":"1","Q02":"1","Q14":"0","Q06":"1","Q03":"1","Q04":"0","Q18":"0"},"rt":102917.60000002384,"item_order":[16,4,19,20,0,9,6,14,8,7,11,10,15,18,12,1,13,5,2,3,17],"radio_events":[7413.600000023842,14284,24258.200000047684,26695.80000001192,32600.200000047684,33644,34951.30000001192,46499.40000003576,48721.60000002384,56649.40000003576,59120.10000002384,62326.200000047684,65714.80000001192,68311.60000002384,70509,74797.70000004768,79158.40000003576,82812.70000004768,84897.80000001192,89059.30000001192,95326.10000002384,99348.60000002384,100280.30000001192,102020.80000001192],"key_events":[],"mouse_events":[7413.600000023842,13337.800000011921,14284,24258.200000047684,26695.80000001192,32600.200000047684,33644,34951.30000001192,46499.40000003576,48721.60000002384,56649.40000003576,59120.10000002384,62326.200000047684,65714.80000001192,68311.60000002384,70509,74797.70000004768,79158.40000003576,82812.70000004768,84897.80000001192,89059.30000001192,95326.10000002384,99348.60000002384,100280.30000001192,102020.80000001192,102913],"straightlining":0.42857142857142855,"zigzagging":0.7,"honeypot":0,"survey":"sns","trial_type":"survey-template","trial_index":2,"time_elapsed":126837,"internal_node_id":"0.0-2.0","task_version":"prescreen-v0.3","browser_interactions":0,"infrequency":0},{"responses":{"Q05":"3","Q12":"1","Q02":"3","Q04":"3","Q09":"2","Q13":"0","Q07":"3","Q06":"3","Q01":"3","Q10":"1","Q03":"3","Q11":"1","Q08":"3"},"rt":57504.90000003576,"item_order":[4,11,1,3,8,12,6,5,0,9,2,10,7],"radio_events":[3680.600000023842,25118.80000001192,27569.30000001192,29823.700000047684,32201.80000001192,35213.5,37419.60000002384,41226.40000003576,42542.30000001192,47039.10000002384,50164.30000001192,53342.60000002384,55629.200000047684,56860.30000001192],"key_events":[],"mouse_events":[3680.600000023842,9879.100000023842,25118.80000001192,27569.30000001192,29823.700000047684,32201.80000001192,35213.5,37419.60000002384,39100.700000047684,41226.40000003576,42542.30000001192,47039.10000002384,50164.30000001192,53342.60000002384,55629.200000047684,56860.30000001192,57502.200000047684],"straightlining":0.6153846153846154,"zigzagging":0.16666666666666666,"honeypot":0,"survey":"bisbas","trial_type":"survey-template","trial_index":3,"time_elapsed":184354,"internal_node_id":"0.0-3.0","task_version":"prescreen-v0.3","browser_interactions":2,"infrequency":0},{"responses":{"Q01":"2","Q02":"2","Q03":"3"},"rt":19294.600000023842,"radio_events":[10353.900000035763,15422.5,18282.600000023842],"key_events":[],"mouse_events":[10353.900000035763,15422.5,18282.600000023842,19293.100000023842],"survey":"map","page":1,"trial_type":"survey-map","trial_index":4,"time_elapsed":203661,"internal_node_id":"0.0-4.0","task_version":"prescreen-v0.3","browser_interactions":0},{"responses":{"Q04":"3","Q05":"2","Q06":"3"},"rt":17086.099999964237,"radio_events":[4254.599999964237,13493.299999952316,15207.399999976158],"key_events":[],"mouse_events":[4254.599999964237,13493.299999952316,15207.399999976158,17084.899999976158],"survey":"map","page":2,"trial_type":"survey-map","trial_index":5,"time_elapsed":220755,"internal_node_id":"0.0-5.0","task_version":"prescreen-v0.3","browser_interactions":0},{"responses":{"Q07":"4","Q08":"2","Q09":"4"},"rt":14698.5,"radio_events":[3559.099999964237,11202,13850.800000011921],"key_events":[],"mouse_events":[3559.099999964237,11202,13850.800000011921,14697.300000011921],"survey":"map","page":3,"trial_type":"survey-map","trial_index":6,"time_elapsed":235463,"internal_node_id":"0.0-6.0","task_version":"prescreen-v0.3","browser_interactions":0},{"responses":{"Q10":"2","Q11":"1","Q12":"3","Q13":"2","Q16":"0","Q14":"3","Q15":"2"},"rt":37549.5,"radio_events":[3680.699999988079,7034.5,13803.799999952316,21847,24493.799999952316,30310.5,34357.09999996424,36502.89999997616],"key_events":[],"mouse_events":[3680.699999988079,7034.5,12223.199999988079,13803.799999952316,21847,23130.5,24493.799999952316,30310.5,34357.09999996424,36502.89999997616,37547.09999996424],"survey":"map","page":4,"trial_type":"survey-map","trial_index":7,"time_elapsed":273022,"internal_node_id":"0.0-7.0","task_version":"prescreen-v0.3","browser_interactions":0,"infrequency":0},{"view_history":[{"page_index":0,"viewing_time":1959.1000000238419},{"page_index":1,"viewing_time":4191.299999952316}],"rt":6152.199999988079,"trial_type":"instructions","trial_index":8,"time_elapsed":279180,"internal_node_id":"0.0-8.0","task_version":"prescreen-v0.3"},{"responses":{"01":"No","02":"No","03":"No","04":"No","05":"No","06":"No"},"rt":14920.900000035763,"item_order":[0,1,2,3,4,5],"radio_events":[4756.800000011921,7868.800000011921,8940.900000035763,9966.600000023842,11538.699999988079,12617],"checkbox_events":[],"key_events":[],"mouse_events":[0.30000001192092896,3711.699999988079,4756.800000011921,7868.800000011921,8940.900000035763,9966.600000023842,11538.699999988079,12617,14914],"honeypot":0,"survey":"mace","page":1,"trial_type":"survey-mace","trial_index":9,"time_elapsed":294114,"internal_node_id":"0.0-9.0","task_version":"prescreen-v0.3","browser_interactions":0},{"responses":{"01":"No","02":"No","03":"No","04":"No","05":"No","06":"No","07":"No","08":"No"},"rt":18092.5,"item_order":[0,1,2,3,4,5,6,7],"radio_events":[3979.300000011921,4885.300000011921,6141.099999964237,7433.5,8716.800000011921,15298.699999988079,16092.300000011921,17143.5],"checkbox_events":[],"key_events":[],"mouse_events":[3979.300000011921,4885.300000011921,6141.099999964237,7433.5,8716.800000011921,10156.800000011921,15298.699999988079,16092.300000011921,17143.5,18083.099999964237],"honeypot":0,"survey":"mace","page":2,"trial_type":"survey-mace","trial_index":10,"time_elapsed":312219,"internal_node_id":"0.0-10.0","task_version":"prescreen-v0.3","browser_interactions":0},{"responses":{"01":"No","02":"No","03":"No","04":"No"},"rt":9417.899999976158,"item_order":[0,1,2,3],"radio_events":[2497.099999964237,3450.699999988079,5514.799999952316,7810.899999976158],"checkbox_events":[],"key_events":[],"mouse_events":[2497.099999964237,3450.699999988079,5514.799999952316,7810.899999976158,9413],"honeypot":0,"survey":"mace","page":3,"trial_type":"survey-mace","trial_index":11,"time_elapsed":321650,"internal_node_id":"0.0-11.0","task_version":"prescreen-v0.3","browser_interactions":0},{"responses":{"01":"No","02":"No"},"rt":4300,"item_order":[0,1],"radio_events":[2875.5,3590.300000011921],"checkbox_events":[],"key_events":[],"mouse_events":[2875.5,3590.300000011921,4297.600000023842],"honeypot":0,"survey":"mace","page":4,"trial_type":"survey-mace","trial_index":12,"time_elapsed":325958,"internal_node_id":"0.0-12.0","task_version":"prescreen-v0.3","browser_interactions":0},{"responses":{"01":"No","02":"No","03":"No","04":"No","05":"No"},"rt":13827.300000011921,"item_order":[0,1,2,3,4],"radio_events":[5637.699999988079,6860.300000011921,8248.600000023842,9964.699999988079,12994],"checkbox_events":[],"key_events":[],"mouse_events":[5637.699999988079,6860.300000011921,8248.600000023842,9964.699999988079,10907.800000011921,12994,13821.600000023842],"honeypot":0,"survey":"mace","page":5,"trial_type":"survey-mace","trial_index":13,"time_elapsed":339799,"internal_node_id":"0.0-13.0","task_version":"prescreen-v0.3","browser_interactions":0},{"responses":{"01":"No","02":"Yes","02_ages_12":"12","02_ages_15":"15","02_ages_16":"16","03":"No","04":"No","05":"No"},"rt":37246.90000003576,"item_order":[0,1,2,3,4],"radio_events":[5169.699999988079,9903.199999988079,34050.19999998808,35273.40000003576,36171.69999998808],"checkbox_events":[24154.5,26080.80000001192,26702.5],"key_events":[],"mouse_events":[5169.699999988079,9903.199999988079,24154.5,26080.80000001192,26702.5,34050.19999998808,35273.40000003576,36171.69999998808,37240.60000002384],"honeypot":0,"survey":"mace","page":6,"trial_type":"survey-mace","trial_index":14,"time_elapsed":377053,"internal_node_id":"0.0-14.0","task_version":"prescreen-v0.3","browser_interactions":0},{"responses":{"01":"No","02":"No","03":"No","04":"No","05":"No","06":"No","07":"No"},"rt":10108.5,"item_order":[0,1,2,3,4,5,6],"radio_events":[3757.5,4617.300000011921,5812.400000035763,6698.700000047684,7749.700000047684,8592.100000023842,9434.5],"checkbox_events":[],"key_events":[],"mouse_events":[3757.5,4617.300000011921,5812.400000035763,6698.700000047684,7749.700000047684,8592.100000023842,9434.5,10100.600000023842],"honeypot":0,"survey":"mace","page":7,"trial_type":"survey-mace","trial_index":15,"time_elapsed":387171,"internal_node_id":"0.0-15.0","task_version":"prescreen-v0.3","browser_interactions":0},{"responses":{"01":"No","02":"No","03":"No","04":"No"},"rt":9947.600000023842,"item_order":[0,1,2,3],"radio_events":[4063.100000023842,5608.400000035763,7115.400000035763,8234.600000023842],"checkbox_events":[],"key_events":[],"mouse_events":[4063.100000023842,5608.400000035763,7115.400000035763,8234.600000023842,9943.699999988079],"honeypot":0,"survey":"mace","page":8,"trial_type":"survey-mace","trial_index":16,"time_elapsed":397126,"internal_node_id":"0.0-16.0","task_version":"prescreen-v0.3","browser_interactions":0},{"responses":{"01":"Yes","01_ages_1":"1","01_ages_2":"2","01_ages_3":"3","01_ages_4":"4","01_ages_5":"5","01_ages_6":"6","01_ages_7":"7","01_ages_8":"8","01_ages_9":"9","01_ages_10":"10","01_ages_11":"11","01_ages_12":"12","01_ages_13":"13","01_ages_14":"14","01_ages_15":"15","01_ages_16":"16","01_ages_17":"17","01_ages_18":"18","02":"Yes","02_ages_1":"1","02_ages_2":"2","02_ages_3":"3","02_ages_4":"4","02_ages_5":"5","02_ages_6":"6","02_ages_7":"7","02_ages_8":"8","02_ages_9":"9","02_ages_10":"10","02_ages_11":"11","02_ages_12":"12","02_ages_13":"13","02_ages_14":"14","02_ages_15":"15","02_ages_16":"16","02_ages_17":"17","02_ages_18":"18","03":"Yes","03_ages_1":"1","03_ages_2":"2","03_ages_3":"3","03_ages_4":"4","03_ages_5":"5","03_ages_6":"6","03_ages_7":"7","03_ages_8":"8","03_ages_9":"9","03_ages_10":"10","03_ages_11":"11","03_ages_12":"12","03_ages_13":"13","03_ages_14":"14","03_ages_15":"15","03_ages_16":"16","03_ages_17":"17","03_ages_18":"18","04":"Yes","04_ages_1":"1","04_ages_2":"2","04_ages_3":"3","04_ages_4":"4","04_ages_5":"5","04_ages_6":"6","04_ages_7":"7","04_ages_8":"8","04_ages_9":"9","04_ages_10":"10","04_ages_11":"11","04_ages_12":"12","04_ages_13":"13","04_ages_14":"14","04_ages_15":"15","04_ages_16":"16","04_ages_17":"17","04_ages_18":"18"},"rt":103694.89999997616,"item_order":[0,1,2,3],"radio_events":[5325.399999976158,26702.5,40694.09999996424,59345.59999996424],"checkbox_events":[8091,9849,11833.699999988079,12828.699999988079,13630.199999988079,14311.299999952316,14731.5,15190.199999988079,15663.099999964237,16289.5,17823.299999952316,19019.69999998808,20223.799999952316,20793.599999964237,21603.19999998808,22252.899999976158,22895.299999952316,24342.099999964237,28398.899999976158,29048.799999952316,29802.899999976158,30317.19999998808,30870.19999998808,31343.19999998808,31788.5,32245.599999964237,32710.899999976158,33160.19999998808,34259.5,34893.19999998808,35852.09999996424,36405.89999997616,37384.39999997616,37937.59999996424,38563.89999997616,39222.09999996424,41656.09999996424,42475.69999998808,42941,43446.299999952316,43879.799999952316,44806.59999996424,45801.69999998808,46715.89999997616,47317.5,47919.5,48629.299999952316,49198.69999998808,50009.19999998808,50530.89999997616,51052.39999997616,51565.89999997616,52126.5,52636.89999997616,63943.799999952316,64433,64978.799999952316,65515.89999997616,66037.5,66531.69999998808,67012.39999997616,68095.29999995232,68801.39999997616,69528.79999995232,70088.89999997616,70826.89999997616,72134.5,72627.79999995232,73382.29999995232,74401.29999995232,74970.79999995232,75672.79999995232],"key_events":[],"mouse_events":[5325.399999976158,8091,9849,11833.699999988079,12828.699999988079,13630.199999988079,14311.299999952316,14731.5,15190.199999988079,15663.099999964237,16289.5,17172.299999952316,17823.299999952316,18398.19999998808,19019.69999998808,19582.19999998808,20223.799999952316,20793.599999964237,21603.19999998808,22252.899999976158,22895.299999952316,24342.099999964237,26702.5,27804.299999952316,28398.899999976158,29048.799999952316,29802.899999976158,30317.19999998808,30870.19999998808,31343.19999998808,31788.5,32245.599999964237,32710.899999976158,33160.19999998808,33673.69999998808,34259.5,34893.19999998808,35390.299999952316,35852.09999996424,36405.89999997616,36943.09999996424,37384.39999997616,37937.59999996424,38563.89999997616,39222.09999996424,40694.09999996424,41656.09999996424,42475.69999998808,42941,43446.299999952316,43879.799999952316,44357.09999996424,44806.59999996424,45352.19999998808,45801.69999998808,46715.89999997616,47317.5,47919.5,48629.299999952316,49198.69999998808,50009.19999998808,50530.89999997616,51052.39999997616,51565.89999997616,52126.5,52636.89999997616,59345.59999996424,63477.69999998808,63943.799999952316,64433,64978.799999952316,65515.89999997616,66037.5,66531.69999998808,67012.39999997616,67526,68095.29999995232,68801.39999997616,69528.79999995232,70088.89999997616,70826.89999997616,72134.5,72627.79999995232,73382.29999995232,74401.29999995232,74970.79999995232,75672.79999995232,103690],"honeypot":0,"survey":"mace","page":9,"trial_type":"survey-mace","trial_index":17,"time_elapsed":500827,"internal_node_id":"0.0-17.0","task_version":"prescreen-v0.3","browser_interactions":2},{"responses":{"01":"No","02":"No","03":"No","04":"No","05":"No","05_ages_1":"1","05_ages_2":"2","05_ages_3":"3","05_ages_4":"4","05_ages_5":"5","05_ages_6":"6","05_ages_7":"7","05_ages_8":"8","05_ages_9":"9","05_ages_10":"10","05_ages_11":"11","05_ages_12":"12","05_ages_13":"13","05_ages_14":"14","05_ages_15":"15","06":"Yes","06_ages_17":"17","07":"Yes","07_ages_1":"1","07_ages_2":"2","07_ages_3":"3","07_ages_4":"4","07_ages_5":"5","07_ages_6":"6","07_ages_7":"7","07_ages_8":"8","07_ages_9":"9","07_ages_10":"10","07_ages_11":"11","07_ages_12":"12","07_ages_13":"13","07_ages_14":"14","07_ages_15":"15","07_ages_16":"16","07_ages_17":"17","07_ages_18":"18","08":"Yes","08_ages_1":"1","08_ages_2":"2","08_ages_3":"3","08_ages_4":"4","08_ages_5":"5","08_ages_6":"6","08_ages_7":"7","08_ages_8":"8","08_ages_9":"9","08_ages_10":"10","08_ages_11":"11","08_ages_12":"12","08_ages_13":"13","08_ages_14":"14","08_ages_15":"15","08_ages_16":"16","08_ages_17":"17","08_ages_18":"18"},"rt":87157.39999997616,"item_order":[0,1,2,3,4,5,6,7],"radio_events":[6371.799999952316,7166.799999952316,8145,9241.199999988079,16590.599999964237,41500.59999996424,46862.09999996424,58274.299999952316,72475.79999995232],"checkbox_events":[25615.399999976158,26249,26991.399999976158,27689.299999952316,28275.799999952316,28828.69999998808,29430.599999964237,30035.799999952316,30679.19999998808,31279.599999964237,31953.69999998808,32683.5,33522.09999996424,34397,35263.799999952316,50364.799999952316,60460.299999952316,60942,62001.09999996424,62683.19999998808,63224.69999998808,63898.299999952316,64444.39999997616,65045.89999997616,65583.59999996424,66161,66786.79999995232,67368.39999997616,68017.79999995232,68660.09999996424,69245.79999995232,69791.39999997616,70376.89999997616,71091.19999998808,74184,74859.19999998808,75388.59999996424,76403.19999998808,76973.29999995232,77535.19999998808,78794.69999998808,79652.89999997616,80201.59999996424,81084.89999997616,81879.29999995232,82537.29999995232,83139.29999995232,83725,84555.19999998808,85197.29999995232,85903.39999997616,86489],"key_events":[],"mouse_events":[6371.799999952316,7166.799999952316,8145,9241.199999988079,14460.799999952316,16590.599999964237,25615.399999976158,26249,26991.399999976158,27689.299999952316,28275.799999952316,28828.69999998808,29430.599999964237,30035.799999952316,30679.19999998808,31279.599999964237,31953.69999998808,32683.5,33522.09999996424,34397,35263.799999952316,40842.09999996424,41500.59999996424,46862.09999996424,50364.799999952316,58274.299999952316,60460.299999952316,60942,61415.299999952316,62001.09999996424,62683.19999998808,63224.69999998808,63898.299999952316,64444.39999997616,65045.89999997616,65583.59999996424,66161,66786.79999995232,67368.39999997616,68017.79999995232,68660.09999996424,69245.79999995232,69791.39999997616,70376.89999997616,71091.19999998808,72475.79999995232,74184,74859.19999998808,75388.59999996424,75930.29999995232,76403.19999998808,76973.29999995232,77535.19999998808,78080.5,78794.69999998808,79652.89999997616,80201.59999996424,81084.89999997616,81879.29999995232,82537.29999995232,83139.29999995232,83725,84555.19999998808,85197.29999995232,85903.39999997616,86489,87147.29999995232],"honeypot":0,"survey":"mace","page":10,"trial_type":"survey-mace","trial_index":18,"time_elapsed":587995,"internal_node_id":"0.0-18.0","task_version":"prescreen-v0.3","browser_interactions":0,"instructed":0},{"rt":3389.599999964237,"trial_type":"mental-health-alert","trial_index":19,"time_elapsed":591394,"internal_node_id":"0.0-19.0","task_version":"prescreen-v0.3","interactions":"[{\"event\":\"blur\",\"trial\":3,\"time\":138399},{\"event\":\"focus\",\"trial\":3,\"time\":148210},{\"event\":\"blur\",\"trial\":17,\"time\":474737},{\"event\":\"focus\",\"trial\":17,\"time\":499200}]"}]