[{"view_history":[{"page_index":0,"viewing_time":2741},{"page_index":1,"viewing_time":2187.199999988079},{"page_index":2,"viewing_time":2721.300000011921},{"page_index":3,"viewing_time":1618.199999988079}],"rt":9268.300000011921,"trial_type":"instructions","trial_index":0,"time_elapsed":9279,"internal_node_id":"0.0-0.0","task_version":"prescreen-v0.3"},{"rt":15918.699999988079,"responses":{"age":"24","gender-categorical":"Male","gender-free-response":"","ethnicity":"Not Hispanic or Latino","race":["White"],"education":"Some college","siblings":"1"},"trial_type":"survey-demo","trial_index":1,"time_elapsed":25201,"internal_node_id":"0.0-1.0","task_version":"prescreen-v0.3"},{"responses":{"Q06":"1","Q07":"2","Q12":"2","Q13":"2","Q15":"3","Q18":"3","Q17":"3","Q21":"3","Q03":"3","Q10":"2","Q02":"3","Q11":"2","Q08":"3","Q05":"2","Q09":"3","Q19":"3","Q14":"3","Q01":"3","Q16":"3","Q20":"1","Q04":"3"},"rt":75614.39999997616,"item_order":[5,6,11,12,14,17,16,20,2,9,1,10,7,4,8,18,13,0,15,19,3],"radio_events":[5583.199999988079,9369.599999964237,12072,13662.199999988079,16129.399999976158,18561.80000001192,21940.19999998808,23790.399999976158,26895.899999976158,27487.69999998808,29128.399999976158,29871.099999964237,35054.80000001192,43833.89999997616,47063.19999998808,49386.59999996424,54526.19999998808,56880.59999996424,60029.89999997616,62483.09999996424,66609.80000001192,70214.19999998808,72142.39999997616,74877.80000001192],"key_events":[],"mouse_events":[5583.199999988079,9369.599999964237,12072,13662.199999988079,16129.399999976158,18561.80000001192,21940.19999998808,23790.399999976158,26895.899999976158,27487.69999998808,29128.399999976158,29871.099999964237,35054.80000001192,43833.89999997616,47063.19999998808,49386.59999996424,54526.19999998808,56880.59999996424,60029.89999997616,62483.09999996424,64960.59999996424,66609.80000001192,70214.19999998808,72142.39999997616,74877.80000001192,75612.89999997616],"straightlining":0.6190476190476191,"zigzagging":0.4,"honeypot":0,"survey":"sns","trial_type":"survey-template","trial_index":2,"time_elapsed":100820,"internal_node_id":"0.0-2.0","task_version":"prescreen-v0.3","browser_interactions":0,"infrequency":0},{"responses":{"Q07":"2","Q12":"1","Q03":"2","Q09":"1","Q08":"1","Q04":"2","Q13":"0","Q02":"2","Q05":"1","Q06":"2","Q01":"3","Q10":"1","Q11":"1"},"rt":50808.69999998808,"item_order":[6,11,2,8,7,3,12,1,4,5,0,9,10],"radio_events":[5294.100000023842,8882.600000023842,11829.800000011921,13365.100000023842,23957.5,26634.69999998808,28511,37481.19999998808,39543.40000003576,42393.69999998808,43903,48573.40000003576,49947.69999998808],"key_events":[],"mouse_events":[5294.100000023842,8882.600000023842,11829.800000011921,13365.100000023842,16293.300000011921,18934.69999998808,23957.5,26634.69999998808,28511,36492,37481.19999998808,39543.40000003576,42393.69999998808,43903,46300.19999998808,48573.40000003576,49947.69999998808,50807.80000001192],"straightlining":0.46153846153846156,"zigzagging":0.5833333333333334,"honeypot":0,"survey":"bisbas","trial_type":"survey-template","trial_index":3,"time_elapsed":151630,"internal_node_id":"0.0-3.0","task_version":"prescreen-v0.3","browser_interactions":0,"infrequency":0},{"responses":{"Q01":"1","Q02":"1","Q03":"1"},"rt":11829.800000011921,"radio_events":[5432.5,8396.800000011921,11048.100000023842],"key_events":[],"mouse_events":[5432.5,8396.800000011921,11048.100000023842,11829.199999988079],"survey":"map","page":1,"trial_type":"survey-map","trial_index":4,"time_elapsed":163462,"internal_node_id":"0.0-4.0","task_version":"prescreen-v0.3","browser_interactions":0},{"responses":{"Q04":"2","Q05":"2","Q06":"2"},"rt":10862.300000011921,"radio_events":[6075.300000011921,8813.700000047684,10266.900000035763],"key_events":[],"mouse_events":[6075.300000011921,8813.700000047684,10266.900000035763,10861.900000035763],"survey":"map","page":2,"trial_type":"survey-map","trial_index":5,"time_elapsed":174326,"internal_node_id":"0.0-5.0","task_version":"prescreen-v0.3","browser_interactions":0},{"responses":{"Q07":"1","Q08":"0","Q09":"1"},"rt":10128,"radio_events":[3622.5,6740.800000011921,8902.100000023842],"key_events":[],"mouse_events":[3622.5,6740.800000011921,8902.100000023842,10127.400000035763],"survey":"map","page":3,"trial_type":"survey-map","trial_index":6,"time_elapsed":184456,"internal_node_id":"0.0-6.0","task_version":"prescreen-v0.3","browser_interactions":0},{"responses":{"Q10":"0","Q11":"0","Q12":"0","Q13":"0","Q16":"0","Q14":"0","Q15":"0"},"rt":30934.899999976158,"radio_events":[5135.699999988079,7136.100000023842,9924.399999976158,14941.899999976158,18291.30000001192,27145.399999976158,30032.80000001192],"key_events":[],"mouse_events":[5135.699999988079,7136.100000023842,9924.399999976158,14941.899999976158,18291.30000001192,27145.399999976158,30032.80000001192,30934.100000023842],"survey":"map","page":4,"trial_type":"survey-map","trial_index":7,"time_elapsed":215394,"internal_node_id":"0.0-7.0","task_version":"prescreen-v0.3","browser_interactions":0,"infrequency":0},{"view_history":[{"page_index":0,"viewing_time":3088.900000035763},{"page_index":1,"viewing_time":2874.399999976158}],"rt":5964.100000023842,"trial_type":"instructions","trial_index":8,"time_elapsed":221359,"internal_node_id":"0.0-8.0","task_version":"prescreen-v0.3"},{"responses":{"01":"Yes","01_ages_6":"6","01_ages_7":"7","01_ages_8":"8","01_ages_9":"9","01_ages_10":"10","01_ages_11":"11","01_ages_12":"12","01_ages_13":"13","01_ages_14":"14","01_ages_15":"15","01_ages_16":"16","01_ages_17":"17","02":"Yes","02_ages_6":"6","02_ages_7":"7","02_ages_8":"8","02_ages_9":"9","02_ages_10":"10","02_ages_11":"11","02_ages_12":"12","02_ages_13":"13","02_ages_14":"14","02_ages_15":"15","02_ages_16":"16","02_ages_17":"17","03":"Yes","03_ages_6":"6","03_ages_7":"7","03_ages_8":"8","03_ages_9":"9","03_ages_10":"10","03_ages_11":"11","03_ages_12":"12","03_ages_13":"13","04":"Yes","04_ages_14":"14","04_ages_15":"15","04_ages_16":"16","05":"No","06":"Yes","06_ages_6":"6","06_ages_7":"7","06_ages_8":"8","06_ages_9":"9","06_ages_10":"10","06_ages_11":"11","06_ages_12":"12","06_ages_13":"13"},"rt":68671.10000002384,"item_order":[0,1,2,3,4,5],"radio_events":[5910.899999976158,26383.600000023842,35864.69999998808,46025,56137.19999998808,58398.60000002384],"checkbox_events":[16126.5,16542.30000001192,16994.399999976158,17333.399999976158,17688.30000001192,17979.399999976158,18274.399999976158,18590.600000023842,18885.69999998808,19769.600000023842,21091.69999998808,21422,27803.69999998808,28071.69999998808,28609.80000001192,28812.69999998808,29085.899999976158,29839,30165.899999976158,30408,30686.80000001192,31482,31958.19999998808,32426.100000023842,32805.19999998808,34536.39999997616,38211,38715.10000002384,39011.10000002384,39361.10000002384,40133.10000002384,40436.30000001192,40798.30000001192,53042.80000001192,53353.80000001192,53610.69999998808,61164.80000001192,61440.80000001192,61711.89999997616,62002.89999997616,63493.10000002384,63833.10000002384,64273.19999998808,64862.39999997616,66852.5],"key_events":[],"mouse_events":[0.10000002384185791,5910.899999976158,16126.5,16542.30000001192,16994.399999976158,17333.399999976158,17688.30000001192,17979.399999976158,18274.399999976158,18590.600000023842,18885.69999998808,19204.69999998808,19510.399999976158,19769.600000023842,20518.80000001192,21091.69999998808,21422,26383.600000023842,27803.69999998808,28071.69999998808,28335.80000001192,28609.80000001192,28812.69999998808,29085.899999976158,29375.80000001192,29839,30165.899999976158,30408,30686.80000001192,30953,31243,31482,31766.899999976158,31958.19999998808,32426.100000023842,32805.19999998808,34536.39999997616,35864.69999998808,38211,38715.10000002384,39011.10000002384,39361.10000002384,39684.19999998808,40133.10000002384,40436.30000001192,40798.30000001192,46025,53042.80000001192,53353.80000001192,53610.69999998808,56137.19999998808,58398.60000002384,60547.69999998808,61164.80000001192,61440.80000001192,61711.89999997616,62002.89999997616,62527,62952.89999997616,63493.10000002384,63833.10000002384,64273.19999998808,64862.39999997616,65587.39999997616,66852.5,68669],"honeypot":0,"survey":"mace","page":1,"trial_type":"survey-mace","trial_index":9,"time_elapsed":290035,"internal_node_id":"0.0-9.0","task_version":"prescreen-v0.3","browser_interactions":0},{"responses":{"01":"Yes","01_ages_7":"7","01_ages_8":"8","01_ages_9":"9","01_ages_10":"10","01_ages_11":"11","01_ages_12":"12","01_ages_13":"13","02":"No","03":"Yes","03_ages_6":"6","03_ages_7":"7","03_ages_8":"8","03_ages_9":"9","03_ages_10":"10","03_ages_11":"11","03_ages_12":"12","03_ages_13":"13","04":"No","05":"No","06":"No","07":"No","08":"No"},"rt":30740.80000001192,"item_order":[0,1,2,3,4,5,6,7],"radio_events":[3756.600000023842,15150,16937.19999998808,24244.30000001192,25830.30000001192,27300.400000035763,28177.600000023842,29432.80000001192],"checkbox_events":[10127.400000035763,10550.5,10862.5,11172.600000023842,11513.600000023842,11870.600000023842,12451.699999988079,18393.100000023842,18713.5,19051.600000023842,19382.600000023842,19761.30000001192,20980.600000023842,21295.69999998808,21601.80000001192],"key_events":[],"mouse_events":[3756.600000023842,10127.400000035763,10550.5,10862.5,11172.600000023842,11513.600000023842,11870.600000023842,12451.699999988079,15150,16937.19999998808,18393.100000023842,18713.5,19051.600000023842,19382.600000023842,19761.30000001192,20101.600000023842,20398.5,20980.600000023842,21295.69999998808,21601.80000001192,24244.30000001192,25830.30000001192,27300.400000035763,28177.600000023842,29432.80000001192,30738],"honeypot":0,"survey":"mace","page":2,"trial_type":"survey-mace","trial_index":10,"time_elapsed":320779,"internal_node_id":"0.0-10.0","task_version":"prescreen-v0.3","browser_interactions":0},{"responses":{"01":"Yes","01_ages_9":"9","01_ages_10":"10","01_ages_11":"11","01_ages_12":"12","01_ages_13":"13","01_ages_14":"14","02":"No","03":"No","04":"No"},"rt":27509.299999952316,"item_order":[0,1,2,3],"radio_events":[5006.199999988079,23959.299999952316,26483.799999952316,27009.799999952316],"checkbox_events":[15091.399999976158,15559.399999976158,16016.5,16467.599999964237,16811.599999964237,18981.899999976158],"key_events":[],"mouse_events":[5006.199999988079,15091.399999976158,15559.399999976158,16016.5,16467.599999964237,16811.599999964237,18608.799999952316,18981.899999976158,23959.299999952316,24854.5,26035.599999964237,26483.799999952316,27009.799999952316,27507.899999976158],"honeypot":0,"survey":"mace","page":3,"trial_type":"survey-mace","trial_index":11,"time_elapsed":348291,"internal_node_id":"0.0-11.0","task_version":"prescreen-v0.3","browser_interactions":0},{"responses":{"01":"No","02":"No"},"rt":6415.300000011921,"item_order":[0,1],"radio_events":[4360.199999988079,5426.399999976158],"checkbox_events":[],"key_events":[],"mouse_events":[4360.199999988079,5426.399999976158,6414.5],"honeypot":0,"survey":"mace","page":4,"trial_type":"survey-mace","trial_index":12,"time_elapsed":354708,"internal_node_id":"0.0-12.0","task_version":"prescreen-v0.3","browser_interactions":0},{"responses":{"01":"Yes","01_ages_6":"6","01_ages_7":"7","01_ages_8":"8","01_ages_9":"9","01_ages_10":"10","01_ages_11":"11","01_ages_12":"12","01_ages_13":"13","02":"No","03":"No","04":"No","05":"No"},"rt":38411.40000003576,"item_order":[0,1,2,3,4],"radio_events":[14947.900000035763,25614.400000035763,31214.19999998808,35325.30000001192,37041.80000001192],"checkbox_events":[18915.30000001192,19255.69999998808,19528.600000023842,19805.5,20164.69999998808,20666.80000001192,20995.80000001192,21375.600000023842],"key_events":[],"mouse_events":[14947.900000035763,18915.30000001192,19255.69999998808,19528.600000023842,19805.5,20164.69999998808,20666.80000001192,20995.80000001192,21375.600000023842,25614.400000035763,31214.19999998808,35325.30000001192,37041.80000001192,38409.60000002384],"honeypot":0,"survey":"mace","page":5,"trial_type":"survey-mace","trial_index":13,"time_elapsed":393122,"internal_node_id":"0.0-13.0","task_version":"prescreen-v0.3","browser_interactions":0},{"responses":{"01":"Yes","01_ages_7":"7","01_ages_8":"8","01_ages_9":"9","01_ages_10":"10","02":"Yes","02_ages_7":"7","02_ages_8":"8","02_ages_9":"9","02_ages_10":"10","02_ages_11":"11","02_ages_12":"12","02_ages_13":"13","02_ages_14":"14","03":"No","04":"Yes","04_ages_7":"7","04_ages_8":"8","04_ages_9":"9","04_ages_10":"10","04_ages_11":"11","04_ages_12":"12","04_ages_13":"13","04_ages_14":"14","05":"No"},"rt":37430.40000003576,"item_order":[0,1,2,3,4],"radio_events":[8105.300000011921,17155.400000035763,28217.700000047684,28901.80000001192,36323.80000001192],"checkbox_events":[11766.700000047684,12432.800000011921,12974.900000035763,13906,18255.400000035763,19279.700000047684,19558.600000023842,19941.700000047684,20255.700000047684,20537.80000001192,20769.900000035763,21610.900000035763,29932.900000035763,30679.100000023842,30953.80000001192,31253.100000023842,31529.100000023842,31805.200000047684,32073.30000001192,32721.200000047684],"key_events":[],"mouse_events":[8105.300000011921,11286.600000023842,11766.700000047684,12432.800000011921,12974.900000035763,13465.900000035763,13906,17155.400000035763,18255.400000035763,18646.30000001192,18964.30000001192,19279.700000047684,19558.600000023842,19941.700000047684,20255.700000047684,20537.80000001192,20769.900000035763,21610.900000035763,27578.700000047684,28217.700000047684,28901.80000001192,29932.900000035763,30208.700000047684,30679.100000023842,30953.80000001192,31253.100000023842,31529.100000023842,31805.200000047684,32073.30000001192,32430,32721.200000047684,36323.80000001192,37428.700000047684],"honeypot":0,"survey":"mace","page":6,"trial_type":"survey-mace","trial_index":14,"time_elapsed":430554,"internal_node_id":"0.0-14.0","task_version":"prescreen-v0.3","browser_interactions":0},{"responses":{"01":"No","02":"No","03":"No","04":"No","05":"No","06":"No","07":"No"},"rt":17904.700000047684,"item_order":[0,1,2,3,4,5,6],"radio_events":[4115.5,12569.5,13431.5,13945.600000023842,15661.800000011921,16728.80000001192,17387],"checkbox_events":[],"key_events":[],"mouse_events":[4115.5,12569.5,13431.5,13945.600000023842,15661.800000011921,16406.80000001192,16728.80000001192,17387,17902.200000047684],"honeypot":0,"survey":"mace","page":7,"trial_type":"survey-mace","trial_index":15,"time_elapsed":448461,"internal_node_id":"0.0-15.0","task_version":"prescreen-v0.3","browser_interactions":0},{"responses":{"01":"Yes","01_ages_6":"6","01_ages_7":"7","01_ages_8":"8","01_ages_9":"9","01_ages_10":"10","01_ages_11":"11","01_ages_12":"12","01_ages_13":"13","01_ages_14":"14","01_ages_15":"15","01_ages_16":"16","02":"No","03":"Yes","03_ages_6":"6","03_ages_7":"7","03_ages_8":"8","03_ages_9":"9","03_ages_10":"10","03_ages_11":"11","03_ages_12":"12","03_ages_13":"13","03_ages_14":"14","03_ages_15":"15","03_ages_16":"16","03_ages_17":"17","04":"Yes","04_ages_6":"6","04_ages_7":"7","04_ages_8":"8","04_ages_9":"9","04_ages_10":"10","04_ages_11":"11","04_ages_12":"12","04_ages_13":"13","04_ages_14":"14","04_ages_15":"15","04_ages_16":"16","04_ages_17":"17"},"rt":40183.19999998808,"item_order":[0,1,2,3],"radio_events":[4517.400000035763,21414.400000035763,23986.80000001192,31834.600000023842],"checkbox_events":[11306.199999988079,11615.100000023842,11961.100000023842,12202.300000011921,12769.300000011921,12990.400000035763,13249.5,13802.5,14096.400000035763,14863.400000035763,15615.800000011921,25750,26018,26296,26558,26854.100000023842,27124.19999998808,28025.100000023842,28307.100000023842,28584.30000001192,28876.5,29670.30000001192,29979.5,33411,33650,33962.10000002384,35124.10000002384,35451.19999998808,35741.19999998808,36036.19999998808,36730.10000002384,37635.40000003576,38310.5,38987.60000002384,39301.60000002384],"key_events":[],"mouse_events":[4517.400000035763,10476.100000023842,11306.199999988079,11615.100000023842,11961.100000023842,12202.300000011921,12477.400000035763,12769.300000011921,12990.400000035763,13249.5,13577.5,13802.5,14096.400000035763,14863.400000035763,15615.800000011921,21024.400000035763,21414.400000035763,23986.80000001192,25750,26018,26296,26558,26854.100000023842,27124.19999998808,27460.900000035763,28025.100000023842,28307.100000023842,28584.30000001192,28876.5,29169.400000035763,29670.30000001192,29979.5,31834.600000023842,32605.80000001192,33106.90000003576,33411,33650,33962.10000002384,34236.90000003576,34645,35124.10000002384,35451.19999998808,35741.19999998808,36036.19999998808,36305,36730.10000002384,37032.19999998808,37396.30000001192,37635.40000003576,37945.30000001192,38310.5,38724.90000003576,38987.60000002384,39301.60000002384,40181.80000001192],"honeypot":0,"survey":"mace","page":8,"trial_type":"survey-mace","trial_index":16,"time_elapsed":488647,"internal_node_id":"0.0-16.0","task_version":"prescreen-v0.3","browser_interactions":0},{"responses":{"01":"Yes","01_ages_1":"1","01_ages_2":"2","01_ages_3":"3","01_ages_4":"4","01_ages_5":"5","01_ages_6":"6","01_ages_7":"7","01_ages_8":"8","01_ages_9":"9","01_ages_10":"10","01_ages_11":"11","01_ages_12":"12","01_ages_13":"13","01_ages_14":"14","01_ages_15":"15","01_ages_16":"16","01_ages_17":"17","01_ages_18":"18","02":"Yes","02_ages_1":"1","02_ages_2":"2","02_ages_3":"3","02_ages_4":"4","02_ages_5":"5","02_ages_6":"6","02_ages_7":"7","02_ages_8":"8","02_ages_9":"9","02_ages_10":"10","02_ages_11":"11","02_ages_12":"12","02_ages_13":"13","02_ages_14":"14","02_ages_15":"15","02_ages_16":"16","02_ages_17":"17","02_ages_18":"18","03":"Yes","03_ages_1":"1","03_ages_2":"2","03_ages_3":"3","03_ages_4":"4","03_ages_5":"5","03_ages_6":"6","03_ages_7":"7","03_ages_8":"8","03_ages_9":"9","03_ages_10":"10","03_ages_11":"11","03_ages_12":"12","03_ages_13":"13","03_ages_14":"14","03_ages_15":"15","03_ages_16":"16","03_ages_17":"17","03_ages_18":"18","04":"Yes","04_ages_1":"1","04_ages_2":"2","04_ages_3":"3","04_ages_4":"4","04_ages_5":"5","04_ages_6":"6","04_ages_7":"7","04_ages_8":"8","04_ages_9":"9","04_ages_10":"10","04_ages_11":"11","04_ages_12":"12","04_ages_13":"13","04_ages_14":"14","04_ages_15":"15","04_ages_16":"16","04_ages_17":"17","04_ages_18":"18"},"rt":53276.80000001192,"item_order":[0,1,2,3],"radio_events":[6263.300000011921,19557.900000035763,26736.700000047684,41911.80000001192,42576.700000047684],"checkbox_events":[8093.700000047684,9122.700000047684,9406.900000035763,9690.700000047684,10314.900000035763,10583.700000047684,10861.800000011921,11181.900000035763,11469,11762,12429,12693.200000047684,13049,13367.200000047684,20310.80000001192,20560.200000047684,20866.200000047684,21150.200000047684,21418.200000047684,21733.100000023842,22125.5,22405.400000035763,22674.400000035763,22945.400000035763,23219.400000035763,23488.400000035763,23793.30000001192,24114.600000023842,27387.80000001192,27706,28322.100000023842,28923.200000047684,29203,29586.100000023842,29855.100000023842,30663.400000035763,30959.30000001192,31261.600000023842,32494.700000047684,33713.80000001192,34096.90000003576,34404.90000003576,34696.700000047684,35116.700000047684,35583.80000001192,35870.90000003576,36139.80000001192,36414.10000002384,36669.200000047684,36987.200000047684,37282.200000047684,37566.200000047684,37839.30000001192,38117.40000003576,38416.10000002384,39778.5,43367,44634.200000047684,44894.200000047684,45235.10000002384,45514.200000047684,46218.40000003576,46811.40000003576,47352.5,47705.5,47997.30000001192,48315.80000001192,48892.5,49765.700000047684,50072.90000003576,50498,50950.80000001192,51316.90000003576,51612.90000003576],"key_events":[],"mouse_events":[6263.300000011921,8093.700000047684,8515.400000035763,8787.600000023842,9122.700000047684,9406.900000035763,9690.700000047684,9983.800000011921,10314.900000035763,10583.700000047684,10861.800000011921,11181.900000035763,11469,11762,12049.100000023842,12429,12693.200000047684,13049,13367.200000047684,19229.80000001192,19557.900000035763,20310.80000001192,20560.200000047684,20866.200000047684,21150.200000047684,21418.200000047684,21733.100000023842,22125.5,22405.400000035763,22674.400000035763,22945.400000035763,23219.400000035763,23488.400000035763,23793.30000001192,24114.600000023842,26736.700000047684,27387.80000001192,27706,27989.100000023842,28322.100000023842,28923.200000047684,29203,29586.100000023842,29855.100000023842,30663.400000035763,30959.30000001192,31261.600000023842,31568.400000035763,32494.700000047684,33713.80000001192,34096.90000003576,34404.90000003576,34696.700000047684,35116.700000047684,35583.80000001192,35870.90000003576,36139.80000001192,36414.10000002384,36669.200000047684,36987.200000047684,37282.200000047684,37566.200000047684,37839.30000001192,38117.40000003576,38416.10000002384,38723.40000003576,39465.40000003576,39778.5,41911.80000001192,42576.700000047684,43367,43650.80000001192,44101.200000047684,44634.200000047684,44894.200000047684,45235.10000002384,45514.200000047684,45791.10000002384,46218.40000003576,46471.200000047684,46811.40000003576,47133.200000047684,47352.5,47705.5,47997.30000001192,48315.80000001192,48892.5,49254.80000001192,49765.700000047684,50072.90000003576,50498,50950.80000001192,51316.90000003576,51612.90000003576,53275.30000001192],"honeypot":0,"survey":"mace","page":9,"trial_type":"survey-mace","trial_index":17,"time_elapsed":541926,"internal_node_id":"0.0-17.0","task_version":"prescreen-v0.3","browser_interactions":0},{"responses":{"01":"Yes","01_ages_9":"9","01_ages_10":"10","02":"No","03":"Yes","03_ages_14":"14","03_ages_15":"15","03_ages_16":"16","03_ages_17":"17","03_ages_18":"18","04":"No","05":"No","06":"Yes","06_ages_17":"17","07":"No","08":"No"},"rt":35388.39999997616,"item_order":[0,1,2,3,4,5,6,7],"radio_events":[4026.699999988079,13338.899999976158,14913,21565.899999976158,22957,28385.600000023842,29240.69999998808,34019.39999997616,34848.30000001192],"checkbox_events":[9877.5,11121.300000011921,17412.19999998808,18613.399999976158,18873.399999976158,19129.5,19504.5,30596.899999976158],"key_events":[],"mouse_events":[3735.5,4026.699999988079,9877.5,11121.300000011921,12246.699999988079,13338.899999976158,14913,17412.19999998808,17685.100000023842,18167.100000023842,18471.100000023842,18613.399999976158,18873.399999976158,19129.5,19504.5,21565.899999976158,22957,28385.600000023842,29240.69999998808,30596.899999976158,34019.39999997616,34848.30000001192,35385.80000001192],"honeypot":0,"survey":"mace","page":10,"trial_type":"survey-mace","trial_index":18,"time_elapsed":577318,"internal_node_id":"0.0-18.0","task_version":"prescreen-v0.3","browser_interactions":0,"instructed":0},{"rt":3252.199999988079,"trial_type":"mental-health-alert","trial_index":19,"time_elapsed":580572,"internal_node_id":"0.0-19.0","task_version":"prescreen-v0.3","interactions":"[]"}]