[{"view_history":[{"page_index":0,"viewing_time":4588.29999999702},{"page_index":1,"viewing_time":4025.5999999940395},{"page_index":2,"viewing_time":4317.9000000059605},{"page_index":3,"viewing_time":1724.5999999940395}],"rt":14657.39999999106,"trial_type":"instructions","trial_index":0,"time_elapsed":14664,"internal_node_id":"0.0-0.0","task_version":"prescreen-v0.3"},{"rt":73548.29999999702,"responses":{"age":"21","gender-categorical":"Rather not say","gender-free-response":"","ethnicity":"Rather not say","race":["Rather not say"],"education":"Rather not say","siblings":"2"},"trial_type":"survey-demo","trial_index":1,"time_elapsed":88219,"internal_node_id":"0.0-1.0","task_version":"prescreen-v0.3"},{"responses":{"Q09":"2","Q21":"3","Q15":"3","Q12":"2","Q19":"2","Q08":"2","Q05":"2","Q20":"1","Q16":"3","Q04":"2","Q01":"2","Q02":"2","Q11":"1","Q03":"1","Q10":"3","Q17":"2","Q14":"2","Q18":"1","Q06":"1","Q13":"2","Q07":"1"},"rt":214061.40000000596,"item_order":[8,20,14,11,18,7,4,19,15,3,0,1,10,2,9,16,13,17,5,12,6],"radio_events":[4468.20000000298,8501.90000000596,16281.79999999702,18753.5,21585.79999999702,24085.90000000596,32821.5,34983.70000000298,37935.90000000596,40263.60000000894,43037.79999999702,44763.79999999702,48589.5,52507.79999999702,56633.79999999702,57467,59965.60000000894,62739.79999999702,67381.40000000596,68935.70000000298,71061.20000000298,73983.79999999702,75721.5,78597.79999999702],"key_events":[],"mouse_events":[4468.20000000298,8501.90000000596,15319.90000000596,15761.60000000894,16281.79999999702,18753.5,21585.79999999702,23594,24085.90000000596,31583.10000000894,32013.60000000894,32821.5,34983.70000000298,37935.90000000596,40263.60000000894,41701.79999999702,43037.79999999702,44229.79999999702,44763.79999999702,47742,48589.5,51159.5,51523.79999999702,52507.79999999702,56633.79999999702,57467,59965.60000000894,62739.79999999702,67381.40000000596,68935.70000000298,71061.20000000298,73983.79999999702,75721.5,78597.79999999702,214058.5],"straightlining":0.5238095238095238,"zigzagging":0.45,"honeypot":0,"survey":"sns","trial_type":"survey-template","trial_index":2,"time_elapsed":302289,"internal_node_id":"0.0-2.0","task_version":"prescreen-v0.3","browser_interactions":0,"infrequency":0},{"responses":{"Q11":"2","Q04":"3","Q08":"2","Q05":"2","Q03":"2","Q10":"1","Q01":"3","Q13":"0","Q12":"1","Q09":"1","Q06":"3","Q02":"2","Q07":"3"},"rt":171861.40000000596,"item_order":[10,3,7,4,2,9,0,12,11,8,5,1,6],"radio_events":[8675,11703.09999999404,13469.20000000298,17695.09999999404,20402.90000000596,24390.40000000596,27005.29999999702,42772.59999999404,47362.79999999702,50936.90000000596,53346.90000000596,54486.79999999702,56717],"key_events":[],"mouse_events":[8675,11703.09999999404,13469.20000000298,15342.70000000298,16103.5,17695.09999999404,19952.5,20402.90000000596,24390.40000000596,25883.09999999404,26367,27005.29999999702,41961.20000000298,42772.59999999404,47362.79999999702,50277.09999999404,50936.90000000596,53052.70000000298,53346.90000000596,54486.79999999702,56253,56717,171859.20000000298],"straightlining":0.38461538461538464,"zigzagging":0.5833333333333334,"honeypot":0,"survey":"bisbas","trial_type":"survey-template","trial_index":3,"time_elapsed":474156,"internal_node_id":"0.0-3.0","task_version":"prescreen-v0.3","browser_interactions":0,"infrequency":0},{"responses":{"Q01":"2","Q02":"1","Q03":"2"},"rt":27588.5,"radio_events":[11415.70000000298,21312.90000000596,24747.10000000894],"key_events":[],"mouse_events":[11415.70000000298,20719.30000001192,21312.90000000596,24227.40000000596,24747.10000000894,27587.60000000894],"survey":"map","page":1,"trial_type":"survey-map","trial_index":4,"time_elapsed":501750,"internal_node_id":"0.0-4.0","task_version":"prescreen-v0.3","browser_interactions":0},{"responses":{"Q04":"3","Q05":"2","Q06":"2"},"rt":11692.70000000298,"radio_events":[4389.9000000059605,6615.9000000059605,8347.90000000596],"key_events":[],"mouse_events":[3447.7999999970198,3903.7000000029802,4389.9000000059605,6615.9000000059605,8347.90000000596,11691.90000000596],"survey":"map","page":2,"trial_type":"survey-map","trial_index":5,"time_elapsed":513446,"internal_node_id":"0.0-5.0","task_version":"prescreen-v0.3","browser_interactions":0},{"responses":{"Q07":"3","Q08":"0","Q09":"1"},"rt":34851.29999999702,"radio_events":[14258.39999999106,20488.5,21168.29999999702],"key_events":[],"mouse_events":[14258.39999999106,20034.39999999106,20488.5,21168.29999999702,34850.5],"survey":"map","page":3,"trial_type":"survey-map","trial_index":6,"time_elapsed":548300,"internal_node_id":"0.0-6.0","task_version":"prescreen-v0.3","browser_interactions":0},{"responses":{"Q10":"1","Q11":"2","Q12":"1","Q13":"1","Q16":"0","Q14":"2","Q15":"1"},"rt":130787,"radio_events":[12024.10000000894,14434.20000000298,20310.10000000894,27470.10000000894,60658.10000000894,67011.90000000596,70954],"key_events":[],"mouse_events":[12024.10000000894,13090.10000000894,14434.20000000298,20310.10000000894,27004,27470.10000000894,60658.10000000894,66508.20000000298,67011.90000000596,70954,130785.90000000596],"survey":"map","page":4,"trial_type":"survey-map","trial_index":7,"time_elapsed":679091,"internal_node_id":"0.0-7.0","task_version":"prescreen-v0.3","browser_interactions":2,"infrequency":0},{"view_history":[{"page_index":0,"viewing_time":2561},{"page_index":1,"viewing_time":17646.70000000298}],"rt":20208.90000000596,"trial_type":"instructions","trial_index":8,"time_elapsed":699302,"internal_node_id":"0.0-8.0","task_version":"prescreen-v0.3"},{"responses":{"01":"No","02":"No","03":"No","04":"No","05":"No","06":"No"},"rt":43789.10000000894,"item_order":[0,1,2,3,4,5],"radio_events":[6934.20000000298,8997.90000000596,10658.90000000596,13175.60000000894,13741.70000000298,21704.20000000298],"checkbox_events":[],"key_events":[],"mouse_events":[0,6934.20000000298,8997.90000000596,10658.90000000596,11585.300000011921,12715.5,13175.60000000894,13741.70000000298,15021.20000000298,21704.20000000298,43784.30000001192],"honeypot":0,"survey":"mace","page":1,"trial_type":"survey-mace","trial_index":9,"time_elapsed":743100,"internal_node_id":"0.0-9.0","task_version":"prescreen-v0.3","browser_interactions":0},{"responses":{"01":"No","02":"No","03":"No","04":"No","05":"No","06":"No","07":"No","08":"No"},"rt":53000.79999999702,"item_order":[0,1,2,3,4,5,6,7],"radio_events":[2998.8999999910593,6628.70000000298,7080.79999999702,7839.399999991059,11416.89999999106,12494.5,13084.70000000298,15714.70000000298],"checkbox_events":[],"key_events":[],"mouse_events":[2998.8999999910593,4276.79999999702,5034.5,5752.5,6158.399999991059,6628.70000000298,7080.79999999702,7460.5999999940395,7839.399999991059,8244.29999999702,8486.09999999404,11416.89999999106,12072.70000000298,12494.5,13084.70000000298,13572.5,14714.20000000298,15132.20000000298,15714.70000000298,52998],"honeypot":0,"survey":"mace","page":2,"trial_type":"survey-mace","trial_index":10,"time_elapsed":796105,"internal_node_id":"0.0-10.0","task_version":"prescreen-v0.3","browser_interactions":0},{"responses":{"01":"No","02":"No","03":"No","04":"No"},"rt":18742.5,"item_order":[0,1,2,3],"radio_events":[3015.0999999940395,6725.0999999940395,7405.5,8093.5],"checkbox_events":[],"key_events":[],"mouse_events":[3015.0999999940395,5539.5,5908.699999988079,6725.0999999940395,7405.5,8093.5,18739.39999999106],"honeypot":0,"survey":"mace","page":3,"trial_type":"survey-mace","trial_index":11,"time_elapsed":814850,"internal_node_id":"0.0-11.0","task_version":"prescreen-v0.3","browser_interactions":0},{"responses":{"01":"No","02":"No"},"rt":5001.699999988079,"item_order":[0,1],"radio_events":[2277.2999999970198,3617.699999988079],"checkbox_events":[],"key_events":[],"mouse_events":[2277.2999999970198,3617.699999988079,5000],"honeypot":0,"survey":"mace","page":4,"trial_type":"survey-mace","trial_index":12,"time_elapsed":819854,"internal_node_id":"0.0-12.0","task_version":"prescreen-v0.3","browser_interactions":0},{"responses":{"01":"No","02":"No","03":"No","04":"No","05":"No"},"rt":45507.40000000596,"item_order":[0,1,2,3,4],"radio_events":[7986.9000000059605,8572.79999999702,9556.70000000298,10174.59999999404,12080.59999999404],"checkbox_events":[],"key_events":[],"mouse_events":[7986.9000000059605,8572.79999999702,9556.70000000298,10174.59999999404,10748.79999999702,12080.59999999404,45504.70000000298],"honeypot":0,"survey":"mace","page":5,"trial_type":"survey-mace","trial_index":13,"time_elapsed":865366,"internal_node_id":"0.0-13.0","task_version":"prescreen-v0.3","browser_interactions":0},{"responses":{"01":"No","02":"No","03":"No","04":"No","05":"No"},"rt":36620.79999999702,"item_order":[0,1,2,3,4],"radio_events":[5784.20000000298,7088.70000000298,8123.70000000298,8981.90000000596,9767.90000000596],"checkbox_events":[],"key_events":[],"mouse_events":[5784.20000000298,7088.70000000298,8123.70000000298,8981.90000000596,9767.90000000596,36618],"honeypot":0,"survey":"mace","page":6,"trial_type":"survey-mace","trial_index":14,"time_elapsed":901990,"internal_node_id":"0.0-14.0","task_version":"prescreen-v0.3","browser_interactions":0},{"responses":{"01":"No","02":"No","03":"No","04":"No","05":"No","06":"No","07":"No"},"rt":64331,"item_order":[0,1,2,3,4,5,6],"radio_events":[2161.5999999940395,3215.7999999970198,5615.399999991059,7023.5999999940395,7669.79999999702,8825.39999999106,9797.5],"checkbox_events":[],"key_events":[],"mouse_events":[2161.5999999940395,3215.7999999970198,5615.399999991059,7023.5999999940395,7669.79999999702,8825.39999999106,9797.5,64325.89999999106],"honeypot":0,"survey":"mace","page":7,"trial_type":"survey-mace","trial_index":15,"time_elapsed":966325,"internal_node_id":"0.0-15.0","task_version":"prescreen-v0.3","browser_interactions":0},{"responses":{"01":"No","02":"No","03":"No","04":"No"},"rt":63117.5,"item_order":[0,1,2,3],"radio_events":[9990.59999999404,13473.89999999106,14380,15821.89999999106],"checkbox_events":[],"key_events":[],"mouse_events":[9990.59999999404,13473.89999999106,14380,15821.89999999106,63114.5],"honeypot":0,"survey":"mace","page":8,"trial_type":"survey-mace","trial_index":16,"time_elapsed":1029447,"internal_node_id":"0.0-16.0","task_version":"prescreen-v0.3","browser_interactions":0},{"responses":{"01":"Yes","01_ages_1":"1","01_ages_2":"2","01_ages_3":"3","01_ages_4":"4","01_ages_5":"5","01_ages_6":"6","01_ages_7":"7","01_ages_8":"8","01_ages_9":"9","01_ages_10":"10","01_ages_11":"11","01_ages_12":"12","01_ages_13":"13","01_ages_14":"14","01_ages_15":"15","01_ages_16":"16","01_ages_17":"17","01_ages_18":"18","02":"Yes","02_ages_1":"1","02_ages_2":"2","02_ages_3":"3","02_ages_4":"4","02_ages_5":"5","02_ages_6":"6","02_ages_7":"7","02_ages_8":"8","02_ages_9":"9","02_ages_10":"10","02_ages_11":"11","02_ages_12":"12","02_ages_13":"13","02_ages_14":"14","02_ages_15":"15","02_ages_16":"16","02_ages_17":"17","02_ages_18":"18","03":"Yes","03_ages_1":"1","03_ages_2":"2","03_ages_3":"3","03_ages_4":"4","03_ages_5":"5","03_ages_6":"6","03_ages_7":"7","03_ages_8":"8","03_ages_9":"9","03_ages_10":"10","03_ages_11":"11","03_ages_12":"12","03_ages_13":"13","03_ages_14":"14","03_ages_15":"15","03_ages_16":"16","03_ages_17":"17","03_ages_18":"18","04":"Yes","04_ages_1":"1","04_ages_2":"2","04_ages_3":"3","04_ages_4":"4","04_ages_5":"5","04_ages_6":"6","04_ages_7":"7","04_ages_8":"8","04_ages_9":"9","04_ages_10":"10","04_ages_11":"11","04_ages_12":"12","04_ages_13":"13","04_ages_14":"14","04_ages_15":"15","04_ages_16":"16","04_ages_17":"17","04_ages_18":"18"},"rt":94886.60000000894,"item_order":[0,1,2,3],"radio_events":[5717,33156.90000000596,35127,39427.10000000894],"checkbox_events":[15905,18031.20000000298,18568.40000000596,18978.60000000894,19323.29999999702,19995.20000000298,20413.5,20949.10000000894,21764.5,22145.20000000298,22390.90000000596,22796.79999999702,23488.79999999702,24059.29999999702,24425.10000000894,25120.79999999702,25825.20000000298,26996.70000000298,27190.60000000894,27719.20000000298,28828.79999999702,29570.90000000596,41271.20000000298,42011.10000000894,42913.10000000894,43435,43997,44423.10000000894,44909.10000000894,45256.79999999702,45937.10000000894,46291.70000000298,46627,46953.70000000298,47274.10000000894,47968.90000000596,48364.70000000298,48792.79999999702,49126.40000000596,49441.10000000894,50800.5,51093.10000000894,51409.20000000298,52420.70000000298,53027.10000000894,54121.10000000894,54457.10000000894,54897,55642.90000000596,55974.5,56344,57125,57465.60000000894,58861.10000000894,59731,60507.10000000894,60929.70000000298,61415.10000000894,63183.20000000298,63608.70000000298,64609,64957,65476.79999999702,65808.20000000298,66444.60000000894,67179.90000000596,67602.79999999702,67921.60000000894,68247.10000000894,68620.60000000894,69002.60000000894,69387.70000000298,69764.90000000596,70091,70484.70000000298,70914.90000000596],"key_events":[],"mouse_events":[5717,15905,16269.29999999702,16620.79999999702,16960.79999999702,17715,18031.20000000298,18568.40000000596,18978.60000000894,19323.29999999702,19636.60000000894,19995.20000000298,20413.5,20949.10000000894,21764.5,22145.20000000298,22390.90000000596,22796.79999999702,23156.79999999702,23488.79999999702,24059.29999999702,24425.10000000894,24809.10000000894,25120.79999999702,25506.70000000298,25825.20000000298,26178.79999999702,26629,26996.70000000298,27190.60000000894,27719.20000000298,28228.29999999702,28828.79999999702,29570.90000000596,33156.90000000596,35127,39427.10000000894,41271.20000000298,41733,42011.10000000894,42679.20000000298,42913.10000000894,43435,43997,44423.10000000894,44909.10000000894,45256.79999999702,45691.79999999702,45937.10000000894,46291.70000000298,46627,46953.70000000298,47274.10000000894,47609,47968.90000000596,48364.70000000298,48792.79999999702,49126.40000000596,49441.10000000894,50800.5,51093.10000000894,51409.20000000298,51738,52102.79999999702,52420.70000000298,52782,53027.10000000894,53374.60000000894,53800.10000000894,54121.10000000894,54457.10000000894,54897,55260.90000000596,55642.90000000596,55974.5,56344,56690.90000000596,57125,57465.60000000894,57789.10000000894,58100.60000000894,58630.90000000596,58861.10000000894,59237.90000000596,59485.60000000894,59731,60507.10000000894,60929.70000000298,61415.10000000894,63183.20000000298,63608.70000000298,63921.40000000596,64203.20000000298,64609,64957,65476.79999999702,65808.20000000298,66140.40000000596,66444.60000000894,66873,67179.90000000596,67602.79999999702,67921.60000000894,68247.10000000894,68620.60000000894,69002.60000000894,69387.70000000298,69764.90000000596,70091,70484.70000000298,70914.90000000596,94883.60000000894],"honeypot":0,"survey":"mace","page":9,"trial_type":"survey-mace","trial_index":17,"time_elapsed":1124337,"internal_node_id":"0.0-17.0","task_version":"prescreen-v0.3","browser_interactions":0},{"responses":{"01":"No","02":"No","03":"No","04":"No","05":"No","06":"Yes","06_ages_17":"17","07":"Yes","07_ages_1":"1","07_ages_2":"2","07_ages_3":"3","07_ages_4":"4","07_ages_5":"5","07_ages_6":"6","07_ages_7":"7","07_ages_8":"8","07_ages_9":"9","07_ages_10":"10","07_ages_11":"11","07_ages_12":"12","07_ages_13":"13","07_ages_14":"14","07_ages_15":"15","07_ages_16":"16","07_ages_17":"17","07_ages_18":"18","08":"Yes","08_ages_1":"1","08_ages_2":"2","08_ages_3":"3","08_ages_4":"4","08_ages_5":"5","08_ages_6":"6","08_ages_7":"7","08_ages_8":"8","08_ages_9":"9","08_ages_10":"10","08_ages_11":"11","08_ages_12":"12","08_ages_13":"13","08_ages_14":"14","08_ages_15":"15","08_ages_16":"16","08_ages_17":"17","08_ages_18":"18"},"rt":157466.79999999702,"item_order":[0,1,2,3,4,5,6,7],"radio_events":[4761.600000008941,5633.600000008941,7535.600000008941,10543.60000000894,13197.60000000894,17693.20000000298,19213.40000000596,20373.29999999702],"checkbox_events":[21619.5,22927.10000000894,23243.40000000596,24004.90000000596,24281.40000000596,24613.29999999702,24919.90000000596,25265.60000000894,26331.60000000894,26672.5,27031.70000000298,27352.79999999702,27675.40000000596,28679.29999999702,29421.79999999702,30184.40000000596,31321.60000000894,31691.5,32367.60000000894,33447.79999999702,33929.60000000894,34285.40000000596,34597.5,34915.20000000298,35314.70000000298,36489.70000000298,36813.10000000894,37843.29999999702,38457.40000000596,39707.5,40177.40000000596,40527.5,41221.40000000596,41473.60000000894,42349.5,42669.70000000298,43353.60000000894],"key_events":[],"mouse_events":[4761.600000008941,5633.600000008941,7535.600000008941,10543.60000000894,13197.60000000894,17693.20000000298,19213.40000000596,20373.29999999702,21619.5,22927.10000000894,23243.40000000596,23569.40000000596,24004.90000000596,24281.40000000596,24613.29999999702,24919.90000000596,25265.60000000894,25593.29999999702,26015.5,26331.60000000894,26672.5,27031.70000000298,27352.79999999702,27675.40000000596,28035.40000000596,28462.20000000298,28679.29999999702,28977.5,29421.79999999702,29847.79999999702,30184.40000000596,30977.5,31321.60000000894,31691.5,31997.60000000894,32367.60000000894,33447.79999999702,33929.60000000894,34285.40000000596,34597.5,34915.20000000298,35314.70000000298,35635.40000000596,35951.70000000298,36489.70000000298,36813.10000000894,37175.10000000894,37532.90000000596,37843.29999999702,38183.29999999702,38457.40000000596,38775.40000000596,39064,39379.60000000894,39707.5,40177.40000000596,40527.5,40857.5,41221.40000000596,41473.60000000894,41723.5,42047.5,42349.5,42669.70000000298,43025,43353.60000000894,157463.40000000596],"honeypot":0,"survey":"mace","page":10,"trial_type":"survey-mace","trial_index":18,"time_elapsed":1281810,"internal_node_id":"0.0-18.0","task_version":"prescreen-v0.3","browser_interactions":0,"instructed":0},{"rt":11778.79999999702,"trial_type":"mental-health-alert","trial_index":19,"time_elapsed":1293591,"internal_node_id":"0.0-19.0","task_version":"prescreen-v0.3","interactions":"[{\"event\":\"blur\",\"trial\":7,\"time\":581417},{\"event\":\"focus\",\"trial\":7,\"time\":599936},{\"event\":\"blur\",\"trial\":8,\"time\":689342},{\"event\":\"focus\",\"trial\":8,\"time\":698018}]"}]