[{"view_history":[{"page_index":0,"viewing_time":2096},{"page_index":1,"viewing_time":5780.700000000012},{"page_index":2,"viewing_time":2819},{"page_index":3,"viewing_time":1233.7999999999884}],"rt":11930.200000000012,"trial_type":"instructions","trial_index":0,"time_elapsed":11943,"internal_node_id":"0.0-0.0","task_version":"prescreen-v0.3"},{"rt":27176.399999999994,"responses":{"age":"21","gender-categorical":"Female","gender-free-response":"","ethnicity":"Not Hispanic or Latino","race":["Asian"],"education":"High school"},"trial_type":"survey-demo","trial_index":1,"time_elapsed":39125,"internal_node_id":"0.0-1.0","task_version":"prescreen-v0.3"},{"responses":{"Q07":"1","Q12":"3","Q21":"3","Q03":"0","Q05":"2","Q10":"1","Q13":"1","Q19":"1","Q11":"2","Q08":"2","Q16":"2","Q15":"1","Q01":"2","Q18":"1","Q17":"0","Q20":"1","Q02":"1","Q09":"1","Q14":"0","Q06":"1","Q04":"0"},"rt":122970.00000000003,"item_order":[6,11,20,2,4,9,12,18,10,7,15,14,0,17,16,19,1,8,13,5,3],"radio_events":[11654.399999999994,17083.5,22297.20000000001,27426.399999999994,36826.80000000002,43133.399999999994,48120.899999999994,63627.69999999998,67776.19999999998,68400.80000000002,73305.6,79373.19999999998,83340.1,88855.1,92726.1,97205.19999999998,101660.50000000003,106173.30000000002,111661.19999999998,120630.30000000002,121886.6],"key_events":[],"mouse_events":[11654.399999999994,17083.5,22297.20000000001,27426.399999999994,36826.80000000002,43133.399999999994,48120.899999999994,59810.30000000002,62191.899999999994,63627.69999999998,64481.399999999994,67776.19999999998,68400.80000000002,73305.6,78677.4,79373.19999999998,83340.1,88855.1,92726.1,96375.69999999998,97205.19999999998,101660.50000000003,106173.30000000002,111661.19999999998,117240.69999999998,120630.30000000002,121886.6,122968.1],"straightlining":0.47619047619047616,"zigzagging":0.55,"honeypot":0,"survey":"sns","trial_type":"survey-template","trial_index":2,"time_elapsed":162103,"internal_node_id":"0.0-2.0","task_version":"prescreen-v0.3","browser_interactions":0,"infrequency":0},{"responses":{"Q05":"3","Q09":"3","Q08":"2","Q12":"2","Q10":"2","Q11":"2","Q01":"3","Q07":"3","Q03":"2","Q13":"0","Q06":"3","Q02":"3","Q04":"3"},"rt":53119.70000000001,"item_order":[4,8,7,11,9,10,0,6,2,12,5,1,3],"radio_events":[7026.200000000012,9423.5,12529.5,19119.099999999977,21995.5,24521.79999999999,27890.29999999999,30804.400000000023,34455.59999999998,37713.29999999999,47570.20000000001,49245.59999999998,52193.09999999998],"key_events":[],"mouse_events":[7026.200000000012,9423.5,12529.5,18128.29999999999,19119.099999999977,21995.5,24521.79999999999,27890.29999999999,30804.400000000023,34455.59999999998,37713.29999999999,43662.90000000002,45475.70000000001,46044.59999999998,46455.79999999999,46921.70000000001,47570.20000000001,48250,49245.59999999998,52193.09999999998,52667.59999999998,53118],"straightlining":0.5384615384615384,"zigzagging":0.3333333333333333,"honeypot":0,"survey":"bisbas","trial_type":"survey-template","trial_index":3,"time_elapsed":215229,"internal_node_id":"0.0-3.0","task_version":"prescreen-v0.3","browser_interactions":0,"infrequency":0},{"responses":{"Q01":"3","Q02":"3","Q03":"4"},"rt":27710.29999999999,"radio_events":[9227,20386,25971.099999999977],"key_events":[],"mouse_events":[9227,20386,25971.099999999977,27180.20000000001,27709.399999999965],"survey":"map","page":1,"trial_type":"survey-map","trial_index":4,"time_elapsed":242946,"internal_node_id":"0.0-4.0","task_version":"prescreen-v0.3","browser_interactions":0},{"responses":{"Q04":"1","Q05":"1","Q06":"2"},"rt":25609.900000000023,"radio_events":[4896,10481.900000000023,20496.900000000023,24850.400000000023],"key_events":[],"mouse_events":[4896,10481.900000000023,19517.100000000035,20496.900000000023,24850.400000000023,25609.20000000001],"survey":"map","page":2,"trial_type":"survey-map","trial_index":5,"time_elapsed":268561,"internal_node_id":"0.0-5.0","task_version":"prescreen-v0.3","browser_interactions":0},{"responses":{"Q07":"3","Q08":"2","Q09":"3"},"rt":16737.899999999965,"radio_events":[9088.799999999988,11419.599999999977,14113.899999999965,15702.399999999965],"key_events":[],"mouse_events":[9088.799999999988,11419.599999999977,14113.899999999965,15702.399999999965,16160.599999999977,16737.099999999977],"survey":"map","page":3,"trial_type":"survey-map","trial_index":6,"time_elapsed":285304,"internal_node_id":"0.0-6.0","task_version":"prescreen-v0.3","browser_interactions":0},{"responses":{"Q10":"3","Q11":"2","Q12":"2","Q13":"2","Q16":"0","Q14":"2","Q15":"2"},"rt":47054.20000000001,"radio_events":[5469.299999999988,8085.200000000012,12178.299999999988,26567.099999999977,30099.399999999965,40320.59999999998,45717.5],"key_events":[],"mouse_events":[5469.299999999988,8085.200000000012,12178.299999999988,26567.099999999977,30099.399999999965,38044.70000000001,40320.59999999998,44311.09999999998,44999.29999999999,45717.5,46412.5,47053.09999999998],"survey":"map","page":4,"trial_type":"survey-map","trial_index":7,"time_elapsed":332365,"internal_node_id":"0.0-7.0","task_version":"prescreen-v0.3","browser_interactions":0,"infrequency":0},{"view_history":[{"page_index":0,"viewing_time":2397.2000000000116},{"page_index":1,"viewing_time":3911.9000000000233}],"rt":6309.799999999988,"trial_type":"instructions","trial_index":8,"time_elapsed":338677,"internal_node_id":"0.0-8.0","task_version":"prescreen-v0.3"},{"responses":{"01":"Yes","01_ages_5":"5","01_ages_6":"6","01_ages_7":"7","01_ages_8":"8","01_ages_9":"9","01_ages_10":"10","01_ages_11":"11","02":"Yes","02_ages_10":"10","02_ages_11":"11","02_ages_12":"12","03":"Yes","03_ages_5":"5","03_ages_6":"6","03_ages_7":"7","03_ages_8":"8","03_ages_9":"9","04":"Yes","04_ages_6":"6","04_ages_7":"7","05":"Yes","05_ages_6":"6","06":"Yes","06_ages_6":"6","06_ages_7":"7","06_ages_8":"8","06_ages_9":"9","06_ages_10":"10","06_ages_11":"11","06_ages_12":"12"},"rt":76462.90000000002,"item_order":[0,1,2,3,4,5],"radio_events":[8474.899999999965,29248.5,37190.5,47423.79999999993,53279.59999999998,62004.59999999998],"checkbox_events":[12971.699999999953,14797.299999999988,15618.699999999953,16638.599999999977,17412.699999999953,18053,20344.899999999965,21135.199999999953,21759,22494.29999999999,23111,32448.79999999993,33089,33745.09999999998,41086.09999999998,41734.09999999998,42635,43440.90000000002,43922.79999999993,48688.29999999993,50277.19999999995,56867.29999999993,57768.29999999993,58614.09999999998,66280,66754.19999999995,67267.79999999993,69315.29999999993,70207.5,72610.19999999995,73210.90000000002],"key_events":[],"mouse_events":[0.19999999995343387,8474.899999999965,12971.699999999953,13445.199999999953,13912,14797.299999999988,15618.699999999953,16077.399999999965,16638.599999999977,17412.699999999953,18053,18589.79999999999,19222.099999999977,19822.29999999999,20344.899999999965,21135.199999999953,21759,22494.29999999999,23111,29248.5,32448.79999999993,33089,33745.09999999998,37190.5,41086.09999999998,41734.09999999998,42635,43440.90000000002,43922.79999999993,47423.79999999993,48688.29999999993,50277.19999999995,53279.59999999998,56867.29999999993,57768.29999999993,58614.09999999998,62004.59999999998,66280,66754.19999999995,67267.79999999993,69315.29999999993,70207.5,72610.19999999995,73210.90000000002,76459.40000000002],"honeypot":0,"survey":"mace","page":1,"trial_type":"survey-mace","trial_index":9,"time_elapsed":415148,"internal_node_id":"0.0-9.0","task_version":"prescreen-v0.3","browser_interactions":0},{"responses":{"01":"Yes","01_ages_8":"8","01_ages_9":"9","01_ages_10":"10","02":"No","03":"Yes","03_ages_1":"1","03_ages_2":"2","03_ages_3":"3","03_ages_4":"4","03_ages_5":"5","03_ages_6":"6","03_ages_7":"7","03_ages_8":"8","03_ages_9":"9","03_ages_10":"10","03_ages_11":"11","03_ages_12":"12","04":"No","05":"No","06":"No","07":"No","08":"No"},"rt":41277.29999999993,"item_order":[0,1,2,3,4,5,6,7],"radio_events":[3055.29999999993,10411.599999999977,12798.099999999977,31059.099999999977,34783.79999999993,37057.29999999993,39003.19999999995,40418.29999999993],"checkbox_events":[4959.5,5836.699999999953,6279.199999999953,15572.199999999953,18685.5,20060.199999999953,20519.199999999953,20938.29999999993,22471.29999999993,22905.5,23893.199999999953,25339.79999999993,25853.599999999977,26327.699999999953,26896.699999999953],"key_events":[],"mouse_events":[3055.29999999993,4248.400000000023,4959.5,5836.699999999953,6279.199999999953,10411.599999999977,12798.099999999977,15572.199999999953,16022.29999999993,16472.79999999993,17326.699999999953,17982.29999999993,18685.5,20060.199999999953,20519.199999999953,20938.29999999993,21459.29999999993,22091.900000000023,22471.29999999993,22905.5,23545.5,23893.199999999953,24343.79999999993,24850.199999999953,25339.79999999993,25853.599999999977,26327.699999999953,26896.699999999953,31059.099999999977,34783.79999999993,37057.29999999993,39003.19999999995,40418.29999999993,41272.09999999998],"honeypot":0,"survey":"mace","page":2,"trial_type":"survey-mace","trial_index":10,"time_elapsed":456433,"internal_node_id":"0.0-10.0","task_version":"prescreen-v0.3","browser_interactions":0},{"responses":{"01":"Yes","01_ages_7":"7","01_ages_8":"8","01_ages_9":"9","01_ages_10":"10","01_ages_11":"11","02":"No","03":"No","04":"No"},"rt":19716.599999999977,"item_order":[0,1,2,3],"radio_events":[6937.79999999993,16798.199999999953,18062.399999999907,19089.599999999977],"checkbox_events":[8683.899999999907,9142.099999999977,9600.599999999977,10066.79999999993,11093.899999999907],"key_events":[],"mouse_events":[6937.79999999993,8683.899999999907,9142.099999999977,9600.599999999977,10066.79999999993,10588.5,11093.899999999907,16798.199999999953,18062.399999999907,19089.599999999977,19713.899999999907],"honeypot":0,"survey":"mace","page":3,"trial_type":"survey-mace","trial_index":11,"time_elapsed":476155,"internal_node_id":"0.0-11.0","task_version":"prescreen-v0.3","browser_interactions":0},{"responses":{"01":"No","02":"No"},"rt":5540.300000000047,"item_order":[0,1],"radio_events":[2849.5,4827.400000000023],"checkbox_events":[],"key_events":[],"mouse_events":[2849.5,4827.400000000023,5538.699999999953],"honeypot":0,"survey":"mace","page":4,"trial_type":"survey-mace","trial_index":12,"time_elapsed":481701,"internal_node_id":"0.0-12.0","task_version":"prescreen-v0.3","browser_interactions":0},{"responses":{"01":"Yes","01_ages_6":"6","01_ages_7":"7","01_ages_8":"8","01_ages_9":"9","01_ages_10":"10","01_ages_11":"11","02":"Yes","02_ages_8":"8","02_ages_9":"9","02_ages_10":"10","03":"No","04":"No","05":"No"},"rt":37905.29999999993,"item_order":[0,1,2,3,4],"radio_events":[5399.5,16804.099999999977,23665.599999999977,34101.79999999993,36928.5],"checkbox_events":[7770.29999999993,8189.29999999993,8608,9058,9571.899999999907,10718,17762.5,18204.599999999977,19208.199999999953],"key_events":[],"mouse_events":[5399.5,7770.29999999993,8189.29999999993,8608,9058,9571.899999999907,10267.399999999907,10718,16804.099999999977,17762.5,18204.599999999977,18741.899999999907,19208.199999999953,23665.599999999977,33454.29999999993,34101.79999999993,36928.5,37903],"honeypot":0,"survey":"mace","page":5,"trial_type":"survey-mace","trial_index":13,"time_elapsed":519613,"internal_node_id":"0.0-13.0","task_version":"prescreen-v0.3","browser_interactions":0},{"responses":{"01":"Yes","01_ages_6":"6","01_ages_7":"7","01_ages_8":"8","01_ages_9":"9","01_ages_10":"10","01_ages_11":"11","01_ages_12":"12","01_ages_13":"13","01_ages_14":"14","01_ages_15":"15","02":"Yes","02_ages_8":"8","02_ages_12":"12","02_ages_13":"13","02_ages_14":"14","02_ages_15":"15","03":"Yes","03_ages_12":"12","03_ages_13":"13","03_ages_14":"14","04":"Yes","04_ages_13":"13","05":"No"},"rt":83453.20000000007,"item_order":[0,1,2,3,4],"radio_events":[5275.100000000093,19160.5,31249.300000000047,38706.70000000007,43342.90000000002,76496.70000000007],"checkbox_events":[9139.70000000007,9582.20000000007,9977.20000000007,10395.800000000047,10989,12261.300000000047,13170.20000000007,13715.600000000093,14331.70000000007,15106.20000000007,20622.100000000093,21064.900000000023,21451.900000000023,21910.20000000007,22313.600000000093,23024.300000000047,24415.100000000093,24802.900000000023,25348.100000000093,26778.100000000093,33090.20000000007,33817.40000000002,34347.20000000007,55197.5,55640,56201,56674.90000000002,57308,58359,61946.20000000007,65946.20000000007,66570.80000000005,72142.40000000002,73114.30000000005,78164.40000000002],"key_events":[],"mouse_events":[5275.100000000093,9139.70000000007,9582.20000000007,9977.20000000007,10395.800000000047,10989,11384.20000000007,12261.300000000047,12711.600000000093,13170.20000000007,13715.600000000093,14331.70000000007,15106.20000000007,18654.70000000007,19160.5,20622.100000000093,21064.900000000023,21451.900000000023,21910.20000000007,22313.600000000093,23024.300000000047,23396.600000000093,23894.20000000007,24415.100000000093,24802.900000000023,25348.100000000093,26778.100000000093,31249.300000000047,33090.20000000007,33817.40000000002,34347.20000000007,38706.70000000007,43342.90000000002,55197.5,55640,56201,56674.90000000002,57308,57726.80000000005,58359,61946.20000000007,65946.20000000007,66570.80000000005,72142.40000000002,73114.30000000005,76496.70000000007,78164.40000000002,83449.90000000002],"honeypot":0,"survey":"mace","page":6,"trial_type":"survey-mace","trial_index":14,"time_elapsed":603075,"internal_node_id":"0.0-14.0","task_version":"prescreen-v0.3","browser_interactions":0},{"responses":{"01":"No","02":"No","03":"No","04":"No","05":"No","06":"No","07":"No"},"rt":15785,"item_order":[0,1,2,3,4,5,6],"radio_events":[3307.899999999907,5797.099999999977,8145.699999999953,11204,12532.79999999993,13394.5,14428.899999999907],"checkbox_events":[],"key_events":[],"mouse_events":[3307.899999999907,5797.099999999977,8145.699999999953,9653.199999999953,11204,12074.29999999993,12532.79999999993,13394.5,14428.899999999907,15780.899999999907],"honeypot":0,"survey":"mace","page":7,"trial_type":"survey-mace","trial_index":15,"time_elapsed":618867,"internal_node_id":"0.0-15.0","task_version":"prescreen-v0.3","browser_interactions":0},{"responses":{"01":"No","02":"No","03":"Yes","03_ages_8":"8","03_ages_9":"9","03_ages_10":"10","03_ages_11":"11","03_ages_12":"12","03_ages_13":"13","03_ages_14":"14","03_ages_15":"15","04":"No"},"rt":33290.90000000002,"item_order":[0,1,2,3],"radio_events":[10536.5,14163.600000000093,20035.900000000023,32197.800000000047],"checkbox_events":[22984.100000000093,23434.70000000007,23939.800000000047,24406.400000000023,25513.400000000023,25979.600000000093,26595.400000000023,27345.600000000093],"key_events":[],"mouse_events":[10536.5,14163.600000000093,18795.300000000047,20035.900000000023,22984.100000000093,23434.70000000007,23939.800000000047,24406.400000000023,24856.70000000007,25513.400000000023,25979.600000000093,26595.400000000023,27345.600000000093,32197.800000000047,32799,33288.80000000005],"honeypot":0,"survey":"mace","page":8,"trial_type":"survey-mace","trial_index":16,"time_elapsed":652164,"internal_node_id":"0.0-16.0","task_version":"prescreen-v0.3","browser_interactions":0},{"responses":{"01":"Yes","01_ages_1":"1","01_ages_2":"2","01_ages_3":"3","01_ages_4":"4","01_ages_5":"5","01_ages_6":"6","01_ages_7":"7","01_ages_9":"9","01_ages_10":"10","01_ages_11":"11","01_ages_12":"12","01_ages_13":"13","01_ages_14":"14","01_ages_15":"15","01_ages_16":"16","01_ages_17":"17","01_ages_18":"18","02":"Yes","02_ages_15":"15","02_ages_16":"16","02_ages_17":"17","02_ages_18":"18","03":"Yes","03_ages_1":"1","03_ages_2":"2","03_ages_3":"3","03_ages_4":"4","03_ages_5":"5","03_ages_6":"6","03_ages_7":"7","03_ages_8":"8","03_ages_9":"9","03_ages_10":"10","03_ages_11":"11","03_ages_12":"12","03_ages_13":"13","03_ages_14":"14","03_ages_15":"15","03_ages_16":"16","03_ages_17":"17","03_ages_18":"18","04":"Yes","04_ages_1":"1","04_ages_2":"2","04_ages_3":"3","04_ages_4":"4","04_ages_5":"5","04_ages_6":"6","04_ages_7":"7","04_ages_8":"8","04_ages_9":"9","04_ages_10":"10","04_ages_11":"11","04_ages_12":"12","04_ages_13":"13","04_ages_14":"14","04_ages_15":"15","04_ages_16":"16","04_ages_17":"17","04_ages_18":"18"},"rt":91736.90000000002,"item_order":[0,1,2,3],"radio_events":[3492.8000000000466,26518,42409.09999999998,63052.5],"checkbox_events":[7540.70000000007,8014.599999999977,8354.599999999977,8986,9872.20000000007,11018.599999999977,11951.099999999977,13271,13745.20000000007,14875.20000000007,15388.800000000047,16962,18052.70000000007,19514.800000000047,19925.5,21316.70000000007,21799.20000000007,22779,23893.800000000047,30153.70000000007,30627.70000000007,31054.599999999977,32161.20000000007,34666.80000000005,35251.20000000007,36500.5,36950.30000000005,37953.80000000005,38293.70000000007,44214.30000000005,45084.20000000007,46672.70000000007,47296.80000000005,47787.09999999998,48173.70000000007,48854,50244.90000000002,50631.80000000005,51026.90000000002,51826,52173.09999999998,52552.5,53382.59999999998,53761.70000000007,55137,55485.09999999998,56109.20000000007,65241.5,65755.09999999998,66783.70000000007,67455.5,68822,69613.5,70380.20000000007,70894.20000000007,72150.70000000007,72782.90000000002,73257.30000000005,74584.70000000007,75581.80000000005,76150.80000000005,76600.90000000002,77225.40000000002,77636.5,78118.40000000002],"key_events":[],"mouse_events":[3492.8000000000466,7540.70000000007,8014.599999999977,8354.599999999977,8986,9334.400000000023,9872.20000000007,10465.300000000047,11018.599999999977,11951.099999999977,12424.70000000007,13271,13745.20000000007,14195.20000000007,14875.20000000007,15388.800000000047,16962,18052.70000000007,19072.300000000047,19514.800000000047,19925.5,20826.900000000023,21316.70000000007,21799.20000000007,22360.099999999977,22779,23482.400000000023,23893.800000000047,26518,29455,30153.70000000007,30627.70000000007,31054.599999999977,32161.20000000007,32572.5,33251.30000000005,34073.90000000002,34666.80000000005,35251.20000000007,36500.5,36950.30000000005,37377.09999999998,37953.80000000005,38293.70000000007,42409.09999999998,44214.30000000005,44577.5,45084.20000000007,45439.5,45819,46134.80000000005,46672.70000000007,47296.80000000005,47787.09999999998,48173.70000000007,48854,49343.20000000007,50244.90000000002,50631.80000000005,51026.90000000002,51826,52173.09999999998,52552.5,53382.59999999998,53761.70000000007,54141.40000000002,54679,55137,55485.09999999998,56109.20000000007,63052.5,65241.5,65755.09999999998,66783.70000000007,67455.5,68822,69613.5,70380.20000000007,70894.20000000007,72150.70000000007,72782.90000000002,73257.30000000005,73920.59999999998,74584.70000000007,75581.80000000005,76150.80000000005,76600.90000000002,77225.40000000002,77636.5,78118.40000000002,91734.20000000007],"honeypot":0,"survey":"mace","page":9,"trial_type":"survey-mace","trial_index":17,"time_elapsed":743907,"internal_node_id":"0.0-17.0","task_version":"prescreen-v0.3","browser_interactions":0},{"responses":{"01":"No","02":"No","03":"Yes","03_ages_15":"15","03_ages_16":"16","03_ages_17":"17","03_ages_18":"18","04":"Yes","04_ages_17":"17","05":"No","06":"Yes","06_ages_17":"17","07":"Yes","07_ages_1":"1","07_ages_2":"2","07_ages_3":"3","07_ages_4":"4","07_ages_5":"5","07_ages_6":"6","07_ages_7":"7","07_ages_8":"8","07_ages_9":"9","07_ages_10":"10","07_ages_11":"11","07_ages_12":"12","07_ages_13":"13","07_ages_14":"14","07_ages_15":"15","07_ages_16":"16","07_ages_17":"17","07_ages_18":"18","08":"Yes","08_ages_16":"16","08_ages_17":"17","08_ages_18":"18"},"rt":65133.59999999998,"item_order":[0,1,2,3,4,5,6,7],"radio_events":[3973.29999999993,5482.699999999953,5868.29999999993,7561.399999999907,14074.29999999993,27448.399999999907,30238.79999999993,38127.19999999995,59639.69999999995],"checkbox_events":[9521.399999999907,9908.699999999953,10454,11394.399999999907,22104.699999999953,31874.79999999993,43193.19999999995,43580,44733.69999999995,45619.39999999991,46607.39999999991,47049.89999999991,47429.09999999998,48599.29999999993,48978.39999999991,49879.29999999993,50330,51270.5,52156.5,53254.39999999991,54448.09999999998,54827.69999999995,55831.69999999995,56448.29999999993,63514.29999999993,63980.89999999991,64566.09999999998],"key_events":[],"mouse_events":[3973.29999999993,5482.699999999953,5868.29999999993,7561.399999999907,9521.399999999907,9908.699999999953,10454,10888.699999999953,11394.399999999907,14074.29999999993,22104.699999999953,27448.399999999907,30238.79999999993,31874.79999999993,38127.19999999995,43193.19999999995,43580,44228.09999999998,44733.69999999995,45137.39999999991,45619.39999999991,46069.69999999995,46607.39999999991,47049.89999999991,47429.09999999998,47982.5,48599.29999999993,48978.39999999991,49879.29999999993,50330,50772.59999999998,51270.5,52156.5,52630.29999999993,53254.39999999991,54448.09999999998,54827.69999999995,55278.29999999993,55831.69999999995,56448.29999999993,59639.69999999995,63514.29999999993,63980.89999999991,64566.09999999998,65128],"honeypot":0,"survey":"mace","page":10,"trial_type":"survey-mace","trial_index":18,"time_elapsed":809052,"internal_node_id":"0.0-18.0","task_version":"prescreen-v0.3","browser_interactions":0,"instructed":0},{"rt":7884.29999999993,"trial_type":"mental-health-alert","trial_index":19,"time_elapsed":816941,"internal_node_id":"0.0-19.0","task_version":"prescreen-v0.3","interactions":"[]"}]