[{"view_history":[{"page_index":0,"viewing_time":6906},{"page_index":1,"viewing_time":4715},{"page_index":2,"viewing_time":5377},{"page_index":3,"viewing_time":1653}],"rt":18652,"trial_type":"instructions","trial_index":0,"time_elapsed":20625,"internal_node_id":"0.0-0.0","task_version":"prescreen-v0.3"},{"rt":19844,"responses":{"age":"27","gender-categorical":"Female","gender-free-response":"","ethnicity":"Hispanic or Latino","race":["White"],"education":"High school"},"trial_type":"survey-demo","trial_index":1,"time_elapsed":40482,"internal_node_id":"0.0-1.0","task_version":"prescreen-v0.3"},{"responses":{"Q20":"2","Q03":"1","Q01":"3","Q08":"2","Q14":"3","Q16":"2","Q06":"1","Q15":"2","Q09":"3","Q18":"2","Q21":"3","Q04":"2","Q17":"3","Q10":"3","Q05":"2","Q13":"2","Q12":"3","Q19":"2","Q07":"1","Q02":"2","Q11":"3"},"rt":130925,"item_order":[19,2,0,7,13,15,5,14,8,17,20,3,16,9,4,12,11,18,6,1,10],"radio_events":[10168,14083,18436,20196,24084,30033,35061,42024,48285,55822,59120,65976,70260,77374,82148,84889,94510,98832,105128,111530,119070,124630,129989],"key_events":[],"mouse_events":[10168,14083,18436,20196,24084,28650,29426,30033,34519,35061,42024,47816,48285,55822,59120,65976,70260,76646,77374,81468,82148,84889,94510,98832,104342,105128,110581,111044,111530,119070,123928,124630,129989,130876],"straightlining":0.47619047619047616,"zigzagging":0.85,"honeypot":0,"survey":"sns","trial_type":"survey-template","trial_index":2,"time_elapsed":171422,"internal_node_id":"0.0-2.0","task_version":"prescreen-v0.3","browser_interactions":0,"infrequency":0},{"responses":{"Q10":"1","Q07":"1","Q01":"3","Q06":"2","Q02":"2","Q12":"1","Q05":"2","Q09":"1","Q03":"3","Q08":"1","Q04":"3","Q11":"1","Q13":"0"},"rt":70129,"item_order":[9,6,0,5,1,11,4,8,2,7,3,10,12],"radio_events":[8965,12392,17871,19135,23095,27325,32626,36902,44291,49249,53066,58450,61874,66943],"key_events":[],"mouse_events":[8965,12392,16888,17871,19135,23095,26542,27325,32626,36902,44291,48678,49249,53066,57584,58450,61874,66943,70125],"straightlining":0.46153846153846156,"zigzagging":0.4166666666666667,"honeypot":0,"survey":"bisbas","trial_type":"survey-template","trial_index":3,"time_elapsed":241560,"internal_node_id":"0.0-3.0","task_version":"prescreen-v0.3","browser_interactions":0,"infrequency":0},{"responses":{"Q01":"1","Q02":"2","Q03":"1"},"rt":39631,"radio_events":[19247,24385,36678,38356],"key_events":[],"mouse_events":[19247,24385,36678,38356,39629],"survey":"map","page":1,"trial_type":"survey-map","trial_index":4,"time_elapsed":281200,"internal_node_id":"0.0-4.0","task_version":"prescreen-v0.3","browser_interactions":0},{"responses":{"Q04":"2","Q05":"3","Q06":"1"},"rt":41740,"radio_events":[17215,24191,40596],"key_events":[],"mouse_events":[17215,24191,40596,41738],"survey":"map","page":2,"trial_type":"survey-map","trial_index":5,"time_elapsed":322944,"internal_node_id":"0.0-5.0","task_version":"prescreen-v0.3","browser_interactions":0},{"responses":{"Q07":"1","Q08":"0","Q09":"0"},"rt":19206,"radio_events":[7745,12860,17772],"key_events":[],"mouse_events":[7745,12860,17772,19205],"survey":"map","page":3,"trial_type":"survey-map","trial_index":6,"time_elapsed":342156,"internal_node_id":"0.0-6.0","task_version":"prescreen-v0.3","browser_interactions":0},{"responses":{"Q10":"1","Q11":"0","Q12":"1","Q13":"2","Q16":"0","Q14":"1","Q15":"0"},"rt":56595,"radio_events":[7232,15909,24633,34464,42652,48375,55351],"key_events":[],"mouse_events":[6712,7232,15909,24633,34464,42652,48375,55351,56592],"survey":"map","page":4,"trial_type":"survey-map","trial_index":7,"time_elapsed":398758,"internal_node_id":"0.0-7.0","task_version":"prescreen-v0.3","browser_interactions":0,"infrequency":0},{"view_history":[{"page_index":0,"viewing_time":3587},{"page_index":1,"viewing_time":5816}],"rt":9404,"trial_type":"instructions","trial_index":8,"time_elapsed":408165,"internal_node_id":"0.0-8.0","task_version":"prescreen-v0.3"},{"responses":{"01":"Yes","01_ages_6":"6","01_ages_7":"7","01_ages_8":"8","01_ages_9":"9","01_ages_10":"10","01_ages_11":"11","01_ages_12":"12","01_ages_13":"13","01_ages_14":"14","02":"No","03":"No","04":"No","05":"No","06":"No"},"rt":103977,"item_order":[0,1,2,3,4,5],"radio_events":[11946,19765,48185,82843,90311,93819,95350,100042],"checkbox_events":[71283,72026,72694,73312,74116,74812,75430,76181,76986],"key_events":[],"mouse_events":[0,11946,19765,48185,71283,72026,72694,73312,74116,74812,75430,76181,76986,82843,90311,93819,95350,100042,103969],"honeypot":0,"survey":"mace","page":1,"trial_type":"survey-mace","trial_index":9,"time_elapsed":512159,"internal_node_id":"0.0-9.0","task_version":"prescreen-v0.3","browser_interactions":2},{"responses":{"01":"No","02":"No","03":"Yes","03_ages_4":"4","03_ages_5":"5","03_ages_6":"6","03_ages_7":"7","04":"No","05":"No","06":"No","07":"No","08":"Yes","08_ages_13":"13"},"rt":44584,"item_order":[0,1,2,3,4,5,6,7],"radio_events":[3642,8342,10482,21918,26166,29764,33882,40019],"checkbox_events":[14359,15028,15599,16194,43312],"key_events":[],"mouse_events":[3642,8342,10482,14359,15028,15599,16194,21918,26166,29764,33882,40019,43312,44577],"honeypot":0,"survey":"mace","page":2,"trial_type":"survey-mace","trial_index":10,"time_elapsed":556756,"internal_node_id":"0.0-10.0","task_version":"prescreen-v0.3","browser_interactions":0},{"responses":{"01":"No","02":"No","03":"No","04":"No"},"rt":24286,"item_order":[0,1,2,3],"radio_events":[15252,17644,20417,23492],"checkbox_events":[],"key_events":[],"mouse_events":[15252,17644,20417,23492,24282],"honeypot":0,"survey":"mace","page":3,"trial_type":"survey-mace","trial_index":11,"time_elapsed":581049,"internal_node_id":"0.0-11.0","task_version":"prescreen-v0.3","browser_interactions":0},{"responses":{"01":"No","02":"No"},"rt":11336,"item_order":[0,1],"radio_events":[7164,10482],"checkbox_events":[],"key_events":[],"mouse_events":[7164,10482,11333],"honeypot":0,"survey":"mace","page":4,"trial_type":"survey-mace","trial_index":12,"time_elapsed":592390,"internal_node_id":"0.0-12.0","task_version":"prescreen-v0.3","browser_interactions":0},{"responses":{"01":"No","02":"No","03":"No","04":"No","05":"No"},"rt":28696,"item_order":[0,1,2,3,4],"radio_events":[12705,15708,22150,25882,27485],"checkbox_events":[],"key_events":[],"mouse_events":[12705,15708,22150,25882,27485,28690],"honeypot":0,"survey":"mace","page":5,"trial_type":"survey-mace","trial_index":13,"time_elapsed":621095,"internal_node_id":"0.0-13.0","task_version":"prescreen-v0.3","browser_interactions":0},{"responses":{"01":"Yes","01_ages_5":"5","01_ages_6":"6","01_ages_7":"7","01_ages_8":"8","01_ages_9":"9","01_ages_10":"10","01_ages_11":"11","01_ages_12":"12","01_ages_13":"13","01_ages_14":"14","02":"Yes","02_ages_5":"5","02_ages_6":"6","02_ages_7":"7","02_ages_8":"8","02_ages_9":"9","02_ages_10":"10","02_ages_11":"11","02_ages_12":"12","02_ages_13":"13","02_ages_14":"14","03":"No","04":"No","05":"No"},"rt":53944,"item_order":[0,1,2,3,4],"radio_events":[12794,31610,45558,50131,53073],"checkbox_events":[18580,19493,21013,21447,22933,23466,24136,24756,25423,26530,27357,28427,33812,34334,34834,36202,36681,37216,37883,38553,39209,39952],"key_events":[],"mouse_events":[12794,18580,19493,21013,21447,22933,23466,24136,24756,25423,26530,27357,28427,31610,33289,33812,34334,34834,35307,36202,36681,37216,37883,38553,39209,39952,45558,50131,53073,53937],"honeypot":0,"survey":"mace","page":6,"trial_type":"survey-mace","trial_index":14,"time_elapsed":675047,"internal_node_id":"0.0-14.0","task_version":"prescreen-v0.3","browser_interactions":0},{"responses":{"01":"No","02":"No","03":"No","04":"No","05":"No","06":"No","07":"No"},"rt":28999,"item_order":[0,1,2,3,4,5,6],"radio_events":[6959,10887,13915,17694,21306,23458,28151],"checkbox_events":[],"key_events":[],"mouse_events":[6959,10887,13915,17694,21306,23458,28151,28990],"honeypot":0,"survey":"mace","page":7,"trial_type":"survey-mace","trial_index":15,"time_elapsed":704057,"internal_node_id":"0.0-15.0","task_version":"prescreen-v0.3","browser_interactions":0},{"responses":{"01":"No","02":"No","03":"No","04":"No"},"rt":37383,"item_order":[0,1,2,3],"radio_events":[14501,19317,25743,31967,34280,36636],"checkbox_events":[],"key_events":[],"mouse_events":[14501,19317,25743,31537,31967,34280,36636,37378],"honeypot":0,"survey":"mace","page":8,"trial_type":"survey-mace","trial_index":16,"time_elapsed":741451,"internal_node_id":"0.0-16.0","task_version":"prescreen-v0.3","browser_interactions":0},{"responses":{"01":"Yes","01_ages_1":"1","01_ages_2":"2","01_ages_3":"3","01_ages_4":"4","01_ages_5":"5","01_ages_6":"6","01_ages_7":"7","01_ages_8":"8","01_ages_9":"9","01_ages_10":"10","01_ages_11":"11","01_ages_12":"12","01_ages_13":"13","02":"No","03":"Yes","03_ages_1":"1","03_ages_2":"2","03_ages_3":"3","03_ages_4":"4","03_ages_5":"5","03_ages_6":"6","03_ages_7":"7","03_ages_8":"8","03_ages_9":"9","03_ages_10":"10","03_ages_11":"11","03_ages_12":"12","03_ages_13":"13","03_ages_14":"14","03_ages_15":"15","03_ages_16":"16","03_ages_17":"17","03_ages_18":"18","04":"Yes","04_ages_1":"1","04_ages_2":"2","04_ages_3":"3","04_ages_4":"4","04_ages_5":"5","04_ages_6":"6","04_ages_7":"7","04_ages_8":"8","04_ages_9":"9","04_ages_10":"10","04_ages_11":"11","04_ages_12":"12","04_ages_13":"13","04_ages_14":"14","04_ages_15":"15","04_ages_16":"16","04_ages_17":"17","04_ages_18":"18"},"rt":74347,"item_order":[0,1,2,3],"radio_events":[6847,33255,38824,57765],"checkbox_events":[10217,10752,11334,11797,12429,12954,13573,14206,15241,15921,16468,17380,19920,40334,40867,41403,41939,42449,43105,43762,44419,44992,45682,46717,47800,48422,48956,49466,50135,50931,51726,61621,62156,62787,63347,63871,64418,64867,65500,66108,66619,67093,68334,69685,70418,71057,71690,72761,73431],"key_events":[],"mouse_events":[6847,10217,10752,11334,11797,12429,12954,13573,14206,14764,15241,15921,16468,17380,19920,33255,38824,40334,40867,41403,41939,42449,43105,43762,44419,44992,45682,46242,46717,47397,47800,48422,48956,49466,50135,50931,51726,57765,59628,61621,62156,62787,63347,63871,64418,64867,65500,66108,66619,67093,68334,68883,69685,70418,71057,71690,72761,73431,74341],"honeypot":0,"survey":"mace","page":9,"trial_type":"survey-mace","trial_index":17,"time_elapsed":815807,"internal_node_id":"0.0-17.0","task_version":"prescreen-v0.3","browser_interactions":0},{"responses":{"01":"No","02":"No","03":"No","04":"No","05":"No","06":"Yes","06_ages_17":"17","07":"Yes","07_ages_1":"1","07_ages_2":"2","07_ages_3":"3","07_ages_4":"4","07_ages_5":"5","07_ages_6":"6","07_ages_7":"7","07_ages_8":"8","07_ages_9":"9","07_ages_10":"10","07_ages_11":"11","07_ages_12":"12","07_ages_13":"13","08":"No"},"rt":50409,"item_order":[0,1,2,3,4,5,6,7],"radio_events":[6114,7899,14760,17491,21804,24942,34772,49614],"checkbox_events":[26330,37471,37896,38321,38809,40742,41545,42165,42872,43734,44330,45305,45793,46325],"key_events":[],"mouse_events":[6114,7899,14760,17491,21804,24942,26330,34772,37471,37896,38321,38809,40742,41168,41545,42165,42872,43359,43734,44330,45305,45793,46325,49614,50399],"honeypot":0,"survey":"mace","page":10,"trial_type":"survey-mace","trial_index":18,"time_elapsed":866226,"internal_node_id":"0.0-18.0","task_version":"prescreen-v0.3","browser_interactions":0,"instructed":0},{"rt":12803,"trial_type":"mental-health-alert","trial_index":19,"time_elapsed":879034,"internal_node_id":"0.0-19.0","task_version":"prescreen-v0.3","interactions":"[{\"event\":\"blur\",\"trial\":9,\"time\":469933},{\"event\":\"focus\",\"trial\":9,\"time\":469934}]"}]