[{"view_history":[{"page_index":0,"viewing_time":4311.699999928474},{"page_index":1,"viewing_time":1003.3000000715256},{"page_index":2,"viewing_time":1910.5},{"page_index":3,"viewing_time":3343.100000023842}],"rt":10569.399999976158,"trial_type":"instructions","trial_index":0,"time_elapsed":10585,"internal_node_id":"0.0-0.0","task_version":"prescreen-v0.3"},{"rt":20776,"responses":{"age":"37","gender-categorical":"Female","gender-free-response":"","ethnicity":"Not Hispanic or Latino","race":["White"],"education":"Bachelor degree"},"trial_type":"survey-demo","trial_index":1,"time_elapsed":31370,"internal_node_id":"0.0-1.0","task_version":"prescreen-v0.3"},{"responses":{"Q17":"0","Q08":"1","Q19":"1","Q06":"0","Q12":"0","Q09":"0","Q14":"1","Q07":"3","Q20":"2","Q11":"0","Q15":"1","Q05":"0","Q01":"2","Q21":"3","Q18":"1","Q16":"2","Q04":"1","Q02":"1","Q13":"1","Q03":"1","Q10":"0"},"rt":81235.29999995232,"item_order":[16,7,18,5,11,8,13,6,19,10,14,4,0,20,17,15,3,1,12,2,9],"radio_events":[9016.299999952316,10516.599999904633,15083.5,19975.199999928474,24012.699999928474,27273,29424.199999928474,38197.89999997616,39177.299999952316,43811.39999997616,44640.799999952316,48795.09999990463,50576.299999952316,54811.39999997616,64418.299999952316,65334.39999997616,71197.5,73346.59999990463,75397,78450.69999992847,80394.39999997616],"key_events":[],"mouse_events":[7814.599999904633,9016.299999952316,10516.599999904633,15083.5,19039.099999904633,19975.199999928474,24012.699999928474,27273,29424.199999928474,36850.39999997616,38197.89999997616,39177.299999952316,41144.59999990463,43811.39999997616,44640.799999952316,48795.09999990463,50576.299999952316,54811.39999997616,60728.5,63777.699999928474,64418.299999952316,65334.39999997616,71197.5,73346.59999990463,75397,78450.69999992847,79857,80394.39999997616,81232],"straightlining":0.42857142857142855,"zigzagging":0.5,"honeypot":0,"survey":"sns","trial_type":"survey-template","trial_index":2,"time_elapsed":112620,"internal_node_id":"0.0-2.0","task_version":"prescreen-v0.3","browser_interactions":0,"infrequency":0},{"responses":{"Q11":"2","Q10":"2","Q09":"2","Q08":"3","Q02":"1","Q13":"0","Q05":"3","Q03":"2","Q06":"3","Q07":"3","Q04":"3","Q01":"2","Q12":"2"},"rt":47298.199999928474,"item_order":[10,9,8,7,1,12,4,2,5,6,3,0,11],"radio_events":[9920.899999976158,10693.5,12732.5,16741.699999928474,18595.199999928474,20467.299999952316,23291.699999928474,25432.600000023842,32814.10000002384,38075.699999928474,38581.39999997616,41958.799999952316,43515.39999997616,46573.10000002384],"key_events":[],"mouse_events":[9920.899999976158,10693.5,12732.5,16741.699999928474,18595.199999928474,20467.299999952316,23291.699999928474,25432.600000023842,32814.10000002384,38075.699999928474,38581.39999997616,41958.799999952316,43515.39999997616,46573.10000002384,47296.5],"straightlining":0.46153846153846156,"zigzagging":0.5,"honeypot":0,"survey":"bisbas","trial_type":"survey-template","trial_index":3,"time_elapsed":159928,"internal_node_id":"0.0-3.0","task_version":"prescreen-v0.3","browser_interactions":0,"infrequency":0},{"responses":{"Q01":"2","Q02":"3","Q03":"3"},"rt":17454.199999928474,"radio_events":[4732.699999928474,8072.199999928474,11083.799999952316,15545.5],"key_events":[],"mouse_events":[4732.699999928474,8072.199999928474,11083.799999952316,15545.5,16481.899999976158,17453.299999952316],"survey":"map","page":1,"trial_type":"survey-map","trial_index":4,"time_elapsed":177391,"internal_node_id":"0.0-4.0","task_version":"prescreen-v0.3","browser_interactions":0},{"responses":{"Q04":"2","Q05":"2","Q06":"2"},"rt":9119.399999976158,"radio_events":[4390.200000047684,6885.5,8391.600000023842],"key_events":[],"mouse_events":[4390.200000047684,6885.5,8391.600000023842,9118.700000047684],"survey":"map","page":2,"trial_type":"survey-map","trial_index":5,"time_elapsed":186519,"internal_node_id":"0.0-5.0","task_version":"prescreen-v0.3","browser_interactions":0},{"responses":{"Q07":"3","Q08":"4","Q09":"2"},"rt":71920.39999997616,"radio_events":[65939.10000002384,69553,71240],"key_events":[],"mouse_events":[65939.10000002384,69553,71240,71919.5],"survey":"map","page":3,"trial_type":"survey-map","trial_index":6,"time_elapsed":258451,"internal_node_id":"0.0-6.0","task_version":"prescreen-v0.3","browser_interactions":2},{"responses":{"Q10":"1","Q11":"3","Q12":"2","Q13":"4","Q16":"0","Q14":"2","Q15":"3"},"rt":26692,"radio_events":[9562.700000047684,11138.300000071526,12070.800000071526,14472.200000047684,17612.400000095367,21266.800000071526,24264.800000071526,26058.400000095367],"key_events":[],"mouse_events":[7279.200000047684,9562.700000047684,10475,11138.300000071526,12070.800000071526,14472.200000047684,17612.400000095367,21266.800000071526,24264.800000071526,26058.400000095367,26690.400000095367],"survey":"map","page":4,"trial_type":"survey-map","trial_index":7,"time_elapsed":285153,"internal_node_id":"0.0-7.0","task_version":"prescreen-v0.3","browser_interactions":0,"infrequency":0},{"view_history":[{"page_index":0,"viewing_time":113075.70000004768},{"page_index":1,"viewing_time":3153.7999999523163}],"rt":116230.40000009537,"trial_type":"instructions","trial_index":8,"time_elapsed":401394,"internal_node_id":"0.0-8.0","task_version":"prescreen-v0.3"},{"responses":{"01":"No","02":"Yes","02_ages_7":"7","02_ages_8":"8","02_ages_9":"9","02_ages_10":"10","02_ages_11":"11","02_ages_12":"12","03":"Yes","03_ages_7":"7","03_ages_8":"8","03_ages_9":"9","03_ages_10":"10","03_ages_11":"11","03_ages_12":"12","03_ages_13":"13","04":"No","05":"Yes","05_ages_7":"7","06":"Yes","06_ages_7":"7","06_ages_8":"8","06_ages_9":"9","06_ages_10":"10","06_ages_11":"11","06_ages_12":"12"},"rt":94588.10000002384,"item_order":[0,1,2,3,4,5],"radio_events":[10595.100000023842,11542.900000095367,63798,76711.70000004768,80850.20000004768,86800.30000007153],"checkbox_events":[16060.300000071526,16637.400000095367,17197.800000071526,17924.800000071526,18691.100000023842,19240.200000047684,65160.800000071526,66567,67032.90000009537,67412.5,67815.70000004768,68775.5,70371.20000004768,70845.90000009537,72259.70000004768,73109,73678.10000002384,82126,88395,88900.60000002384,89339.5,89742,91575.20000004768,93052.40000009537],"key_events":[],"mouse_events":[0.20000004768371582,10595.100000023842,11542.900000095367,16060.300000071526,16637.400000095367,17197.800000071526,17924.800000071526,18691.100000023842,19240.200000047684,63047.10000002384,63798,65160.800000071526,66124.60000002384,66567,67032.90000009537,67412.5,67815.70000004768,68218.70000004768,68775.5,70371.20000004768,70845.90000009537,71584.10000002384,72259.70000004768,72646.60000002384,73109,73678.10000002384,76711.70000004768,80850.20000004768,82126,86800.30000007153,88395,88900.60000002384,89339.5,89742,90628.5,91575.20000004768,93052.40000009537,94582],"honeypot":0,"survey":"mace","page":1,"trial_type":"survey-mace","trial_index":9,"time_elapsed":495994,"internal_node_id":"0.0-9.0","task_version":"prescreen-v0.3","browser_interactions":2},{"responses":{"01":"No","02":"No","03":"Yes","03_ages_6":"6","03_ages_7":"7","03_ages_8":"8","03_ages_9":"9","03_ages_10":"10","04":"No","05":"No","06":"No","07":"No","08":"No"},"rt":19760.100000023842,"item_order":[0,1,2,3,4,5,6,7],"radio_events":[4495.200000047684,5514.800000071526,6976.399999976158,13968.800000071526,14822,15892.600000023842,18041.899999976158,19117.700000047684],"checkbox_events":[8647.100000023842,9129.300000071526,9643,10694,11937.899999976158],"key_events":[],"mouse_events":[4495.200000047684,5514.800000071526,6976.399999976158,8647.100000023842,9129.300000071526,9643,10694,11937.899999976158,13968.800000071526,14822,15892.600000023842,18041.899999976158,19117.700000047684,19752.5],"honeypot":0,"survey":"mace","page":2,"trial_type":"survey-mace","trial_index":10,"time_elapsed":515765,"internal_node_id":"0.0-10.0","task_version":"prescreen-v0.3","browser_interactions":0},{"responses":{"01":"No","02":"No","03":"No","04":"No"},"rt":359015.10000002384,"item_order":[0,1,2,3],"radio_events":[8687.5,356985.60000002384,357597.7999999523,358335.5],"checkbox_events":[],"key_events":[],"mouse_events":[8687.5,356985.60000002384,357597.7999999523,358335.5,359012],"honeypot":0,"survey":"mace","page":3,"trial_type":"survey-mace","trial_index":11,"time_elapsed":874822,"internal_node_id":"0.0-11.0","task_version":"prescreen-v0.3","browser_interactions":4},{"responses":{"01":"No","02":"No"},"rt":4171.300000071526,"item_order":[0,1],"radio_events":[2253.899999976158,3055.8000000715256],"checkbox_events":[],"key_events":[],"mouse_events":[2253.899999976158,3055.8000000715256,4169.300000071526],"honeypot":0,"survey":"mace","page":4,"trial_type":"survey-mace","trial_index":12,"time_elapsed":879003,"internal_node_id":"0.0-12.0","task_version":"prescreen-v0.3","browser_interactions":0},{"responses":{"01":"No","02":"No","03":"No","04":"No","05":"No"},"rt":50036.89999997616,"item_order":[0,1,2,3,4],"radio_events":[5030.5,46174,47196.39999997616,47899.299999952316,49329.199999928474],"checkbox_events":[],"key_events":[],"mouse_events":[5030.5,46174,47196.39999997616,47899.299999952316,49329.199999928474,50032.299999952316],"honeypot":0,"survey":"mace","page":5,"trial_type":"survey-mace","trial_index":13,"time_elapsed":929052,"internal_node_id":"0.0-13.0","task_version":"prescreen-v0.3","browser_interactions":0},{"responses":{"01":"Yes","01_ages_6":"6","01_ages_7":"7","01_ages_8":"8","01_ages_9":"9","01_ages_10":"10","01_ages_11":"11","01_ages_12":"12","01_ages_13":"13","01_ages_14":"14","02":"Yes","02_ages_6":"6","02_ages_7":"7","02_ages_8":"8","02_ages_9":"9","02_ages_10":"10","02_ages_11":"11","02_ages_12":"12","02_ages_13":"13","03":"Yes","03_ages_10":"10","03_ages_11":"11","03_ages_12":"12","03_ages_13":"13","04":"Yes","04_ages_6":"6","04_ages_13":"13","04_ages_14":"14","04_ages_15":"15","04_ages_16":"16","05":"No"},"rt":41697.5,"item_order":[0,1,2,3,4],"radio_events":[4131,17012.799999952316,28202.399999976158,33745.299999952316,41037.10000002384],"checkbox_events":[6425.200000047684,7097,8313.600000023842,8779.299999952316,9257.399999976158,10276.299999952316,10774.399999976158,11311.5,11825.399999976158,12496.5,13207.200000047684,18366.399999976158,18848.299999952316,19678.200000047684,20239.5,20760.700000047684,21313.799999952316,24153.899999976158,24659.100000023842,29333.700000047684,30023.600000023842,30521.5,31042.799999952316,31714.399999976158,32339,35323.200000047684,35795.60000002384,38031.299999952316,38904.10000002384,39425.89999997616],"key_events":[],"mouse_events":[4131,6425.200000047684,7097,7736.399999976158,8313.600000023842,8779.299999952316,9257.399999976158,9739.100000023842,10276.299999952316,10774.399999976158,11311.5,11825.399999976158,12496.5,13207.200000047684,17012.799999952316,18366.399999976158,18848.299999952316,19678.200000047684,20239.5,20760.700000047684,21313.799999952316,24153.899999976158,24659.100000023842,28202.399999976158,29333.700000047684,30023.600000023842,30521.5,31042.799999952316,31714.399999976158,32339,33745.299999952316,35323.200000047684,35795.60000002384,38031.299999952316,38904.10000002384,39425.89999997616,41037.10000002384,41693.10000002384],"honeypot":0,"survey":"mace","page":6,"trial_type":"survey-mace","trial_index":14,"time_elapsed":970762,"internal_node_id":"0.0-14.0","task_version":"prescreen-v0.3","browser_interactions":0},{"responses":{"01":"No","02":"No","03":"No","04":"No","05":"No","06":"No","07":"No"},"rt":111537.79999995232,"item_order":[0,1,2,3,4,5,6],"radio_events":[4113.599999904633,4777.5,102817.89999997616,105910.09999990463,106771.29999995232,107553.79999995232,110694.5],"checkbox_events":[],"key_events":[],"mouse_events":[4113.599999904633,4777.5,102817.89999997616,103702.5,105910.09999990463,106771.29999995232,107553.79999995232,108217.69999992847,110694.5,111531.29999995232],"honeypot":0,"survey":"mace","page":7,"trial_type":"survey-mace","trial_index":15,"time_elapsed":1082313,"internal_node_id":"0.0-15.0","task_version":"prescreen-v0.3","browser_interactions":0},{"responses":{"01":"No","02":"Yes","02_ages_10":"10","02_ages_11":"11","02_ages_12":"12","02_ages_13":"13","02_ages_14":"14","02_ages_15":"15","02_ages_16":"16","02_ages_17":"17","02_ages_18":"18","03":"Yes","03_ages_10":"10","03_ages_11":"11","03_ages_12":"12","03_ages_13":"13","03_ages_14":"14","03_ages_15":"15","03_ages_16":"16","03_ages_17":"17","03_ages_18":"18","04":"No"},"rt":38564,"item_order":[0,1,2,3],"radio_events":[7230.899999976158,11778,26380.600000023842,37888.10000002384],"checkbox_events":[14100.200000047684,14602.800000071526,15060.300000071526,15518.5,16094.700000047684,16601.399999976158,17125.5,17627.399999976158,18141.200000047684,29987.200000047684,30445.399999976158,30911.5,31409.300000071526,31903.100000023842,32756.399999976158,33704.700000047684,34605.300000071526,35213.300000071526],"key_events":[],"mouse_events":[7230.899999976158,11778,14100.200000047684,14602.800000071526,15060.300000071526,15518.5,16094.700000047684,16601.399999976158,17125.5,17627.399999976158,18141.200000047684,26380.600000023842,29987.200000047684,30445.399999976158,30911.5,31409.300000071526,31903.100000023842,32756.399999976158,33262.10000002384,33704.700000047684,34154.60000002384,34605.300000071526,35213.300000071526,36647.89999997616,37334.800000071526,37888.10000002384,38560.5],"honeypot":0,"survey":"mace","page":8,"trial_type":"survey-mace","trial_index":16,"time_elapsed":1120887,"internal_node_id":"0.0-16.0","task_version":"prescreen-v0.3","browser_interactions":0},{"responses":{"01":"Yes","01_ages_1":"1","01_ages_2":"2","01_ages_3":"3","01_ages_4":"4","01_ages_5":"5","01_ages_6":"6","01_ages_7":"7","01_ages_8":"8","01_ages_9":"9","01_ages_10":"10","01_ages_11":"11","01_ages_12":"12","01_ages_13":"13","01_ages_14":"14","01_ages_15":"15","01_ages_16":"16","01_ages_17":"17","01_ages_18":"18","02":"Yes","02_ages_1":"1","02_ages_2":"2","02_ages_3":"3","02_ages_4":"4","02_ages_5":"5","02_ages_6":"6","02_ages_7":"7","02_ages_8":"8","02_ages_9":"9","02_ages_10":"10","02_ages_11":"11","02_ages_12":"12","02_ages_13":"13","02_ages_14":"14","02_ages_15":"15","02_ages_16":"16","02_ages_17":"17","02_ages_18":"18","03":"Yes","03_ages_1":"1","03_ages_2":"2","03_ages_3":"3","03_ages_4":"4","03_ages_5":"5","03_ages_6":"6","03_ages_7":"7","03_ages_8":"8","03_ages_9":"9","03_ages_10":"10","03_ages_11":"11","03_ages_12":"12","03_ages_13":"13","03_ages_14":"14","03_ages_15":"15","03_ages_16":"16","03_ages_17":"17","03_ages_18":"18","04":"Yes","04_ages_1":"1","04_ages_2":"2","04_ages_3":"3","04_ages_4":"4","04_ages_5":"5","04_ages_6":"6","04_ages_7":"7","04_ages_8":"8","04_ages_9":"9","04_ages_10":"10","04_ages_11":"11","04_ages_12":"12","04_ages_13":"13","04_ages_14":"14","04_ages_15":"15","04_ages_16":"16","04_ages_17":"17","04_ages_18":"18"},"rt":67984.19999992847,"item_order":[0,1,2,3],"radio_events":[4676.099999904633,24328.799999952316,40414.39999997616,54017],"checkbox_events":[11075,11802,12402.399999976158,13559.799999952316,14816.299999952316,15961.5,16427.599999904633,17036.199999928474,17632.399999976158,18604.399999976158,19165.299999952316,19742.099999904633,20287.299999952316,20864.199999928474,21472.199999928474,21970,22499.299999952316,23229.699999928474,26621.199999928474,27580.899999976158,28237.099999904633,29121.399999976158,30148.699999928474,30598.399999976158,31645.199999928474,32332.799999952316,33074.799999952316,33667.699999928474,34212.799999952316,34738.199999928474,35369.699999928474,36310.199999928474,36926.89999997616,38064.59999990463,38577.699999928474,39474.5,44091.699999928474,44653.59999990463,45103,45640.59999990463,46177.5,46691.5,47142.299999952316,47608.09999990463,48144.799999952316,48713.39999997616,49306.199999928474,49844.799999952316,50486.799999952316,50974.199999928474,51495.699999928474,52134.699999928474,52633.89999997616,53162,55912.59999990463,56650.89999997616,57274.89999997616,57757.299999952316,58327.09999990463,58910,59526.59999990463,60079.89999997616,60652.59999990463,61292.59999990463,61805.799999952316,62449.199999928474,63591.89999997616,64176.39999997616,64898.89999997616,65420.39999997616,66724.5,67387.69999992847],"key_events":[],"mouse_events":[4676.099999904633,11075,11802,12402.399999976158,12988.099999904633,13559.799999952316,14413,14816.299999952316,15400.699999928474,15961.5,16427.599999904633,17036.199999928474,17632.399999976158,18604.399999976158,19165.299999952316,19742.099999904633,20287.299999952316,20864.199999928474,21472.199999928474,21970,22499.299999952316,23229.699999928474,24328.799999952316,26621.199999928474,27580.899999976158,28237.099999904633,29121.399999976158,30148.699999928474,30598.399999976158,31100,31645.199999928474,32332.799999952316,33074.799999952316,33667.699999928474,34212.799999952316,34738.199999928474,35369.699999928474,36310.199999928474,36926.89999997616,37527.199999928474,38064.59999990463,38577.699999928474,39474.5,40414.39999997616,44091.699999928474,44653.59999990463,45103,45640.59999990463,46177.5,46691.5,47142.299999952316,47608.09999990463,48144.799999952316,48713.39999997616,49306.199999928474,49844.799999952316,50486.799999952316,50974.199999928474,51495.699999928474,52134.699999928474,52633.89999997616,53162,54017,55912.59999990463,56650.89999997616,57274.89999997616,57757.299999952316,58327.09999990463,58910,59526.59999990463,60079.89999997616,60652.59999990463,61292.59999990463,61805.799999952316,62449.199999928474,63110,63591.89999997616,64176.39999997616,64898.89999997616,65420.39999997616,65973.89999997616,66724.5,67387.69999992847,67980.69999992847],"honeypot":0,"survey":"mace","page":9,"trial_type":"survey-mace","trial_index":17,"time_elapsed":1188882,"internal_node_id":"0.0-17.0","task_version":"prescreen-v0.3","browser_interactions":0},{"responses":{"01":"No","02":"No","03":"No","04":"No","05":"No","06":"Yes","06_ages_17":"17","07":"Yes","07_ages_1":"1","07_ages_2":"2","07_ages_3":"3","07_ages_4":"4","07_ages_5":"5","07_ages_6":"6","07_ages_7":"7","07_ages_8":"8","07_ages_9":"9","07_ages_10":"10","07_ages_11":"11","07_ages_12":"12","07_ages_13":"13","07_ages_14":"14","07_ages_15":"15","07_ages_16":"16","07_ages_17":"17","07_ages_18":"18","08":"Yes","08_ages_1":"1","08_ages_2":"2","08_ages_3":"3","08_ages_4":"4","08_ages_5":"5","08_ages_6":"6","08_ages_7":"7","08_ages_8":"8","08_ages_9":"9","08_ages_10":"10","08_ages_11":"11","08_ages_12":"12","08_ages_13":"13","08_ages_14":"14","08_ages_15":"15","08_ages_16":"16","08_ages_17":"17","08_ages_18":"18"},"rt":46133.39999997616,"item_order":[0,1,2,3,4,5,6,7],"radio_events":[2248.5,3022.600000023842,5096.899999976158,6573.700000047684,7601.5,10196.700000047684,14467,34071.89999997616],"checkbox_events":[11905.299999952316,20682.200000047684,21361.700000047684,22631.100000023842,23080,24138.700000047684,24668.299999952316,25197.600000023842,25727,26374.600000023842,26872.700000047684,28509.799999952316,28978.399999976158,29495.799999952316,30041.600000023842,30609.799999952316,31638.200000047684,32175.600000023842,32925.10000002384,36311.299999952316,37203.5,37662.799999952316,38097.799999952316,38436.200000047684,38895.799999952316,39313.700000047684,39874.299999952316,40373.10000002384,40826.299999952316,41304.200000047684,41874.5,42403.89999997616,43019.60000002384,43766,44253,44846.10000002384,45359.299999952316],"key_events":[],"mouse_events":[2248.5,3022.600000023842,5096.899999976158,6573.700000047684,7601.5,10196.700000047684,11905.299999952316,14467,20682.200000047684,21361.700000047684,21887,22631.100000023842,23080,23554.700000047684,24138.700000047684,24668.299999952316,25197.600000023842,25727,26374.600000023842,26872.700000047684,27773.200000047684,28509.799999952316,28978.399999976158,29495.799999952316,30041.600000023842,30609.799999952316,31080.100000023842,31638.200000047684,32175.600000023842,32925.10000002384,34071.89999997616,36311.299999952316,37203.5,37662.799999952316,38097.799999952316,38436.200000047684,38895.799999952316,39313.700000047684,39874.299999952316,40373.10000002384,40826.299999952316,41304.200000047684,41874.5,42403.89999997616,43019.60000002384,43766,44253,44846.10000002384,45359.299999952316,46126],"honeypot":0,"survey":"mace","page":10,"trial_type":"survey-mace","trial_index":18,"time_elapsed":1235030,"internal_node_id":"0.0-18.0","task_version":"prescreen-v0.3","browser_interactions":0,"instructed":0},{"rt":2918.100000023842,"trial_type":"mental-health-alert","trial_index":19,"time_elapsed":1237955,"internal_node_id":"0.0-19.0","task_version":"prescreen-v0.3","interactions":"[{\"event\":\"blur\",\"trial\":6,\"time\":211031},{\"event\":\"focus\",\"trial\":6,\"time\":247587},{\"event\":\"blur\",\"trial\":8,\"time\":288852},{\"event\":\"focus\",\"trial\":8,\"time\":395895},{\"event\":\"blur\",\"trial\":9,\"time\":422124},{\"event\":\"focus\",\"trial\":9,\"time\":460333},{\"event\":\"blur\",\"trial\":11,\"time\":526847},{\"event\":\"focus\",\"trial\":11,\"time\":843158},{\"event\":\"blur\",\"trial\":11,\"time\":845137},{\"event\":\"focus\",\"trial\":11,\"time\":868078}]"}]