[{"view_history":[{"page_index":0,"viewing_time":3864.399999976158},{"page_index":1,"viewing_time":5607.800000011921},{"page_index":2,"viewing_time":5874.100000023842},{"page_index":3,"viewing_time":1690.5}],"rt":17038.5,"trial_type":"instructions","trial_index":0,"time_elapsed":17068,"internal_node_id":"0.0-0.0","task_version":"prescreen-v0.3"},{"rt":31032.19999998808,"responses":{"age":"20","gender-categorical":"Male","gender-free-response":"","ethnicity":"Not Hispanic or Latino","race":["Black or African American"],"education":"High school","siblings":"6"},"trial_type":"survey-demo","trial_index":1,"time_elapsed":48110,"internal_node_id":"0.0-1.0","task_version":"prescreen-v0.3"},{"responses":{"Q14":"2","Q19":"3","Q09":"3","Q11":"3","Q21":"3","Q10":"2","Q20":"0","Q15":"3","Q05":"3","Q06":"0","Q16":"3","Q02":"2","Q07":"1","Q13":"2","Q03":"1","Q17":"2","Q18":"2","Q01":"3","Q08":"3","Q12":"2","Q04":"3"},"rt":167007,"item_order":[13,18,8,10,20,9,19,14,4,5,15,1,6,12,2,16,17,0,7,11,3],"radio_events":[9245.100000023842,15486.600000023842,21478.600000023842,23777.100000023842,27040,34027.60000002384,39901.10000002384,46103.60000002384,50485.10000002384,54800.10000002384,56934.10000002384,59612.5,78303.70000004768,89901.5,95273.60000002384,100708.40000003576,106470.70000004768,113325.10000002384,116279.40000003576,122773.90000003576,128975.90000003576,132953.90000003576,138207.40000003576,144190.30000001192,146501.80000001192,148276.70000004768,151732.40000003576,157546.10000002384,158796,166045.70000004768],"key_events":[],"mouse_events":[7933.400000035763,9245.100000023842,13998.600000023842,15486.600000023842,21478.600000023842,23777.100000023842,27040,34027.60000002384,37906.200000047684,39035.10000002384,39901.10000002384,46103.60000002384,50485.10000002384,53871.700000047684,54800.10000002384,56934.10000002384,59612.5,76957.60000002384,78303.70000004768,89134.5,89901.5,95273.60000002384,100708.40000003576,106470.70000004768,112448.5,113325.10000002384,116279.40000003576,120385.60000002384,121080.5,121865.30000001192,122773.90000003576,127580.70000004768,128975.90000003576,132953.90000003576,137067.80000001192,138207.40000003576,143139,143819.40000003576,144190.30000001192,146501.80000001192,148276.70000004768,151339.30000001192,151732.40000003576,156316,157546.10000002384,158796,166045.70000004768,167003.70000004768],"straightlining":0.47619047619047616,"zigzagging":0.65,"honeypot":0,"survey":"sns","trial_type":"survey-template","trial_index":2,"time_elapsed":215123,"internal_node_id":"0.0-2.0","task_version":"prescreen-v0.3","browser_interactions":0,"infrequency":0},{"responses":{"Q11":"1","Q13":"0","Q12":"1","Q05":"0","Q01":"3","Q08":"1","Q09":"1","Q04":"3","Q10":"1","Q03":"2","Q07":"3","Q02":"3","Q06":"2"},"rt":380639.10000002384,"item_order":[10,12,11,4,0,7,8,3,9,2,6,1,5],"radio_events":[8105.699999988079,11165.300000011921,21921.5,30538.80000001192,31509.69999998808,33830,39652.10000002384,52788.30000001192,344871.39999997616,347228.39999997616,353582.5,357412.5,364925.1999999881,370601.60000002384,374846.5,379379.3000000119],"key_events":[],"mouse_events":[8105.699999988079,11165.300000011921,21921.5,28727.899999976158,29817.30000001192,30538.80000001192,31509.69999998808,33830,38429.30000001192,39652.10000002384,52788.30000001192,342715.60000002384,343570.3000000119,344871.39999997616,347228.39999997616,352110.39999997616,352861.10000002384,353582.5,355985.60000002384,357412.5,364925.1999999881,370601.60000002384,373705.89999997616,374846.5,379379.3000000119,380636.8000000119],"straightlining":0.38461538461538464,"zigzagging":0.5833333333333334,"honeypot":0,"survey":"bisbas","trial_type":"survey-template","trial_index":3,"time_elapsed":595767,"internal_node_id":"0.0-3.0","task_version":"prescreen-v0.3","browser_interactions":0,"infrequency":0},{"responses":{"Q01":"1","Q02":"1","Q03":"1"},"rt":40690.90000003576,"radio_events":[13025.400000035763,15933.100000023842,23136.80000001192,37051],"key_events":[],"mouse_events":[13025.400000035763,15933.100000023842,22336.100000023842,23136.80000001192,37051,40689.90000003576],"survey":"map","page":1,"trial_type":"survey-map","trial_index":4,"time_elapsed":636463,"internal_node_id":"0.0-4.0","task_version":"prescreen-v0.3","browser_interactions":0},{"responses":{"Q04":"1","Q05":"2","Q06":"1"},"rt":40469.89999997616,"radio_events":[10991.299999952316,25347,39307.5],"key_events":[],"mouse_events":[10991.299999952316,24362.599999964237,25347,36513.09999996424,37838.09999996424,38255.09999996424,39307.5,40469],"survey":"map","page":2,"trial_type":"survey-map","trial_index":5,"time_elapsed":676936,"internal_node_id":"0.0-5.0","task_version":"prescreen-v0.3","browser_interactions":0},{"responses":{"Q07":"3","Q08":"0","Q09":"1"},"rt":36478,"radio_events":[8296,17675.600000023842,21067.100000023842,29507.200000047684,33811.200000047684],"key_events":[],"mouse_events":[4148.100000023842,4331.600000023842,4555.5,7541.900000035763,8296,17675.600000023842,21067.100000023842,29507.200000047684,33811.200000047684,36477.60000002384],"survey":"map","page":3,"trial_type":"survey-map","trial_index":6,"time_elapsed":713420,"internal_node_id":"0.0-6.0","task_version":"prescreen-v0.3","browser_interactions":0},{"responses":{"Q10":"0","Q11":"0","Q12":"1","Q13":"2","Q16":"0","Q14":"0","Q15":"1"},"rt":91024.89999997616,"radio_events":[9382.399999976158,16892.299999952316,22011.899999976158,32502.69999998808,38191.69999998808,43789,49448,60229.19999998808,74601.89999997616,78061.59999996424,82212.09999996424,85134.39999997616],"key_events":[],"mouse_events":[9382.399999976158,16892.299999952316,22011.899999976158,32502.69999998808,35255.59999996424,35419.5,35639.299999952316,38191.69999998808,43789,49448,60229.19999998808,74601.89999997616,76827.29999995232,78061.59999996424,82212.09999996424,84228.39999997616,85134.39999997616,91023.69999998808],"survey":"map","page":4,"trial_type":"survey-map","trial_index":7,"time_elapsed":804448,"internal_node_id":"0.0-7.0","task_version":"prescreen-v0.3","browser_interactions":0,"infrequency":0},{"view_history":[{"page_index":0,"viewing_time":2946.600000023842},{"page_index":1,"viewing_time":4109.100000023842}],"rt":7056.600000023842,"trial_type":"instructions","trial_index":8,"time_elapsed":811506,"internal_node_id":"0.0-8.0","task_version":"prescreen-v0.3"},{"responses":{"01":"Yes","01_ages_5":"5","01_ages_6":"6","01_ages_7":"7","01_ages_12":"12","02":"Yes","02_ages_4":"4","02_ages_5":"5","02_ages_6":"6","02_ages_7":"7","02_ages_8":"8","02_ages_9":"9","02_ages_10":"10","02_ages_11":"11","02_ages_12":"12","03":"Yes","03_ages_4":"4","03_ages_5":"5","03_ages_6":"6","03_ages_7":"7","04":"No","05":"No","06":"Yes","06_ages_3":"3","06_ages_4":"4","06_ages_5":"5","06_ages_6":"6","06_ages_7":"7","06_ages_8":"8","06_ages_9":"9","06_ages_10":"10"},"rt":141993.30000001192,"item_order":[0,1,2,3,4,5],"radio_events":[11835,28369.099999964237,55930.59999996424,87870.30000001192,91778.09999996424,96094.80000001192],"checkbox_events":[18209.30000001192,19053.19999998808,20898,24798.80000001192,32074.30000001192,32994.59999996424,33807.80000001192,34656.39999997616,35945.5,37108,38579,39691.30000001192,40509.80000001192,42833.89999997616,44315.89999997616,46410.89999997616,53596.5,62370.89999997616,64092,66574.69999998808,76658.30000001192,77869.80000001192,82381.5,98547,100613.69999998808,101326.69999998808,101967.39999997616,103531,128742.39999997616,130277.59999996424,132117.89999997616,137956.80000001192,140140.39999997616],"key_events":[],"mouse_events":[0.30000001192092896,11835,18209.30000001192,19053.19999998808,20898,24798.80000001192,28369.099999964237,31263.5,32074.30000001192,32994.59999996424,33807.80000001192,34656.39999997616,35945.5,37108,38579,39691.30000001192,40509.80000001192,42833.89999997616,44315.89999997616,46410.89999997616,53596.5,55930.59999996424,62370.89999997616,64092,66574.69999998808,76658.30000001192,77869.80000001192,81457.39999997616,82381.5,87870.30000001192,91778.09999996424,96094.80000001192,98547,99380.89999997616,99778.80000001192,100613.69999998808,101326.69999998808,101967.39999997616,103531,128742.39999997616,129721.89999997616,130277.59999996424,131133.5,132117.89999997616,137956.80000001192,139142.59999996424,140140.39999997616,141990.19999998808],"honeypot":0,"survey":"mace","page":1,"trial_type":"survey-mace","trial_index":9,"time_elapsed":953509,"internal_node_id":"0.0-9.0","task_version":"prescreen-v0.3","browser_interactions":0},{"responses":{"01":"Yes","01_ages_4":"4","01_ages_5":"5","01_ages_6":"6","01_ages_7":"7","01_ages_8":"8","01_ages_9":"9","02":"No","03":"Yes","03_ages_4":"4","03_ages_5":"5","03_ages_6":"6","03_ages_7":"7","03_ages_8":"8","03_ages_9":"9","03_ages_10":"10","03_ages_11":"11","03_ages_12":"12","04":"No","04_ages_4":"4","04_ages_5":"5","04_ages_6":"6","04_ages_7":"7","04_ages_8":"8","04_ages_9":"9","04_ages_10":"10","04_ages_11":"11","04_ages_12":"12","05":"Yes","05_ages_4":"4","05_ages_5":"5","05_ages_6":"6","05_ages_7":"7","05_ages_8":"8","05_ages_9":"9","05_ages_10":"10","05_ages_11":"11","05_ages_12":"12","06":"No","07":"No","08":"No"},"rt":109809.5,"item_order":[0,1,2,3,4,5,6,7],"radio_events":[7119.900000035763,23287.5,28059.400000035763,51204.19999998808,72943.60000002384,92070.90000003576,101315.30000001192,103673.10000002384,105286.90000003576],"checkbox_events":[9946.199999988079,10782.699999988079,12272.199999988079,14160.400000035763,15830.699999988079,16701.80000001192,30321.400000035763,31184.69999998808,32238.5,32865.10000002384,34089.60000002384,35233.40000003576,35585,36698.5,38129,40650.10000002384,41718.30000001192,42505,43389.69999998808,57772.69999998808,58484.80000001192,59544.90000003576,60297.19999998808,61123.10000002384,62288.30000001192,63114.80000001192,63944.69999998808,65570.60000002384,74558.5,75683.10000002384,77273.60000002384,78212.40000003576,79087.69999998808,80223,81271.30000001192,82360.10000002384,84175.30000001192],"key_events":[],"mouse_events":[7119.900000035763,9946.199999988079,10782.699999988079,11566.100000023842,12272.199999988079,13706.800000011921,14160.400000035763,15080.5,15830.699999988079,16701.80000001192,23287.5,28059.400000035763,30321.400000035763,31184.69999998808,32238.5,32865.10000002384,33689.10000002384,34089.60000002384,35233.40000003576,35585,36698.5,37457.19999998808,38129,39243.80000001192,40650.10000002384,41718.30000001192,42505,43389.69999998808,51204.19999998808,57772.69999998808,58484.80000001192,59544.90000003576,60297.19999998808,61123.10000002384,62288.30000001192,63114.80000001192,63944.69999998808,64724.90000003576,65570.60000002384,72943.60000002384,74558.5,75683.10000002384,77273.60000002384,78212.40000003576,79087.69999998808,80223,81271.30000001192,82360.10000002384,84175.30000001192,90809.40000003576,92070.90000003576,101315.30000001192,103673.10000002384,105286.90000003576,109805.60000002384],"honeypot":0,"survey":"mace","page":2,"trial_type":"survey-mace","trial_index":10,"time_elapsed":1063324,"internal_node_id":"0.0-10.0","task_version":"prescreen-v0.3","browser_interactions":0},{"responses":{"01":"Yes","01_ages_4":"4","01_ages_5":"5","01_ages_6":"6","01_ages_7":"7","01_ages_8":"8","01_ages_9":"9","01_ages_10":"10","02":"No","03":"No","04":"No"},"rt":31157.599999964237,"item_order":[0,1,2,3],"radio_events":[7277.599999964237,22518.69999998808,23810.599999964237,26066.399999976158],"checkbox_events":[9375.300000011921,9748.399999976158,10378.800000011921,11734.699999988079,12566.5,13363.199999988079,14051.099999964237,14740.599999964237,16283.899999976158],"key_events":[],"mouse_events":[7277.599999964237,8873.199999988079,9375.300000011921,9748.399999976158,10378.800000011921,11734.699999988079,12566.5,13363.199999988079,14051.099999964237,14740.599999964237,16283.899999976158,22518.69999998808,23810.599999964237,26066.399999976158,31155.5],"honeypot":0,"survey":"mace","page":3,"trial_type":"survey-mace","trial_index":11,"time_elapsed":1094485,"internal_node_id":"0.0-11.0","task_version":"prescreen-v0.3","browser_interactions":0},{"responses":{"01":"No","02":"No"},"rt":17673.899999976158,"item_order":[0,1],"radio_events":[10160.699999988079,12959.899999976158],"checkbox_events":[],"key_events":[],"mouse_events":[2756.5,4348.299999952316,4518.299999952316,4739,5708.599999964237,5970.699999988079,6186.599999964237,10160.699999988079,12959.899999976158,17672.69999998808],"honeypot":0,"survey":"mace","page":4,"trial_type":"survey-mace","trial_index":12,"time_elapsed":1112162,"internal_node_id":"0.0-12.0","task_version":"prescreen-v0.3","browser_interactions":0},{"responses":{"01":"No","02":"No","03":"No","04":"No","05":"No"},"rt":36463.299999952316,"item_order":[0,1,2,3,4],"radio_events":[9554.799999952316,17159.799999952316,19685.19999998808,22693.899999976158,30309],"checkbox_events":[],"key_events":[],"mouse_events":[9554.799999952316,14571.399999976158,15603.799999952316,17159.799999952316,19685.19999998808,22693.899999976158,28775.099999964237,30309,36458.799999952316],"honeypot":0,"survey":"mace","page":5,"trial_type":"survey-mace","trial_index":13,"time_elapsed":1148630,"internal_node_id":"0.0-13.0","task_version":"prescreen-v0.3","browser_interactions":0},{"responses":{"01":"No","02":"Yes","02_ages_13":"13","02_ages_14":"14","03":"No","04":"Yes","04_ages_12":"12","04_ages_13":"13","04_ages_14":"14","04_ages_15":"15","05":"No"},"rt":51792.19999998808,"item_order":[0,1,2,3,4],"radio_events":[6365.600000023842,9354.199999988079,12348,21339.19999998808,29425.100000023842,45043.10000002384],"checkbox_events":[23825.19999998808,24706.69999998808,30969.80000001192,31620.600000023842,32268.30000001192,33595.60000002384,37097.5,37991.19999998808],"key_events":[],"mouse_events":[6365.600000023842,8383.5,9354.199999988079,12348,21339.19999998808,23825.19999998808,24706.69999998808,29425.100000023842,30969.80000001192,31620.600000023842,32268.30000001192,33595.60000002384,37097.5,37991.19999998808,45043.10000002384,51788.5],"honeypot":0,"survey":"mace","page":6,"trial_type":"survey-mace","trial_index":14,"time_elapsed":1200427,"internal_node_id":"0.0-14.0","task_version":"prescreen-v0.3","browser_interactions":0},{"responses":{"01":"No","02":"No","03":"No","04":"No","05":"No","06":"No","07":"No"},"rt":20287.099999964237,"item_order":[0,1,2,3,4,5,6],"radio_events":[3351.599999964237,6037.5,7987,10700.599999964237,11922.799999952316,13521.299999952316,17141.099999964237],"checkbox_events":[],"key_events":[],"mouse_events":[3351.599999964237,4772.199999988079,6037.5,7987,10700.599999964237,11922.799999952316,13521.299999952316,17141.099999964237,20281.799999952316],"honeypot":0,"survey":"mace","page":7,"trial_type":"survey-mace","trial_index":15,"time_elapsed":1220720,"internal_node_id":"0.0-15.0","task_version":"prescreen-v0.3","browser_interactions":0},{"responses":{"01":"Yes","01_ages_4":"4","01_ages_5":"5","01_ages_6":"6","01_ages_7":"7","01_ages_8":"8","01_ages_9":"9","01_ages_10":"10","01_ages_11":"11","01_ages_12":"12","01_ages_13":"13","01_ages_14":"14","01_ages_15":"15","02":"Yes","02_ages_4":"4","02_ages_5":"5","02_ages_6":"6","02_ages_7":"7","02_ages_8":"8","02_ages_9":"9","02_ages_10":"10","02_ages_11":"11","02_ages_12":"12","02_ages_13":"13","02_ages_14":"14","02_ages_15":"15","02_ages_16":"16","02_ages_17":"17","02_ages_18":"18","03":"Yes","03_ages_5":"5","03_ages_6":"6","03_ages_7":"7","03_ages_8":"8","03_ages_9":"9","03_ages_10":"10","03_ages_11":"11","03_ages_12":"12","03_ages_13":"13","04":"Yes","04_ages_4":"4","04_ages_5":"5","04_ages_6":"6","04_ages_7":"7","04_ages_8":"8","04_ages_9":"9","04_ages_10":"10","04_ages_11":"11","04_ages_12":"12","04_ages_13":"13","04_ages_14":"14"},"rt":117114.60000002384,"item_order":[0,1,2,3],"radio_events":[10051.5,47877.90000003576,75637.70000004768,92569.10000002384],"checkbox_events":[12884.800000011921,14873.5,16032.5,16841.200000047684,20298.400000035763,21148.5,21849.200000047684,23281.900000035763,24067.5,25038.600000023842,28196.5,29643.400000035763,33580.700000047684,34537,35504.700000047684,52757.40000003576,53686,54760.90000003576,56433.80000001192,57236.60000002384,58276.200000047684,58990.90000003576,60052.40000003576,60710.30000001192,61360,62295.90000003576,62971.700000047684,63661,64476.5,65298.90000003576,66597.40000003576,68998.80000001192,69946.10000002384,77027.70000004768,78191.90000003576,79547.40000003576,80696.80000001192,82699.30000001192,83770.70000004768,85104.10000002384,85940.60000002384,86775.5,96212.40000003576,97534.80000001192,101340.90000003576,102323.30000001192,103213.20000004768,104364,105205.70000004768,106130.10000002384,107124.5,108029.20000004768,112668.60000002384],"key_events":[],"mouse_events":[10051.5,12884.800000011921,13867.5,14873.5,16032.5,16841.200000047684,18000.600000023842,18846.5,19920.700000047684,20298.400000035763,21148.5,21849.200000047684,22638,23281.900000035763,24067.5,25038.600000023842,27811.600000023842,28196.5,29643.400000035763,33580.700000047684,34537,35504.700000047684,47877.90000003576,49807.5,50614.700000047684,51333.60000002384,52308.5,52757.40000003576,53686,54760.90000003576,55548.5,56433.80000001192,57236.60000002384,58276.200000047684,58990.90000003576,60052.40000003576,60710.30000001192,61360,62295.90000003576,62971.700000047684,63661,64476.5,65298.90000003576,66597.40000003576,67408.80000001192,68580.20000004768,68998.80000001192,69946.10000002384,70677.70000004768,75637.70000004768,77027.70000004768,77782.10000002384,78191.90000003576,79547.40000003576,80696.80000001192,82011.90000003576,82699.30000001192,83770.70000004768,85104.10000002384,85940.60000002384,86775.5,92569.10000002384,96212.40000003576,97179.20000004768,97534.80000001192,98486.10000002384,98930.90000003576,99736.40000003576,101340.90000003576,102323.30000001192,103213.20000004768,104364,105205.70000004768,106130.10000002384,107124.5,108029.20000004768,109344.40000003576,110865.60000002384,111212.60000002384,111902.80000001192,112668.60000002384,117111.70000004768],"honeypot":0,"survey":"mace","page":8,"trial_type":"survey-mace","trial_index":16,"time_elapsed":1337840,"internal_node_id":"0.0-16.0","task_version":"prescreen-v0.3","browser_interactions":0},{"responses":{"01":"Yes","01_ages_15":"15","01_ages_16":"16","01_ages_17":"17","01_ages_18":"18","02":"No","03":"Yes","03_ages_4":"4","03_ages_5":"5","03_ages_6":"6","03_ages_7":"7","03_ages_8":"8","03_ages_9":"9","03_ages_10":"10","03_ages_11":"11","03_ages_12":"12","03_ages_13":"13","03_ages_14":"14","03_ages_15":"15","03_ages_16":"16","03_ages_17":"17","03_ages_18":"18","04":"Yes","04_ages_1":"1","04_ages_2":"2","04_ages_3":"3","04_ages_4":"4","04_ages_5":"5","04_ages_6":"6","04_ages_7":"7","04_ages_8":"8","04_ages_9":"9","04_ages_10":"10","04_ages_11":"11","04_ages_12":"12","04_ages_13":"13","04_ages_14":"14","04_ages_15":"15","04_ages_16":"16","04_ages_17":"17","04_ages_18":"18"},"rt":104941.89999997616,"item_order":[0,1,2,3],"radio_events":[5237.799999952316,29008.5,41345.59999996424,48014.799999952316,74699.79999995232],"checkbox_events":[7953.199999988079,9147.799999952316,10126.599999964237,11297.899999976158,14677.399999976158,17761.899999976158,18577.799999952316,19605.399999976158,20826,21826.099999964237,22692.19999998808,25517.099999964237,30671.099999964237,33545.59999996424,51243.59999996424,52056.299999952316,53380.89999997616,56253.799999952316,56927,58713.69999998808,59110.59999996424,60269.69999998808,61070.09999996424,61881.5,62641.59999996424,64019.69999998808,64385.299999952316,65301.89999997616,66071.29999995232,66898.89999997616,67652.19999998808,68710.89999997616,69571.5,76839.79999995232,77490.29999995232,78971.09999996424,81364,83398.09999996424,84290.79999995232,85953.79999995232,86851.79999995232,88747.69999998808,89573.79999995232,90638.09999996424,91546.29999995232,92713.19999998808,93538.79999995232,94446.79999995232,97005.89999997616,97841.59999996424,98853.39999997616],"key_events":[],"mouse_events":[4859.699999988079,5237.799999952316,7953.199999988079,9147.799999952316,10126.599999964237,11297.899999976158,12485.699999988079,13436.199999988079,14373.599999964237,14677.399999976158,16462.599999964237,16853.69999998808,17761.899999976158,18577.799999952316,19605.399999976158,20826,21826.099999964237,22692.19999998808,23558.5,24609.799999952316,25517.099999964237,29008.5,30671.099999964237,32806.39999997616,33545.59999996424,41345.59999996424,48014.799999952316,51243.59999996424,52056.299999952316,52744.19999998808,53380.89999997616,54463.59999996424,56253.799999952316,56927,58713.69999998808,59110.59999996424,60269.69999998808,61070.09999996424,61881.5,62641.59999996424,64019.69999998808,64385.299999952316,65301.89999997616,66071.29999995232,66898.89999997616,67652.19999998808,68710.89999997616,69571.5,74699.79999995232,76839.79999995232,77490.29999995232,78971.09999996424,80411.09999996424,81364,82515.5,83398.09999996424,84290.79999995232,85953.79999995232,86851.79999995232,88380.89999997616,88747.69999998808,89573.79999995232,90638.09999996424,91546.29999995232,92713.19999998808,93538.79999995232,94446.79999995232,95359.59999996424,96548.39999997616,97005.89999997616,97841.59999996424,98853.39999997616,104938.19999998808],"honeypot":0,"survey":"mace","page":9,"trial_type":"survey-mace","trial_index":17,"time_elapsed":1442787,"internal_node_id":"0.0-17.0","task_version":"prescreen-v0.3","browser_interactions":0},{"responses":{"01":"Yes","01_ages_10":"10","01_ages_11":"11","02":"Yes","02_ages_10":"10","02_ages_11":"11","02_ages_12":"12","03":"No","04":"Yes","04_ages_1":"1","04_ages_2":"2","04_ages_3":"3","04_ages_4":"4","04_ages_5":"5","04_ages_6":"6","04_ages_7":"7","04_ages_8":"8","04_ages_9":"9","04_ages_10":"10","04_ages_11":"11","04_ages_12":"12","04_ages_13":"13","04_ages_14":"14","04_ages_15":"15","04_ages_16":"16","05":"No","06":"Yes","06_ages_17":"17","07":"No","08":"No"},"rt":73364.5,"item_order":[0,1,2,3,4,5,6,7],"radio_events":[4876.299999952316,10686.299999952316,21120.69999998808,24099,55839,58088.19999998808,67813.79999995232,69573.19999998808],"checkbox_events":[6700.199999988079,8002.699999988079,12045.299999952316,13453.5,14176.399999976158,26256,27091,30055.19999998808,30714.099999964237,31578.599999964237,32408,33790,34632.5,35326.799999952316,36120.39999997616,36857.5,37821,38536,39330.09999996424,40131.09999996424,40874,60624.799999952316],"key_events":[],"mouse_events":[4876.299999952316,6700.199999988079,7638.699999988079,8002.699999988079,10686.299999952316,12045.299999952316,13037.699999988079,13453.5,14176.399999976158,21120.69999998808,24099,25768.69999998808,26256,27091,27903.099999964237,29020.099999964237,30055.19999998808,30714.099999964237,31578.599999964237,32408,33144.5,33790,34632.5,35326.799999952316,36120.39999997616,36857.5,37821,38536,39330.09999996424,40131.09999996424,40874,55839,58088.19999998808,60624.799999952316,66337.59999996424,67813.79999995232,69573.19999998808,73358.89999997616],"honeypot":0,"survey":"mace","page":10,"trial_type":"survey-mace","trial_index":18,"time_elapsed":1516157,"internal_node_id":"0.0-18.0","task_version":"prescreen-v0.3","browser_interactions":0,"instructed":0},{"rt":19024.899999976158,"trial_type":"mental-health-alert","trial_index":19,"time_elapsed":1535184,"internal_node_id":"0.0-19.0","task_version":"prescreen-v0.3","interactions":"[{\"event\":\"blur\",\"trial\":19,\"time\":1526578},{\"event\":\"focus\",\"trial\":19,\"time\":1527838}]"}]