[{"view_history":[{"page_index":0,"viewing_time":4141.5},{"page_index":1,"viewing_time":6138.099999904633},{"page_index":2,"viewing_time":4988.099999904633},{"page_index":3,"viewing_time":1191.5}],"rt":16460.099999904633,"trial_type":"instructions","trial_index":0,"time_elapsed":16466,"internal_node_id":"0.0-0.0","task_version":"prescreen-v0.3"},{"rt":635190.3000001907,"responses":{"age":"44","gender-categorical":"Female","gender-free-response":"","ethnicity":"Not Hispanic or Latino","race":["White"],"education":"Bachelor degree"},"trial_type":"survey-demo","trial_index":1,"time_elapsed":651663,"internal_node_id":"0.0-1.0","task_version":"prescreen-v0.3"},{"responses":{"Q16":"0","Q15":"2","Q19":"1","Q10":"0","Q11":"0","Q03":"1","Q09":"0","Q17":"0","Q21":"3","Q14":"1","Q02":"1","Q06":"2","Q12":"0","Q07":"1","Q08":"1","Q18":"0","Q20":"3","Q13":"2","Q01":"1","Q05":"0","Q04":"1"},"rt":103479.59999990463,"item_order":[15,14,18,9,10,2,8,16,20,13,1,5,11,6,7,17,19,12,0,4,3],"radio_events":[7884.699999809265,17533.099999904633,19101.299999713898,22029.099999904633,23564.5,27269,32397.299999713898,37953.5,42200.699999809265,43736.7999997139,54101.199999809265,55396.7999997139,59485.2999997139,68624.7999997139,70136.90000009537,75129.2999997139,78465.5,80828.90000009537,83408.7999997139,86925,89880.5,96848.59999990463,102137.09999990463],"key_events":[],"mouse_events":[7884.699999809265,12584.900000095367,17052.599999904633,17533.099999904633,19101.299999713898,22029.099999904633,23564.5,27269,32397.299999713898,35737.40000009537,37953.5,39169,42200.699999809265,43736.7999997139,49709.2999997139,54101.199999809265,55396.7999997139,59485.2999997139,68624.7999997139,70136.90000009537,75129.2999997139,78465.5,80828.90000009537,83408.7999997139,86925,89880.5,96848.59999990463,102137.09999990463,103477.19999980927],"straightlining":0.38095238095238093,"zigzagging":0.65,"honeypot":0,"survey":"sns","trial_type":"survey-template","trial_index":2,"time_elapsed":755151,"internal_node_id":"0.0-2.0","task_version":"prescreen-v0.3","browser_interactions":0,"infrequency":0},{"responses":{"Q07":"3","Q06":"3","Q03":"1","Q02":"0","Q13":"0","Q05":"1","Q09":"2","Q10":"2","Q12":"2","Q04":"2","Q01":"2","Q11":"1","Q08":"1"},"rt":47612.90000009537,"item_order":[6,5,2,1,12,4,8,9,11,3,0,10,7],"radio_events":[6403.400000095367,8998.900000095367,12708.099999904633,16395.299999713898,17779.799999713898,22491.099999904633,24935.199999809265,26915.299999713898,29927.099999904633,36055.40000009537,38819.09999990463,39691.2999997139,44415.199999809265,46071.5],"key_events":[],"mouse_events":[6403.400000095367,8998.900000095367,12708.099999904633,14591.699999809265,16395.299999713898,17779.799999713898,22491.099999904633,24935.199999809265,26915.299999713898,29927.099999904633,36055.40000009537,37452.09999990463,38819.09999990463,39691.2999997139,44415.199999809265,46071.5,47611.5],"straightlining":0.38461538461538464,"zigzagging":0.3333333333333333,"honeypot":0,"survey":"bisbas","trial_type":"survey-template","trial_index":3,"time_elapsed":802769,"internal_node_id":"0.0-3.0","task_version":"prescreen-v0.3","browser_interactions":0,"infrequency":0},{"responses":{"Q01":"3","Q02":"3","Q03":"2"},"rt":18982,"radio_events":[7734,11037.699999809265,17925.299999713898],"key_events":[],"mouse_events":[6894.099999904633,7734,11037.699999809265,17925.299999713898,18981.099999904633],"survey":"map","page":1,"trial_type":"survey-map","trial_index":4,"time_elapsed":821755,"internal_node_id":"0.0-4.0","task_version":"prescreen-v0.3","browser_interactions":0},{"responses":{"Q04":"2","Q05":"2","Q06":"2"},"rt":13920.900000095367,"radio_events":[6232.900000095367,9408.599999904633,12844.199999809265],"key_events":[],"mouse_events":[6232.900000095367,9408.599999904633,12844.199999809265,13920.199999809265],"survey":"map","page":2,"trial_type":"survey-map","trial_index":5,"time_elapsed":835679,"internal_node_id":"0.0-5.0","task_version":"prescreen-v0.3","browser_interactions":0},{"responses":{"Q07":"4","Q08":"3","Q09":"2"},"rt":13133.299999713898,"radio_events":[4676.699999809265,8212.699999809265,12312.599999904633],"key_events":[],"mouse_events":[4676.699999809265,8212.699999809265,12312.599999904633,13132.699999809265],"survey":"map","page":3,"trial_type":"survey-map","trial_index":6,"time_elapsed":848815,"internal_node_id":"0.0-6.0","task_version":"prescreen-v0.3","browser_interactions":0},{"responses":{"Q10":"2","Q11":"2","Q12":"3","Q13":"3","Q16":"0","Q14":"0","Q15":"0"},"rt":35705.90000009537,"radio_events":[5940.5,8537.099999904633,11292.299999713898,17832.299999713898,21000.599999904633,30324.099999904633,32608.199999809265],"key_events":[],"mouse_events":[5940.5,8537.099999904633,11292.299999713898,16640.699999809265,17832.299999713898,21000.599999904633,30324.099999904633,32608.199999809265,35704.699999809265],"survey":"map","page":4,"trial_type":"survey-map","trial_index":7,"time_elapsed":884525,"internal_node_id":"0.0-7.0","task_version":"prescreen-v0.3","browser_interactions":0,"infrequency":0},{"view_history":[{"page_index":0,"viewing_time":3511.0999999046326},{"page_index":1,"viewing_time":7327.199999809265}],"rt":10839.39999961853,"trial_type":"instructions","trial_index":8,"time_elapsed":895367,"internal_node_id":"0.0-8.0","task_version":"prescreen-v0.3"},{"responses":{"01":"No","02":"No","03":"No","04":"No","05":"No","06":"No"},"rt":21563.800000190735,"item_order":[0,1,2,3,4,5],"radio_events":[9373.300000190735,12845,18532.900000095367,19172.800000190735,20052.700000286102,20968.400000095367],"checkbox_events":[],"key_events":[],"mouse_events":[0.3000001907348633,9373.300000190735,12845,16032.60000038147,17568.5,18532.900000095367,19172.800000190735,20052.700000286102,20968.400000095367,21560.800000190735],"honeypot":0,"survey":"mace","page":1,"trial_type":"survey-mace","trial_index":9,"time_elapsed":916940,"internal_node_id":"0.0-9.0","task_version":"prescreen-v0.3","browser_interactions":0},{"responses":{"01":"No","02":"No","03":"Yes","03_ages_4":"4","03_ages_5":"5","03_ages_6":"6","04":"No","05":"Yes","05_ages_5":"5","05_ages_6":"6","05_ages_7":"7","05_ages_8":"8","06":"No","07":"No","08":"No"},"rt":35386.699999809265,"item_order":[0,1,2,3,4,5,6,7],"radio_events":[5814,6550.400000095367,7322.5,18694.800000190735,20862.099999904633,30726.5,33058.40000009537,33938.199999809265],"checkbox_events":[11754.599999904633,13510.599999904633,14406.5,24606,25550,26350.300000190735,29502.800000190735],"key_events":[],"mouse_events":[5814,6550.400000095367,7322.5,11754.599999904633,13510.599999904633,14406.5,18694.800000190735,20862.099999904633,24606,25550,26350.300000190735,28522.800000190735,29502.800000190735,30726.5,32394,33058.40000009537,33938.199999809265,35382.59999990463],"honeypot":0,"survey":"mace","page":2,"trial_type":"survey-mace","trial_index":10,"time_elapsed":952333,"internal_node_id":"0.0-10.0","task_version":"prescreen-v0.3","browser_interactions":0},{"responses":{"01":"No","02":"No","03":"No","04":"No"},"rt":13499.5,"item_order":[0,1,2,3],"radio_events":[7180.89999961853,7857.099999904633,11005.199999809265,11860.5],"checkbox_events":[],"key_events":[],"mouse_events":[7180.89999961853,7857.099999904633,11005.199999809265,11860.5,13497.299999713898],"honeypot":0,"survey":"mace","page":3,"trial_type":"survey-mace","trial_index":11,"time_elapsed":965838,"internal_node_id":"0.0-11.0","task_version":"prescreen-v0.3","browser_interactions":0},{"responses":{"01":"No","02":"No"},"rt":4173.299999713898,"item_order":[0,1],"radio_events":[2828,3515.9000000953674],"checkbox_events":[],"key_events":[],"mouse_events":[2828,3515.9000000953674,4172],"honeypot":0,"survey":"mace","page":4,"trial_type":"survey-mace","trial_index":12,"time_elapsed":970016,"internal_node_id":"0.0-12.0","task_version":"prescreen-v0.3","browser_interactions":0},{"responses":{"01":"No","02":"No","03":"No","04":"No","05":"No"},"rt":12510,"item_order":[0,1,2,3,4],"radio_events":[7490.800000190735,8758.599999904633,10166.400000095367,10998.5,11962.199999809265],"checkbox_events":[],"key_events":[],"mouse_events":[6570.699999809265,7490.800000190735,8758.599999904633,10166.400000095367,10998.5,11962.199999809265,12506.699999809265],"honeypot":0,"survey":"mace","page":5,"trial_type":"survey-mace","trial_index":13,"time_elapsed":982531,"internal_node_id":"0.0-13.0","task_version":"prescreen-v0.3","browser_interactions":2},{"responses":{"01":"No","02":"No","03":"No","04":"No","05":"No"},"rt":23909.60000038147,"item_order":[0,1,2,3,4],"radio_events":[19357.60000038147,19982.10000038147,20653.700000286102,22321.700000286102,23089.700000286102],"checkbox_events":[],"key_events":[],"mouse_events":[19357.60000038147,19982.10000038147,20653.700000286102,21629.900000095367,22321.700000286102,23089.700000286102,23905.800000190735],"honeypot":0,"survey":"mace","page":6,"trial_type":"survey-mace","trial_index":14,"time_elapsed":1006448,"internal_node_id":"0.0-14.0","task_version":"prescreen-v0.3","browser_interactions":2},{"responses":{"01":"No","02":"No","03":"No","04":"No","05":"No","06":"No","07":"No"},"rt":19795.5,"item_order":[0,1,2,3,4,5,6],"radio_events":[5796.900000095367,8568.700000286102,13825.099999904633,14548.900000095367,15172.800000190735,15652.599999904633,16164.900000095367,19136.800000190735],"checkbox_events":[],"key_events":[],"mouse_events":[5796.900000095367,8568.700000286102,13825.099999904633,14548.900000095367,15172.800000190735,15652.599999904633,16164.900000095367,19136.800000190735,19792.900000095367],"honeypot":0,"survey":"mace","page":7,"trial_type":"survey-mace","trial_index":15,"time_elapsed":1026251,"internal_node_id":"0.0-15.0","task_version":"prescreen-v0.3","browser_interactions":0},{"responses":{"01":"No","02":"No","03":"No","04":"No"},"rt":16497.300000190735,"item_order":[0,1,2,3],"radio_events":[14027.699999809265,14491.400000095367,15167.5,15727.400000095367],"checkbox_events":[],"key_events":[],"mouse_events":[14027.699999809265,14491.400000095367,15167.5,15727.400000095367,16495.400000095367],"honeypot":0,"survey":"mace","page":8,"trial_type":"survey-mace","trial_index":16,"time_elapsed":1042753,"internal_node_id":"0.0-16.0","task_version":"prescreen-v0.3","browser_interactions":0},{"responses":{"01":"Yes","01_ages_1":"1","01_ages_2":"2","01_ages_3":"3","01_ages_4":"4","01_ages_5":"5","01_ages_6":"6","01_ages_7":"7","01_ages_8":"8","01_ages_9":"9","01_ages_10":"10","01_ages_11":"11","01_ages_12":"12","01_ages_13":"13","01_ages_14":"14","01_ages_15":"15","01_ages_16":"16","01_ages_17":"17","01_ages_18":"18","02":"Yes","02_ages_1":"1","02_ages_2":"2","02_ages_3":"3","02_ages_4":"4","02_ages_5":"5","02_ages_6":"6","02_ages_7":"7","02_ages_8":"8","02_ages_9":"9","02_ages_10":"10","02_ages_11":"11","02_ages_12":"12","02_ages_13":"13","02_ages_14":"14","02_ages_15":"15","02_ages_16":"16","02_ages_17":"17","02_ages_18":"18","03":"Yes","03_ages_1":"1","03_ages_2":"2","03_ages_3":"3","03_ages_4":"4","03_ages_5":"5","03_ages_6":"6","03_ages_7":"7","03_ages_8":"8","03_ages_9":"9","03_ages_10":"10","03_ages_11":"11","03_ages_12":"12","03_ages_13":"13","03_ages_14":"14","03_ages_15":"15","03_ages_16":"16","03_ages_17":"17","03_ages_18":"18","04":"Yes","04_ages_1":"1","04_ages_2":"2","04_ages_3":"3","04_ages_4":"4","04_ages_5":"5","04_ages_6":"6","04_ages_7":"7","04_ages_8":"8","04_ages_9":"9","04_ages_10":"10","04_ages_11":"11","04_ages_12":"12","04_ages_13":"13","04_ages_14":"14","04_ages_15":"15","04_ages_16":"16","04_ages_17":"17","04_ages_18":"18"},"rt":72159.7999997139,"item_order":[0,1,2,3],"radio_events":[6693.400000095367,24684.900000095367,39193.5,55493],"checkbox_events":[9169,9729.099999904633,11669,12229.099999904633,13013,13717.099999904633,14332.900000095367,15969,16785.099999904633,17248.900000095367,17956.900000095367,19284.900000095367,20133,20841.099999904633,21417,22553,22984.799999713898,23465.099999904633,26801,27441,29073.099999904633,30404.900000095367,31405.099999904633,31948.900000095367,32461.400000095367,32913,33633,34256.90000009537,34705.199999809265,35329,35797,37204.90000009537,37717,38293,42093,42732.90000009537,43933.09999990463,44460.90000009537,44993,45553.09999990463,46033,46641,47352.90000009537,47917,48397,49340.90000009537,50036.7999997139,50644.90000009537,51145.09999990463,52025.09999990463,52673,53361,53924.7999997139,54453.199999809265,56905.09999990463,57849,58689,59168.90000009537,59641,61540.90000009537,62436.90000009537,63337,64025,64649,65160.90000009537,65581.19999980927,67501.40000009537,67869,68269.09999990463,68637,69425.2999997139,69840.7999997139],"key_events":[],"mouse_events":[4913.099999904633,6693.400000095367,9169,9729.099999904633,11669,12229.099999904633,13013,13717.099999904633,14332.900000095367,15969,16785.099999904633,17248.900000095367,17956.900000095367,18548.900000095367,19284.900000095367,19652.900000095367,20133,20841.099999904633,21417,21928.799999713898,22553,22984.799999713898,23465.099999904633,24684.900000095367,26801,27441,28256.900000095367,29073.099999904633,29652.900000095367,30404.900000095367,31405.099999904633,31948.900000095367,32461.400000095367,32913,33633,34256.90000009537,34705.199999809265,35329,35797,36517.09999990463,37204.90000009537,37717,38293,39193.5,41304.90000009537,42093,42732.90000009537,43149.199999809265,43933.09999990463,44460.90000009537,44993,45553.09999990463,46033,46641,47352.90000009537,47917,48397,49340.90000009537,50036.7999997139,50644.90000009537,51145.09999990463,52025.09999990463,52673,53361,53924.7999997139,54453.199999809265,55493,56905.09999990463,57849,58689,59168.90000009537,59641,60604.90000009537,61540.90000009537,61925.2999997139,62436.90000009537,63337,64025,64649,65160.90000009537,65581.19999980927,66125,67501.40000009537,67869,68269.09999990463,68637,69425.2999997139,69840.7999997139,71584.7999997139,72157.40000009537],"honeypot":0,"survey":"mace","page":9,"trial_type":"survey-mace","trial_index":17,"time_elapsed":1114919,"internal_node_id":"0.0-17.0","task_version":"prescreen-v0.3","browser_interactions":0},{"responses":{"01":"No","02":"No","03":"No","04":"No","05":"No","06":"Yes","06_ages_17":"17","07":"Yes","07_ages_7":"7","07_ages_8":"8","07_ages_9":"9","07_ages_10":"10","07_ages_11":"11","07_ages_12":"12","07_ages_13":"13","07_ages_14":"14","07_ages_15":"15","07_ages_16":"16","07_ages_17":"17","07_ages_18":"18","08":"Yes","08_ages_9":"9","08_ages_10":"10","08_ages_11":"11","08_ages_12":"12","08_ages_13":"13","08_ages_14":"14","08_ages_15":"15","08_ages_16":"16","08_ages_17":"17","08_ages_18":"18"},"rt":50039.5,"item_order":[0,1,2,3,4,5,6,7],"radio_events":[9699.299999713898,10291.299999713898,11463.199999809265,12215,13071.199999809265,16498.799999713898,23447.099999904633,24359.299999713898,27451.199999809265,39307],"checkbox_events":[18023.099999904633,30655.099999904633,31615,32787.199999809265,33867.199999809265,34251,34751,35399.199999809265,35831.09999990463,36343,37431.09999990463,37931.199999809265,38539,42399.199999809265,43215,44018.89999961853,45531,45915.09999990463,46475,47119,47951,48431,48991.09999990463],"key_events":[],"mouse_events":[6759.5,7455.099999904633,8867.299999713898,9699.299999713898,10291.299999713898,11463.199999809265,12215,13071.199999809265,16498.799999713898,18023.099999904633,22707.799999713898,23447.099999904633,24359.299999713898,25967.099999904633,27451.199999809265,30655.099999904633,31615,32787.199999809265,33483.09999990463,33867.199999809265,34251,34751,35399.199999809265,35831.09999990463,36343,36791.199999809265,37431.09999990463,37931.199999809265,38539,39307,42399.199999809265,43215,44018.89999961853,45531,45915.09999990463,46475,47119,47535.09999990463,47951,48431,48991.09999990463,50036.09999990463],"honeypot":0,"survey":"mace","page":10,"trial_type":"survey-mace","trial_index":18,"time_elapsed":1164964,"internal_node_id":"0.0-18.0","task_version":"prescreen-v0.3","browser_interactions":0,"instructed":0},{"rt":3930.300000190735,"trial_type":"mental-health-alert","trial_index":19,"time_elapsed":1168897,"internal_node_id":"0.0-19.0","task_version":"prescreen-v0.3","interactions":"[{\"event\":\"blur\",\"trial\":1,\"time\":35659},{\"event\":\"focus\",\"trial\":1,\"time\":645444},{\"event\":\"blur\",\"trial\":13,\"time\":979178},{\"event\":\"focus\",\"trial\":13,\"time\":980046},{\"event\":\"blur\",\"trial\":14,\"time\":987517},{\"event\":\"focus\",\"trial\":14,\"time\":987634}]"}]