[{"view_history":[{"page_index":0,"viewing_time":7476},{"page_index":1,"viewing_time":3655},{"page_index":2,"viewing_time":2074},{"page_index":3,"viewing_time":1329}],"rt":14535,"trial_type":"instructions","trial_index":0,"time_elapsed":14545,"internal_node_id":"0.0-0.0","task_version":"prescreen-v0.3"},{"rt":18820,"responses":{"age":"42","gender-categorical":"Male","gender-free-response":"","ethnicity":"Not Hispanic or Latino","race":["White"],"education":"Master degree or higher"},"trial_type":"survey-demo","trial_index":1,"time_elapsed":33410,"internal_node_id":"0.0-1.0","task_version":"prescreen-v0.3"},{"responses":{"Q07":"2","Q11":"2","Q09":"3","Q18":"2","Q02":"2","Q01":"2","Q12":"2","Q06":"2","Q15":"1","Q05":"2","Q03":"2","Q10":"3","Q08":"2","Q04":"2","Q19":"2","Q16":"1","Q21":"2","Q13":"1","Q20":"0","Q17":"2","Q14":"2"},"rt":46474,"item_order":[6,10,8,17,1,0,11,5,14,4,2,9,7,3,18,15,20,12,19,16,13],"radio_events":[4074,5483,7032,8188,8932,9675,10443,12114,12991,24976,26068,27429,31812,32967,34558,35578,36955,40674,42684,43997,45348],"key_events":[],"mouse_events":[4074,5483,7032,8188,8932,9675,10443,12114,12991,24976,26068,27429,31812,32967,34558,35578,36955,38893,40674,42684,43997,45348,46474],"straightlining":0.7142857142857143,"zigzagging":0.5,"honeypot":0,"survey":"sns","trial_type":"survey-template","trial_index":2,"time_elapsed":79894,"internal_node_id":"0.0-2.0","task_version":"prescreen-v0.3","browser_interactions":0,"infrequency":0.5},{"responses":{"Q09":"2","Q11":"3","Q04":"2","Q01":"0","Q02":"3","Q10":"2","Q03":"0","Q13":"0","Q05":"2","Q12":"3","Q07":"0","Q08":"2","Q06":"2"},"rt":28414,"item_order":[8,10,3,0,1,9,2,12,4,11,6,7,5],"radio_events":[1769,4594,5479,6960,8423,9744,12173,14008,16935,19869,21546,22891,24575,25786,26538],"key_events":[],"mouse_events":[1769,3606,4594,5479,6960,8423,9744,12173,14008,16935,19869,21546,22891,24575,25786,26538,28413],"straightlining":0.46153846153846156,"zigzagging":0.5,"honeypot":0,"survey":"bisbas","trial_type":"survey-template","trial_index":3,"time_elapsed":108314,"internal_node_id":"0.0-3.0","task_version":"prescreen-v0.3","browser_interactions":0,"infrequency":0},{"responses":{"Q01":"3","Q02":"3","Q03":"3"},"rt":8275,"radio_events":[2299,3967,5881],"key_events":[],"mouse_events":[2299,3967,5881,8275],"survey":"map","page":1,"trial_type":"survey-map","trial_index":4,"time_elapsed":116593,"internal_node_id":"0.0-4.0","task_version":"prescreen-v0.3","browser_interactions":0},{"responses":{"Q04":"3","Q05":"4","Q06":"3"},"rt":6659,"radio_events":[1721,2582,3620],"key_events":[],"mouse_events":[1721,2582,3620,6659],"survey":"map","page":2,"trial_type":"survey-map","trial_index":5,"time_elapsed":123255,"internal_node_id":"0.0-5.0","task_version":"prescreen-v0.3","browser_interactions":0},{"responses":{"Q07":"3","Q08":"2","Q09":"3"},"rt":5284,"radio_events":[1516,3035,4396],"key_events":[],"mouse_events":[1516,3035,4396,5283],"survey":"map","page":3,"trial_type":"survey-map","trial_index":6,"time_elapsed":128542,"internal_node_id":"0.0-6.0","task_version":"prescreen-v0.3","browser_interactions":0},{"responses":{"Q10":"2","Q11":"3","Q12":"3","Q13":"3","Q16":"2","Q14":"3","Q15":"2"},"rt":12915,"radio_events":[1339,2423,5270,6142,8223,9861,11989],"key_events":[],"mouse_events":[1339,2423,5270,6142,8223,9861,11989,12915],"survey":"map","page":4,"trial_type":"survey-map","trial_index":7,"time_elapsed":141462,"internal_node_id":"0.0-7.0","task_version":"prescreen-v0.3","browser_interactions":0,"infrequency":1},{"view_history":[{"page_index":0,"viewing_time":1683},{"page_index":1,"viewing_time":4470}],"rt":6153,"trial_type":"instructions","trial_index":8,"time_elapsed":147615,"internal_node_id":"0.0-8.0","task_version":"prescreen-v0.3"},{"responses":{"01":"No","02":"No","03":"No","04":"No","05":"No","06":"No"},"rt":15463,"item_order":[0,1,2,3,4,5],"radio_events":[7770,9875,10863,12129,13467,14638],"checkbox_events":[],"key_events":[],"mouse_events":[0,7770,9875,10863,12129,13467,14638,15463],"honeypot":0,"survey":"mace","page":1,"trial_type":"survey-mace","trial_index":9,"time_elapsed":163090,"internal_node_id":"0.0-9.0","task_version":"prescreen-v0.3","browser_interactions":0},{"responses":{"01":"No","02":"No","03":"No","04":"No","05":"No","06":"No","07":"No","08":"No"},"rt":10326,"item_order":[0,1,2,3,4,5,6,7],"radio_events":[1708,2514,4153,4928,6226,6977,8196,9455],"checkbox_events":[],"key_events":[],"mouse_events":[1708,2514,3623,4153,4928,6226,6977,8196,9455,10326],"honeypot":0,"survey":"mace","page":2,"trial_type":"survey-mace","trial_index":10,"time_elapsed":173423,"internal_node_id":"0.0-10.0","task_version":"prescreen-v0.3","browser_interactions":0},{"responses":{"01":"No","02":"No","03":"No","04":"No"},"rt":5842,"item_order":[0,1,2,3],"radio_events":[1559,3142,4241,4962],"checkbox_events":[],"key_events":[],"mouse_events":[1559,3142,4241,4962,5842],"honeypot":0,"survey":"mace","page":3,"trial_type":"survey-mace","trial_index":11,"time_elapsed":179271,"internal_node_id":"0.0-11.0","task_version":"prescreen-v0.3","browser_interactions":0},{"responses":{"01":"No","02":"No"},"rt":3966,"item_order":[0,1],"radio_events":[2429,3276],"checkbox_events":[],"key_events":[],"mouse_events":[2429,3276,3966],"honeypot":0,"survey":"mace","page":4,"trial_type":"survey-mace","trial_index":12,"time_elapsed":183242,"internal_node_id":"0.0-12.0","task_version":"prescreen-v0.3","browser_interactions":0},{"responses":{"01":"No","02":"No","03":"No","04":"No","05":"No"},"rt":9475,"item_order":[0,1,2,3,4],"radio_events":[2699,5589,6570,7733,8667],"checkbox_events":[],"key_events":[],"mouse_events":[2699,5589,6570,7733,8667,9475],"honeypot":0,"survey":"mace","page":5,"trial_type":"survey-mace","trial_index":13,"time_elapsed":192722,"internal_node_id":"0.0-13.0","task_version":"prescreen-v0.3","browser_interactions":0},{"responses":{"01":"No","02":"No","03":"No","04":"No","05":"No"},"rt":6489,"item_order":[0,1,2,3,4],"radio_events":[1647,2508,3562,4463,5406],"checkbox_events":[],"key_events":[],"mouse_events":[1647,2508,3562,4463,5406,6489],"honeypot":0,"survey":"mace","page":6,"trial_type":"survey-mace","trial_index":14,"time_elapsed":199218,"internal_node_id":"0.0-14.0","task_version":"prescreen-v0.3","browser_interactions":0},{"responses":{"01":"No","02":"No","03":"No","04":"No","05":"No","06":"No","07":"No"},"rt":15284,"item_order":[0,1,2,3,4,5,6],"radio_events":[2106,3347,4820,5887,6600,10754,12021],"checkbox_events":[],"key_events":[],"mouse_events":[2106,3347,4108,4820,5887,6600,10754,11435,12021,15283],"honeypot":0,"survey":"mace","page":7,"trial_type":"survey-mace","trial_index":15,"time_elapsed":214508,"internal_node_id":"0.0-15.0","task_version":"prescreen-v0.3","browser_interactions":0},{"responses":{"01":"No","02":"No","03":"No","04":"No"},"rt":13094,"item_order":[0,1,2,3],"radio_events":[5549,7111,8052,10070],"checkbox_events":[],"key_events":[],"mouse_events":[5549,7111,8052,10070,13094],"honeypot":0,"survey":"mace","page":8,"trial_type":"survey-mace","trial_index":16,"time_elapsed":227607,"internal_node_id":"0.0-16.0","task_version":"prescreen-v0.3","browser_interactions":0},{"responses":{"01":"No","02":"No","03":"No","04":"No"},"rt":22106,"item_order":[0,1,2,3],"radio_events":[1671,2732,6458,11485,18529,21109],"checkbox_events":[],"key_events":[],"mouse_events":[1671,2732,6458,11485,18529,20705,21109,22106],"honeypot":0,"survey":"mace","page":9,"trial_type":"survey-mace","trial_index":17,"time_elapsed":249719,"internal_node_id":"0.0-17.0","task_version":"prescreen-v0.3","browser_interactions":0},{"responses":{"01":"No","02":"No","03":"No","04":"No","05":"No","06":"Yes","06_ages_17":"17","07":"No","08":"No"},"rt":41968,"item_order":[0,1,2,3,4,5,6,7],"radio_events":[2404,4486,5238,10069,19010,20482,25909,31852,33901,37993],"checkbox_events":[27610],"key_events":[],"mouse_events":[2404,4486,5238,10069,19010,20482,21011,25909,27610,31852,32627,33901,34868,37193,37993,41968],"honeypot":0,"survey":"mace","page":10,"trial_type":"survey-mace","trial_index":18,"time_elapsed":291695,"internal_node_id":"0.0-18.0","task_version":"prescreen-v0.3","browser_interactions":0,"instructed":0},{"rt":2861,"trial_type":"mental-health-alert","trial_index":19,"time_elapsed":294558,"internal_node_id":"0.0-19.0","task_version":"prescreen-v0.3","interactions":"[{\"event\":\"focus\",\"trial\":0,\"time\":2}]"}]