[{"view_history":[{"page_index":0,"viewing_time":2615.7000000476837},{"page_index":1,"viewing_time":6553.400000095367},{"page_index":2,"viewing_time":9291.299999952316},{"page_index":3,"viewing_time":1027.8999998569489}],"rt":19490,"trial_type":"instructions","trial_index":0,"time_elapsed":19502,"internal_node_id":"0.0-0.0","task_version":"prescreen-v0.3"},{"rt":12415.099999904633,"responses":{"age":"20","gender-categorical":"Female","gender-free-response":"","ethnicity":"Not Hispanic or Latino","race":["Asian"],"education":"Some college"},"trial_type":"survey-demo","trial_index":1,"time_elapsed":31927,"internal_node_id":"0.0-1.0","task_version":"prescreen-v0.3"},{"responses":{"Q08":"2","Q19":"0","Q05":"0","Q11":"2","Q10":"0","Q12":"2","Q17":"0","Q18":"0","Q01":"2","Q15":"2","Q14":"0","Q02":"0","Q03":"0","Q20":"0","Q07":"0","Q21":"3","Q13":"0","Q16":"2","Q09":"0","Q04":"0","Q06":"0"},"rt":119393.90000009537,"item_order":[7,18,4,10,9,11,16,17,0,14,13,1,2,19,6,20,12,15,8,3,5],"radio_events":[12901.299999952316,29613.799999952316,37364.200000047684,39733.40000009537,42398.5,48914.200000047684,51653.799999952316,56721.299999952316,61813.5,74103.20000004768,79014.40000009537,82610.10000014305,84584.29999995232,85678.5,93858.5,96664.60000014305,100309,104697.70000004768,110550.5,113849.79999995232,117503],"key_events":[],"mouse_events":[12901.299999952316,29613.799999952316,35191.700000047684,36779.40000009537,37364.200000047684,39733.40000009537,42398.5,47927.10000014305,48914.200000047684,51653.799999952316,56721.299999952316,59362.40000009537,61813.5,74103.20000004768,77994.5,79014.40000009537,82610.10000014305,84584.29999995232,85678.5,93858.5,96664.60000014305,100309,104697.70000004768,110550.5,113849.79999995232,117503,119387.10000014305],"straightlining":0.6666666666666666,"zigzagging":0.1,"honeypot":0,"survey":"sns","trial_type":"survey-template","trial_index":2,"time_elapsed":151331,"internal_node_id":"0.0-2.0","task_version":"prescreen-v0.3","browser_interactions":0,"infrequency":0},{"responses":{"Q01":"3","Q09":"3","Q03":"2","Q12":"2","Q04":"3","Q07":"3","Q08":"1","Q10":"3","Q02":"3","Q11":"3","Q05":"2","Q06":"2","Q13":"0"},"rt":77365.90000009537,"item_order":[0,8,2,11,3,6,7,9,1,10,4,5,12],"radio_events":[16374.900000095367,19723,24535.400000095367,32500.5,41702.300000190735,44087.200000047684,53098.200000047684,56938.40000009537,58633.90000009537,65069.200000047684,68186,74240,75723.70000004768],"key_events":[],"mouse_events":[16374.900000095367,19723,24535.400000095367,32500.5,41702.300000190735,44087.200000047684,53098.200000047684,56938.40000009537,58633.90000009537,65069.200000047684,68186,71503.70000004768,72051.5,74240,75723.70000004768,77361.20000004768],"straightlining":0.5384615384615384,"zigzagging":0.25,"honeypot":0,"survey":"bisbas","trial_type":"survey-template","trial_index":3,"time_elapsed":228704,"internal_node_id":"0.0-3.0","task_version":"prescreen-v0.3","browser_interactions":0,"infrequency":0},{"responses":{"Q01":"4","Q02":"4","Q03":"4"},"rt":25566.700000047684,"radio_events":[8561.700000047684,17915.900000095367,24972.10000014305],"key_events":[],"mouse_events":[7311.5,8027.100000143051,8561.700000047684,17183.5,17915.900000095367,24305.900000095367,24972.10000014305,25564.700000047684],"survey":"map","page":1,"trial_type":"survey-map","trial_index":4,"time_elapsed":254276,"internal_node_id":"0.0-4.0","task_version":"prescreen-v0.3","browser_interactions":0},{"responses":{"Q04":"2","Q05":"2","Q06":"4"},"rt":25482.700000047684,"radio_events":[12441.600000143051,19498.60000014305,24822.700000047684],"key_events":[],"mouse_events":[12441.600000143051,19498.60000014305,24262.800000190735,24822.700000047684,25480.900000095367],"survey":"map","page":2,"trial_type":"survey-map","trial_index":5,"time_elapsed":279764,"internal_node_id":"0.0-5.0","task_version":"prescreen-v0.3","browser_interactions":0},{"responses":{"Q07":"2","Q08":"4","Q09":"3"},"rt":22910.200000047684,"radio_events":[8776.200000047684,11932.799999952316,17190.60000014305,22102],"key_events":[],"mouse_events":[8776.200000047684,11932.799999952316,17190.60000014305,22102,22908.299999952316],"survey":"map","page":3,"trial_type":"survey-map","trial_index":6,"time_elapsed":302678,"internal_node_id":"0.0-6.0","task_version":"prescreen-v0.3","browser_interactions":0},{"responses":{"Q10":"1","Q11":"3","Q12":"1","Q13":"3","Q16":"0","Q14":"2","Q15":"2"},"rt":41254,"radio_events":[8427.5,11377.799999952316,20407.599999904633,23221.5,28397.099999904633,36363.09999990463,40230.09999990463],"key_events":[],"mouse_events":[8427.5,11377.799999952316,19790.5,20407.599999904633,23221.5,28397.099999904633,36363.09999990463,40230.09999990463,41250.09999990463],"survey":"map","page":4,"trial_type":"survey-map","trial_index":7,"time_elapsed":343939,"internal_node_id":"0.0-7.0","task_version":"prescreen-v0.3","browser_interactions":0,"infrequency":0},{"view_history":[{"page_index":0,"viewing_time":4147.399999856949},{"page_index":1,"viewing_time":38139.5}],"rt":42288.799999952316,"trial_type":"instructions","trial_index":8,"time_elapsed":386230,"internal_node_id":"0.0-8.0","task_version":"prescreen-v0.3"},{"responses":{"01":"Yes","01_ages_14":"14","01_ages_15":"15","01_ages_16":"16","01_ages_17":"17","02":"Yes","02_ages_14":"14","02_ages_15":"15","02_ages_16":"16","03":"No","04":"No","05":"No","06":"No"},"rt":57130.09999990463,"item_order":[0,1,2,3,4,5],"radio_events":[8360.700000047684,27950.799999952316,34442.200000047684,37314,40506.200000047684,55992.299999952316],"checkbox_events":[19139.799999952316,19953.5,21845.799999952316,22454.799999952316,29843,30418.599999904633,30929],"key_events":[],"mouse_events":[0.09999990463256836,8360.700000047684,19139.799999952316,19953.5,21845.799999952316,22454.799999952316,27950.799999952316,29843,30418.599999904633,30929,34442.200000047684,37314,40506.200000047684,55992.299999952316,57120.59999990463],"honeypot":0,"survey":"mace","page":1,"trial_type":"survey-mace","trial_index":9,"time_elapsed":443372,"internal_node_id":"0.0-9.0","task_version":"prescreen-v0.3","browser_interactions":0},{"responses":{"01":"Yes","01_ages_4":"4","01_ages_5":"5","02":"No","03":"Yes","03_ages_4":"4","03_ages_5":"5","03_ages_6":"6","03_ages_7":"7","04":"No","05":"Yes","05_ages_4":"4","05_ages_5":"5","05_ages_6":"6","06":"No","07":"No","08":"No"},"rt":39309,"item_order":[0,1,2,3,4,5,6,7],"radio_events":[4122.600000143051,11972.100000143051,14457.600000143051,26766.299999952316,29983.299999952316,35625.60000014305,37092.10000014305,38326.299999952316],"checkbox_events":[7216.5,7863.900000095367,16980.10000014305,18069.299999952316,19089.10000014305,19566.299999952316,31374.10000014305,31925.299999952316,32582.900000095367],"key_events":[],"mouse_events":[4122.600000143051,7216.5,7863.900000095367,11972.100000143051,14457.600000143051,16980.10000014305,17509.10000014305,18069.299999952316,18586.799999952316,19089.10000014305,19566.299999952316,26766.299999952316,29983.299999952316,31374.10000014305,31925.299999952316,32582.900000095367,35625.60000014305,37092.10000014305,38326.299999952316,39297.299999952316],"honeypot":0,"survey":"mace","page":2,"trial_type":"survey-mace","trial_index":10,"time_elapsed":482688,"internal_node_id":"0.0-10.0","task_version":"prescreen-v0.3","browser_interactions":0},{"responses":{"01":"No","02":"No","03":"No","04":"No"},"rt":15625,"item_order":[0,1,2,3],"radio_events":[8841.600000143051,11440.799999952316,13767.700000047684,14969],"checkbox_events":[],"key_events":[],"mouse_events":[8841.600000143051,11440.799999952316,13767.700000047684,14969,15618.900000095367],"honeypot":0,"survey":"mace","page":3,"trial_type":"survey-mace","trial_index":11,"time_elapsed":498317,"internal_node_id":"0.0-11.0","task_version":"prescreen-v0.3","browser_interactions":0},{"responses":{"01":"No","02":"No"},"rt":15171.5,"item_order":[0,1],"radio_events":[13216.100000143051,14490],"checkbox_events":[],"key_events":[],"mouse_events":[13216.100000143051,14490,15167.799999952316],"honeypot":0,"survey":"mace","page":4,"trial_type":"survey-mace","trial_index":12,"time_elapsed":513493,"internal_node_id":"0.0-12.0","task_version":"prescreen-v0.3","browser_interactions":0},{"responses":{"01":"No","02":"No","03":"No","04":"No","05":"No"},"rt":24280.400000095367,"item_order":[0,1,2,3,4],"radio_events":[14217.700000047684,16544.299999952316,19063.5,21606,23325.400000095367],"checkbox_events":[],"key_events":[],"mouse_events":[14217.700000047684,16544.299999952316,19063.5,21606,23325.400000095367,24271.900000095367],"honeypot":0,"survey":"mace","page":5,"trial_type":"survey-mace","trial_index":13,"time_elapsed":537779,"internal_node_id":"0.0-13.0","task_version":"prescreen-v0.3","browser_interactions":0},{"responses":{"01":"Yes","01_ages_6":"6","01_ages_7":"7","01_ages_8":"8","01_ages_9":"9","02":"Yes","02_ages_11":"11","02_ages_12":"12","02_ages_13":"13","03":"Yes","03_ages_15":"15","03_ages_16":"16","03_ages_17":"17","03_ages_18":"18","04":"Yes","04_ages_15":"15","04_ages_16":"16","04_ages_17":"17","04_ages_18":"18","05":"No"},"rt":61915,"item_order":[0,1,2,3,4],"radio_events":[25689.700000047684,34007.10000014305,40630.300000190735,50017.5,61190.5],"checkbox_events":[26668.200000047684,27145.300000190735,27647.200000047684,29037.900000095367,35422.40000009537,36196,36713.60000014305,42201.60000014305,42884.60000014305,43740,44941.5,51399.60000014305,52024.60000014305,53506,54032.60000014305,55003.40000009537,55727.60000014305,56328.60000014305,57553.700000047684],"key_events":[],"mouse_events":[25689.700000047684,26668.200000047684,27145.300000190735,27647.200000047684,28173.900000095367,29037.900000095367,34007.10000014305,35422.40000009537,36196,36713.60000014305,40630.300000190735,42201.60000014305,42884.60000014305,43740,44941.5,50017.5,51399.60000014305,52024.60000014305,52732.60000014305,53506,54032.60000014305,55003.40000009537,55727.60000014305,56328.60000014305,56961.60000014305,57553.700000047684,61190.5,61906.800000190735],"honeypot":0,"survey":"mace","page":6,"trial_type":"survey-mace","trial_index":14,"time_elapsed":599700,"internal_node_id":"0.0-14.0","task_version":"prescreen-v0.3","browser_interactions":0},{"responses":{"01":"No","02":"No","03":"No","04":"No","05":"No","06":"No","07":"No"},"rt":22304.900000095367,"item_order":[0,1,2,3,4,5,6],"radio_events":[5599.200000047684,7417.799999952316,11218.5,12855.700000047684,18525.10000014305,19764.400000095367,21610.900000095367],"checkbox_events":[],"key_events":[],"mouse_events":[5599.200000047684,7417.799999952316,11218.5,12855.700000047684,18525.10000014305,19764.400000095367,21051.60000014305,21610.900000095367,22294.10000014305],"honeypot":0,"survey":"mace","page":7,"trial_type":"survey-mace","trial_index":15,"time_elapsed":622012,"internal_node_id":"0.0-15.0","task_version":"prescreen-v0.3","browser_interactions":0},{"responses":{"01":"No","02":"Yes","02_ages_14":"14","02_ages_15":"15","02_ages_16":"16","02_ages_17":"17","03":"No","04":"No"},"rt":30308.200000047684,"item_order":[0,1,2,3],"radio_events":[8290.200000047684,18895.900000095367,26433.900000095367,29601.5],"checkbox_events":[20319.700000047684,20821.60000014305,21282.60000014305,21792.299999952316],"key_events":[],"mouse_events":[8290.200000047684,18895.900000095367,20319.700000047684,20821.60000014305,21282.60000014305,21792.299999952316,26433.900000095367,29601.5,30300.799999952316],"honeypot":0,"survey":"mace","page":8,"trial_type":"survey-mace","trial_index":16,"time_elapsed":652325,"internal_node_id":"0.0-16.0","task_version":"prescreen-v0.3","browser_interactions":0},{"responses":{"01":"Yes","01_ages_1":"1","01_ages_2":"2","01_ages_3":"3","01_ages_4":"4","01_ages_5":"5","01_ages_6":"6","01_ages_7":"7","01_ages_8":"8","01_ages_9":"9","01_ages_10":"10","01_ages_11":"11","01_ages_12":"12","01_ages_13":"13","01_ages_14":"14","01_ages_15":"15","01_ages_16":"16","01_ages_17":"17","01_ages_18":"18","02":"Yes","02_ages_12":"12","02_ages_13":"13","02_ages_14":"14","02_ages_15":"15","02_ages_16":"16","02_ages_17":"17","02_ages_18":"18","03":"Yes","03_ages_1":"1","03_ages_2":"2","03_ages_3":"3","03_ages_4":"4","03_ages_5":"5","03_ages_6":"6","03_ages_7":"7","03_ages_8":"8","03_ages_9":"9","03_ages_10":"10","03_ages_11":"11","03_ages_12":"12","03_ages_13":"13","03_ages_14":"14","03_ages_15":"15","03_ages_16":"16","03_ages_17":"17","03_ages_18":"18","04":"Yes","04_ages_1":"1","04_ages_2":"2","04_ages_3":"3","04_ages_4":"4","04_ages_5":"5","04_ages_6":"6","04_ages_7":"7","04_ages_8":"8","04_ages_9":"9","04_ages_10":"10","04_ages_11":"11","04_ages_12":"12","04_ages_13":"13","04_ages_14":"14","04_ages_15":"15","04_ages_16":"16","04_ages_17":"17","04_ages_18":"18"},"rt":76634.5,"item_order":[0,1,2,3],"radio_events":[7319,29099.699999809265,42256.59999990463,62753.89999985695],"checkbox_events":[11449.899999856949,12000.899999856949,12593.699999809265,13136.799999952316,13695.599999904633,15276.099999904633,15711.899999856949,16402.89999985695,16979.5,17588.299999952316,18320.39999985695,19184.599999904633,19875.099999904633,20541.799999952316,21109.799999952316,22179.199999809265,22772,23347.699999809265,30753.099999904633,31287.599999904633,31855.699999809265,32366.199999809265,32859.699999809265,33451.89999985695,34085.89999985695,34546.5,35063.699999809265,35854.5,36348.39999985695,43400.39999985695,43877.59999990463,44342.59999990463,45013.199999809265,45563.59999990463,46272.299999952316,46790.89999985695,47307.09999990463,48279.799999952316,48946,49473.09999990463,49991,50534.5,51233.89999985695,51859.09999990463,52410.59999990463,52920.89999985695,53661.39999985695,64950.799999952316,65477.799999952316,66423.79999995232,66909.09999990463,67403,68012.39999985695,68571.39999985695,69139,69649.39999985695,70192.79999995232,70727.79999995232,71589.19999980927,72134.59999990463,73114,73648.69999980927,74364.39999985695,75401.29999995232,76002],"key_events":[],"mouse_events":[7319,10816.099999904633,11449.899999856949,12000.899999856949,12593.699999809265,13136.799999952316,13695.599999904633,14239.099999904633,15276.099999904633,15711.899999856949,16402.89999985695,16979.5,17588.299999952316,18320.39999985695,19184.599999904633,19875.099999904633,20541.799999952316,21109.799999952316,21677,22179.199999809265,22772,23347.699999809265,29099.699999809265,30753.099999904633,31287.599999904633,31855.699999809265,32366.199999809265,32859.699999809265,33451.89999985695,34085.89999985695,34546.5,35063.699999809265,35854.5,36348.39999985695,41201.09999990463,42256.59999990463,43400.39999985695,43877.59999990463,44342.59999990463,45013.199999809265,45563.59999990463,46272.299999952316,46790.89999985695,47307.09999990463,47794.5,48279.799999952316,48946,49473.09999990463,49991,50534.5,51233.89999985695,51859.09999990463,52410.59999990463,52920.89999985695,53661.39999985695,62753.89999985695,64950.799999952316,65477.799999952316,65987.89999985695,66423.79999995232,66909.09999990463,67403,68012.39999985695,68571.39999985695,69139,69649.39999985695,70192.79999995232,70727.79999995232,71589.19999980927,72134.59999990463,72669.5,73114,73648.69999980927,74364.39999985695,74907.29999995232,75401.29999995232,76002,76627.5],"honeypot":0,"survey":"mace","page":9,"trial_type":"survey-mace","trial_index":17,"time_elapsed":728964,"internal_node_id":"0.0-17.0","task_version":"prescreen-v0.3","browser_interactions":0},{"responses":{"01":"No","02":"No","03":"Yes","03_ages_15":"15","03_ages_16":"16","03_ages_17":"17","03_ages_18":"18","04":"Yes","04_ages_12":"12","04_ages_13":"13","05":"Yes","05_ages_11":"11","05_ages_12":"12","05_ages_13":"13","05_ages_14":"14","05_ages_15":"15","05_ages_16":"16","06":"Yes","06_ages_17":"17","07":"Yes","07_ages_1":"1","07_ages_2":"2","07_ages_3":"3","07_ages_4":"4","07_ages_5":"5","07_ages_6":"6","07_ages_7":"7","07_ages_8":"8","07_ages_9":"9","07_ages_10":"10","07_ages_11":"11","07_ages_12":"12","07_ages_13":"13","07_ages_14":"14","07_ages_15":"15","07_ages_16":"16","07_ages_17":"17","07_ages_18":"18","08":"Yes","08_ages_14":"14","08_ages_15":"15","08_ages_16":"16","08_ages_17":"17","08_ages_18":"18"},"rt":63043.800000190735,"item_order":[0,1,2,3,4,5,6,7],"radio_events":[8755.200000047684,9724.800000190735,12522.600000143051,18166.5,24765.5,33232.40000009537,42866.800000190735,57963.60000014305],"checkbox_events":[13666.100000143051,14266.200000047684,14742.600000143051,15278.400000095367,19746.200000047684,20495,26246.800000190735,26773.200000047684,27439.900000095367,27949.800000190735,28402.700000047684,29356.900000095367,34614.5,44405.10000014305,44890.700000047684,45343.10000014305,45836.700000047684,46750.10000014305,47384,47935,48519.10000014305,49029.300000190735,49588.700000047684,51126.5,52335.90000009537,52912.5,53620.10000014305,54623.60000014305,55569.40000009537,56128.90000009537,56647.800000190735,59156.90000009537,59666.800000190735,60152.200000047684,60728,62036.5],"key_events":[],"mouse_events":[8755.200000047684,9724.800000190735,12522.600000143051,13666.100000143051,14266.200000047684,14742.600000143051,15278.400000095367,18166.5,19746.200000047684,20495,24765.5,26246.800000190735,26773.200000047684,27439.900000095367,27949.800000190735,28402.700000047684,29356.900000095367,33232.40000009537,34614.5,42866.800000190735,44405.10000014305,44890.700000047684,45343.10000014305,45836.700000047684,46372.10000014305,46750.10000014305,47384,47935,48519.10000014305,49029.300000190735,49588.700000047684,50106.10000014305,51126.5,52335.90000009537,52912.5,53620.10000014305,54623.60000014305,55569.40000009537,56128.90000009537,56647.800000190735,57963.60000014305,59156.90000009537,59666.800000190735,60152.200000047684,60728,61303.800000190735,61606.40000009537,62036.5,63032.700000047684],"honeypot":0,"survey":"mace","page":10,"trial_type":"survey-mace","trial_index":18,"time_elapsed":792016,"internal_node_id":"0.0-18.0","task_version":"prescreen-v0.3","browser_interactions":0,"instructed":0},{"rt":5707.900000095367,"trial_type":"mental-health-alert","trial_index":19,"time_elapsed":797727,"internal_node_id":"0.0-19.0","task_version":"prescreen-v0.3","interactions":"[]"}]