[{"view_history":[{"page_index":0,"viewing_time":2573.5},{"page_index":1,"viewing_time":4570.300000071526},{"page_index":2,"viewing_time":3979.399999976158},{"page_index":3,"viewing_time":1058.2999999523163}],"rt":12182,"trial_type":"instructions","trial_index":0,"time_elapsed":12189,"internal_node_id":"0.0-0.0","task_version":"prescreen-v0.3"},{"rt":18278.099999904633,"responses":{"age":"25","gender-categorical":"Male","gender-free-response":"","ethnicity":"Not Hispanic or Latino","race":["White"],"education":"Less than high school","siblings":"3"},"trial_type":"survey-demo","trial_index":1,"time_elapsed":30477,"internal_node_id":"0.0-1.0","task_version":"prescreen-v0.3"},{"responses":{"Q09":"2","Q01":"3","Q03":"2","Q20":"0","Q02":"2","Q15":"3","Q11":"2","Q17":"2","Q16":"3","Q14":"2","Q19":"1","Q18":"2","Q21":"3","Q04":"1","Q13":"2","Q07":"1","Q05":"1","Q10":"2","Q06":"0","Q12":"2","Q08":"1"},"rt":126573.19999992847,"item_order":[8,0,2,19,1,14,10,16,15,13,18,17,20,3,12,6,4,9,5,11,7],"radio_events":[9398.799999952316,11724.899999976158,15303.399999976158,17777.699999928474,21550.5,28406.899999976158,31881,37312.89999997616,44205.10000002384,48098.799999952316,53908.60000002384,59719.10000002384,65901.69999992847,75673.10000002384,79006.60000002384,83030.89999997616,98114,100857.60000002384,106573.39999997616,110279.10000002384,118176.89999997616,124600.69999992847],"key_events":[],"mouse_events":[8013.5,8693.100000023842,9398.799999952316,11724.899999976158,14775.600000023842,15303.399999976158,17777.699999928474,20981.899999976158,21550.5,27732.5,28406.899999976158,31881,36847,37312.89999997616,42976.5,43428.10000002384,44205.10000002384,47184.799999952316,47820.199999928474,48098.799999952316,48461.39999997616,53384.299999952316,53908.60000002384,59127.39999997616,59719.10000002384,64911.10000002384,65328.699999928474,65901.69999992847,74793.29999995232,75673.10000002384,78512.89999997616,79006.60000002384,83030.89999997616,97585.5,98114,100857.60000002384,106573.39999997616,108787.39999997616,109272.79999995232,109869.29999995232,110279.10000002384,116964,117430.29999995232,118176.89999997616,123439.39999997616,124004.29999995232,124600.69999992847,126571.39999997616],"straightlining":0.47619047619047616,"zigzagging":0.65,"honeypot":0,"survey":"sns","trial_type":"survey-template","trial_index":2,"time_elapsed":157055,"internal_node_id":"0.0-2.0","task_version":"prescreen-v0.3","browser_interactions":0,"infrequency":0},{"responses":{"Q09":"1","Q13":"0","Q02":"2","Q06":"2","Q08":"2","Q01":"3","Q03":"2","Q05":"3","Q11":"2","Q12":"1","Q10":"2","Q04":"3","Q07":"3"},"rt":62838.5,"item_order":[8,12,1,5,7,0,2,4,10,11,9,3,6],"radio_events":[4385,7686.300000071526,11260.600000023842,18665,27213.5,29788.600000023842,35824.90000009537,41439.10000002384,45220.90000009537,49267.5,52398.300000071526,56863.60000002384,61334.90000009537],"key_events":[],"mouse_events":[3800.600000023842,4385,7686.300000071526,11260.600000023842,17890.700000047684,18665,27213.5,29788.600000023842,34534.40000009537,35143.700000047684,35824.90000009537,40773,41439.10000002384,45220.90000009537,49267.5,52398.300000071526,56517.200000047684,56863.60000002384,60749.200000047684,61334.90000009537,62836.700000047684],"straightlining":0.46153846153846156,"zigzagging":0.6666666666666666,"honeypot":0,"survey":"bisbas","trial_type":"survey-template","trial_index":3,"time_elapsed":219898,"internal_node_id":"0.0-3.0","task_version":"prescreen-v0.3","browser_interactions":0,"infrequency":0},{"responses":{"Q01":"3","Q02":"2","Q03":"3"},"rt":17947.599999904633,"radio_events":[5916,10048.699999928474,16136.699999928474],"key_events":[],"mouse_events":[4919.399999976158,5916,9545.599999904633,10048.699999928474,16136.699999928474,17947.299999952316],"survey":"map","page":1,"trial_type":"survey-map","trial_index":4,"time_elapsed":237848,"internal_node_id":"0.0-4.0","task_version":"prescreen-v0.3","browser_interactions":0},{"responses":{"Q04":"2","Q05":"2","Q06":"3"},"rt":14527,"radio_events":[5313.300000071526,10836.5,13234.300000071526],"key_events":[],"mouse_events":[5313.300000071526,9776.200000047684,10327.400000095367,10836.5,13234.300000071526,14526.600000023842],"survey":"map","page":2,"trial_type":"survey-map","trial_index":5,"time_elapsed":252377,"internal_node_id":"0.0-5.0","task_version":"prescreen-v0.3","browser_interactions":0},{"responses":{"Q07":"0","Q08":"4","Q09":"3"},"rt":21718.799999952316,"radio_events":[6853.099999904633,13190.599999904633,17629.199999928474],"key_events":[],"mouse_events":[5165.799999952316,6853.099999904633,12799.599999904633,13190.599999904633,17629.199999928474,21718.399999976158],"survey":"map","page":3,"trial_type":"survey-map","trial_index":6,"time_elapsed":274098,"internal_node_id":"0.0-6.0","task_version":"prescreen-v0.3","browser_interactions":0},{"responses":{"Q10":"3","Q11":"2","Q12":"1","Q13":"2","Q16":"0","Q14":"2","Q15":"2"},"rt":38689.39999997616,"radio_events":[3802.6999999284744,7627.599999904633,15335.5,18755,22698.899999976158,34638.199999928474,37061.89999997616],"key_events":[],"mouse_events":[3802.6999999284744,7627.599999904633,13370.099999904633,13991.199999928474,15335.5,18755,22204.699999928474,22698.899999976158,33352.699999928474,34041.39999997616,34638.199999928474,37061.89999997616,38688.299999952316],"survey":"map","page":4,"trial_type":"survey-map","trial_index":7,"time_elapsed":312790,"internal_node_id":"0.0-7.0","task_version":"prescreen-v0.3","browser_interactions":0,"infrequency":0},{"view_history":[{"page_index":0,"viewing_time":5208.200000047684},{"page_index":1,"viewing_time":4773.099999904633}],"rt":9981.799999952316,"trial_type":"instructions","trial_index":8,"time_elapsed":322775,"internal_node_id":"0.0-8.0","task_version":"prescreen-v0.3"},{"responses":{"01":"Yes","01_ages_10":"10","01_ages_11":"11","01_ages_12":"12","01_ages_13":"13","01_ages_14":"14","01_ages_15":"15","01_ages_16":"16","01_ages_17":"17","02":"No","03":"No","04":"No","05":"No","06":"No"},"rt":58178.200000047684,"item_order":[0,1,2,3,4,5],"radio_events":[10926.399999976158,51199.10000002384,51294.60000002384,52415.10000002384,53744.89999997616,55987.10000002384,57350],"checkbox_events":[17043.399999976158,17924.700000047684,18722.700000047684,19874.600000023842,21181.5,21758.399999976158,22507.100000023842,29629.700000047684],"key_events":[],"mouse_events":[0.30000007152557373,10926.399999976158,17043.399999976158,17924.700000047684,18722.700000047684,19874.600000023842,21181.5,21758.399999976158,22507.100000023842,29629.700000047684,51199.10000002384,51294.60000002384,52415.10000002384,53744.89999997616,54996.700000047684,55987.10000002384,57350,58176],"honeypot":0,"survey":"mace","page":1,"trial_type":"survey-mace","trial_index":9,"time_elapsed":380962,"internal_node_id":"0.0-9.0","task_version":"prescreen-v0.3","browser_interactions":0},{"responses":{"01":"No","02":"No","03":"No","04":"No","05":"No","06":"No","07":"No","08":"No"},"rt":25002.899999976158,"item_order":[0,1,2,3,4,5,6,7],"radio_events":[2499.899999976158,4841.099999904633,5183.599999904633,5914.199999928474,13745.699999928474,19060.199999928474,19896.799999952316,21727.899999976158,23201.399999976158],"checkbox_events":[],"key_events":[],"mouse_events":[2499.899999976158,3675.5999999046326,4841.099999904633,5183.599999904633,5914.199999928474,9200.299999952316,13745.699999928474,14643.399999976158,17799.799999952316,19060.199999928474,19896.799999952316,20777.299999952316,21350.299999952316,21727.899999976158,22656.099999904633,23201.399999976158,25000.699999928474],"honeypot":0,"survey":"mace","page":2,"trial_type":"survey-mace","trial_index":10,"time_elapsed":405968,"internal_node_id":"0.0-10.0","task_version":"prescreen-v0.3","browser_interactions":0},{"responses":{"01":"No","02":"No","03":"No","04":"No"},"rt":7323.299999952316,"item_order":[0,1,2,3],"radio_events":[2618.399999976158,4542.899999976158,5254.5,6623.5],"checkbox_events":[],"key_events":[],"mouse_events":[2618.399999976158,3554.1999999284744,4542.899999976158,5254.5,6050.899999976158,6623.5,7321.299999952316],"honeypot":0,"survey":"mace","page":3,"trial_type":"survey-mace","trial_index":11,"time_elapsed":413294,"internal_node_id":"0.0-11.0","task_version":"prescreen-v0.3","browser_interactions":0},{"responses":{"01":"No","02":"No"},"rt":7877.399999976158,"item_order":[0,1],"radio_events":[3651.399999976158,6675.799999952316],"checkbox_events":[],"key_events":[],"mouse_events":[3651.399999976158,6675.799999952316,7876.699999928474],"honeypot":0,"survey":"mace","page":4,"trial_type":"survey-mace","trial_index":12,"time_elapsed":421174,"internal_node_id":"0.0-12.0","task_version":"prescreen-v0.3","browser_interactions":0},{"responses":{"01":"No","02":"No","03":"No","04":"No","05":"No"},"rt":24140.300000071526,"item_order":[0,1,2,3,4],"radio_events":[11650.100000023842,16058.399999976158,17318,19190.399999976158,21836.600000023842],"checkbox_events":[],"key_events":[],"mouse_events":[10597.200000047684,11650.100000023842,13614,14411.300000071526,14813.100000023842,16058.399999976158,16855.300000071526,17318,19190.399999976158,20543.200000047684,21309.399999976158,21836.600000023842,24139.100000023842],"honeypot":0,"survey":"mace","page":5,"trial_type":"survey-mace","trial_index":13,"time_elapsed":445318,"internal_node_id":"0.0-13.0","task_version":"prescreen-v0.3","browser_interactions":0},{"responses":{"01":"Yes","01_ages_13":"13","01_ages_14":"14","02":"Yes","02_ages_13":"13","02_ages_14":"14","03":"No","04":"Yes","04_ages_13":"13","04_ages_14":"14","05":"No"},"rt":44282,"item_order":[0,1,2,3,4],"radio_events":[12406.899999976158,25422.5,30953.799999952316,32792.10000002384,42182.799999952316],"checkbox_events":[19190.100000023842,19785.5,20705,23265,26520.399999976158,27249.299999952316,37163,37766.5,38254.799999952316,39298.200000047684],"key_events":[],"mouse_events":[12406.899999976158,18378.299999952316,19190.100000023842,19785.5,20705,23265,25422.5,26520.399999976158,27249.299999952316,30953.799999952316,32792.10000002384,37163,37766.5,38254.799999952316,39298.200000047684,42182.799999952316,44279.700000047684],"honeypot":0,"survey":"mace","page":6,"trial_type":"survey-mace","trial_index":14,"time_elapsed":489611,"internal_node_id":"0.0-14.0","task_version":"prescreen-v0.3","browser_interactions":0},{"responses":{"01":"No","02":"No","03":"No","04":"No","05":"No","06":"No","07":"No"},"rt":15933.5,"item_order":[0,1,2,3,4,5,6],"radio_events":[5483.799999952316,7056.699999928474,9312.599999904633,10754.199999928474,13250.199999928474,14013.399999976158,15392],"checkbox_events":[],"key_events":[],"mouse_events":[4749.899999976158,4841.699999928474,5483.799999952316,7056.699999928474,8888.399999976158,9312.599999904633,10754.199999928474,11988.899999976158,12755,13250.199999928474,14013.399999976158,15392,15931.599999904633],"honeypot":0,"survey":"mace","page":7,"trial_type":"survey-mace","trial_index":15,"time_elapsed":505547,"internal_node_id":"0.0-15.0","task_version":"prescreen-v0.3","browser_interactions":0},{"responses":{"01":"No","02":"No","03":"No","04":"No"},"rt":21918.299999952316,"item_order":[0,1,2,3],"radio_events":[7584.600000023842,15731,20424.5,21206],"checkbox_events":[],"key_events":[],"mouse_events":[7584.600000023842,15731,17908.699999928474,19046.100000023842,19366.299999952316,19903.899999976158,20424.5,21206,21917],"honeypot":0,"survey":"mace","page":8,"trial_type":"survey-mace","trial_index":16,"time_elapsed":527467,"internal_node_id":"0.0-16.0","task_version":"prescreen-v0.3","browser_interactions":0},{"responses":{"01":"Yes","01_ages_1":"1","01_ages_2":"2","01_ages_3":"3","01_ages_4":"4","01_ages_5":"5","01_ages_6":"6","01_ages_7":"7","01_ages_8":"8","01_ages_9":"9","01_ages_10":"10","01_ages_11":"11","01_ages_12":"12","01_ages_13":"13","01_ages_14":"14","01_ages_15":"15","01_ages_16":"16","01_ages_17":"17","01_ages_18":"18","02":"Yes","02_ages_1":"1","02_ages_2":"2","02_ages_3":"3","02_ages_4":"4","02_ages_5":"5","02_ages_6":"6","02_ages_7":"7","02_ages_8":"8","02_ages_9":"9","02_ages_10":"10","02_ages_11":"11","02_ages_12":"12","02_ages_13":"13","02_ages_14":"14","02_ages_15":"15","02_ages_16":"16","02_ages_17":"17","02_ages_18":"18","03":"Yes","03_ages_1":"1","03_ages_2":"2","03_ages_3":"3","03_ages_4":"4","03_ages_5":"5","03_ages_6":"6","03_ages_7":"7","03_ages_8":"8","03_ages_9":"9","03_ages_10":"10","03_ages_11":"11","03_ages_12":"12","03_ages_13":"13","03_ages_14":"14","03_ages_15":"15","03_ages_16":"16","03_ages_17":"17","03_ages_18":"18","04":"Yes","04_ages_1":"1","04_ages_2":"2","04_ages_3":"3","04_ages_4":"4","04_ages_5":"5","04_ages_6":"6","04_ages_7":"7","04_ages_8":"8","04_ages_9":"9","04_ages_10":"10","04_ages_11":"11","04_ages_12":"12","04_ages_13":"13","04_ages_14":"14","04_ages_15":"15","04_ages_16":"16","04_ages_17":"17","04_ages_18":"18"},"rt":86746.90000009537,"item_order":[0,1,2,3],"radio_events":[4814.900000095367,27833.700000047684,45087.60000002384,65521.300000071526],"checkbox_events":[8472.600000023842,9639.400000095367,10213,11201.800000071526,11968.200000047684,12881.400000095367,13592.100000023842,14552,15107.600000023842,16725.200000047684,17872.300000071526,18782,19379.400000095367,19780.5,20413.800000071526,21142.100000023842,22241.200000047684,22998.400000095367,23693.700000047684,24645.100000023842,29424.5,29919.900000095367,30732.600000023842,31366.5,31614.800000071526,32063.5,32820,34050.60000002384,34707.800000071526,35613.60000002384,36448.40000009537,37654.60000002384,38219.5,38969.700000047684,39805.90000009537,40473.300000071526,41049.60000002384,41939.300000071526,42964.10000002384,43596.10000002384,47146,47742.300000071526,48299.300000071526,48861.5,49475.200000047684,50084.10000002384,50605.60000002384,52586.90000009537,53837.800000071526,54927.300000071526,55811,56405.90000009537,57477.90000009537,58127.90000009537,59220.10000002384,60386.700000047684,60929.800000071526,62033.90000009537,68246.90000009537,68817.70000004768,69453.10000002384,70596.70000004768,71544.20000004768,74057.10000002384,74664.30000007153,75865,76514.30000007153,77652.20000004768,78626.60000002384,79221,80009.90000009537,83791.60000002384,84441.60000002384,84984.20000004768,85535.5,86049.70000004768],"key_events":[],"mouse_events":[3747.8000000715256,4247.600000023842,4814.900000095367,8472.600000023842,8899.5,9639.400000095367,10213,10765.300000071526,11201.800000071526,11649.400000095367,11968.200000047684,12532.800000071526,12881.400000095367,13283.700000047684,13592.100000023842,14156.600000023842,14552,15107.600000023842,15867.5,16725.200000047684,17411.5,17872.300000071526,18782,19379.400000095367,19780.5,20413.800000071526,21142.100000023842,22241.200000047684,22998.400000095367,23693.700000047684,24645.100000023842,27833.700000047684,29053.900000095367,29424.5,29919.900000095367,30732.600000023842,31366.5,31614.800000071526,32063.5,32820,33663.60000002384,34050.60000002384,34707.800000071526,35613.60000002384,36448.40000009537,37654.60000002384,38219.5,38969.700000047684,39805.90000009537,40473.300000071526,41049.60000002384,41939.300000071526,42541.90000009537,42964.10000002384,43596.10000002384,45087.60000002384,47146,47742.300000071526,48299.300000071526,48861.5,49475.200000047684,50084.10000002384,50605.60000002384,51130.60000002384,51591.800000071526,52586.90000009537,53837.800000071526,54456,54927.300000071526,55811,56405.90000009537,57030.200000047684,57477.90000009537,58127.90000009537,58782.5,59220.10000002384,60023.40000009537,60386.700000047684,60929.800000071526,61493.200000047684,62033.90000009537,65521.300000071526,66929.80000007153,67038.70000004768,67704.5,68246.90000009537,68817.70000004768,69453.10000002384,70596.70000004768,71107.5,71544.20000004768,74057.10000002384,74664.30000007153,75346.30000007153,75865,76514.30000007153,77209.5,77652.20000004768,78239.40000009537,78626.60000002384,79221,80009.90000009537,83791.60000002384,84441.60000002384,84984.20000004768,85535.5,86049.70000004768,86745.80000007153],"honeypot":0,"survey":"mace","page":9,"trial_type":"survey-mace","trial_index":17,"time_elapsed":614216,"internal_node_id":"0.0-17.0","task_version":"prescreen-v0.3","browser_interactions":0},{"responses":{"01":"No","02":"No","03":"No","04":"Yes","04_ages_1":"1","04_ages_2":"2","04_ages_3":"3","04_ages_4":"4","04_ages_5":"5","04_ages_6":"6","04_ages_7":"7","04_ages_8":"8","04_ages_9":"9","04_ages_10":"10","04_ages_11":"11","04_ages_12":"12","04_ages_13":"13","04_ages_14":"14","04_ages_15":"15","04_ages_16":"16","04_ages_17":"17","04_ages_18":"18","05":"Yes","05_ages_1":"1","05_ages_2":"2","05_ages_3":"3","05_ages_4":"4","05_ages_5":"5","05_ages_6":"6","05_ages_7":"7","06":"Yes","06_ages_17":"17","07":"Yes","07_ages_1":"1","07_ages_2":"2","07_ages_3":"3","07_ages_4":"4","07_ages_5":"5","07_ages_6":"6","07_ages_7":"7","07_ages_8":"8","07_ages_9":"9","07_ages_10":"10","07_ages_11":"11","07_ages_12":"12","07_ages_13":"13","07_ages_14":"14","07_ages_15":"15","07_ages_16":"16","07_ages_17":"17","08":"No"},"rt":70550.29999995232,"item_order":[0,1,2,3,4,5,6,7],"radio_events":[4290.799999952316,5264.5,7361.200000047684,11074.399999976158,38627.200000047684,48116.299999952316,53960.60000002384,69698.10000002384],"checkbox_events":[13532.700000047684,14198.600000023842,14423.200000047684,16048.899999976158,16921.5,18026.5,18637.299999952316,19790.399999976158,20972.600000023842,21546.200000047684,22280.399999976158,22832,23293.100000023842,24406.600000023842,25267.5,25608.200000047684,26249.600000023842,27327.100000023842,28423.700000047684,29899.100000023842,31113.5,32646.299999952316,40501.799999952316,41010.39999997616,42349.60000002384,42944.10000002384,43708.10000002384,44492,45826.799999952316,50346.700000047684,56056.200000047684,57577.700000047684,58028.5,58628.700000047684,59202,59682.200000047684,60219.200000047684,60821.5,61361,62104.799999952316,63075.10000002384,63964.200000047684,64447.799999952316,65026.799999952316,65555.89999997616,66126.70000004768,66692.60000002384,67257.29999995232,67727.39999997616],"key_events":[],"mouse_events":[3184.7000000476837,4290.799999952316,5264.5,7361.200000047684,10509.700000047684,11074.399999976158,12444,12892.700000047684,13532.700000047684,14198.600000023842,14423.200000047684,15020.700000047684,15567,16048.899999976158,16921.5,18026.5,18637.299999952316,19481.5,19790.399999976158,20363,20972.600000023842,21546.200000047684,22280.399999976158,22832,23293.100000023842,23834.200000047684,24406.600000023842,25267.5,25608.200000047684,26249.600000023842,27327.100000023842,28423.700000047684,29188.399999976158,29899.100000023842,30550.100000023842,30645.799999952316,31113.5,32646.299999952316,38627.200000047684,40501.799999952316,41010.39999997616,42349.60000002384,42944.10000002384,43708.10000002384,44492,45371.10000002384,45826.799999952316,47538.60000002384,48116.299999952316,50346.700000047684,53960.60000002384,56056.200000047684,56802.5,57577.700000047684,58028.5,58628.700000047684,59202,59682.200000047684,60219.200000047684,60821.5,61361,62104.799999952316,62624.5,63075.10000002384,63504.700000047684,63964.200000047684,64447.799999952316,65026.799999952316,65555.89999997616,66126.70000004768,66692.60000002384,67164.20000004768,67257.29999995232,67727.39999997616,69191,69698.10000002384,70547],"honeypot":0,"survey":"mace","page":10,"trial_type":"survey-mace","trial_index":18,"time_elapsed":684771,"internal_node_id":"0.0-18.0","task_version":"prescreen-v0.3","browser_interactions":0,"instructed":0},{"rt":9796,"trial_type":"mental-health-alert","trial_index":19,"time_elapsed":694571,"internal_node_id":"0.0-19.0","task_version":"prescreen-v0.3","interactions":"[]"}]