[{"view_history":[{"page_index":0,"viewing_time":2862.3500000685453},{"page_index":1,"viewing_time":3084.4299998134375},{"page_index":2,"viewing_time":3822.9650002904236},{"page_index":3,"viewing_time":1217.4100000411272}],"rt":10988.855000119656,"trial_type":"instructions","trial_index":0,"time_elapsed":11016,"internal_node_id":"0.0-0.0","task_version":"prescreen-v0.3"},{"rt":22388.069999869913,"responses":{"age":"20","gender-categorical":"Female","gender-free-response":"","ethnicity":"Not Hispanic or Latino","race":["White"],"education":"Bachelor degree"},"trial_type":"survey-demo","trial_index":1,"time_elapsed":33418,"internal_node_id":"0.0-1.0","task_version":"prescreen-v0.3"},{"responses":{"Q20":"0","Q13":"2","Q10":"0","Q15":"1","Q19":"1","Q11":"1","Q14":"3","Q18":"1","Q01":"0","Q08":"2","Q12":"2","Q03":"0","Q04":"2","Q02":"0","Q06":"1","Q09":"1","Q05":"0","Q07":"0","Q16":"2","Q17":"2","Q21":"3"},"rt":130339.86499998719,"item_order":[19,12,9,14,18,10,13,17,0,7,11,2,3,1,5,8,4,6,15,16,20],"radio_events":[5161.3300000317395,8894.6050000377,13668.46500011161,23309.47500001639,31978.155000135303,35306.644999887794,43091.2099997513,48245.60000002384,56189.185000024736,60125.45999977738,64783.49999990314,70520.56499989703,78434.6150001511,83864.03500009328,91240.80500006676,98937.6550000161,103628.8450001739,111283.73500006273,120398.37499987334,124487.80999984592,127727.29999991134],"key_events":[],"mouse_events":[5161.3300000317395,8894.6050000377,13668.46500011161,23309.47500001639,31978.155000135303,35306.644999887794,43091.2099997513,48245.60000002384,56189.185000024736,60125.45999977738,64783.49999990314,70520.56499989703,78434.6150001511,83864.03500009328,91240.80500006676,98937.6550000161,103628.8450001739,111283.73500006273,120398.37499987334,124487.80999984592,127727.29999991134,130332.45000010356],"straightlining":0.3333333333333333,"zigzagging":0.25,"honeypot":0,"survey":"sns","trial_type":"survey-template","trial_index":2,"time_elapsed":163773,"internal_node_id":"0.0-2.0","task_version":"prescreen-v0.3","browser_interactions":0,"infrequency":0},{"responses":{"Q04":"3","Q06":"2","Q01":"3","Q13":"0","Q08":"2","Q11":"1","Q07":"2","Q03":"3","Q09":"2","Q12":"0","Q05":"2","Q10":"1","Q02":"2"},"rt":75960.54999995977,"item_order":[3,5,0,12,7,10,6,2,8,11,4,9,1],"radio_events":[5069.430000148714,14745.21500011906,16010.909999720752,19022.194999735802,30204.3550000526,40828.27499974519,43027.60499995202,46955.68499993533,52734.93999987841,58847.380000166595,66890.94500010833,72288.48499991,74779.83999997377],"key_events":[],"mouse_events":[5069.430000148714,14745.21500011906,16010.909999720752,19022.194999735802,30204.3550000526,40828.27499974519,43027.60499995202,46955.68499993533,52734.93999987841,58847.380000166595,66890.94500010833,72288.48499991,74779.83999997377,75957.59500004351],"straightlining":0.46153846153846156,"zigzagging":0.75,"honeypot":0,"survey":"bisbas","trial_type":"survey-template","trial_index":3,"time_elapsed":239746,"internal_node_id":"0.0-3.0","task_version":"prescreen-v0.3","browser_interactions":0,"infrequency":0},{"responses":{"Q01":"2","Q02":"3","Q03":"2"},"rt":24780.86999990046,"radio_events":[6533.160000108182,17929.035000037402,23700.474999845028],"key_events":[],"mouse_events":[6533.160000108182,17929.035000037402,23700.474999845028,24779.254999943078],"survey":"map","page":1,"trial_type":"survey-map","trial_index":4,"time_elapsed":264533,"internal_node_id":"0.0-4.0","task_version":"prescreen-v0.3","browser_interactions":0},{"responses":{"Q04":"3","Q05":"3","Q06":"3"},"rt":15953.27499974519,"radio_events":[4515.600000042468,9134.240000043064,15017.5749999471],"key_events":[],"mouse_events":[4515.600000042468,9134.240000043064,15017.5749999471,15951.869999989867],"survey":"map","page":2,"trial_type":"survey-map","trial_index":5,"time_elapsed":280491,"internal_node_id":"0.0-5.0","task_version":"prescreen-v0.3","browser_interactions":0},{"responses":{"Q07":"1","Q08":"3","Q09":"2"},"rt":20789.17000023648,"radio_events":[6264.934999868274,13326.760000083596,18619.169999845326],"key_events":[],"mouse_events":[6264.934999868274,13326.760000083596,18619.169999845326,20787.740000057966],"survey":"map","page":3,"trial_type":"survey-map","trial_index":6,"time_elapsed":301285,"internal_node_id":"0.0-6.0","task_version":"prescreen-v0.3","browser_interactions":0},{"responses":{"Q10":"2","Q11":"3","Q12":"3","Q13":"4","Q16":"0","Q14":"4","Q15":"4"},"rt":32939.85500000417,"radio_events":[5040.234999731183,8440.569999627769,16379.504999611527,18822.714999783784,22394.304999615997,26792.644999921322,32173.65500004962],"key_events":[],"mouse_events":[5040.234999731183,8440.569999627769,16379.504999611527,18822.714999783784,22394.304999615997,26792.644999921322,32173.65500004962,32936.959999613464],"survey":"map","page":4,"trial_type":"survey-map","trial_index":7,"time_elapsed":334232,"internal_node_id":"0.0-7.0","task_version":"prescreen-v0.3","browser_interactions":0,"infrequency":0},{"view_history":[{"page_index":0,"viewing_time":3239.2749995924532},{"page_index":1,"viewing_time":3300.245000049472}],"rt":6539.844999555498,"trial_type":"instructions","trial_index":8,"time_elapsed":340775,"internal_node_id":"0.0-8.0","task_version":"prescreen-v0.3"},{"responses":{"01":"Yes","01_ages_7":"7","01_ages_8":"8","01_ages_9":"9","01_ages_10":"10","01_ages_11":"11","01_ages_12":"12","01_ages_13":"13","01_ages_14":"14","01_ages_15":"15","01_ages_16":"16","01_ages_17":"17","01_ages_18":"18","02":"Yes","02_ages_6":"6","02_ages_7":"7","02_ages_8":"8","02_ages_9":"9","02_ages_10":"10","02_ages_11":"11","02_ages_12":"12","02_ages_13":"13","02_ages_14":"14","02_ages_15":"15","02_ages_16":"16","02_ages_17":"17","02_ages_18":"18","03":"Yes","03_ages_10":"10","03_ages_11":"11","03_ages_12":"12","04":"Yes","04_ages_10":"10","04_ages_11":"11","04_ages_12":"12","04_ages_15":"15","04_ages_16":"16","04_ages_17":"17","04_ages_18":"18","05":"No","06":"Yes","06_ages_12":"12"},"rt":69688.22999997064,"item_order":[0,1,2,3,4,5],"radio_events":[10786.439999938011,31959.615000057966,49486.080000177026,55199.40500007942,63203.135000076145,66498.99500003085],"checkbox_events":[19366.15000013262,19825.639999937266,20688.81500000134,21637.53500021994,22292.49500017613,23123.385000042617,23991.249999962747,25257.680000271648,25874.335000291467,26410.0200003013,27132.395000196993,28155.050000175834,34915.90999998152,35321.530000306666,35695.37000032142,36182.11500020698,37164.094999898225,37975.325000006706,38901.095000095665,41815.220000222325,42659.12500023842,43225.744999945164,43957.82000012696,45134.790000040084,45734.810000285506,51408.80500013009,51969.08000018448,52585.800000000745,56692.81999999657,57326.460000127554,57827.46000029147,59095.78499989584,59574.7350002639,60013.199999928474,60564.920000266284,67748.30499989912],"key_events":[],"mouse_events":[0.1050001010298729,10786.439999938011,19366.15000013262,19825.639999937266,20224.02000008151,20688.81500000134,21637.53500021994,22292.49500017613,23123.385000042617,23991.249999962747,25257.680000271648,25874.335000291467,26410.0200003013,27132.395000196993,28155.050000175834,31959.615000057966,34915.90999998152,35321.530000306666,35695.37000032142,36182.11500020698,37164.094999898225,37975.325000006706,38901.095000095665,41815.220000222325,42659.12500023842,43225.744999945164,43957.82000012696,45134.790000040084,45734.810000285506,49486.080000177026,51408.80500013009,51969.08000018448,52585.800000000745,55199.40500007942,56692.81999999657,57326.460000127554,57827.46000029147,59095.78499989584,59574.7350002639,60013.199999928474,60564.920000266284,63203.135000076145,66498.99500003085,67748.30499989912,69680.68000022322],"honeypot":0,"survey":"mace","page":1,"trial_type":"survey-mace","trial_index":9,"time_elapsed":410474,"internal_node_id":"0.0-9.0","task_version":"prescreen-v0.3","browser_interactions":0},{"responses":{"01":"No","02":"No","03":"Yes","03_ages_4":"4","03_ages_5":"5","03_ages_6":"6","03_ages_7":"7","03_ages_8":"8","03_ages_9":"9","03_ages_10":"10","03_ages_11":"11","03_ages_12":"12","04":"Yes","04_ages_4":"4","04_ages_5":"5","04_ages_6":"6","04_ages_7":"7","04_ages_8":"8","04_ages_9":"9","04_ages_10":"10","04_ages_11":"11","04_ages_12":"12","05":"No","06":"No","07":"No","08":"No"},"rt":38674.64000033215,"item_order":[0,1,2,3,4,5,6,7],"radio_events":[3874.4250000454485,8523.790000006557,9521.794999949634,19773.830000311136,32684.180000331253,35030.46000003815,36523.955000098795,38114.22999994829],"checkbox_events":[11697.124999947846,12127.104999963194,12557.994999922812,12987.505000084639,13604.2500003241,14294.22500031069,14789.474999997765,15772.115000057966,16680.53500028327,22913.375000003725,23489.950000308454,24252.044999971986,26297.59500036016,26979.414999950677,27677.35500028357,28375.220000278205,28968.0300001055,30379.840000066906],"key_events":[],"mouse_events":[3874.4250000454485,8523.790000006557,9521.794999949634,11697.124999947846,12127.104999963194,12557.994999922812,12987.505000084639,13604.2500003241,14294.22500031069,14789.474999997765,15244.15499996394,15772.115000057966,16250.725000165403,16680.53500028327,19773.830000311136,22913.375000003725,23489.950000308454,24252.044999971986,24983.415000140667,26297.59500036016,26979.414999950677,27677.35500028357,28375.220000278205,28968.0300001055,29519.400000106543,30379.840000066906,32684.180000331253,35030.46000003815,36523.955000098795,38114.22999994829,38666.10000003129],"honeypot":0,"survey":"mace","page":2,"trial_type":"survey-mace","trial_index":10,"time_elapsed":449157,"internal_node_id":"0.0-10.0","task_version":"prescreen-v0.3","browser_interactions":0},{"responses":{"01":"No","02":"No","03":"No","04":"No"},"rt":18432.299999985844,"item_order":[0,1,2,3],"radio_events":[5934.8949999548495,14984.794999938458,16672.84999974072,17825.35499986261],"checkbox_events":[],"key_events":[],"mouse_events":[5934.8949999548495,14984.794999938458,16672.84999974072,17825.35499986261,18426.349999848753],"honeypot":0,"survey":"mace","page":3,"trial_type":"survey-mace","trial_index":11,"time_elapsed":467594,"internal_node_id":"0.0-11.0","task_version":"prescreen-v0.3","browser_interactions":0},{"responses":{"01":"No","02":"No"},"rt":7486.175000201911,"item_order":[0,1],"radio_events":[5771.029999945313,6493.724999949336],"checkbox_events":[],"key_events":[],"mouse_events":[5771.029999945313,6493.724999949336,7483.419999945909],"honeypot":0,"survey":"mace","page":4,"trial_type":"survey-mace","trial_index":12,"time_elapsed":475086,"internal_node_id":"0.0-12.0","task_version":"prescreen-v0.3","browser_interactions":0},{"responses":{"01":"No","02":"No","03":"No","04":"No","05":"No"},"rt":18682.444999925792,"item_order":[0,1,2,3,4],"radio_events":[11468.295000027865,13009.730000048876,14699.37500031665,15931.450000032783,17984.94999995455],"checkbox_events":[],"key_events":[],"mouse_events":[11468.295000027865,13009.730000048876,14699.37500031665,15931.450000032783,17984.94999995455,18674.864999949932],"honeypot":0,"survey":"mace","page":5,"trial_type":"survey-mace","trial_index":13,"time_elapsed":493774,"internal_node_id":"0.0-13.0","task_version":"prescreen-v0.3","browser_interactions":0},{"responses":{"01":"Yes","01_ages_6":"6","01_ages_7":"7","01_ages_8":"8","01_ages_9":"9","01_ages_10":"10","01_ages_11":"11","01_ages_12":"12","02":"Yes","02_ages_6":"6","02_ages_7":"7","02_ages_8":"8","02_ages_9":"9","02_ages_10":"10","02_ages_11":"11","02_ages_12":"12","02_ages_13":"13","03":"Yes","03_ages_10":"10","03_ages_11":"11","03_ages_12":"12","03_ages_13":"13","04":"Yes","04_ages_5":"5","04_ages_6":"6","04_ages_14":"14","04_ages_15":"15","04_ages_16":"16","05":"No"},"rt":40580.4500002414,"item_order":[0,1,2,3,4],"radio_events":[4843.5400002636015,13087.98999991268,23988.31500019878,31470.2750002034,39904.49000010267],"checkbox_events":[7106.660000048578,7667.230000253767,8371.700000017881,8811.290000099689,9266.38500019908,9817.800000309944,10321.100000292063,14580.165000166744,15490.300000179559,15920.739999972284,16456.135000102222,16822.995000053197,18352.75000007823,18947.970000095665,19537.785000167787,25773.41500017792,26373.92000015825,28279.030000325292,28751.69000029564,32939.42000018433,33556.115000043064,34027.22000004724,36915.46500008553,37411.22499993071],"key_events":[],"mouse_events":[4843.5400002636015,7106.660000048578,7667.230000253767,8371.700000017881,8811.290000099689,9266.38500019908,9817.800000309944,10321.100000292063,13087.98999991268,14580.165000166744,14930.57500012219,15490.300000179559,15920.739999972284,16456.135000102222,16822.995000053197,17326.150000095367,17880.665000062436,18352.75000007823,18947.970000095665,19537.785000167787,23988.31500019878,25773.41500017792,26373.92000015825,28279.030000325292,28751.69000029564,31470.2750002034,32939.42000018433,33556.115000043064,34027.22000004724,36915.46500008553,37411.22499993071,39904.49000010267,40575.12000016868],"honeypot":0,"survey":"mace","page":6,"trial_type":"survey-mace","trial_index":14,"time_elapsed":534363,"internal_node_id":"0.0-14.0","task_version":"prescreen-v0.3","browser_interactions":0},{"responses":{"01":"No","02":"No","03":"No","04":"No","05":"No","06":"No","07":"No"},"rt":14726.58499982208,"item_order":[0,1,2,3,4,5,6],"radio_events":[4427.110000047833,5774.805000051856,8994.004999753088,11057.895000092685,12023.684999905527,12705.529999919236,13476.280000060797],"checkbox_events":[],"key_events":[],"mouse_events":[4427.110000047833,5774.805000051856,8994.004999753088,11057.895000092685,11528.034999966621,12023.684999905527,12705.529999919236,13476.280000060797,14718.36999990046],"honeypot":0,"survey":"mace","page":7,"trial_type":"survey-mace","trial_index":15,"time_elapsed":549097,"internal_node_id":"0.0-15.0","task_version":"prescreen-v0.3","browser_interactions":0},{"responses":{"01":"Yes","01_ages_12":"12","01_ages_13":"13","01_ages_14":"14","01_ages_15":"15","01_ages_16":"16","01_ages_17":"17","01_ages_18":"18","02":"Yes","02_ages_6":"6","02_ages_7":"7","02_ages_8":"8","02_ages_9":"9","02_ages_10":"10","02_ages_11":"11","02_ages_12":"12","02_ages_13":"13","02_ages_14":"14","02_ages_15":"15","02_ages_16":"16","02_ages_17":"17","02_ages_18":"18","03":"Yes","03_ages_6":"6","03_ages_7":"7","03_ages_8":"8","03_ages_9":"9","03_ages_10":"10","03_ages_11":"11","03_ages_12":"12","03_ages_13":"13","03_ages_14":"14","03_ages_15":"15","03_ages_16":"16","03_ages_17":"17","03_ages_18":"18","04":"Yes","04_ages_12":"12","04_ages_13":"13","04_ages_14":"14","04_ages_15":"15","04_ages_16":"16","04_ages_17":"17","04_ages_18":"18"},"rt":72725.69499956444,"item_order":[0,1,2,3],"radio_events":[10610.569999553263,23657.05999964848,37811.174999922514,64667.69999964163],"checkbox_events":[13832.144999876618,14367.169999983162,15179.13999967277,16064.00499958545,16639.939999673516,17279.439999721944,18368.454999756068,25467.1449996531,26074.96999995783,26473.00499957055,26837.724999990314,27316.995000001043,27724.014999810606,28161.084999796003,28867.48499982059,29289.10499997437,30327.859999611974,31910.76499968767,32883.98499973118,33331.2999997288,39020.81999974325,39482.649999670684,39880.44499978423,40374.93999954313,41211.83499973267,42088.49999960512,42664.729999843985,43117.11999960244,43646.93999988958,44200.03999955952,45245.79499987885,46211.39999991283,46690.52999978885,47208.99499999359,47738.80999954417,48541.044999845326,48922.40999964997,49587.684999685735,50163.80999982357,50756.72999955714,51437.94999970123,53078.264999669045,53645.98499983549,54189.89999964833,54766.124999616295,67231.74499999732,67677.78499983251,68636.46499998868,69316.00499991328,70097.28999994695,70641.90499996766,71070.31499966979],"key_events":[],"mouse_events":[10610.569999553263,13832.144999876618,14367.169999983162,15179.13999967277,16064.00499958545,16639.939999673516,17279.439999721944,18368.454999756068,23657.05999964848,25467.1449996531,26074.96999995783,26473.00499957055,26837.724999990314,27316.995000001043,27724.014999810606,28161.084999796003,28867.48499982059,29289.10499997437,29743.94499976188,30327.859999611974,30733.88999979943,31512.869999743998,31910.76499968767,32883.98499973118,33331.2999997288,37324.2799998261,37811.174999922514,39020.81999974325,39482.649999670684,39880.44499978423,40374.93999954313,41211.83499973267,42088.49999960512,42664.729999843985,43117.11999960244,43646.93999988958,44200.03999955952,44815.90499961749,45245.79499987885,45837.77999971062,46211.39999991283,46690.52999978885,47208.99499999359,47738.80999954417,48541.044999845326,48922.40999964997,49587.684999685735,50163.80999982357,50756.72999955714,51437.94999970123,53078.264999669045,53645.98499983549,54189.89999964833,54766.124999616295,64667.69999964163,67231.74499999732,67677.78499983251,68636.46499998868,69316.00499991328,70097.28999994695,70641.90499996766,71070.31499966979,72719.17999954894],"honeypot":0,"survey":"mace","page":8,"trial_type":"survey-mace","trial_index":16,"time_elapsed":621830,"internal_node_id":"0.0-16.0","task_version":"prescreen-v0.3","browser_interactions":0},{"responses":{"01":"Yes","01_ages_1":"1","01_ages_2":"2","01_ages_3":"3","01_ages_4":"4","01_ages_5":"5","01_ages_6":"6","01_ages_7":"7","01_ages_8":"8","01_ages_9":"9","01_ages_10":"10","01_ages_11":"11","01_ages_12":"12","01_ages_13":"13","01_ages_14":"14","01_ages_15":"15","01_ages_16":"16","01_ages_17":"17","01_ages_18":"18","02":"Yes","02_ages_1":"1","02_ages_2":"2","02_ages_3":"3","02_ages_4":"4","02_ages_5":"5","02_ages_6":"6","02_ages_7":"7","02_ages_8":"8","02_ages_9":"9","02_ages_10":"10","02_ages_11":"11","02_ages_12":"12","02_ages_13":"13","02_ages_14":"14","02_ages_15":"15","02_ages_16":"16","02_ages_17":"17","02_ages_18":"18","03":"Yes","03_ages_1":"1","03_ages_2":"2","03_ages_3":"3","03_ages_4":"4","03_ages_5":"5","03_ages_6":"6","03_ages_7":"7","03_ages_8":"8","03_ages_9":"9","03_ages_10":"10","03_ages_11":"11","03_ages_12":"12","03_ages_13":"13","03_ages_14":"14","03_ages_15":"15","03_ages_16":"16","03_ages_17":"17","03_ages_18":"18","04":"Yes","04_ages_1":"1","04_ages_2":"2","04_ages_3":"3","04_ages_4":"4","04_ages_5":"5","04_ages_6":"6","04_ages_7":"7","04_ages_8":"8","04_ages_9":"9","04_ages_10":"10","04_ages_11":"11","04_ages_12":"12","04_ages_13":"13","04_ages_14":"14","04_ages_15":"15","04_ages_16":"16","04_ages_17":"17","04_ages_18":"18"},"rt":75847.50000014901,"item_order":[0,1,2,3],"radio_events":[5775.8300001733005,27009.794999845326,43938.420000020415,59999.78000018746],"checkbox_events":[7195.0449999421835,7951.239999849349,8462.73500006646,8949.169999919832,9476.98500007391,11547.884999774396,12594.82999984175,13041.474999859929,13706.400000024587,18536.410000175238,20296.904999762774,20727.43499977514,21603.674999903888,22892.48500019312,23397.985000163317,24184.42999990657,24923.814999870956,25539.749999996275,32486.525000073016,32965.83499992266,33444.19000018388,33906.40500001609,34345.12000018731,34920.64999975264,35870.85000006482,36373.844999819994,36982.72500000894,37478.370000142604,38021.840000059456,38598.24500000104,39491.04500003159,39985.675000119954,40635.300000198185,41300.17000017688,41868.66999976337,42445.2450000681,45649.77000001818,46186.16499984637,46705.37499990314,47241.289999801666,48077.17500021681,48807.63499997556,49432.554999832064,50171.37499991804,51039.644999895245,52906.15000016987,53547.55999986082,54156.57499991357,54806.16499995813,55404.7300000675,56136.30999997258,56769.85999988392,57435.71999995038,58311.93500012159,62045.08000006899,63035.445000045,63618.830000050366,64171.504999976605,64715.33499984071,65256.61000004038,65867.55499988794,66459.720000159,67027.78499992564,68123.60000004992,68757.56500009447,69365.27499975637,70055.19000021741,70744.10999985412,71402.41499990225,72043.6149998568,73269.27499985322,74478.01000019535],"key_events":[],"mouse_events":[5775.8300001733005,7195.0449999421835,7951.239999849349,8462.73500006646,8949.169999919832,9476.98500007391,11547.884999774396,12594.82999984175,13041.474999859929,13706.400000024587,18536.410000175238,19842.999999877065,20296.904999762774,20727.43499977514,21603.674999903888,22091.345000080764,22892.48500019312,23397.985000163317,24184.42999990657,24923.814999870956,25539.749999996275,27009.794999845326,32486.525000073016,32965.83499992266,33444.19000018388,33906.40500001609,34345.12000018731,34920.64999975264,35870.85000006482,36373.844999819994,36982.72500000894,37478.370000142604,38021.840000059456,38598.24500000104,39491.04500003159,39985.675000119954,40635.300000198185,41300.17000017688,41868.66999976337,42445.2450000681,43272.67999993637,43938.420000020415,45649.77000001818,46186.16499984637,46705.37499990314,47241.289999801666,48077.17500021681,48807.63499997556,49432.554999832064,50171.37499991804,51039.644999895245,52199.99000011012,52906.15000016987,53547.55999986082,54156.57499991357,54806.16499995813,55404.7300000675,56136.30999997258,56769.85999988392,57435.71999995038,58311.93500012159,59999.78000018746,62045.08000006899,63035.445000045,63618.830000050366,64171.504999976605,64715.33499984071,65256.61000004038,65867.55499988794,66459.720000159,67027.78499992564,68123.60000004992,68757.56500009447,69365.27499975637,70055.19000021741,70744.10999985412,71402.41499990225,72043.6149998568,73269.27499985322,73715.23500001058,74478.01000019535,75841.9349999167],"honeypot":0,"survey":"mace","page":9,"trial_type":"survey-mace","trial_index":17,"time_elapsed":697685,"internal_node_id":"0.0-17.0","task_version":"prescreen-v0.3","browser_interactions":0},{"responses":{"01":"No","02":"No","03":"Yes","03_ages_10":"10","03_ages_11":"11","03_ages_12":"12","03_ages_13":"13","03_ages_14":"14","03_ages_15":"15","03_ages_16":"16","03_ages_17":"17","03_ages_18":"18","04":"Yes","04_ages_9":"9","04_ages_10":"10","04_ages_11":"11","04_ages_12":"12","05":"No","06":"Yes","06_ages_17":"17","07":"Yes","07_ages_1":"1","07_ages_2":"2","07_ages_3":"3","07_ages_4":"4","07_ages_5":"5","07_ages_6":"6","07_ages_7":"7","07_ages_8":"8","07_ages_9":"9","07_ages_10":"10","07_ages_11":"11","07_ages_12":"12","07_ages_13":"13","07_ages_14":"14","07_ages_15":"15","07_ages_16":"16","07_ages_17":"17","07_ages_18":"18","08":"No"},"rt":64296.73499986529,"item_order":[0,1,2,3,4,5,6,7],"radio_events":[9117.789999581873,11699.174999725074,12575.089999940246,27452.59499968961,36941.3999998942,40537.43499983102,48786.41999978572,62550.65999971703],"checkbox_events":[16130.200000014156,17201.924999710172,18289.91499962285,18679.354999680072,19165.979999583215,20025.63999965787,20870.819999836385,21373.364999890327,22282.35499979928,28978.44999982044,29513.694999739528,30382.83499982208,30796.755000017583,41989.635000005364,51034.604999702424,52195.20499976352,52673.704999964684,53615.400000009686,54045.56999960914,54524.509999901056,55173.159999772906,55676.629999652505,56958.829999901354,57486.144999973476,57965.10999975726,58596.09999973327,59117.579999845475,59637.17999961227,60140.68499999121,60619.464999996126,61195.7499999553,61901.57500002533],"key_events":[],"mouse_events":[9117.789999581873,11699.174999725074,12575.089999940246,16130.200000014156,16600.894999690354,17201.924999710172,17639.994999859482,18289.91499962285,18679.354999680072,19165.979999583215,20025.63999965787,20439.86999988556,20870.819999836385,21373.364999890327,22282.35499979928,27452.59499968961,28978.44999982044,29513.694999739528,29935.9749997966,30382.83499982208,30796.755000017583,36941.3999998942,40537.43499983102,41989.635000005364,48786.41999978572,51034.604999702424,51513.01999995485,52195.20499976352,52673.704999964684,53615.400000009686,54045.56999960914,54524.509999901056,55173.159999772906,55676.629999652505,56358.239999972284,56958.829999901354,57486.144999973476,57965.10999975726,58596.09999973327,59117.579999845475,59637.17999961227,60140.68499999121,60619.464999996126,61195.7499999553,61901.57500002533,62550.65999971703,64288.244999945164],"honeypot":0,"survey":"mace","page":10,"trial_type":"survey-mace","trial_index":18,"time_elapsed":761990,"internal_node_id":"0.0-18.0","task_version":"prescreen-v0.3","browser_interactions":0,"instructed":0},{"rt":4044.2050001583993,"trial_type":"mental-health-alert","trial_index":19,"time_elapsed":766037,"internal_node_id":"0.0-19.0","task_version":"prescreen-v0.3","interactions":"[]"}]