[{"view_history":[{"page_index":0,"viewing_time":10507},{"page_index":1,"viewing_time":3613},{"page_index":2,"viewing_time":3102},{"page_index":3,"viewing_time":1003}],"rt":18225,"trial_type":"instructions","trial_index":0,"time_elapsed":18228,"internal_node_id":"0.0-0.0","task_version":"prescreen-v0.3"},{"rt":12790,"responses":{"age":"30","gender-categorical":"Female","gender-free-response":"","ethnicity":"Not Hispanic or Latino","race":["White"],"education":"Bachelor degree"},"trial_type":"survey-demo","trial_index":1,"time_elapsed":31025,"internal_node_id":"0.0-1.0","task_version":"prescreen-v0.3"},{"responses":{"Q17":"1","Q09":"2","Q06":"1","Q12":"1","Q03":"1","Q07":"0","Q18":"1","Q11":"0","Q20":"2","Q04":"2","Q19":"0","Q05":"1","Q16":"2","Q10":"0","Q14":"3","Q01":"1","Q02":"0","Q13":"2","Q08":"0","Q15":"2","Q21":"3"},"rt":83590,"item_order":[16,8,5,11,2,6,17,10,19,3,18,4,15,9,13,0,1,12,7,14,20],"radio_events":[4235,6045,9799,12522,15519,20250,25149,29717,32088,38320,43509,49485,55162,57927,62832,64948,68014,69786,72645,74563,79627,82513],"key_events":[],"mouse_events":[4235,6045,9799,12522,14802,15519,20250,24198,25149,29174,29717,31636,32088,38320,43509,49485,54368,55162,57927,62832,64948,68014,69786,72645,74563,79627,82513,83589],"straightlining":0.3333333333333333,"zigzagging":0.5,"honeypot":0,"survey":"sns","trial_type":"survey-template","trial_index":2,"time_elapsed":114620,"internal_node_id":"0.0-2.0","task_version":"prescreen-v0.3","browser_interactions":0,"infrequency":0},{"responses":{"Q11":"1","Q05":"3","Q02":"3","Q09":"2","Q12":"0","Q13":"0","Q07":"3","Q08":"2","Q04":"3","Q10":"1","Q03":"3","Q01":"3","Q06":"2"},"rt":53952,"item_order":[10,4,1,8,11,12,6,7,3,9,2,0,5],"radio_events":[5883,10091,12240,17472,20837,23986,26298,37779,42546,44214,47254,48534,52268],"key_events":[],"mouse_events":[5883,10091,12240,17472,20837,23986,26298,37779,41033,42546,43572,44214,47254,48534,52268,53952],"straightlining":0.46153846153846156,"zigzagging":0.4166666666666667,"honeypot":0,"survey":"bisbas","trial_type":"survey-template","trial_index":3,"time_elapsed":168576,"internal_node_id":"0.0-3.0","task_version":"prescreen-v0.3","browser_interactions":0,"infrequency":0},{"responses":{"Q01":"3","Q02":"3","Q03":"3"},"rt":14497,"radio_events":[5910,9107,13252],"key_events":[],"mouse_events":[5910,9107,13252,14496],"survey":"map","page":1,"trial_type":"survey-map","trial_index":4,"time_elapsed":183076,"internal_node_id":"0.0-4.0","task_version":"prescreen-v0.3","browser_interactions":0},{"responses":{"Q04":"2","Q05":"2","Q06":"3"},"rt":17467,"radio_events":[7450,13361,16891],"key_events":[],"mouse_events":[7450,12399,13361,16891,17467],"survey":"map","page":2,"trial_type":"survey-map","trial_index":5,"time_elapsed":200545,"internal_node_id":"0.0-5.0","task_version":"prescreen-v0.3","browser_interactions":0},{"responses":{"Q07":"1","Q08":"4","Q09":"2"},"rt":14912,"radio_events":[4879,4891,8426,10159,14215,14224],"key_events":[],"mouse_events":[4879,4891,7326,8426,9529,10159,14215,14224,14912],"survey":"map","page":3,"trial_type":"survey-map","trial_index":6,"time_elapsed":215459,"internal_node_id":"0.0-6.0","task_version":"prescreen-v0.3","browser_interactions":0},{"responses":{"Q10":"2","Q11":"3","Q12":"0","Q13":"2","Q16":"0","Q14":"1","Q15":"2"},"rt":37919,"radio_events":[4497,7818,14341,23465,27904,33304,36552],"key_events":[],"mouse_events":[4497,7818,14341,23465,27137,27904,33304,36552,37919],"survey":"map","page":4,"trial_type":"survey-map","trial_index":7,"time_elapsed":253382,"internal_node_id":"0.0-7.0","task_version":"prescreen-v0.3","browser_interactions":0,"infrequency":0},{"view_history":[{"page_index":0,"viewing_time":2708},{"page_index":1,"viewing_time":3490}],"rt":6198,"trial_type":"instructions","trial_index":8,"time_elapsed":259581,"internal_node_id":"0.0-8.0","task_version":"prescreen-v0.3"},{"responses":{"01":"No","02":"Yes","02_ages_6":"6","02_ages_7":"7","02_ages_8":"8","02_ages_9":"9","02_ages_10":"10","02_ages_11":"11","02_ages_12":"12","02_ages_13":"13","02_ages_14":"14","02_ages_15":"15","02_ages_16":"16","02_ages_17":"17","02_ages_18":"18","03":"Yes","03_ages_6":"6","03_ages_7":"7","03_ages_8":"8","03_ages_9":"9","03_ages_10":"10","03_ages_11":"11","03_ages_12":"12","03_ages_13":"13","04":"No","05":"No","06":"No"},"rt":51288,"item_order":[0,1,2,3,4,5],"radio_events":[13228,13240,29172,38973,40225,44444,50387],"checkbox_events":[18878,20032,20733,21360,21966,22550,23165,23819,24307,24905,25415,25812,26573,31666,32239,32827,33471,33982,34518,35272,35845],"key_events":[],"mouse_events":[1,13228,13240,18878,20032,20733,21360,21966,22550,23165,23819,24307,24905,25415,25812,26252,26573,29172,31666,32239,32827,33471,33982,34518,35272,35845,38973,40225,44444,50387,51288],"honeypot":0,"survey":"mace","page":1,"trial_type":"survey-mace","trial_index":9,"time_elapsed":310877,"internal_node_id":"0.0-9.0","task_version":"prescreen-v0.3","browser_interactions":0},{"responses":{"01":"No","02":"No","03":"Yes","03_ages_3":"3","03_ages_4":"4","03_ages_5":"5","03_ages_6":"6","03_ages_7":"7","03_ages_9":"9","03_ages_10":"10","04":"No","05":"No","06":"Yes","06_ages_14":"14","06_ages_15":"15","06_ages_16":"16","06_ages_17":"17","06_ages_18":"18","07":"Yes","07_ages_18":"18","08":"No"},"rt":56638,"item_order":[0,1,2,3,4,5,6,7],"radio_events":[2792,5674,7471,17693,21563,24093,26503,28737,42458,49471],"checkbox_events":[10457,11164,11590,11601,12139,12753,13351,13915,15157,30472,30985,31388,31780,32232,46255,46713,47412],"key_events":[],"mouse_events":[2792,5674,7471,10457,11164,11590,11601,12139,12753,13351,13915,14449,15157,17693,21563,24093,26503,28737,30472,30985,31388,31780,32232,41510,42022,42458,46255,46713,47412,49043,49471,56638],"honeypot":0,"survey":"mace","page":2,"trial_type":"survey-mace","trial_index":10,"time_elapsed":367524,"internal_node_id":"0.0-10.0","task_version":"prescreen-v0.3","browser_interactions":0},{"responses":{"01":"No","02":"No","03":"No","04":"No"},"rt":9024,"item_order":[0,1,2,3],"radio_events":[3139,4901,4910,6890,8352],"checkbox_events":[],"key_events":[],"mouse_events":[3139,4901,4910,6890,8352,8694,9024],"honeypot":0,"survey":"mace","page":3,"trial_type":"survey-mace","trial_index":11,"time_elapsed":376553,"internal_node_id":"0.0-11.0","task_version":"prescreen-v0.3","browser_interactions":0},{"responses":{"01":"No","02":"No"},"rt":13030,"item_order":[0,1],"radio_events":[8533,10333],"checkbox_events":[],"key_events":[],"mouse_events":[8533,10333,13030],"honeypot":0,"survey":"mace","page":4,"trial_type":"survey-mace","trial_index":12,"time_elapsed":389586,"internal_node_id":"0.0-12.0","task_version":"prescreen-v0.3","browser_interactions":0},{"responses":{"01":"No","02":"No","03":"No","04":"Yes","04_ages_9":"9","04_ages_10":"10","04_ages_11":"11","04_ages_12":"12","04_ages_13":"13","04_ages_14":"14","04_ages_15":"15","04_ages_16":"16","04_ages_17":"17","04_ages_18":"18","05":"No"},"rt":50990,"item_order":[0,1,2,3,4],"radio_events":[6342,12314,18206,21765,25319,50343],"checkbox_events":[28972,37935,38322,40445,40842,41723,42078,42488,43087,43502],"key_events":[],"mouse_events":[6342,12314,17844,18206,21765,24856,25319,28972,37935,38322,40445,40842,41723,42078,42488,43087,43502,50343,50990],"honeypot":0,"survey":"mace","page":5,"trial_type":"survey-mace","trial_index":13,"time_elapsed":440582,"internal_node_id":"0.0-13.0","task_version":"prescreen-v0.3","browser_interactions":0},{"responses":{"01":"Yes","01_ages_5":"5","01_ages_6":"6","01_ages_7":"7","01_ages_8":"8","01_ages_9":"9","01_ages_10":"10","01_ages_11":"11","01_ages_12":"12","01_ages_13":"13","01_ages_14":"14","01_ages_15":"15","01_ages_16":"16","01_ages_17":"17","01_ages_18":"18","02":"Yes","02_ages_5":"5","02_ages_6":"6","02_ages_7":"7","02_ages_8":"8","02_ages_9":"9","02_ages_10":"10","02_ages_11":"11","02_ages_12":"12","02_ages_13":"13","02_ages_14":"14","02_ages_15":"15","02_ages_16":"16","02_ages_17":"17","02_ages_18":"18","03":"Yes","03_ages_10":"10","03_ages_11":"11","03_ages_12":"12","03_ages_13":"13","03_ages_14":"14","03_ages_15":"15","03_ages_16":"16","03_ages_17":"17","03_ages_18":"18","04":"Yes","04_ages_5":"5","04_ages_6":"6","04_ages_7":"7","04_ages_8":"8","04_ages_9":"9","04_ages_10":"10","04_ages_11":"11","04_ages_12":"12","04_ages_13":"13","04_ages_14":"14","04_ages_15":"15","04_ages_16":"16","04_ages_17":"17","04_ages_18":"18","05":"No"},"rt":57670,"item_order":[0,1,2,3,4],"radio_events":[6884,20638,33606,41464,55988],"checkbox_events":[9975,10516,10917,11770,12302,13113,13523,14644,15123,15687,16376,16845,17245,18138,21767,22644,23143,23544,24344,25143,25583,25962,26467,28033,28640,29247,30057,30579,35607,36125,36785,37228,37713,38096,38790,39449,39928,42792,43228,43702,44100,44467,45485,45494,46381,46747,47171,47749,48078,48481,49197,49531,50787],"key_events":[],"mouse_events":[6884,9975,10516,10917,11336,11770,12302,12753,13113,13523,14644,15123,15687,16376,16845,17245,18138,20638,21767,22644,23143,23544,24344,24687,25143,25583,25962,26467,27075,27691,28033,28640,29247,30057,30579,32748,33606,35607,36125,36785,37228,37713,38096,38790,39147,39449,39928,41464,42792,43228,43702,44100,44467,45156,45485,45494,46381,46747,47171,47749,48078,48481,49197,49531,49882,50286,50787,55988,57670],"honeypot":0,"survey":"mace","page":6,"trial_type":"survey-mace","trial_index":14,"time_elapsed":498259,"internal_node_id":"0.0-14.0","task_version":"prescreen-v0.3","browser_interactions":0},{"responses":{"01":"No","02":"No","03":"No","04":"No","05":"No","06":"No","07":"Yes","07_ages_15":"15","07_ages_16":"16","07_ages_17":"17","07_ages_18":"18"},"rt":38727,"item_order":[0,1,2,3,4,5,6],"radio_events":[2897,5156,9815,15087,15098,16711,18295,19912,28873],"checkbox_events":[30910,31506,31914,32869],"key_events":[],"mouse_events":[2897,5156,9815,15087,15098,16711,18295,19912,20504,28873,30910,31506,31914,32869,38727],"honeypot":0,"survey":"mace","page":7,"trial_type":"survey-mace","trial_index":15,"time_elapsed":536992,"internal_node_id":"0.0-15.0","task_version":"prescreen-v0.3","browser_interactions":0},{"responses":{"01":"Yes","01_ages_5":"5","01_ages_6":"6","01_ages_7":"7","01_ages_8":"8","01_ages_9":"9","01_ages_10":"10","01_ages_11":"11","01_ages_12":"12","01_ages_13":"13","01_ages_14":"14","01_ages_15":"15","01_ages_16":"16","01_ages_17":"17","01_ages_18":"18","02":"No","03":"Yes","03_ages_7":"7","03_ages_8":"8","03_ages_9":"9","03_ages_10":"10","03_ages_11":"11","03_ages_12":"12","03_ages_13":"13","03_ages_14":"14","03_ages_15":"15","03_ages_16":"16","03_ages_17":"17","03_ages_18":"18","04":"No"},"rt":52859,"item_order":[0,1,2,3],"radio_events":[8076,14010,20172,32775,35365,52350],"checkbox_events":[22044,22431,22835,23514,24271,24756,25158,25729,26139,26822,27168,27732,28311,29058,37909,38738,39198,40289,40718,41126,41550,42420,42779,43185,43981,44682,45503,46292,46741,47271,47895,48403,48960,49405],"key_events":[],"mouse_events":[8076,14010,20172,22044,22431,22835,23514,24271,24756,25158,25729,26139,26822,27168,27732,28311,28704,29058,32775,35365,37909,38226,38738,39198,40289,40718,41126,41550,42420,42779,43185,43981,44682,45503,45945,46292,46741,47271,47895,48403,48960,49405,52350,52859],"honeypot":0,"survey":"mace","page":8,"trial_type":"survey-mace","trial_index":16,"time_elapsed":589856,"internal_node_id":"0.0-16.0","task_version":"prescreen-v0.3","browser_interactions":0},{"responses":{"01":"Yes","01_ages_1":"1","01_ages_2":"2","01_ages_3":"3","01_ages_4":"4","01_ages_5":"5","01_ages_6":"6","01_ages_7":"7","01_ages_8":"8","01_ages_9":"9","01_ages_10":"10","01_ages_11":"11","01_ages_12":"12","01_ages_13":"13","01_ages_14":"14","01_ages_15":"15","01_ages_16":"16","01_ages_17":"17","01_ages_18":"18","02":"Yes","02_ages_5":"5","02_ages_6":"6","02_ages_7":"7","02_ages_8":"8","02_ages_9":"9","02_ages_10":"10","02_ages_11":"11","02_ages_12":"12","02_ages_13":"13","02_ages_14":"14","02_ages_15":"15","02_ages_16":"16","02_ages_17":"17","02_ages_18":"18","03":"No","04":"Yes","04_ages_1":"1","04_ages_2":"2","04_ages_3":"3","04_ages_4":"4","04_ages_5":"5","04_ages_6":"6","04_ages_7":"7","04_ages_8":"8","04_ages_9":"9","04_ages_10":"10","04_ages_11":"11","04_ages_12":"12","04_ages_13":"13","04_ages_14":"14","04_ages_15":"15","04_ages_16":"16","04_ages_17":"17","04_ages_18":"18"},"rt":60997,"item_order":[0,1,2,3],"radio_events":[3694,20734,42236,44257],"checkbox_events":[8824,9187,9593,9982,10490,10870,11572,11962,12660,13364,13834,14222,14628,15008,15825,16576,17238,17721,28224,28843,29589,30041,30471,30909,31342,31764,32587,33325,33986,34429,34912,35573,45440,45831,46538,46962,47385,48006,48398,48781,49135,49885,50550,50990,51403,51997,52367,52791,53220,54486],"key_events":[],"mouse_events":[3694,8824,9187,9593,9982,10490,10870,11572,11962,12660,13027,13364,13834,14222,14628,15008,15825,16270,16576,17238,17721,20734,28224,28843,29589,30041,30471,30909,31342,31764,32177,32587,32984,33325,33986,34429,34912,35573,42236,44257,45440,45831,46189,46538,46962,47385,48006,48398,48781,49135,49557,49885,50550,50990,51403,51997,52367,52791,53220,53655,53965,54486,60997],"honeypot":0,"survey":"mace","page":9,"trial_type":"survey-mace","trial_index":17,"time_elapsed":650859,"internal_node_id":"0.0-17.0","task_version":"prescreen-v0.3","browser_interactions":0},{"responses":{"01":"No","02":"No","03":"Yes","03_ages_10":"10","03_ages_11":"11","03_ages_12":"12","03_ages_13":"13","03_ages_14":"14","03_ages_15":"15","03_ages_16":"16","03_ages_17":"17","03_ages_18":"18","04":"No","05":"No","06":"Yes","06_ages_17":"17","07":"Yes","07_ages_10":"10","07_ages_11":"11","07_ages_12":"12","07_ages_13":"13","07_ages_14":"14","07_ages_15":"15","07_ages_16":"16","07_ages_17":"17","07_ages_18":"18","08":"No"},"rt":46340,"item_order":[0,1,2,3,4,5,6,7],"radio_events":[3492,4373,6933,16096,19009,23313,25639,32676,35102],"checkbox_events":[8085,8952,9850,10362,10951,11347,11927,12347,12739,20596,35964,36934,37627,38071,38506,38957,39510,40215,40771],"key_events":[],"mouse_events":[3492,4373,5789,6238,6632,6933,8085,8952,9371,9850,10362,10951,11347,11927,12347,12739,16096,19009,20596,23313,25639,32676,34660,35102,35964,36515,36934,37353,37627,38071,38506,38957,39510,40215,40771,46340],"honeypot":0,"survey":"mace","page":10,"trial_type":"survey-mace","trial_index":18,"time_elapsed":697208,"internal_node_id":"0.0-18.0","task_version":"prescreen-v0.3","browser_interactions":0,"instructed":0},{"rt":5354,"trial_type":"mental-health-alert","trial_index":19,"time_elapsed":702566,"internal_node_id":"0.0-19.0","task_version":"prescreen-v0.3","interactions":"[{\"event\":\"focus\",\"trial\":0,\"time\":1}]"}]