[{"view_history":[{"page_index":0,"viewing_time":3058.0999999046326},{"page_index":1,"viewing_time":1869.5},{"page_index":2,"viewing_time":1595.9000000953674},{"page_index":3,"viewing_time":1720.2000002861023}],"rt":8244.599999904633,"trial_type":"instructions","trial_index":0,"time_elapsed":8267,"internal_node_id":"0.0-0.0","task_version":"prescreen-v0.3"},{"rt":17483.900000095367,"responses":{"age":"59","gender-categorical":"Male","gender-free-response":"","ethnicity":"Not Hispanic or Latino","race":["White"],"education":"Master degree or higher","siblings":"3"},"trial_type":"survey-demo","trial_index":1,"time_elapsed":25757,"internal_node_id":"0.0-1.0","task_version":"prescreen-v0.3"},{"responses":{"Q16":"0","Q10":"0","Q17":"1","Q01":"1","Q09":"1","Q13":"1","Q15":"1","Q20":"1","Q05":"2","Q14":"1","Q18":"1","Q19":"1","Q06":"2","Q07":"2","Q12":"1","Q02":"1","Q21":"3","Q11":"1","Q08":"1","Q04":"2","Q03":"1"},"rt":103295.40000009537,"item_order":[15,9,16,0,8,12,14,19,4,13,17,18,5,6,11,1,20,10,7,3,2],"radio_events":[7463.599999904633,14105.300000190735,15737.200000286102,19571.200000286102,22003.300000190735,24417.300000190735,26309.200000286102,29855.300000190735,35087.09999990463,46515.09999990463,53829.09999990463,56723,59403,65785.09999990463,70887,78896.90000009537,81926.80000019073,85906.7000002861,89356.80000019073,92017,97510.7000002861,102372.7000002861],"key_events":[],"mouse_events":[7463.599999904633,14105.300000190735,15737.200000286102,19571.200000286102,22003.300000190735,24417.300000190735,26309.200000286102,29855.300000190735,35087.09999990463,46515.09999990463,53829.09999990463,56723,59403,65785.09999990463,70887,78896.90000009537,81926.80000019073,85906.7000002861,89356.80000019073,92017,97510.7000002861,102372.7000002861,103292.90000009537],"straightlining":0.6666666666666666,"zigzagging":0.35,"honeypot":0,"survey":"sns","trial_type":"survey-template","trial_index":2,"time_elapsed":129059,"internal_node_id":"0.0-2.0","task_version":"prescreen-v0.3","browser_interactions":0,"infrequency":0},{"responses":{"Q06":"2","Q05":"2","Q08":"2","Q01":"2","Q09":"2","Q10":"2","Q13":"0","Q11":"2","Q12":"1","Q03":"2","Q07":"2","Q02":"2","Q04":"2"},"rt":89001.80000019073,"item_order":[5,4,7,0,8,9,12,10,11,2,6,1,3],"radio_events":[8566.60000038147,10576.700000286102,13912.300000190735,19794.5,22428.300000190735,24204.200000286102,31534.400000095367,68862.2000002861,72354.2000002861,76892.10000038147,78879.80000019073,81346.10000038147,83154.10000038147,88144.2000002861],"key_events":[],"mouse_events":[8566.60000038147,10576.700000286102,13912.300000190735,19794.5,22428.300000190735,24204.200000286102,31534.400000095367,68862.2000002861,72354.2000002861,76892.10000038147,78879.80000019073,81346.10000038147,83154.10000038147,88144.2000002861,89000.30000019073],"straightlining":0.8461538461538461,"zigzagging":0.16666666666666666,"honeypot":0,"survey":"bisbas","trial_type":"survey-template","trial_index":3,"time_elapsed":218064,"internal_node_id":"0.0-3.0","task_version":"prescreen-v0.3","browser_interactions":0,"infrequency":0},{"responses":{"Q01":"3","Q02":"3","Q03":"3"},"rt":17124.900000095367,"radio_events":[5232.099999904633,8492.099999904633,16258.300000190735],"key_events":[],"mouse_events":[5232.099999904633,8492.099999904633,16258.300000190735,17124.199999809265],"survey":"map","page":1,"trial_type":"survey-map","trial_index":4,"time_elapsed":235193,"internal_node_id":"0.0-4.0","task_version":"prescreen-v0.3","browser_interactions":0},{"responses":{"Q04":"3","Q05":"3","Q06":"3"},"rt":16432.900000095367,"radio_events":[11158.300000190735,12076.400000095367,13300.400000095367],"key_events":[],"mouse_events":[11158.300000190735,12076.400000095367,13300.400000095367,16432.300000190735],"survey":"map","page":2,"trial_type":"survey-map","trial_index":5,"time_elapsed":251629,"internal_node_id":"0.0-5.0","task_version":"prescreen-v0.3","browser_interactions":0},{"responses":{"Q07":"3","Q08":"3","Q09":"2"},"rt":12489.699999809265,"radio_events":[9744.799999713898,10753,11549.299999713898],"key_events":[],"mouse_events":[9744.799999713898,10753,11549.299999713898,12489],"survey":"map","page":3,"trial_type":"survey-map","trial_index":6,"time_elapsed":264120,"internal_node_id":"0.0-6.0","task_version":"prescreen-v0.3","browser_interactions":0},{"responses":{"Q10":"2","Q11":"2","Q12":"0","Q13":"0","Q16":"0","Q14":"3","Q15":"3"},"rt":39109.90000009537,"radio_events":[4898.900000095367,7466.800000190735,13816.599999904633,22888.700000286102,29074.700000286102,35824.59999990463,38316.59999990463],"key_events":[],"mouse_events":[4898.900000095367,7466.800000190735,13816.599999904633,22888.700000286102,29074.700000286102,35824.59999990463,38316.59999990463,39108.7000002861],"survey":"map","page":4,"trial_type":"survey-map","trial_index":7,"time_elapsed":303233,"internal_node_id":"0.0-7.0","task_version":"prescreen-v0.3","browser_interactions":0,"infrequency":0},{"view_history":[{"page_index":0,"viewing_time":2026.5},{"page_index":1,"viewing_time":5508}],"rt":7535.400000095367,"trial_type":"instructions","trial_index":8,"time_elapsed":310770,"internal_node_id":"0.0-8.0","task_version":"prescreen-v0.3"},{"responses":{"01":"No","02":"No","03":"No","04":"No","05":"No","06":"No"},"rt":35435.59999990463,"item_order":[0,1,2,3,4,5],"radio_events":[9592.300000190735,22484.200000286102,27058.300000190735,30078.099999904633,31106,32883.90000009537,34903.90000009537],"checkbox_events":[],"key_events":[],"mouse_events":[0.09999990463256836,9592.300000190735,22484.200000286102,27058.300000190735,30078.099999904633,31106,32883.90000009537,34903.90000009537,35432.09999990463],"honeypot":0,"survey":"mace","page":1,"trial_type":"survey-mace","trial_index":9,"time_elapsed":346215,"internal_node_id":"0.0-9.0","task_version":"prescreen-v0.3","browser_interactions":0},{"responses":{"01":"No","02":"No","03":"No","04":"No","05":"No","06":"No","07":"No","08":"No"},"rt":14083.699999809265,"item_order":[0,1,2,3,4,5,6,7],"radio_events":[5313.5,5986.299999713898,6697.599999904633,7965.599999904633,10035.599999904633,11091.599999904633,12155.5,13475.599999904633],"checkbox_events":[],"key_events":[],"mouse_events":[5313.5,5986.299999713898,6697.599999904633,7965.599999904633,10035.599999904633,11091.599999904633,12155.5,13475.599999904633,14079.199999809265],"honeypot":0,"survey":"mace","page":2,"trial_type":"survey-mace","trial_index":10,"time_elapsed":360303,"internal_node_id":"0.0-10.0","task_version":"prescreen-v0.3","browser_interactions":0},{"responses":{"01":"No","02":"No","03":"No","04":"No"},"rt":12734.200000286102,"item_order":[0,1,2,3],"radio_events":[7953.800000190735,10332.599999904633,11019.700000286102,11523.900000095367],"checkbox_events":[],"key_events":[],"mouse_events":[6929.5,7953.800000190735,10332.599999904633,11019.700000286102,11523.900000095367,12731.700000286102],"honeypot":0,"survey":"mace","page":3,"trial_type":"survey-mace","trial_index":11,"time_elapsed":373040,"internal_node_id":"0.0-11.0","task_version":"prescreen-v0.3","browser_interactions":0},{"responses":{"01":"No","02":"No"},"rt":4958.199999809265,"item_order":[0,1],"radio_events":[2364.9000000953674,3624.9000000953674],"checkbox_events":[],"key_events":[],"mouse_events":[2364.9000000953674,3624.9000000953674,4956.900000095367],"honeypot":0,"survey":"mace","page":4,"trial_type":"survey-mace","trial_index":12,"time_elapsed":378001,"internal_node_id":"0.0-12.0","task_version":"prescreen-v0.3","browser_interactions":0},{"responses":{"01":"No","02":"No","03":"No","04":"No","05":"No"},"rt":16114.699999809265,"item_order":[0,1,2,3,4],"radio_events":[12107.699999809265,12543.800000190735,13336.099999904633,14187.699999809265,15039.699999809265],"checkbox_events":[],"key_events":[],"mouse_events":[12107.699999809265,12543.800000190735,13336.099999904633,14187.699999809265,15039.699999809265,16111.699999809265],"honeypot":0,"survey":"mace","page":5,"trial_type":"survey-mace","trial_index":13,"time_elapsed":394119,"internal_node_id":"0.0-13.0","task_version":"prescreen-v0.3","browser_interactions":0},{"responses":{"01":"No","02":"No","03":"No","04":"No","05":"No"},"rt":11020.199999809265,"item_order":[0,1,2,3,4],"radio_events":[7729.099999904633,8213,8892.900000095367,9541.199999809265,10205.199999809265],"checkbox_events":[],"key_events":[],"mouse_events":[7729.099999904633,8213,8892.900000095367,9541.199999809265,10205.199999809265,11017.199999809265],"honeypot":0,"survey":"mace","page":6,"trial_type":"survey-mace","trial_index":14,"time_elapsed":405143,"internal_node_id":"0.0-14.0","task_version":"prescreen-v0.3","browser_interactions":0},{"responses":{"01":"No","02":"No","03":"No","04":"No","05":"No","06":"No","07":"No"},"rt":13872.799999713898,"item_order":[0,1,2,3,4,5,6],"radio_events":[7106.599999904633,7550.699999809265,7998.699999809265,8440.799999713898,9156.400000095367,9908.299999713898,11948.699999809265],"checkbox_events":[],"key_events":[],"mouse_events":[7106.599999904633,7550.699999809265,7998.699999809265,8440.799999713898,9156.400000095367,9908.299999713898,11948.699999809265,13868.799999713898],"honeypot":0,"survey":"mace","page":7,"trial_type":"survey-mace","trial_index":15,"time_elapsed":419020,"internal_node_id":"0.0-15.0","task_version":"prescreen-v0.3","browser_interactions":0},{"responses":{"01":"No","02":"No","03":"No","04":"No"},"rt":24730.5,"item_order":[0,1,2,3],"radio_events":[9388.400000095367,13344.200000286102,15730.300000190735,18970.300000190735,20500.200000286102,23712.10000038147],"checkbox_events":[],"key_events":[],"mouse_events":[9388.400000095367,13344.200000286102,15730.300000190735,18970.300000190735,20500.200000286102,23712.10000038147,24728],"honeypot":0,"survey":"mace","page":8,"trial_type":"survey-mace","trial_index":16,"time_elapsed":443754,"internal_node_id":"0.0-16.0","task_version":"prescreen-v0.3","browser_interactions":0},{"responses":{"01":"Yes","01_ages_1":"1","01_ages_2":"2","01_ages_3":"3","01_ages_4":"4","01_ages_5":"5","01_ages_6":"6","01_ages_7":"7","01_ages_8":"8","01_ages_9":"9","01_ages_10":"10","01_ages_11":"11","01_ages_12":"12","01_ages_13":"13","01_ages_14":"14","01_ages_15":"15","01_ages_16":"16","01_ages_17":"17","01_ages_18":"18","02":"Yes","02_ages_1":"1","02_ages_2":"2","02_ages_3":"3","02_ages_4":"4","02_ages_5":"5","02_ages_6":"6","02_ages_7":"7","02_ages_8":"8","02_ages_9":"9","02_ages_10":"10","02_ages_11":"11","02_ages_12":"12","02_ages_13":"13","02_ages_14":"14","02_ages_15":"15","02_ages_16":"16","02_ages_17":"17","02_ages_18":"18","03":"Yes","03_ages_1":"1","03_ages_2":"2","03_ages_3":"3","03_ages_4":"4","03_ages_5":"5","03_ages_6":"6","03_ages_7":"7","03_ages_8":"8","03_ages_9":"9","03_ages_10":"10","03_ages_11":"11","03_ages_12":"12","03_ages_13":"13","03_ages_14":"14","03_ages_15":"15","03_ages_16":"16","03_ages_17":"17","03_ages_18":"18","04":"Yes","04_ages_1":"1","04_ages_2":"2","04_ages_3":"3","04_ages_4":"4","04_ages_5":"5","04_ages_6":"6","04_ages_7":"7","04_ages_8":"8","04_ages_9":"9","04_ages_10":"10","04_ages_11":"11","04_ages_12":"12","04_ages_13":"13","04_ages_14":"14","04_ages_15":"15","04_ages_16":"16","04_ages_17":"17","04_ages_18":"18"},"rt":74008.89999961853,"item_order":[0,1,2,3],"radio_events":[5932.39999961853,12142.39999961853,43940.199999809265,60962.09999990463],"checkbox_events":[16448.699999809265,16880.5,17300.699999809265,18216,18900.199999809265,19348.5,19812.5,20811.099999904633,21270.5,21650,22438.39999961853,23090.599999904633,23502.39999961853,23926.299999713898,24354.299999713898,24818.39999961853,25674.299999713898,26142.39999961853,29760.299999713898,30700.5,31348.699999809265,32056.099999904633,32684.199999809265,33076.199999809265,33480.09999990463,33890.39999961853,34310.39999961853,35006.39999961853,35378.39999961853,35778.09999990463,36186.199999809265,37006.199999809265,37906.199999809265,38330.2999997139,39190.2999997139,40020.199999809265,45296.2999997139,45848.39999961853,46280.199999809265,46706.199999809265,47282.199999809265,48022.09999990463,48714,49426.199999809265,50126.5,50578.199999809265,50978.39999961853,51626.199999809265,52446.09999990463,53900.09999990463,54352.199999809265,54924.09999990463,55515.89999961853,56256.199999809265,62674.199999809265,63138.09999990463,63558.09999990463,64070.09999990463,64518.09999990463,65002.09999990463,65469.89999961853,65908.89999961853,66976.09999990463,67383.89999961853,68048.09999990463,68512.2999997139,69272.19999980927,69892,70660,71556,72462.09999990463,72930.19999980927],"key_events":[],"mouse_events":[5932.39999961853,12142.39999961853,16448.699999809265,16880.5,17300.699999809265,18216,18900.199999809265,19348.5,19812.5,20216.299999713898,20811.099999904633,21270.5,21650,22438.39999961853,23090.599999904633,23502.39999961853,23926.299999713898,24354.299999713898,24818.39999961853,25674.299999713898,26142.39999961853,29760.299999713898,30700.5,31348.699999809265,32056.099999904633,32684.199999809265,33076.199999809265,33480.09999990463,33890.39999961853,34310.39999961853,35006.39999961853,35378.39999961853,35778.09999990463,36186.199999809265,36587,37006.199999809265,37410.199999809265,37906.199999809265,38330.2999997139,39190.2999997139,40020.199999809265,43940.199999809265,45296.2999997139,45848.39999961853,46280.199999809265,46706.199999809265,47282.199999809265,48022.09999990463,48714,49426.199999809265,50126.5,50578.199999809265,50978.39999961853,51626.199999809265,52446.09999990463,52852.2999997139,53900.09999990463,54352.199999809265,54924.09999990463,55515.89999961853,56256.199999809265,60962.09999990463,62674.199999809265,63138.09999990463,63558.09999990463,64070.09999990463,64518.09999990463,65002.09999990463,65469.89999961853,65908.89999961853,66976.09999990463,67383.89999961853,68048.09999990463,68512.2999997139,69272.19999980927,69892,70660,71556,72462.09999990463,72930.19999980927,74006.39999961853],"honeypot":0,"survey":"mace","page":9,"trial_type":"survey-mace","trial_index":17,"time_elapsed":517766,"internal_node_id":"0.0-17.0","task_version":"prescreen-v0.3","browser_interactions":0},{"responses":{"01":"No","02":"No","03":"No","04":"No","05":"No","06":"Yes","06_ages_17":"17","07":"Yes","07_ages_1":"1","07_ages_2":"2","07_ages_3":"3","07_ages_4":"4","07_ages_5":"5","07_ages_6":"6","07_ages_7":"7","07_ages_8":"8","07_ages_9":"9","07_ages_10":"10","07_ages_11":"11","07_ages_12":"12","07_ages_13":"13","07_ages_14":"14","07_ages_15":"15","07_ages_16":"16","07_ages_17":"17","07_ages_18":"18","08":"Yes","08_ages_1":"1","08_ages_2":"2","08_ages_3":"3","08_ages_4":"4","08_ages_5":"5","08_ages_6":"6","08_ages_7":"7","08_ages_8":"8","08_ages_9":"9","08_ages_10":"10","08_ages_11":"11","08_ages_12":"12","08_ages_13":"13","08_ages_14":"14","08_ages_15":"15","08_ages_16":"16","08_ages_17":"17","08_ages_18":"18"},"rt":68787.40000009537,"item_order":[0,1,2,3,4,5,6,7],"radio_events":[4842.900000095367,5934.699999809265,7254.900000095367,8438.900000095367,10082.800000190735,13221.099999904633,40388.59999990463,55686.40000009537],"checkbox_events":[14912.900000095367,42024.59999990463,43190.59999990463,44030.5,44542.59999990463,44974.300000190735,45474.800000190735,45898.5,46342.800000190735,46774.5,47250.40000009537,47734.59999990463,48238.59999990463,48646.40000009537,49048.5,49480.5,50232.5,51032.5,51704.5,57674.5,58514.40000009537,59066.5,59526.5,59914.40000009537,60334.199999809265,60766.40000009537,61138.5,62236.40000009537,63080.300000190735,63464.90000009537,63868.40000009537,64552.40000009537,65612.40000009537,66312.40000009537,66748.40000009537,67448.40000009537,67924.5],"key_events":[],"mouse_events":[4842.900000095367,5934.699999809265,7254.900000095367,8438.900000095367,10082.800000190735,13221.099999904633,14912.900000095367,40388.59999990463,42024.59999990463,43190.59999990463,44030.5,44542.59999990463,44974.300000190735,45474.800000190735,45898.5,46342.800000190735,46774.5,47250.40000009537,47734.59999990463,48238.59999990463,48646.40000009537,49048.5,49480.5,50232.5,51032.5,51704.5,55686.40000009537,57674.5,58514.40000009537,59066.5,59526.5,59914.40000009537,60334.199999809265,60766.40000009537,61138.5,61494.300000190735,62236.40000009537,63080.300000190735,63464.90000009537,63868.40000009537,64552.40000009537,65612.40000009537,66312.40000009537,66748.40000009537,67448.40000009537,67924.5,68782.69999980927],"honeypot":0,"survey":"mace","page":10,"trial_type":"survey-mace","trial_index":18,"time_elapsed":586558,"internal_node_id":"0.0-18.0","task_version":"prescreen-v0.3","browser_interactions":0,"instructed":0},{"rt":4135.60000038147,"trial_type":"mental-health-alert","trial_index":19,"time_elapsed":590695,"internal_node_id":"0.0-19.0","task_version":"prescreen-v0.3","interactions":"[]"}]