[{"view_history":[{"page_index":0,"viewing_time":3136},{"page_index":1,"viewing_time":3956.5},{"page_index":2,"viewing_time":3133.7999999523163},{"page_index":3,"viewing_time":1338.5}],"rt":11565.700000047684,"trial_type":"instructions","trial_index":0,"time_elapsed":11569,"internal_node_id":"0.0-0.0","task_version":"prescreen-v0.3"},{"rt":21117.299999952316,"responses":{"age":"47","gender-categorical":"Male","gender-free-response":"","ethnicity":"Not Hispanic or Latino","race":["White"],"education":"Bachelor degree","siblings":"0"},"trial_type":"survey-demo","trial_index":1,"time_elapsed":32693,"internal_node_id":"0.0-1.0","task_version":"prescreen-v0.3"},{"responses":{"Q09":"2","Q03":"1","Q12":"2","Q04":"1","Q01":"3","Q17":"2","Q15":"2","Q16":"1","Q13":"1","Q19":"1","Q05":"2","Q08":"2","Q07":"1","Q21":"3","Q14":"2","Q18":"2","Q10":"2","Q06":"2","Q11":"3","Q02":"1","Q20":"0"},"rt":139630.09999990463,"item_order":[8,2,11,3,0,16,14,15,12,18,4,7,6,20,13,17,9,5,10,1,19],"radio_events":[11280,12584.899999856949,18770.099999904633,25338,29207,33050.299999952316,39290.199999809265,47800.5,52817.699999809265,72855.39999985695,84141.29999995232,88295.09999990463,93125.19999980927,98316,110599.5,114773.69999980927,118216.29999995232,121291.89999985695,125534.79999995232,129034.19999980927,137985.59999990463],"key_events":[],"mouse_events":[11280,12584.899999856949,18770.099999904633,25338,29207,33050.299999952316,39290.199999809265,47800.5,52817.699999809265,72855.39999985695,84141.29999995232,88295.09999990463,93125.19999980927,98316,110599.5,114773.69999980927,118216.29999995232,121291.89999985695,125534.79999995232,129034.19999980927,130095.79999995232,136835.19999980927,137985.59999990463,139626],"straightlining":0.47619047619047616,"zigzagging":0.5,"honeypot":0,"survey":"sns","trial_type":"survey-template","trial_index":2,"time_elapsed":172324,"internal_node_id":"0.0-2.0","task_version":"prescreen-v0.3","browser_interactions":0,"infrequency":0},{"responses":{"Q01":"2","Q05":"2","Q10":"2","Q12":"1","Q02":"3","Q07":"3","Q03":"2","Q11":"2","Q09":"1","Q08":"2","Q13":"0","Q06":"2","Q04":"2"},"rt":73716,"item_order":[0,4,9,11,1,6,2,10,8,7,12,5,3],"radio_events":[3596.2000000476837,6843.200000047684,9266.200000047684,12693.700000047684,16863.10000014305,19547.200000047684,25880.400000095367,40276.5,44924.40000009537,57884.700000047684,61924.10000014305,69111.29999995232,72906.40000009537],"key_events":[],"mouse_events":[3596.2000000476837,6843.200000047684,9266.200000047684,12693.700000047684,16863.10000014305,19547.200000047684,25880.400000095367,40276.5,44924.40000009537,57884.700000047684,61924.10000014305,69111.29999995232,72906.40000009537,73713.60000014305],"straightlining":0.6153846153846154,"zigzagging":0.3333333333333333,"honeypot":0,"survey":"bisbas","trial_type":"survey-template","trial_index":3,"time_elapsed":246042,"internal_node_id":"0.0-3.0","task_version":"prescreen-v0.3","browser_interactions":0,"infrequency":0},{"responses":{"Q01":"3","Q02":"3","Q03":"3"},"rt":21417.700000047684,"radio_events":[11403.900000095367,16046.700000047684,20568.299999952316],"key_events":[],"mouse_events":[11403.900000095367,16046.700000047684,20568.299999952316,21416.299999952316],"survey":"map","page":1,"trial_type":"survey-map","trial_index":4,"time_elapsed":267462,"internal_node_id":"0.0-4.0","task_version":"prescreen-v0.3","browser_interactions":0},{"responses":{"Q04":"3","Q05":"2","Q06":"2"},"rt":28611.800000190735,"radio_events":[20670.800000190735,24139.400000095367,27623.5],"key_events":[],"mouse_events":[20670.800000190735,24139.400000095367,27623.5,28611.10000014305],"survey":"map","page":2,"trial_type":"survey-map","trial_index":5,"time_elapsed":296082,"internal_node_id":"0.0-5.0","task_version":"prescreen-v0.3","browser_interactions":0},{"responses":{"Q07":"3","Q08":"3","Q09":"2"},"rt":16670.799999952316,"radio_events":[6582.699999809265,11039.299999952316,15610.299999952316],"key_events":[],"mouse_events":[6582.699999809265,11039.299999952316,15610.299999952316,16669.599999904633],"survey":"map","page":3,"trial_type":"survey-map","trial_index":6,"time_elapsed":312755,"internal_node_id":"0.0-6.0","task_version":"prescreen-v0.3","browser_interactions":0},{"responses":{"Q10":"2","Q11":"2","Q12":"1","Q13":"2","Q16":"0","Q14":"4","Q15":"2"},"rt":54256.10000014305,"radio_events":[21545.299999952316,24123,30789,34754.200000047684,40384,49391.799999952316,53357.90000009537],"key_events":[],"mouse_events":[7100.900000095367,21545.299999952316,24123,30789,34754.200000047684,40384,49391.799999952316,53357.90000009537,54254.90000009537],"survey":"map","page":4,"trial_type":"survey-map","trial_index":7,"time_elapsed":367012,"internal_node_id":"0.0-7.0","task_version":"prescreen-v0.3","browser_interactions":0,"infrequency":0},{"view_history":[{"page_index":0,"viewing_time":3693.899999856949},{"page_index":1,"viewing_time":7086.200000047684}],"rt":10781.099999904633,"trial_type":"instructions","trial_index":8,"time_elapsed":377794,"internal_node_id":"0.0-8.0","task_version":"prescreen-v0.3"},{"responses":{"01":"No","02":"No","03":"No","04":"No","05":"No","06":"No"},"rt":27916.299999952316,"item_order":[0,1,2,3,4,5],"radio_events":[12755,15218.399999856949,20166.299999952316,22720,24597.699999809265,26938.39999985695],"checkbox_events":[],"key_events":[],"mouse_events":[7.099999904632568,12755,15218.399999856949,20166.299999952316,22720,24597.699999809265,26938.39999985695,27910.099999904633],"honeypot":0,"survey":"mace","page":1,"trial_type":"survey-mace","trial_index":9,"time_elapsed":405719,"internal_node_id":"0.0-9.0","task_version":"prescreen-v0.3","browser_interactions":0},{"responses":{"01":"No","02":"No","03":"Yes","03_ages_5":"5","03_ages_6":"6","03_ages_7":"7","04":"No","05":"No","06":"No","07":"No","08":"No"},"rt":52795.200000047684,"item_order":[0,1,2,3,4,5,6,7],"radio_events":[3735,6035.299999952316,15720.099999904633,33027.09999990463,41464.09999990463,48661.799999952316,50318.200000047684,52013.700000047684],"checkbox_events":[21504.700000047684,22409.599999904633,23233],"key_events":[],"mouse_events":[3735,6035.299999952316,15720.099999904633,21504.700000047684,22409.599999904633,23233,33027.09999990463,41464.09999990463,48661.799999952316,50318.200000047684,52013.700000047684,52789.799999952316],"honeypot":0,"survey":"mace","page":2,"trial_type":"survey-mace","trial_index":10,"time_elapsed":458520,"internal_node_id":"0.0-10.0","task_version":"prescreen-v0.3","browser_interactions":0},{"responses":{"01":"No","02":"No","03":"No","04":"No"},"rt":45311.799999952316,"item_order":[0,1,2,3],"radio_events":[10831.5,40343.59999990463,42741.299999952316,44134.799999952316],"checkbox_events":[],"key_events":[],"mouse_events":[10831.5,40343.59999990463,42741.299999952316,44134.799999952316,45310.200000047684],"honeypot":0,"survey":"mace","page":3,"trial_type":"survey-mace","trial_index":11,"time_elapsed":503833,"internal_node_id":"0.0-11.0","task_version":"prescreen-v0.3","browser_interactions":0},{"responses":{"01":"Yes","01_ages_12":"12","02":"No"},"rt":41965.89999985695,"item_order":[0,1],"radio_events":[11538.099999904633,41083.200000047684],"checkbox_events":[15804.399999856949,16669.700000047684,28917,29995.299999952316,31031.299999952316],"key_events":[],"mouse_events":[11538.099999904633,15804.399999856949,16669.700000047684,28917,29995.299999952316,31031.299999952316,41083.200000047684,41964.700000047684],"honeypot":0,"survey":"mace","page":4,"trial_type":"survey-mace","trial_index":12,"time_elapsed":545799,"internal_node_id":"0.0-12.0","task_version":"prescreen-v0.3","browser_interactions":0},{"responses":{"01":"Yes","01_ages_8":"8","01_ages_9":"9","02":"No","03":"No","04":"No","05":"No"},"rt":40022.300000190735,"item_order":[0,1,2,3,4],"radio_events":[11993.900000095367,27411.800000190735,33506.60000014305,36510.40000009537,39251.700000047684],"checkbox_events":[22302.5,23445.700000047684],"key_events":[],"mouse_events":[11993.900000095367,22302.5,23445.700000047684,27411.800000190735,33506.60000014305,36510.40000009537,39251.700000047684,40018.5],"honeypot":0,"survey":"mace","page":5,"trial_type":"survey-mace","trial_index":13,"time_elapsed":585822,"internal_node_id":"0.0-13.0","task_version":"prescreen-v0.3","browser_interactions":0},{"responses":{"01":"No","02":"No","03":"No","04":"No","05":"No"},"rt":18973.900000095367,"item_order":[0,1,2,3,4],"radio_events":[3543.5999999046326,5770.400000095367,14141.400000095367,16008.5,18236.5],"checkbox_events":[],"key_events":[],"mouse_events":[3543.5999999046326,5770.400000095367,14141.400000095367,16008.5,18236.5,18971],"honeypot":0,"survey":"mace","page":6,"trial_type":"survey-mace","trial_index":14,"time_elapsed":604798,"internal_node_id":"0.0-14.0","task_version":"prescreen-v0.3","browser_interactions":0},{"responses":{"01":"No","02":"No","03":"No","04":"No","05":"No","06":"No","07":"Yes","07_ages_11":"11"},"rt":31864,"item_order":[0,1,2,3,4,5,6],"radio_events":[4793.799999952316,8652.899999856949,11810.5,13344,14992.899999856949,18405.799999952316,22001.5],"checkbox_events":[29003.299999952316],"key_events":[],"mouse_events":[4793.799999952316,8652.899999856949,11810.5,13344,14992.899999856949,18405.799999952316,22001.5,29003.299999952316,31858.89999985695],"honeypot":0,"survey":"mace","page":7,"trial_type":"survey-mace","trial_index":15,"time_elapsed":636664,"internal_node_id":"0.0-15.0","task_version":"prescreen-v0.3","browser_interactions":0},{"responses":{"01":"No","02":"No","03":"No","04":"No"},"rt":13961.599999904633,"item_order":[0,1,2,3],"radio_events":[6339.5,7963.400000095367,10615,13192.799999952316],"checkbox_events":[],"key_events":[],"mouse_events":[6339.5,7963.400000095367,10615,13192.799999952316,13959.400000095367],"honeypot":0,"survey":"mace","page":8,"trial_type":"survey-mace","trial_index":16,"time_elapsed":650628,"internal_node_id":"0.0-16.0","task_version":"prescreen-v0.3","browser_interactions":0},{"responses":{"01":"Yes","01_ages_1":"1","01_ages_2":"2","01_ages_3":"3","01_ages_4":"4","01_ages_5":"5","01_ages_6":"6","01_ages_7":"7","01_ages_8":"8","01_ages_9":"9","01_ages_10":"10","01_ages_11":"11","01_ages_12":"12","01_ages_13":"13","01_ages_14":"14","01_ages_15":"15","01_ages_16":"16","01_ages_17":"17","01_ages_18":"18","02":"Yes","02_ages_1":"1","02_ages_2":"2","02_ages_3":"3","02_ages_4":"4","02_ages_5":"5","02_ages_6":"6","02_ages_7":"7","02_ages_8":"8","02_ages_9":"9","02_ages_10":"10","02_ages_11":"11","02_ages_12":"12","02_ages_13":"13","02_ages_14":"14","02_ages_15":"15","02_ages_16":"16","02_ages_17":"17","02_ages_18":"18","03":"Yes","03_ages_1":"1","03_ages_2":"2","03_ages_3":"3","03_ages_4":"4","03_ages_5":"5","03_ages_6":"6","03_ages_7":"7","03_ages_8":"8","03_ages_9":"9","03_ages_10":"10","03_ages_11":"11","03_ages_12":"12","03_ages_13":"13","03_ages_14":"14","03_ages_15":"15","03_ages_16":"16","03_ages_17":"17","03_ages_18":"18","04":"Yes","04_ages_1":"1","04_ages_2":"2","04_ages_3":"3","04_ages_4":"4","04_ages_5":"5","04_ages_6":"6","04_ages_7":"7","04_ages_8":"8","04_ages_9":"9","04_ages_10":"10","04_ages_11":"11","04_ages_12":"12","04_ages_13":"13","04_ages_14":"14","04_ages_15":"15","04_ages_16":"16","04_ages_17":"17","04_ages_18":"18"},"rt":437578.5,"item_order":[0,1,2,3],"radio_events":[4476.099999904633,6638.899999856949,33708.09999990463,60462.699999809265,61987.799999952316],"checkbox_events":[12320.099999904633,13805.299999952316,14915.899999856949,15592.899999856949,16310.599999904633,17012.299999952316,17729.799999952316,18399.5,19118.39999985695,19836.099999904633,20570.39999985695,21255.299999952316,21939.799999952316,23596.799999952316,24315.299999952316,25301.89999985695,26265,28362.5,37379,40172.5,40888.09999990463,41539.59999990463,42120,42731.699999809265,43369.09999990463,43980.09999990463,44681.199999809265,45277.799999952316,45873.5,46477.39999985695,47088.59999990463,48615,49382.5,50671.59999990463,51430,52197.699999809265,64084.89999985695,64998.59999990463,65692.29999995232,68238,69111.59999990463,70400.69999980927,71159.5,71861.5,72464.69999980927,73134.29999995232,73884.79999995232,74594.09999990463,75340.69999980927,76063.69999980927,76781.69999980927,77556.29999995232,78326.39999985695,79213.09999990463,418904,419675.7999999523,420353,420965.09999990463,421568.39999985695,423175.59999990463,423942.89999985695,424792.09999990463,425542.69999980927,428277,429901.09999990463,430945.59999990463,431884.19999980927,432732.39999985695,433630.09999990463,434560.5,435540,436372.59999990463],"key_events":[],"mouse_events":[4476.099999904633,6638.899999856949,12320.099999904633,13805.299999952316,14915.899999856949,15592.899999856949,16310.599999904633,17012.299999952316,17729.799999952316,18399.5,19118.39999985695,19836.099999904633,20570.39999985695,21255.299999952316,21939.799999952316,22691.299999952316,23596.799999952316,24315.299999952316,25301.89999985695,26265,28362.5,33708.09999990463,36382,37379,40172.5,40888.09999990463,41539.59999990463,42120,42731.699999809265,43369.09999990463,43980.09999990463,44681.199999809265,45277.799999952316,45873.5,46477.39999985695,47088.59999990463,47814.799999952316,48615,49382.5,50671.59999990463,51430,52197.699999809265,60462.699999809265,61987.799999952316,64084.89999985695,64998.59999990463,65692.29999995232,66434.69999980927,68238,69111.59999990463,70400.69999980927,71159.5,71861.5,72464.69999980927,73134.29999995232,73884.79999995232,74594.09999990463,75340.69999980927,76063.69999980927,76781.69999980927,77556.29999995232,78326.39999985695,79213.09999990463,418904,419675.7999999523,420353,420965.09999990463,421568.39999985695,422165.09999990463,423175.59999990463,423942.89999985695,424792.09999990463,425542.69999980927,428277,429052.39999985695,429901.09999990463,430945.59999990463,431884.19999980927,432732.39999985695,433630.09999990463,434560.5,435540,436372.59999990463,437572.59999990463],"honeypot":0,"survey":"mace","page":9,"trial_type":"survey-mace","trial_index":17,"time_elapsed":1088193,"internal_node_id":"0.0-17.0","task_version":"prescreen-v0.3","browser_interactions":2},{"responses":{"01":"No","02":"No","03":"No","04":"No","05":"No","06":"Yes","06_ages_17":"17","07":"Yes","07_ages_1":"1","07_ages_2":"2","07_ages_3":"3","07_ages_4":"4","07_ages_5":"5","07_ages_6":"6","07_ages_7":"7","07_ages_8":"8","07_ages_9":"9","07_ages_10":"10","07_ages_11":"11","07_ages_12":"12","07_ages_13":"13","07_ages_14":"14","07_ages_15":"15","07_ages_16":"16","07_ages_17":"17","07_ages_18":"18","08":"Yes","08_ages_10":"10","08_ages_11":"11","08_ages_12":"12","08_ages_13":"13","08_ages_14":"14","08_ages_15":"15","08_ages_16":"16","08_ages_17":"17","08_ages_18":"18"},"rt":71752.59999990463,"item_order":[0,1,2,3,4,5,6,7],"radio_events":[6606.299999952316,8156.5,10792,13599,15762.400000095367,19181.400000095367,28756.200000047684,57391.90000009537,62280.299999952316],"checkbox_events":[20887.5,31194.200000047684,31904.099999904633,33488.299999952316,35030.59999990463,36712,37511.40000009537,38196.90000009537,38881.5,39707,40374.90000009537,41150.90000009537,42039.700000047684,42726.200000047684,43395.40000009537,44700.90000009537,45460,46185.5,47010.799999952316,63348,64042.40000009537,64744.40000009537,65396.200000047684,66041.90000009537,66760.09999990463,67526.90000009537,68220.70000004768,69656.59999990463],"key_events":[],"mouse_events":[6606.299999952316,8156.5,10792,13599,15762.400000095367,19181.400000095367,20887.5,28756.200000047684,31194.200000047684,31904.099999904633,32647.299999952316,33488.299999952316,35030.59999990463,36712,37511.40000009537,38196.90000009537,38881.5,39707,40374.90000009537,41150.90000009537,42039.700000047684,42726.200000047684,43395.40000009537,44700.90000009537,45460,46185.5,47010.799999952316,57391.90000009537,62280.299999952316,63348,64042.40000009537,64744.40000009537,65396.200000047684,66041.90000009537,66760.09999990463,67526.90000009537,68220.70000004768,69656.59999990463,71746.09999990463],"honeypot":0,"survey":"mace","page":10,"trial_type":"survey-mace","trial_index":18,"time_elapsed":1159948,"internal_node_id":"0.0-18.0","task_version":"prescreen-v0.3","browser_interactions":0,"instructed":0},{"rt":9300.100000143051,"trial_type":"mental-health-alert","trial_index":19,"time_elapsed":1169250,"internal_node_id":"0.0-19.0","task_version":"prescreen-v0.3","interactions":"[{\"event\":\"blur\",\"trial\":17,\"time\":732248},{\"event\":\"focus\",\"trial\":17,\"time\":1067237}]"}]