[{"view_history":[{"page_index":0,"viewing_time":9017.399999976158},{"page_index":1,"viewing_time":8253.300000071526},{"page_index":2,"viewing_time":7417.799999952316},{"page_index":3,"viewing_time":3743.899999976158}],"rt":28433.5,"trial_type":"instructions","trial_index":0,"time_elapsed":28440,"internal_node_id":"0.0-0.0","task_version":"prescreen-v0.3"},{"rt":44616.300000071526,"responses":{"age":"57","gender-categorical":"Male","gender-free-response":"","ethnicity":"Not Hispanic or Latino","race":["White"],"education":"Master degree or higher","siblings":"1"},"trial_type":"survey-demo","trial_index":1,"time_elapsed":73062,"internal_node_id":"0.0-1.0","task_version":"prescreen-v0.3"},{"responses":{"Q17":"0","Q06":"0","Q04":"0","Q15":"0","Q19":"0","Q13":"0","Q01":"0","Q02":"0","Q05":"1","Q12":"0","Q18":"0","Q07":"0","Q21":"3","Q03":"0","Q08":"0","Q20":"0","Q10":"0","Q11":"0","Q14":"0","Q09":"0","Q16":"0"},"rt":178488.70000004768,"item_order":[16,5,3,14,18,12,0,1,4,11,17,6,20,2,7,19,9,10,13,8,15],"radio_events":[14737.100000023842,24129.700000047684,32363.100000023842,38862.90000009537,43741.700000047684,48235,51730.90000009537,60036.60000002384,76740.30000007153,84475.60000002384,90248.70000004768,98461.60000002384,105487.20000004768,115082.5,121814.40000009537,125310.60000002384,132774.40000009537,136273.30000007153,144900.60000002384,151592.40000009537,157932.70000004768,166802.30000007153],"key_events":[],"mouse_events":[14737.100000023842,24129.700000047684,32363.100000023842,38862.90000009537,43741.700000047684,48235,51730.90000009537,60036.60000002384,76740.30000007153,84475.60000002384,90248.70000004768,98461.60000002384,105487.20000004768,115082.5,121814.40000009537,125310.60000002384,132774.40000009537,136273.30000007153,144900.60000002384,150136.30000007153,151592.40000009537,157932.70000004768,166802.30000007153,178485.90000009537],"straightlining":0.9047619047619048,"zigzagging":0.2,"honeypot":0,"survey":"sns","trial_type":"survey-template","trial_index":2,"time_elapsed":251558,"internal_node_id":"0.0-2.0","task_version":"prescreen-v0.3","browser_interactions":0,"infrequency":0},{"responses":{"Q04":"3","Q10":"1","Q05":"3","Q11":"2","Q08":"2","Q03":"3","Q09":"1","Q01":"2","Q07":"3","Q13":"0","Q02":"2","Q12":"1","Q06":"3"},"rt":118051.10000002384,"item_order":[3,9,4,10,7,2,8,0,6,12,1,11,5],"radio_events":[17930.5,26904.600000023842,33616.299999952316,40084.5,48320.10000002384,61340.299999952316,69684,76831.89999997616,82648.89999997616,89466.5,99217.69999992847,107325.69999992847,113961.89999997616],"key_events":[],"mouse_events":[12136.600000023842,17930.5,26904.600000023842,33616.299999952316,40084.5,48320.10000002384,61340.299999952316,69684,76831.89999997616,82648.89999997616,89466.5,99217.69999992847,107325.69999992847,113961.89999997616,118049.5],"straightlining":0.38461538461538464,"zigzagging":0.5,"honeypot":0,"survey":"bisbas","trial_type":"survey-template","trial_index":3,"time_elapsed":369613,"internal_node_id":"0.0-3.0","task_version":"prescreen-v0.3","browser_interactions":0,"infrequency":0},{"responses":{"Q01":"3","Q02":"4","Q03":"3"},"rt":58158.799999952316,"radio_events":[25405.699999928474,32828.10000002384,48597.799999952316],"key_events":[],"mouse_events":[25405.699999928474,32828.10000002384,48597.799999952316,58157.89999997616],"survey":"map","page":1,"trial_type":"survey-map","trial_index":4,"time_elapsed":427777,"internal_node_id":"0.0-4.0","task_version":"prescreen-v0.3","browser_interactions":0},{"responses":{"Q04":"4","Q05":"4","Q06":"4"},"rt":26149.5,"radio_events":[9526.199999928474,15290.100000023842,21460.299999952316],"key_events":[],"mouse_events":[9526.199999928474,15290.100000023842,21460.299999952316,26148.699999928474],"survey":"map","page":2,"trial_type":"survey-map","trial_index":5,"time_elapsed":453928,"internal_node_id":"0.0-5.0","task_version":"prescreen-v0.3","browser_interactions":0},{"responses":{"Q07":"4","Q08":"4","Q09":"3"},"rt":32341,"radio_events":[10708.5,19068.400000095367,28252],"key_events":[],"mouse_events":[10708.5,19068.400000095367,28252,32340.300000071526],"survey":"map","page":3,"trial_type":"survey-map","trial_index":6,"time_elapsed":486271,"internal_node_id":"0.0-6.0","task_version":"prescreen-v0.3","browser_interactions":0},{"responses":{"Q10":"3","Q11":"0","Q12":"3","Q13":"0","Q16":"0","Q14":"4","Q15":"0"},"rt":84631.79999995232,"radio_events":[9884.399999976158,19398.600000023842,32778.299999952316,45726.299999952316,55344.299999952316,66258.79999995232,74674.29999995232],"key_events":[],"mouse_events":[9884.399999976158,19398.600000023842,32778.299999952316,45726.299999952316,55344.299999952316,66258.79999995232,74674.29999995232,84630.39999997616],"survey":"map","page":4,"trial_type":"survey-map","trial_index":7,"time_elapsed":570906,"internal_node_id":"0.0-7.0","task_version":"prescreen-v0.3","browser_interactions":0,"infrequency":0},{"view_history":[{"page_index":0,"viewing_time":14348.600000023842},{"page_index":1,"viewing_time":10624.299999952316}],"rt":24973.5,"trial_type":"instructions","trial_index":8,"time_elapsed":595881,"internal_node_id":"0.0-8.0","task_version":"prescreen-v0.3"},{"responses":{"01":"No","02":"No","03":"No","04":"No","05":"No","06":"No"},"rt":57861.700000047684,"item_order":[0,1,2,3,4,5],"radio_events":[14192.600000023842,19326,23524.100000023842,25979.700000047684,29156,33769.700000047684],"checkbox_events":[],"key_events":[],"mouse_events":[0.10000002384185791,14192.600000023842,19326,23524.100000023842,25979.700000047684,29156,33769.700000047684,57857.800000071526],"honeypot":0,"survey":"mace","page":1,"trial_type":"survey-mace","trial_index":9,"time_elapsed":653751,"internal_node_id":"0.0-9.0","task_version":"prescreen-v0.3","browser_interactions":0},{"responses":{"01":"No","02":"No","03":"No","03_ages_3":"3","03_ages_4":"4","03_ages_5":"5","04":"No","05":"No","06":"No","07":"No","08":"No"},"rt":154889.30000007153,"item_order":[0,1,2,3,4,5,6,7],"radio_events":[7493.5,13719.100000023842,17939.100000023842,116268.10000002384,122734.70000004768,138287.30000007153,143308.39999997616,146576.20000004768,149060.89999997616],"checkbox_events":[85453.20000004768,86548.60000002384,87750.5,92158.70000004768,96700.89999997616],"key_events":[],"mouse_events":[7493.5,13719.100000023842,17939.100000023842,85453.20000004768,86548.60000002384,87750.5,92158.70000004768,96700.89999997616,116268.10000002384,122734.70000004768,138287.30000007153,143308.39999997616,146576.20000004768,149060.89999997616,154884.30000007153],"honeypot":0,"survey":"mace","page":2,"trial_type":"survey-mace","trial_index":10,"time_elapsed":808645,"internal_node_id":"0.0-10.0","task_version":"prescreen-v0.3","browser_interactions":0},{"responses":{"01":"No","02":"No","03":"No","04":"No"},"rt":30731.399999976158,"item_order":[0,1,2,3],"radio_events":[11450.800000071526,16627.800000071526,19892.700000047684,23319.899999976158],"checkbox_events":[],"key_events":[],"mouse_events":[11450.800000071526,16627.800000071526,19892.700000047684,23319.899999976158,30728.700000047684],"honeypot":0,"survey":"mace","page":3,"trial_type":"survey-mace","trial_index":11,"time_elapsed":839380,"internal_node_id":"0.0-11.0","task_version":"prescreen-v0.3","browser_interactions":0},{"responses":{"01":"No","02":"No"},"rt":18361.600000023842,"item_order":[0,1],"radio_events":[7878.299999952316,11504],"checkbox_events":[],"key_events":[],"mouse_events":[7878.299999952316,11504,18360.100000023842],"honeypot":0,"survey":"mace","page":4,"trial_type":"survey-mace","trial_index":12,"time_elapsed":857744,"internal_node_id":"0.0-12.0","task_version":"prescreen-v0.3","browser_interactions":0},{"responses":{"01":"No","02":"No","03":"No","04":"No","05":"No"},"rt":37094.59999990463,"item_order":[0,1,2,3,4],"radio_events":[10225.5,13789.399999976158,21777.699999928474,27352.5,31535.299999952316],"checkbox_events":[],"key_events":[],"mouse_events":[10225.5,13789.399999976158,21777.699999928474,27352.5,31535.299999952316,37091.39999997616],"honeypot":0,"survey":"mace","page":5,"trial_type":"survey-mace","trial_index":13,"time_elapsed":894843,"internal_node_id":"0.0-13.0","task_version":"prescreen-v0.3","browser_interactions":0},{"responses":{"01":"No","02":"No","03":"No","04":"No","05":"No"},"rt":26562.100000023842,"item_order":[0,1,2,3,4],"radio_events":[6205.299999952316,12251.100000023842,17084.699999928474,19857.399999976158,23409.399999976158],"checkbox_events":[],"key_events":[],"mouse_events":[6205.299999952316,12251.100000023842,17084.699999928474,19857.399999976158,23409.399999976158,26558.899999976158],"honeypot":0,"survey":"mace","page":6,"trial_type":"survey-mace","trial_index":14,"time_elapsed":921409,"internal_node_id":"0.0-14.0","task_version":"prescreen-v0.3","browser_interactions":0},{"responses":{"01":"No","02":"No","03":"No","04":"No","05":"No","06":"No","07":"No"},"rt":38515.200000047684,"item_order":[0,1,2,3,4,5,6],"radio_events":[7986.300000071526,13716.5,17049.400000095367,21014.300000071526,26932,29750.100000023842,32738.300000071526],"checkbox_events":[],"key_events":[],"mouse_events":[7986.300000071526,13716.5,17049.400000095367,21014.300000071526,26932,29750.100000023842,32738.300000071526,38510.700000047684],"honeypot":0,"survey":"mace","page":7,"trial_type":"survey-mace","trial_index":15,"time_elapsed":959928,"internal_node_id":"0.0-15.0","task_version":"prescreen-v0.3","browser_interactions":0},{"responses":{"01":"No","02":"No","03":"No","04":"No"},"rt":36911.199999928474,"item_order":[0,1,2,3],"radio_events":[13504.899999976158,21216.5,28070.799999952316,34166.60000002384],"checkbox_events":[],"key_events":[],"mouse_events":[13504.899999976158,19568.399999976158,21216.5,28070.799999952316,34166.60000002384,36908.699999928474],"honeypot":0,"survey":"mace","page":8,"trial_type":"survey-mace","trial_index":16,"time_elapsed":996843,"internal_node_id":"0.0-16.0","task_version":"prescreen-v0.3","browser_interactions":0},{"responses":{"01":"Yes","01_ages_1":"1","01_ages_2":"2","01_ages_3":"3","01_ages_4":"4","01_ages_5":"5","01_ages_6":"6","01_ages_7":"7","01_ages_8":"8","01_ages_9":"9","01_ages_10":"10","01_ages_11":"11","01_ages_12":"12","01_ages_13":"13","01_ages_14":"14","01_ages_15":"15","01_ages_16":"16","01_ages_17":"17","01_ages_18":"18","02":"Yes","02_ages_1":"1","02_ages_2":"2","02_ages_3":"3","02_ages_4":"4","02_ages_5":"5","02_ages_6":"6","02_ages_7":"7","02_ages_8":"8","02_ages_9":"9","02_ages_10":"10","02_ages_11":"11","02_ages_12":"12","02_ages_13":"13","02_ages_14":"14","02_ages_15":"15","02_ages_16":"16","02_ages_17":"17","02_ages_18":"18","03":"Yes","03_ages_1":"1","03_ages_2":"2","03_ages_3":"3","03_ages_4":"4","03_ages_5":"5","03_ages_6":"6","03_ages_7":"7","03_ages_8":"8","03_ages_9":"9","03_ages_10":"10","03_ages_11":"11","03_ages_12":"12","03_ages_13":"13","03_ages_14":"14","03_ages_15":"15","03_ages_16":"16","03_ages_17":"17","03_ages_18":"18","04":"Yes","04_ages_1":"1","04_ages_2":"2","04_ages_3":"3","04_ages_4":"4","04_ages_5":"5","04_ages_6":"6","04_ages_7":"7","04_ages_8":"8","04_ages_9":"9","04_ages_10":"10","04_ages_11":"11","04_ages_12":"12","04_ages_13":"13","04_ages_14":"14","04_ages_15":"15","04_ages_16":"16","04_ages_17":"17","04_ages_18":"18"},"rt":126621.39999997616,"item_order":[0,1,2,3],"radio_events":[11030,41071.89999997616,66137.60000002384,91757.39999997616],"checkbox_events":[19441.899999976158,20364,21051.899999976158,21721.600000023842,22580.199999928474,23363.399999976158,23978,24727.799999952316,25583.699999928474,26224,27512.100000023842,29841.799999952316,30929.899999976158,31559.799999952316,32191.699999928474,32928.39999997616,33788.10000002384,34547.89999997616,43530,44209.5,46212.299999952316,47012.39999997616,47960.5,48742.699999928474,49437.699999928474,50115.89999997616,50894.199999928474,52638.39999997616,53464.5,54502.199999928474,55335.89999997616,56350.199999928474,57332.10000002384,58166.299999952316,58989.699999928474,59767.10000002384,68054,69054.60000002384,69667.39999997616,70699.29999995232,71380.10000002384,72019.79999995232,74133.79999995232,74973.69999992847,75843.5,76532.19999992847,77267.69999992847,78651.89999997616,79293.39999997616,79936,80579.79999995232,81203.89999997616,81874.10000002384,82609.19999992847,99905.79999995232,100735.19999992847,101361.39999997616,101985.39999997616,104227.79999995232,112229.29999995232,113003.39999997616,113783.60000002384,114599.5,115267.69999992847,115923.89999997616,116805.19999992847,117609.39999997616,118412.29999995232,119223.89999997616,120427.39999997616,121567.60000002384,122565.60000002384],"key_events":[],"mouse_events":[11030,19441.899999976158,20364,21051.899999976158,21721.600000023842,22580.199999928474,23363.399999976158,23978,24727.799999952316,25583.699999928474,26224,27512.100000023842,29841.799999952316,30929.899999976158,31559.799999952316,32191.699999928474,32928.39999997616,33788.10000002384,34547.89999997616,41071.89999997616,43530,44209.5,45127.699999928474,46212.299999952316,47012.39999997616,47960.5,48742.699999928474,49437.699999928474,50115.89999997616,50894.199999928474,51803.699999928474,52638.39999997616,53464.5,54502.199999928474,55335.89999997616,56350.199999928474,57332.10000002384,58166.299999952316,58989.699999928474,59767.10000002384,66137.60000002384,68054,69054.60000002384,69667.39999997616,70699.29999995232,71380.10000002384,72019.79999995232,72877.69999992847,74133.79999995232,74973.69999992847,75843.5,76532.19999992847,77267.69999992847,78027.60000002384,78651.89999997616,79293.39999997616,79936,80579.79999995232,81203.89999997616,81874.10000002384,82609.19999992847,91757.39999997616,99905.79999995232,100735.19999992847,101361.39999997616,101985.39999997616,104227.79999995232,112229.29999995232,113003.39999997616,113783.60000002384,114599.5,115267.69999992847,115923.89999997616,116805.19999992847,117609.39999997616,118412.29999995232,119223.89999997616,120427.39999997616,121567.60000002384,122565.60000002384,126618.89999997616],"honeypot":0,"survey":"mace","page":9,"trial_type":"survey-mace","trial_index":17,"time_elapsed":1123468,"internal_node_id":"0.0-17.0","task_version":"prescreen-v0.3","browser_interactions":0},{"responses":{"01":"No","02":"No","03":"No","04":"No","05":"No","06":"Yes","06_ages_17":"17","07":"Yes","07_ages_1":"1","07_ages_2":"2","07_ages_3":"3","07_ages_4":"4","07_ages_5":"5","07_ages_6":"6","07_ages_7":"7","07_ages_8":"8","07_ages_9":"9","07_ages_10":"10","07_ages_11":"11","07_ages_12":"12","07_ages_13":"13","07_ages_14":"14","07_ages_15":"15","07_ages_16":"16","07_ages_17":"17","07_ages_18":"18","08":"Yes","08_ages_1":"1","08_ages_2":"2","08_ages_3":"3","08_ages_4":"4","08_ages_5":"5","08_ages_6":"6","08_ages_7":"7","08_ages_8":"8","08_ages_9":"9","08_ages_10":"10","08_ages_11":"11","08_ages_12":"12","08_ages_13":"13","08_ages_14":"14","08_ages_15":"15","08_ages_16":"16","08_ages_17":"17","08_ages_18":"18"},"rt":107552.90000009537,"item_order":[0,1,2,3,4,5,6,7],"radio_events":[6150.5,8337.600000023842,14541.700000047684,17810.5,22419.600000023842,26941.900000095367,46161.40000009537,82475.40000009537],"checkbox_events":[29142.100000023842,53129.5,54031.40000009537,54633.60000002384,55286.60000002384,55987.200000047684,56921,58221.10000002384,59107.200000047684,59853,60615.60000002384,61283.10000002384,61993.700000047684,64719.40000009537,66119,66939.30000007153,67667.20000004768,68659,69459.10000002384,86013.40000009537,86692.20000004768,87379.20000004768,88117.5,88809,89867.80000007153,90788.60000002384,91564.80000007153,92357.20000004768,93159,93917.40000009537,94649,95349.20000004768,96080.60000002384,96849.40000009537,97613.40000009537,98311.20000004768,99312.40000009537],"key_events":[],"mouse_events":[6150.5,8337.600000023842,14541.700000047684,17810.5,22419.600000023842,26941.900000095367,29142.100000023842,46161.40000009537,52273.5,53129.5,54031.40000009537,54633.60000002384,55286.60000002384,55987.200000047684,56921,58221.10000002384,59107.200000047684,59853,60615.60000002384,61283.10000002384,61993.700000047684,64719.40000009537,66119,66939.30000007153,67667.20000004768,68659,69459.10000002384,82475.40000009537,86013.40000009537,86692.20000004768,87379.20000004768,88117.5,88809,89867.80000007153,90788.60000002384,91564.80000007153,92357.20000004768,93159,93917.40000009537,94649,95349.20000004768,96080.60000002384,96849.40000009537,97613.40000009537,98311.20000004768,99312.40000009537,107548],"honeypot":0,"survey":"mace","page":10,"trial_type":"survey-mace","trial_index":18,"time_elapsed":1231025,"internal_node_id":"0.0-18.0","task_version":"prescreen-v0.3","browser_interactions":0,"instructed":0},{"rt":24976.899999976158,"trial_type":"mental-health-alert","trial_index":19,"time_elapsed":1256004,"internal_node_id":"0.0-19.0","task_version":"prescreen-v0.3","interactions":"[{\"event\":\"blur\",\"trial\":19,\"time\":1247069},{\"event\":\"focus\",\"trial\":19,\"time\":1249447},{\"event\":\"blur\",\"trial\":19,\"time\":1249579},{\"event\":\"focus\",\"trial\":19,\"time\":1251477}]"}]