[{"view_history":[{"page_index":0,"viewing_time":3197.3999996185303},{"page_index":1,"viewing_time":2207.800000190735},{"page_index":2,"viewing_time":3217.5},{"page_index":3,"viewing_time":1386.1000003814697}],"rt":10009.39999961853,"trial_type":"instructions","trial_index":0,"time_elapsed":10066,"internal_node_id":"0.0-0.0","task_version":"prescreen-v0.3"},{"rt":14975.60000038147,"responses":{"age":"25","gender-categorical":"Female","gender-free-response":"","ethnicity":"Not Hispanic or Latino","race":["White"],"education":"Some college"},"trial_type":"survey-demo","trial_index":1,"time_elapsed":25051,"internal_node_id":"0.0-1.0","task_version":"prescreen-v0.3"},{"responses":{"Q06":"0","Q08":"2","Q03":"1","Q20":"1","Q07":"0","Q11":"2","Q02":"2","Q12":"2","Q21":"3","Q15":"3","Q19":"2","Q13":"3","Q14":"3","Q18":"3","Q17":"1","Q05":"2","Q10":"2","Q01":"2","Q04":"3","Q16":"3","Q09":"2"},"rt":88713.10000038147,"item_order":[5,7,2,19,6,10,1,11,20,14,18,12,13,17,16,4,9,0,3,15,8],"radio_events":[7694.199999809265,10859,14759.400000572205,17020.699999809265,21387.300000190735,25813.800000190735,27785.900000572205,34354.900000572205,38855.199999809265,45478.10000038147,50957.60000038147,53025.5,55012.699999809265,57400.300000190735,61871.300000190735,68685.10000038147,74298.80000019073,76996.80000019073,80185.4000005722,83306.5,87044],"key_events":[],"mouse_events":[7694.199999809265,10859,14759.400000572205,17020.699999809265,21387.300000190735,25813.800000190735,27785.900000572205,34354.900000572205,38855.199999809265,45478.10000038147,50957.60000038147,53025.5,55012.699999809265,57400.300000190735,61871.300000190735,68685.10000038147,74298.80000019073,76996.80000019073,80185.4000005722,83306.5,87044,88711.60000038147],"straightlining":0.42857142857142855,"zigzagging":0.4,"honeypot":0,"survey":"sns","trial_type":"survey-template","trial_index":2,"time_elapsed":113773,"internal_node_id":"0.0-2.0","task_version":"prescreen-v0.3","browser_interactions":0,"infrequency":0},{"responses":{"Q07":"2","Q03":"3","Q06":"3","Q02":"3","Q01":"3","Q13":"0","Q09":"1","Q12":"1","Q10":"0","Q11":"0","Q04":"3","Q08":"2","Q05":"2"},"rt":65655.69999980927,"item_order":[6,2,5,1,0,12,8,11,9,10,3,7,4],"radio_events":[6607,10877.60000038147,16757,24415.199999809265,27150.800000190735,29034,31524.5,39731.400000572205,44187.10000038147,47019.10000038147,49443,52644.900000572205,56996.300000190735,60495.5],"key_events":[],"mouse_events":[6607,10877.60000038147,16757,24415.199999809265,27150.800000190735,29034,31524.5,39731.400000572205,44187.10000038147,47019.10000038147,49443,52644.900000572205,56996.300000190735,60495.5,65654.80000019073],"straightlining":0.38461538461538464,"zigzagging":0.5,"honeypot":0,"survey":"bisbas","trial_type":"survey-template","trial_index":3,"time_elapsed":179432,"internal_node_id":"0.0-3.0","task_version":"prescreen-v0.3","browser_interactions":0,"infrequency":0},{"responses":{"Q01":"2","Q02":"1","Q03":"1"},"rt":27571.5,"radio_events":[4917.10000038147,12670.699999809265,25606.60000038147],"key_events":[],"mouse_events":[4917.10000038147,12670.699999809265,25606.60000038147,27570.89999961853],"survey":"map","page":1,"trial_type":"survey-map","trial_index":4,"time_elapsed":207009,"internal_node_id":"0.0-4.0","task_version":"prescreen-v0.3","browser_interactions":0},{"responses":{"Q04":"1","Q05":"1","Q06":"1"},"rt":12625.10000038147,"radio_events":[4908.10000038147,7657.800000190735,8547.900000572205,11549.70000076294],"key_events":[],"mouse_events":[4908.10000038147,5997.700000762939,7657.800000190735,8547.900000572205,11549.70000076294,12624.60000038147],"survey":"map","page":2,"trial_type":"survey-map","trial_index":5,"time_elapsed":219639,"internal_node_id":"0.0-5.0","task_version":"prescreen-v0.3","browser_interactions":0},{"responses":{"Q07":"2","Q08":"4","Q09":"1"},"rt":14807.60000038147,"radio_events":[7269.10000038147,10611.10000038147,13124.300000190735],"key_events":[],"mouse_events":[7269.10000038147,10611.10000038147,13124.300000190735,14807.199999809265],"survey":"map","page":3,"trial_type":"survey-map","trial_index":6,"time_elapsed":234449,"internal_node_id":"0.0-6.0","task_version":"prescreen-v0.3","browser_interactions":0},{"responses":{"Q10":"1","Q11":"3","Q12":"2","Q13":"1","Q16":"0","Q14":"1","Q15":"1"},"rt":46212.199999809265,"radio_events":[4881.799999237061,9159.39999961853,14808.39999961853,19263.099999427795,24430.599999427795,40443.79999923706,43950.29999923706,44090.29999923706,45173.099999427795],"key_events":[],"mouse_events":[4881.799999237061,9159.39999961853,12227.5,14808.39999961853,17209.89999961853,19263.099999427795,24430.599999427795,40443.79999923706,43950.29999923706,44090.29999923706,45173.099999427795,46211.5],"survey":"map","page":4,"trial_type":"survey-map","trial_index":7,"time_elapsed":280667,"internal_node_id":"0.0-7.0","task_version":"prescreen-v0.3","browser_interactions":0,"infrequency":0},{"view_history":[{"page_index":0,"viewing_time":2229.1000003814697},{"page_index":1,"viewing_time":2185.8999996185303}],"rt":4415.39999961853,"trial_type":"instructions","trial_index":8,"time_elapsed":285084,"internal_node_id":"0.0-8.0","task_version":"prescreen-v0.3"},{"responses":{"01":"Yes","01_ages_9":"9","01_ages_10":"10","01_ages_11":"11","01_ages_12":"12","01_ages_13":"13","01_ages_14":"14","01_ages_15":"15","01_ages_16":"16","01_ages_17":"17","01_ages_18":"18","02":"Yes","02_ages_9":"9","02_ages_10":"10","02_ages_11":"11","02_ages_12":"12","02_ages_13":"13","02_ages_14":"14","02_ages_15":"15","02_ages_16":"16","02_ages_17":"17","02_ages_18":"18","03":"Yes","03_ages_8":"8","03_ages_9":"9","03_ages_10":"10","03_ages_11":"11","03_ages_12":"12","04":"Yes","04_ages_15":"15","04_ages_16":"16","04_ages_17":"17","04_ages_18":"18","05":"No","06":"No"},"rt":69815.80000019073,"item_order":[0,1,2,3,4,5],"radio_events":[6308.300000190735,20787.300000190735,40034.599999427795,57297.699999809265,65593.5,68774.39999961853],"checkbox_events":[11801.699999809265,12490.39999961853,13298.300000190735,14017.599999427795,14788.300000190735,15382.300000190735,16049.199999809265,16901.699999809265,17428.599999427795,18170.599999427795,27720.099999427795,28246,29387,29995,31366.699999809265,32560.199999809265,33108.199999809265,33805.300000190735,34434.699999809265,37452.699999809265,42235.5,43095.89999961853,43912.199999809265,48627.199999809265,49688.39999961853,50570.099999427795,52171.89999961853,53810.5,55189,61973.89999961853,62738,63213.39999961853,63886.89999961853],"key_events":[],"mouse_events":[9.300000190734863,6308.300000190735,11801.699999809265,12490.39999961853,13298.300000190735,14017.599999427795,14788.300000190735,15382.300000190735,16049.199999809265,16901.699999809265,17428.599999427795,18170.599999427795,20787.300000190735,27720.099999427795,28246,28794.099999427795,29387,29995,30965.599999427795,31366.699999809265,31981.39999961853,32560.199999809265,33108.199999809265,33805.300000190735,34434.699999809265,35146.89999961853,37452.699999809265,40034.599999427795,42235.5,43095.89999961853,43912.199999809265,48627.199999809265,49688.39999961853,50570.099999427795,52171.89999961853,53810.5,55189,57297.699999809265,61973.89999961853,62738,63213.39999961853,63886.89999961853,65593.5,68774.39999961853,69813.30000019073],"honeypot":0,"survey":"mace","page":1,"trial_type":"survey-mace","trial_index":9,"time_elapsed":354910,"internal_node_id":"0.0-9.0","task_version":"prescreen-v0.3","browser_interactions":0},{"responses":{"01":"No","02":"No","03":"Yes","03_ages_5":"5","04":"No","05":"No","06":"No","07":"No","08":"No"},"rt":42878,"item_order":[0,1,2,3,4,5,6,7],"radio_events":[3320.5,7792.39999961853,9542,20154.699999809265,24930.800000190735,27530.89999961853,34754.800000190735,37007.699999809265,41034,41627.599999427795],"checkbox_events":[15169.800000190735],"key_events":[],"mouse_events":[3320.5,7792.39999961853,9542,15169.800000190735,20154.699999809265,24930.800000190735,27530.89999961853,34754.800000190735,37007.699999809265,41034,41627.599999427795,42873.39999961853],"honeypot":0,"survey":"mace","page":2,"trial_type":"survey-mace","trial_index":10,"time_elapsed":397791,"internal_node_id":"0.0-10.0","task_version":"prescreen-v0.3","browser_interactions":0},{"responses":{"01":"No","02":"No","03":"No","04":"No"},"rt":13123.60000038147,"item_order":[0,1,2,3],"radio_events":[7367.5,10015,11335.60000038147,12313.300000190735],"checkbox_events":[],"key_events":[],"mouse_events":[7367.5,10015,11335.60000038147,12313.300000190735,13121.70000076294],"honeypot":0,"survey":"mace","page":3,"trial_type":"survey-mace","trial_index":11,"time_elapsed":410920,"internal_node_id":"0.0-11.0","task_version":"prescreen-v0.3","browser_interactions":0},{"responses":{"01":"No","02":"No"},"rt":4459.39999961853,"item_order":[0,1],"radio_events":[2396.699999809265,3827.8999996185303],"checkbox_events":[],"key_events":[],"mouse_events":[2396.699999809265,3827.8999996185303,4458.39999961853],"honeypot":0,"survey":"mace","page":4,"trial_type":"survey-mace","trial_index":12,"time_elapsed":415383,"internal_node_id":"0.0-12.0","task_version":"prescreen-v0.3","browser_interactions":0},{"responses":{"01":"Yes","01_ages_7":"7","01_ages_8":"8","01_ages_9":"9","01_ages_10":"10","01_ages_11":"11","02":"Yes","02_ages_8":"8","02_ages_9":"9","03":"No","04":"Yes","04_ages_7":"7","04_ages_8":"8","04_ages_9":"9","04_ages_10":"10","04_ages_11":"11","05":"Yes","05_ages_8":"8","05_ages_9":"9"},"rt":65201.79999923706,"item_order":[0,1,2,3,4],"radio_events":[4742.39999961853,22508.599999427795,37307.29999923706,39458.599999427795,58652.89999961853],"checkbox_events":[7832.89999961853,8575.89999961853,9071.699999809265,9597.39999961853,10398.199999809265,28616.29999923706,29247.199999809265,44631.79999923706,45314.39999961853,45951,51668.099999427795,53974.599999427795,55664.199999809265,56324.39999961853,63501.099999427795,64080.29999923706],"key_events":[],"mouse_events":[4742.39999961853,7832.89999961853,8575.89999961853,9071.699999809265,9597.39999961853,10398.199999809265,22508.599999427795,28616.29999923706,29247.199999809265,37307.29999923706,39458.599999427795,44631.79999923706,45314.39999961853,45951,51668.099999427795,53974.599999427795,55664.199999809265,56324.39999961853,58652.89999961853,63501.099999427795,64080.29999923706,65199.39999961853],"honeypot":0,"survey":"mace","page":5,"trial_type":"survey-mace","trial_index":13,"time_elapsed":480593,"internal_node_id":"0.0-13.0","task_version":"prescreen-v0.3","browser_interactions":0},{"responses":{"01":"Yes","01_ages_5":"5","01_ages_6":"6","01_ages_7":"7","01_ages_8":"8","01_ages_9":"9","01_ages_10":"10","01_ages_11":"11","01_ages_12":"12","01_ages_13":"13","01_ages_14":"14","01_ages_15":"15","01_ages_16":"16","01_ages_17":"17","01_ages_18":"18","02":"Yes","02_ages_5":"5","02_ages_6":"6","02_ages_7":"7","02_ages_8":"8","02_ages_9":"9","02_ages_10":"10","02_ages_11":"11","02_ages_12":"12","02_ages_13":"13","02_ages_14":"14","02_ages_15":"15","02_ages_16":"16","02_ages_17":"17","02_ages_18":"18","03":"Yes","03_ages_10":"10","03_ages_11":"11","03_ages_12":"12","03_ages_13":"13","03_ages_14":"14","03_ages_15":"15","03_ages_16":"16","03_ages_17":"17","03_ages_18":"18","04":"Yes","04_ages_7":"7","04_ages_8":"8","04_ages_9":"9","04_ages_10":"10","04_ages_11":"11","04_ages_12":"12","05":"Yes","05_ages_13":"13","05_ages_14":"14","05_ages_15":"15"},"rt":77760,"item_order":[0,1,2,3,4],"radio_events":[5605.60000038147,24356,36198,51338.5,63291.199999809265],"checkbox_events":[8215.60000038147,8993.900000572205,9631.5,10535.300000190735,11529.300000190735,11997.5,12915.60000038147,13590,14190.800000190735,14813.800000190735,15628.400000572205,16444.699999809265,17155.60000038147,21486.10000038147,26632.10000038147,27203.60000038147,27759.10000038147,28234.5,28686.5,29345.800000190735,29947.5,30406.400000572205,31036.10000038147,31586.400000572205,32221.900000572205,32771.800000190735,33231.60000038147,34424,39719.199999809265,40408.900000572205,41090.300000190735,41781.199999809265,42358.300000190735,42952.5,43545.60000038147,44101.699999809265,49847,53369.300000190735,54118.199999809265,54712.60000038147,55393.199999809265,56358.199999809265,57024.699999809265,73901.5,74434.9000005722,75138.5],"key_events":[],"mouse_events":[5605.60000038147,8215.60000038147,8993.900000572205,9631.5,10535.300000190735,11128.60000038147,11529.300000190735,11997.5,12915.60000038147,13590,14190.800000190735,14813.800000190735,15628.400000572205,16444.699999809265,17155.60000038147,21486.10000038147,24356,26632.10000038147,27203.60000038147,27759.10000038147,28234.5,28686.5,29345.800000190735,29947.5,30406.400000572205,31036.10000038147,31586.400000572205,32221.900000572205,32771.800000190735,33231.60000038147,33698.10000038147,34424,36198,39719.199999809265,40408.900000572205,41090.300000190735,41781.199999809265,42358.300000190735,42952.5,43545.60000038147,44101.699999809265,44679.60000038147,49847,51338.5,53369.300000190735,54118.199999809265,54712.60000038147,55393.199999809265,55987,56358.199999809265,57024.699999809265,63291.199999809265,73901.5,74434.9000005722,75138.5,77756.60000038147],"honeypot":0,"survey":"mace","page":6,"trial_type":"survey-mace","trial_index":14,"time_elapsed":558357,"internal_node_id":"0.0-14.0","task_version":"prescreen-v0.3","browser_interactions":0},{"responses":{"01":"No","02":"Yes","02_ages_17":"17","03":"No","04":"No","05":"No","06":"Yes","06_ages_17":"17","07":"Yes","07_ages_17":"17"},"rt":42809,"item_order":[0,1,2,3,4,5,6],"radio_events":[6271.900000572205,8022.10000038147,23964.300000190735,26017.800000190735,28197.199999809265,31773.10000038147,38668.400000572205],"checkbox_events":[15072.400000572205,33158.400000572205,40743.699999809265],"key_events":[],"mouse_events":[6271.900000572205,8022.10000038147,14634.199999809265,15072.400000572205,22555.800000190735,23964.300000190735,26017.800000190735,28197.199999809265,31773.10000038147,33158.400000572205,38668.400000572205,40743.699999809265,42805.400000572205],"honeypot":0,"survey":"mace","page":7,"trial_type":"survey-mace","trial_index":15,"time_elapsed":601172,"internal_node_id":"0.0-15.0","task_version":"prescreen-v0.3","browser_interactions":0},{"responses":{"01":"Yes","01_ages_5":"5","01_ages_6":"6","01_ages_7":"7","01_ages_8":"8","01_ages_9":"9","01_ages_10":"10","01_ages_11":"11","01_ages_12":"12","01_ages_13":"13","01_ages_14":"14","01_ages_15":"15","01_ages_16":"16","01_ages_17":"17","01_ages_18":"18","02":"Yes","02_ages_5":"5","02_ages_6":"6","02_ages_7":"7","02_ages_8":"8","02_ages_9":"9","02_ages_10":"10","02_ages_11":"11","02_ages_12":"12","02_ages_13":"13","02_ages_18":"18","03":"Yes","03_ages_7":"7","03_ages_8":"8","03_ages_9":"9","03_ages_10":"10","03_ages_11":"11","03_ages_12":"12","03_ages_13":"13","03_ages_14":"14","03_ages_15":"15","03_ages_16":"16","03_ages_17":"17","03_ages_18":"18","04":"No"},"rt":57949.400000572205,"item_order":[0,1,2,3],"radio_events":[8429.60000038147,23395.300000190735,40626.900000572205,55863.70000076294],"checkbox_events":[10667.20000076294,11365,11862.10000038147,12537.10000038147,13997.60000038147,14657.5,15607.10000038147,16044.800000190735,16749.20000076294,17363.20000076294,18031.900000572205,18706.5,19284.20000076294,20151,24860.400000572205,25461.900000572205,26017.5,26981.900000572205,27531.300000190735,28145.300000190735,28798.900000572205,29325.10000038147,30118.10000038147,32594.300000190735,33988.70000076294,36681.800000190735,44815.5,45305.10000038147,45823.900000572205,46625.20000076294,47189.10000038147,47684.900000572205,48308.60000038147,48790.5,49554.300000190735,50718.400000572205,51274,51986.300000190735],"key_events":[],"mouse_events":[8429.60000038147,10667.20000076294,11365,11862.10000038147,12537.10000038147,13137.400000572205,13715.800000190735,13997.60000038147,14657.5,15607.10000038147,16044.800000190735,16749.20000076294,17363.20000076294,18031.900000572205,18706.5,19284.20000076294,20151,23395.300000190735,24860.400000572205,25461.900000572205,26017.5,26981.900000572205,27531.300000190735,28145.300000190735,28798.900000572205,29325.10000038147,30118.10000038147,32594.300000190735,33988.70000076294,36681.800000190735,40626.900000572205,44815.5,45305.10000038147,45823.900000572205,46625.20000076294,47189.10000038147,47684.900000572205,48308.60000038147,48790.5,49554.300000190735,50362.400000572205,50718.400000572205,51274,51986.300000190735,55863.70000076294,56939.800000190735,57947.800000190735],"honeypot":0,"survey":"mace","page":8,"trial_type":"survey-mace","trial_index":16,"time_elapsed":659125,"internal_node_id":"0.0-16.0","task_version":"prescreen-v0.3","browser_interactions":0},{"responses":{"01":"Yes","01_ages_1":"1","01_ages_2":"2","01_ages_3":"3","01_ages_4":"4","01_ages_5":"5","01_ages_6":"6","01_ages_7":"7","01_ages_8":"8","01_ages_9":"9","01_ages_10":"10","01_ages_11":"11","01_ages_12":"12","01_ages_13":"13","01_ages_14":"14","01_ages_15":"15","01_ages_16":"16","01_ages_17":"17","01_ages_18":"18","02":"Yes","02_ages_1":"1","02_ages_2":"2","02_ages_3":"3","02_ages_4":"4","02_ages_5":"5","02_ages_6":"6","02_ages_7":"7","02_ages_8":"8","02_ages_9":"9","02_ages_10":"10","02_ages_11":"11","02_ages_12":"12","02_ages_13":"13","02_ages_14":"14","02_ages_15":"15","02_ages_16":"16","02_ages_17":"17","02_ages_18":"18","03":"No","04":"Yes","04_ages_1":"1","04_ages_2":"2","04_ages_3":"3","04_ages_4":"4","04_ages_5":"5","04_ages_6":"6","04_ages_7":"7","04_ages_8":"8","04_ages_9":"9","04_ages_10":"10","04_ages_11":"11","04_ages_12":"12","04_ages_13":"13","04_ages_14":"14","04_ages_15":"15","04_ages_16":"16","04_ages_17":"17","04_ages_18":"18"},"rt":63208.599999427795,"item_order":[0,1,2,3],"radio_events":[3405.5999994277954,25816.5,43168,49359.800000190735],"checkbox_events":[10671.699999809265,11236.800000190735,11754.699999809265,12392.39999961853,13016.099999427795,13527.199999809265,14238.39999961853,16708.199999809265,17575.89999961853,18429,19073.5,20186.5,20661,21284,21818.199999809265,22351.800000190735,22989.5,23775.599999427795,28336,29063.300000190735,29700.89999961853,30471.800000190735,31013.199999809265,31643.5,32510.800000190735,33350.699999809265,33942.099999427795,34542.699999809265,35240.599999427795,35877.099999427795,37035,38258.699999809265,38748.5,39310.699999809265,40089.89999961853,40780.300000190735,50473.699999809265,51423.099999427795,51807.39999961853,52259.89999961853,53075.599999427795,53573.300000190735,54158,54848.599999427795,55552.89999961853,56161.699999809265,56709.39999961853,57281.39999961853,58311.5,58979.699999809265,59586.599999427795,60129.5,61018,62353.099999427795],"key_events":[],"mouse_events":[3405.5999994277954,10671.699999809265,11236.800000190735,11754.699999809265,12392.39999961853,13016.099999427795,13527.199999809265,14238.39999961853,16708.199999809265,17575.89999961853,18429,19073.5,19808.5,20186.5,20661,21284,21818.199999809265,22351.800000190735,22989.5,23464.5,23775.599999427795,25816.5,28336,29063.300000190735,29700.89999961853,30471.800000190735,31013.199999809265,31643.5,32192.300000190735,32510.800000190735,33023.199999809265,33350.699999809265,33942.099999427795,34542.699999809265,35240.599999427795,35877.099999427795,36626.300000190735,37035,37502.599999427795,38258.699999809265,38748.5,39310.699999809265,40089.89999961853,40780.300000190735,42744.699999809265,43168,49359.800000190735,50473.699999809265,50955.39999961853,51423.099999427795,51807.39999961853,52259.89999961853,53075.599999427795,53573.300000190735,54158,54848.599999427795,55552.89999961853,56161.699999809265,56709.39999961853,57281.39999961853,57740.89999961853,58311.5,58979.699999809265,59586.599999427795,60129.5,61018,61754.099999427795,62353.099999427795,63207.199999809265],"honeypot":0,"survey":"mace","page":9,"trial_type":"survey-mace","trial_index":17,"time_elapsed":722339,"internal_node_id":"0.0-17.0","task_version":"prescreen-v0.3","browser_interactions":0},{"responses":{"01":"No","02":"No","03":"Yes","03_ages_7":"7","03_ages_8":"8","03_ages_9":"9","03_ages_10":"10","03_ages_11":"11","03_ages_12":"12","03_ages_13":"13","03_ages_14":"14","03_ages_15":"15","03_ages_16":"16","03_ages_17":"17","03_ages_18":"18","04":"Yes","04_ages_11":"11","04_ages_12":"12","05":"Yes","05_ages_9":"9","05_ages_10":"10","05_ages_11":"11","05_ages_12":"12","05_ages_13":"13","05_ages_14":"14","05_ages_15":"15","06":"Yes","06_ages_17":"17","07":"No","08":"No"},"rt":48382,"item_order":[0,1,2,3,4,5,6,7],"radio_events":[3687,5666.5,7446.5,19260.199999809265,30540.89999961853,41591.29999923706,46100.699999809265,47562.099999427795],"checkbox_events":[9671.39999961853,10145.39999961853,10872.5,12652.39999961853,13202.199999809265,13774,14196.099999427795,14736.79999923706,15396.89999961853,15982.39999961853,16538.39999961853,16991.199999809265,21662.29999923706,22271.099999427795,22819.89999961853,24630,26031.099999427795,26684.89999961853,33536.699999809265,33990.199999809265,34419.89999961853,35383.79999923706,36036.099999427795,36963.79999923706,37528,43303.89999961853],"key_events":[],"mouse_events":[3687,5666.5,7446.5,8670.599999427795,9671.39999961853,10145.39999961853,10872.5,12652.39999961853,13202.199999809265,13774,14196.099999427795,14736.79999923706,15396.89999961853,15982.39999961853,16538.39999961853,16991.199999809265,19260.199999809265,21662.29999923706,22271.099999427795,22819.89999961853,24630,26031.099999427795,26684.89999961853,30540.89999961853,33536.699999809265,33990.199999809265,34419.89999961853,34879.79999923706,35383.79999923706,36036.099999427795,36963.79999923706,37528,41591.29999923706,43303.89999961853,46100.699999809265,47562.099999427795,48377.699999809265],"honeypot":0,"survey":"mace","page":10,"trial_type":"survey-mace","trial_index":18,"time_elapsed":770728,"internal_node_id":"0.0-18.0","task_version":"prescreen-v0.3","browser_interactions":0,"instructed":0},{"rt":5471.89999961853,"trial_type":"mental-health-alert","trial_index":19,"time_elapsed":776202,"internal_node_id":"0.0-19.0","task_version":"prescreen-v0.3","interactions":"[]"}]