[{"view_history":[{"page_index":0,"viewing_time":4600},{"page_index":1,"viewing_time":3735},{"page_index":2,"viewing_time":3670},{"page_index":3,"viewing_time":1226}],"rt":13231,"trial_type":"instructions","trial_index":0,"time_elapsed":13236,"internal_node_id":"0.0-0.0","task_version":"prescreen-v0.3"},{"rt":12588,"responses":{"age":"27","gender-categorical":"Female","gender-free-response":"","ethnicity":"Not Hispanic or Latino","race":["White"],"education":"Master degree or higher"},"trial_type":"survey-demo","trial_index":1,"time_elapsed":25832,"internal_node_id":"0.0-1.0","task_version":"prescreen-v0.3"},{"responses":{"Q19":"1","Q16":"2","Q17":"1","Q21":"3","Q04":"1","Q18":"0","Q15":"1","Q12":"1","Q14":"1","Q10":"0","Q01":"0","Q07":"1","Q11":"1","Q05":"1","Q06":"1","Q03":"0","Q20":"0","Q09":"0","Q08":"1","Q02":"0","Q13":"1"},"rt":161290,"item_order":[18,15,16,20,3,17,14,11,13,9,0,6,10,4,5,2,19,8,7,1,12],"radio_events":[7084,92834,96119,99180,107451,110844,113196,116656,121199,125226,125903,132240.00000000003,134274,140560,143890,147048,148583,151250,153435,156177,159520.00000000003],"key_events":[],"mouse_events":[6077,7084,92834,96119,99180,107451,110844,113196,116656,121199,123741,125226,125903,132240.00000000003,134274,140560,143890,145920,147048,148583,151250,153435,156177,159520.00000000003,161273],"straightlining":0.5714285714285714,"zigzagging":0.5,"honeypot":0,"survey":"sns","trial_type":"survey-template","trial_index":2,"time_elapsed":187128,"internal_node_id":"0.0-2.0","task_version":"prescreen-v0.3","browser_interactions":0,"infrequency":0},{"responses":{"Q05":"2","Q08":"2","Q03":"2","Q13":"0","Q07":"2","Q09":"2","Q06":"3","Q04":"1","Q11":"2","Q02":"1","Q12":"1","Q10":"2","Q01":"1"},"rt":53841,"item_order":[4,7,2,12,6,8,5,3,10,1,11,9,0],"radio_events":[11192,11627,17421,19814,22524,25032,27126,30069,35148.00000000003,39825,41885,46185,50723,52189],"key_events":[],"mouse_events":[7780,11192,11627,17421,19814,22524,25032,27126,30069,35148.00000000003,39825,41885,46185,50723,52189,53833.00000000003],"straightlining":0.5384615384615384,"zigzagging":0.4166666666666667,"honeypot":0,"survey":"bisbas","trial_type":"survey-template","trial_index":3,"time_elapsed":240972,"internal_node_id":"0.0-3.0","task_version":"prescreen-v0.3","browser_interactions":0,"infrequency":0},{"responses":{"Q01":"3","Q02":"3","Q03":"3"},"rt":29634.99999999997,"radio_events":[20373.99999999997,23516.99999999997,28661.99999999997],"key_events":[],"mouse_events":[20373.99999999997,23516.99999999997,28661.99999999997,29629.99999999997],"survey":"map","page":1,"trial_type":"survey-map","trial_index":4,"time_elapsed":270611,"internal_node_id":"0.0-4.0","task_version":"prescreen-v0.3","browser_interactions":0},{"responses":{"Q04":"3","Q05":"3","Q06":"3"},"rt":13162.000000000058,"radio_events":[6044,9051,12555],"key_events":[],"mouse_events":[6044,7893,9051,12555,13156],"survey":"map","page":2,"trial_type":"survey-map","trial_index":5,"time_elapsed":283777,"internal_node_id":"0.0-5.0","task_version":"prescreen-v0.3","browser_interactions":0},{"responses":{"Q07":"2","Q08":"4","Q09":"3"},"rt":14538.000000000058,"radio_events":[7803,11664,13948],"key_events":[],"mouse_events":[7803,11664,13948,14533],"survey":"map","page":3,"trial_type":"survey-map","trial_index":6,"time_elapsed":298318,"internal_node_id":"0.0-6.0","task_version":"prescreen-v0.3","browser_interactions":0},{"responses":{"Q10":"2","Q11":"2","Q12":"1","Q13":"1","Q16":"0","Q14":"1","Q15":"1"},"rt":30917,"radio_events":[4678,8812,14276,18012,22402,26240,29667],"key_events":[],"mouse_events":[4678,7886,8812,14276,18012,21526,22402,26240,29667,30909],"survey":"map","page":4,"trial_type":"survey-map","trial_index":7,"time_elapsed":329238,"internal_node_id":"0.0-7.0","task_version":"prescreen-v0.3","browser_interactions":0,"infrequency":0},{"view_history":[{"page_index":0,"viewing_time":3057},{"page_index":1,"viewing_time":5486}],"rt":8543,"trial_type":"instructions","trial_index":8,"time_elapsed":337783,"internal_node_id":"0.0-8.0","task_version":"prescreen-v0.3"},{"responses":{"01":"Yes","01_ages_12":"12","01_ages_13":"13","01_ages_14":"14","01_ages_15":"15","01_ages_16":"16","01_ages_17":"17","01_ages_18":"18","02":"Yes","02_ages_12":"12","02_ages_13":"13","02_ages_14":"14","02_ages_15":"15","02_ages_16":"16","02_ages_17":"17","02_ages_18":"18","03":"No","04":"Yes","04_ages_12":"12","05":"No","06":"No"},"rt":33940,"item_order":[0,1,2,3,4,5],"radio_events":[4065,17522,25368,26742,30538,32563],"checkbox_events":[12862.000000000058,13376,13768,14144,14467,14801,15093,19072,19395,19746,20130,20506,21447,21813,27753],"key_events":[],"mouse_events":[0,4065,12862.000000000058,13376,13768,14144,14467,14801,15093,17522,19072,19395,19746,20130,20506,20904,21447,21813,25368,26742,27753,30538,32563,33923],"honeypot":0,"survey":"mace","page":1,"trial_type":"survey-mace","trial_index":9,"time_elapsed":371731,"internal_node_id":"0.0-9.0","task_version":"prescreen-v0.3","browser_interactions":0},{"responses":{"01":"No","02":"No","03":"No","04":"No","05":"No","06":"No","07":"No","08":"No"},"rt":22660,"item_order":[0,1,2,3,4,5,6,7],"radio_events":[4772,7907,9424,11809,14036,16204.000000000058,17929,19505],"checkbox_events":[],"key_events":[],"mouse_events":[3245.000000000058,4772,7907,8531.000000000058,9424,11809,14036,16204.000000000058,17929,19505,22649],"honeypot":0,"survey":"mace","page":2,"trial_type":"survey-mace","trial_index":10,"time_elapsed":394396,"internal_node_id":"0.0-10.0","task_version":"prescreen-v0.3","browser_interactions":0},{"responses":{"01":"Yes","01_ages_4":"4","01_ages_5":"5","01_ages_6":"6","01_ages_7":"7","01_ages_8":"8","01_ages_9":"9","01_ages_10":"10","02":"No","03":"No","04":"No"},"rt":24763.00000000006,"item_order":[0,1,2,3],"radio_events":[3710,19034,19752,22361,24110],"checkbox_events":[11772,12113,12471,12797,13531,14756,15090.000000000058],"key_events":[],"mouse_events":[3710,11772,12113,12471,12797,13531,14756,15090.000000000058,19034,19752,22361,23469,24110,24754],"honeypot":0,"survey":"mace","page":3,"trial_type":"survey-mace","trial_index":11,"time_elapsed":419165,"internal_node_id":"0.0-11.0","task_version":"prescreen-v0.3","browser_interactions":0},{"responses":{"01":"No","02":"No"},"rt":5251,"item_order":[0,1],"radio_events":[2744.000000000058,4763],"checkbox_events":[],"key_events":[],"mouse_events":[2744.000000000058,4763,5246],"honeypot":0,"survey":"mace","page":4,"trial_type":"survey-mace","trial_index":12,"time_elapsed":424422,"internal_node_id":"0.0-12.0","task_version":"prescreen-v0.3","browser_interactions":0},{"responses":{"01":"No","02":"No","03":"No","04":"No","05":"No"},"rt":15397.000000000058,"item_order":[0,1,2,3,4],"radio_events":[4716,8410,10528,12036,13787],"checkbox_events":[],"key_events":[],"mouse_events":[4716,6774,8410,10528,12036,13787,15389],"honeypot":0,"survey":"mace","page":5,"trial_type":"survey-mace","trial_index":13,"time_elapsed":439827,"internal_node_id":"0.0-13.0","task_version":"prescreen-v0.3","browser_interactions":0},{"responses":{"01":"Yes","01_ages_12":"12","01_ages_13":"13","01_ages_14":"14","01_ages_15":"15","01_ages_16":"16","02":"Yes","02_ages_12":"12","02_ages_13":"13","02_ages_14":"14","02_ages_15":"15","02_ages_16":"16","03":"No","04":"No","05":"No"},"rt":25985,"item_order":[0,1,2,3,4],"radio_events":[4114,10017,11215,16511.00000000006,18413,23589],"checkbox_events":[7098,7396,7696.000000000058,7988,8271,11967,12282,12599,12957,13257],"key_events":[],"mouse_events":[4114,7098,7396,7696.000000000058,7988,8271,10017,11215,11967,12282,12599,12957,13257,16511.00000000006,18413,21896,23078,23589,25975.00000000006],"honeypot":0,"survey":"mace","page":6,"trial_type":"survey-mace","trial_index":14,"time_elapsed":465818,"internal_node_id":"0.0-14.0","task_version":"prescreen-v0.3","browser_interactions":0},{"responses":{"01":"No","02":"No","03":"No","04":"No","05":"No","06":"No","07":"No"},"rt":16217,"item_order":[0,1,2,3,4,5,6],"radio_events":[6028,8379,10238,11856,12482,14316,15224],"checkbox_events":[],"key_events":[],"mouse_events":[6028,8379,10238,11856,12482,14316,15224,16208],"honeypot":0,"survey":"mace","page":7,"trial_type":"survey-mace","trial_index":15,"time_elapsed":482042,"internal_node_id":"0.0-15.0","task_version":"prescreen-v0.3","browser_interactions":0},{"responses":{"01":"Yes","01_ages_6":"6","01_ages_7":"7","01_ages_8":"8","01_ages_9":"9","01_ages_10":"10","01_ages_11":"11","01_ages_12":"12","01_ages_13":"13","01_ages_14":"14","01_ages_15":"15","01_ages_16":"16","02":"Yes","02_ages_1":"1","02_ages_2":"2","02_ages_3":"3","02_ages_4":"4","02_ages_5":"5","02_ages_6":"6","02_ages_7":"7","02_ages_8":"8","02_ages_9":"9","02_ages_10":"10","02_ages_11":"11","02_ages_12":"12","02_ages_13":"13","02_ages_14":"14","02_ages_15":"15","02_ages_16":"16","02_ages_17":"17","02_ages_18":"18","03":"No","04":"No"},"rt":32297.00000000006,"item_order":[0,1,2,3],"radio_events":[5771.000000000058,16809,28342,31708.99999999994],"checkbox_events":[7640,8806,9191,9547,9897,10255,10656,10981,11348,11975.000000000058,12733,18262,18534,18835,19203,19552.00000000006,19877,20194.00000000006,20537,20895,21687,22003,22388,22746,23130,23538,23980.00000000006,24397,24738],"key_events":[],"mouse_events":[5771.000000000058,7640,7979,8421,8806,9191,9547,9897,10255,10656,10981,11348,11975.000000000058,12733,16043,16809,18262,18534,18835,19203,19552.00000000006,19877,20194.00000000006,20537,20895,21252,21687,22003,22388,22746,23130,23538,23980.00000000006,24397,24738,28342,30626,31350.00000000006,31708.99999999994,32285.99999999994],"honeypot":0,"survey":"mace","page":8,"trial_type":"survey-mace","trial_index":16,"time_elapsed":514345,"internal_node_id":"0.0-16.0","task_version":"prescreen-v0.3","browser_interactions":0},{"responses":{"01":"Yes","01_ages_1":"1","01_ages_2":"2","01_ages_3":"3","01_ages_4":"4","01_ages_5":"5","01_ages_6":"6","01_ages_7":"7","01_ages_8":"8","01_ages_9":"9","01_ages_10":"10","01_ages_11":"11","01_ages_12":"12","01_ages_13":"13","01_ages_14":"14","01_ages_15":"15","01_ages_16":"16","01_ages_17":"17","01_ages_18":"18","02":"Yes","02_ages_1":"1","02_ages_2":"2","02_ages_3":"3","02_ages_4":"4","02_ages_5":"5","02_ages_6":"6","02_ages_7":"7","02_ages_8":"8","02_ages_9":"9","02_ages_10":"10","02_ages_11":"11","02_ages_12":"12","02_ages_13":"13","02_ages_14":"14","02_ages_15":"15","02_ages_16":"16","02_ages_17":"17","02_ages_18":"18","03":"Yes","03_ages_1":"1","03_ages_2":"2","03_ages_3":"3","03_ages_4":"4","03_ages_5":"5","03_ages_6":"6","03_ages_7":"7","03_ages_8":"8","03_ages_9":"9","03_ages_13":"13","03_ages_14":"14","03_ages_15":"15","03_ages_16":"16","03_ages_17":"17","03_ages_18":"18","04":"Yes","04_ages_1":"1","04_ages_2":"2","04_ages_3":"3","04_ages_4":"4","04_ages_5":"5","04_ages_6":"6","04_ages_7":"7","04_ages_8":"8","04_ages_9":"9","04_ages_10":"10","04_ages_11":"11","04_ages_12":"12","04_ages_13":"13","04_ages_14":"14","04_ages_15":"15","04_ages_16":"16","04_ages_17":"17","04_ages_18":"18"},"rt":46664,"item_order":[0,1,2,3],"radio_events":[2318,14415,25415,36237],"checkbox_events":[4468,4725.000000000058,5035,5293,5593,5884,6184,6468,6785,7110,7427.000000000058,7677.000000000058,8011,9121,9411,9871,10446,10771,15557,15925,16991,17392.000000000116,17759,18108,18450,18858,19209,19543,19917,20293,20635,21010,21436,21826,22512,23079,26166.000000000116,26455,27397.000000000116,27722,28081,28447,28831,29189,30265,31616,31931,32291.000000000116,32607,32907,33183,37178,38035,38403,38802,39146,39428,39778,40096,41205,41647.00000000012,41989,42356,42723,43325,44114,45014,45399,46258],"key_events":[],"mouse_events":[2318,4468,4725.000000000058,5035,5293,5593,5884,6184,6468,6785,7110,7427.000000000058,7677.000000000058,8011,8386,8669,9121,9411,9871,10446,10771,13272.000000000116,13747,14415,15215,15557,15925,16991,17392.000000000116,17759,18108,18450,18858,19209,19543,19917,20293,20635,21010,21436,21826,22512,23079,25415,26166.000000000116,26455,26973,27397.000000000116,27722,28081,28447,28831,29189,30265,31616,31931,32291.000000000116,32607,32907,33183,36237,37178,37777,38035,38403,38802,39146,39428,39778,40096,41205,41647.00000000012,41989,42356,42723,43325,43690.00000000012,44114,44548,45014,45399,45807,46258,46651],"honeypot":0,"survey":"mace","page":9,"trial_type":"survey-mace","trial_index":17,"time_elapsed":561016,"internal_node_id":"0.0-17.0","task_version":"prescreen-v0.3","browser_interactions":0},{"responses":{"01":"No","02":"No","03":"Yes","03_ages_9":"9","03_ages_10":"10","03_ages_11":"11","03_ages_12":"12","03_ages_13":"13","03_ages_14":"14","03_ages_15":"15","03_ages_16":"16","03_ages_17":"17","03_ages_18":"18","04":"No","05":"No","06":"Yes","06_ages_17":"17","07":"No","08":"No"},"rt":25947.999999999884,"item_order":[0,1,2,3,4,5,6,7],"radio_events":[2464.9999999998836,3156.9999999998836,5132.999999999884,13638.999999999884,14929.999999999884,17406.999999999884,22327.999999999884,25383.999999999884],"checkbox_events":[6793.999999999884,8507.999999999884,8983.999999999884,9408.999999999884,9775.999999999884,10168,10525.999999999884,10876.999999999884,11226,11560.999999999884,18582.999999999884],"key_events":[],"mouse_events":[2464.9999999998836,3156.9999999998836,5132.999999999884,6793.999999999884,7147.999999999884,8507.999999999884,8983.999999999884,9408.999999999884,9775.999999999884,10168,10525.999999999884,10876.999999999884,11226,11560.999999999884,13638.999999999884,14929.999999999884,17406.999999999884,18582.999999999884,22327.999999999884,23784.999999999884,24166.999999999884,24841.999999999884,25383.999999999884,25935.999999999884],"honeypot":0,"survey":"mace","page":10,"trial_type":"survey-mace","trial_index":18,"time_elapsed":586971,"internal_node_id":"0.0-18.0","task_version":"prescreen-v0.3","browser_interactions":0,"instructed":0},{"rt":9630,"trial_type":"mental-health-alert","trial_index":19,"time_elapsed":596606,"internal_node_id":"0.0-19.0","task_version":"prescreen-v0.3","interactions":"[]"}]