[{"view_history":[{"page_index":0,"viewing_time":2847.7999999523163},{"page_index":1,"viewing_time":24987.299999952316},{"page_index":2,"viewing_time":2630.3000000715256},{"page_index":3,"viewing_time":984.5}],"rt":31450.899999976158,"trial_type":"instructions","trial_index":0,"time_elapsed":31470,"internal_node_id":"0.0-0.0","task_version":"prescreen-v0.3"},{"rt":49627,"responses":{"age":"27","gender-categorical":"Female","gender-free-response":"","ethnicity":"Not Hispanic or Latino","race":["White"],"education":"Master degree or higher"},"trial_type":"survey-demo","trial_index":1,"time_elapsed":81103,"internal_node_id":"0.0-1.0","task_version":"prescreen-v0.3"},{"responses":{"Q07":"1","Q18":"2","Q10":"1","Q08":"1","Q01":"2","Q05":"1","Q13":"2","Q14":"2","Q03":"1","Q06":"1","Q16":"2","Q21":"3","Q04":"1","Q17":"1","Q20":"1","Q12":"1","Q11":"2","Q15":"2","Q09":"1","Q19":"1","Q02":"1"},"rt":78010.70000004768,"item_order":[6,17,9,7,0,4,12,13,2,5,15,20,3,16,19,11,10,14,8,18,1],"radio_events":[7670,10439.899999976158,14086,16341.700000047684,19168.100000023842,22869.899999976158,25532,28702.200000047684,31318.399999976158,33759.89999997616,37492.200000047684,40554.200000047684,44339.700000047684,48171.799999952316,50779.89999997616,54192,55950,59704.10000002384,63656.200000047684,71644,77430],"key_events":[],"mouse_events":[6796.399999976158,7670,10439.899999976158,12560,13384,14086,16341.700000047684,19168.100000023842,22869.899999976158,25532,28702.200000047684,31318.399999976158,33759.89999997616,37086.200000047684,37492.200000047684,40092.200000047684,40554.200000047684,43966.10000002384,44339.700000047684,48171.799999952316,50779.89999997616,54192,55950,59704.10000002384,63656.200000047684,71644,77430,78008],"straightlining":0.6190476190476191,"zigzagging":0.5,"honeypot":0,"survey":"sns","trial_type":"survey-template","trial_index":2,"time_elapsed":159121,"internal_node_id":"0.0-2.0","task_version":"prescreen-v0.3","browser_interactions":0,"infrequency":0},{"responses":{"Q11":"1","Q06":"2","Q02":"3","Q03":"2","Q05":"2","Q09":"2","Q10":"2","Q13":"0","Q12":"1","Q07":"2","Q04":"3","Q01":"3","Q08":"2"},"rt":92633.90000009537,"item_order":[10,5,1,2,4,8,9,12,11,6,3,0,7],"radio_events":[55472.300000071526,58702.40000009537,60578.5,63427.40000009537,65778.10000002384,69794.10000002384,72128.20000004768,74284.40000009537,83786.20000004768,86168.60000002384,88408.10000002384,89595.80000007153,92029.90000009537],"key_events":[],"mouse_events":[55472.300000071526,58702.40000009537,60578.5,63005.60000002384,63427.40000009537,65778.10000002384,69794.10000002384,72128.20000004768,74284.40000009537,83786.20000004768,86168.60000002384,88408.10000002384,89595.80000007153,92029.90000009537,92632.30000007153],"straightlining":0.5384615384615384,"zigzagging":0.5833333333333334,"honeypot":0,"survey":"bisbas","trial_type":"survey-template","trial_index":3,"time_elapsed":251762,"internal_node_id":"0.0-3.0","task_version":"prescreen-v0.3","browser_interactions":2,"infrequency":0},{"responses":{"Q01":"2","Q02":"2","Q03":"2"},"rt":10715.699999928474,"radio_events":[3177,6085.099999904633,10075.099999904633],"key_events":[],"mouse_events":[3177,6085.099999904633,10075.099999904633,10714.899999976158],"survey":"map","page":1,"trial_type":"survey-map","trial_index":4,"time_elapsed":262489,"internal_node_id":"0.0-4.0","task_version":"prescreen-v0.3","browser_interactions":0},{"responses":{"Q04":"2","Q05":"1","Q06":"1"},"rt":9963.300000071526,"radio_events":[4644,6167.800000071526,6872.100000023842,9227.900000095367],"key_events":[],"mouse_events":[4644,6167.800000071526,6872.100000023842,8463,9227.900000095367,9962.600000023842],"survey":"map","page":2,"trial_type":"survey-map","trial_index":5,"time_elapsed":272460,"internal_node_id":"0.0-5.0","task_version":"prescreen-v0.3","browser_interactions":0},{"responses":{"Q07":"2","Q08":"0","Q09":"2"},"rt":11369.100000023842,"radio_events":[3740.5,7092.399999976158,10760.5],"key_events":[],"mouse_events":[3740.5,7092.399999976158,10760.5,11368.5],"survey":"map","page":3,"trial_type":"survey-map","trial_index":6,"time_elapsed":283836,"internal_node_id":"0.0-6.0","task_version":"prescreen-v0.3","browser_interactions":0},{"responses":{"Q10":"1","Q11":"1","Q12":"1","Q13":"2","Q16":"0","Q14":"1","Q15":"1"},"rt":24766.700000047684,"radio_events":[4230.5,6478.700000047684,9672.600000023842,12297.200000047684,15832.5,18128.700000047684,23976.900000095367],"key_events":[],"mouse_events":[4230.5,6478.700000047684,9672.600000023842,12297.200000047684,15450.600000023842,15832.5,18128.700000047684,23976.900000095367,24765.400000095367],"survey":"map","page":4,"trial_type":"survey-map","trial_index":7,"time_elapsed":308612,"internal_node_id":"0.0-7.0","task_version":"prescreen-v0.3","browser_interactions":0,"infrequency":0},{"view_history":[{"page_index":0,"viewing_time":6283.200000047684},{"page_index":1,"viewing_time":2636}],"rt":8919.600000023842,"trial_type":"instructions","trial_index":8,"time_elapsed":317539,"internal_node_id":"0.0-8.0","task_version":"prescreen-v0.3"},{"responses":{"01":"No","02":"Yes","02_ages_14":"14","02_ages_15":"15","02_ages_16":"16","02_ages_17":"17","03":"No","04":"No","05":"No","06":"No"},"rt":30832,"item_order":[0,1,2,3,4,5],"radio_events":[3214.3000000715256,12770.200000047684,15574,26808.300000071526,27698,28574.100000023842,29682.100000023842],"checkbox_events":[20126.600000023842,21024.200000047684,21742,22172],"key_events":[],"mouse_events":[0.20000004768371582,3214.3000000715256,12770.200000047684,15574,20126.600000023842,20523.899999976158,21024.200000047684,21430,21742,22172,25965.399999976158,26808.300000071526,27698,28574.100000023842,29682.100000023842,30829.800000071526],"honeypot":0,"survey":"mace","page":1,"trial_type":"survey-mace","trial_index":9,"time_elapsed":348378,"internal_node_id":"0.0-9.0","task_version":"prescreen-v0.3","browser_interactions":0},{"responses":{"01":"No","02":"No","03":"Yes","03_ages_4":"4","03_ages_5":"5","03_ages_6":"6","03_ages_7":"7","03_ages_8":"8","04":"No","05":"No","06":"No","07":"No","08":"No"},"rt":21171.600000023842,"item_order":[0,1,2,3,4,5,6,7],"radio_events":[1545,2513.100000023842,4807.400000095367,12561.200000047684,13725.300000071526,19449,20096.800000071526,20775.200000047684],"checkbox_events":[7150.900000095367,7685.300000071526,8157.100000023842,8767.400000095367,9437.200000047684],"key_events":[],"mouse_events":[1545,2513.100000023842,4807.400000095367,7150.900000095367,7685.300000071526,8157.100000023842,8767.400000095367,9437.200000047684,12561.200000047684,13725.300000071526,19449,20096.800000071526,20775.200000047684,21167.5],"honeypot":0,"survey":"mace","page":2,"trial_type":"survey-mace","trial_index":10,"time_elapsed":369557,"internal_node_id":"0.0-10.0","task_version":"prescreen-v0.3","browser_interactions":0},{"responses":{"01":"No","02":"No","03":"No","04":"No"},"rt":6369.5,"item_order":[0,1,2,3],"radio_events":[2384.8000000715256,3516.600000023842,5046.600000023842,6006.5],"checkbox_events":[],"key_events":[],"mouse_events":[2384.8000000715256,3516.600000023842,5046.600000023842,6006.5,6366.700000047684],"honeypot":0,"survey":"mace","page":3,"trial_type":"survey-mace","trial_index":11,"time_elapsed":375935,"internal_node_id":"0.0-11.0","task_version":"prescreen-v0.3","browser_interactions":0},{"responses":{"01":"No","02":"No"},"rt":3310.7999999523163,"item_order":[0,1],"radio_events":[1591.3999999761581,2787.2999999523163],"checkbox_events":[],"key_events":[],"mouse_events":[1591.3999999761581,2077.1999999284744,2787.2999999523163,3309.399999976158],"honeypot":0,"survey":"mace","page":4,"trial_type":"survey-mace","trial_index":12,"time_elapsed":379251,"internal_node_id":"0.0-12.0","task_version":"prescreen-v0.3","browser_interactions":0},{"responses":{"01":"No","02":"No","03":"No","04":"No","05":"No"},"rt":9720.700000047684,"item_order":[0,1,2,3,4],"radio_events":[3309.100000023842,4901,6478.5,8164.899999976158,9304.799999952316],"checkbox_events":[],"key_events":[],"mouse_events":[3309.100000023842,4901,6478.5,8164.899999976158,9304.799999952316,9718.700000047684],"honeypot":0,"survey":"mace","page":5,"trial_type":"survey-mace","trial_index":13,"time_elapsed":388981,"internal_node_id":"0.0-13.0","task_version":"prescreen-v0.3","browser_interactions":0},{"responses":{"01":"Yes","01_ages_10":"10","01_ages_11":"11","01_ages_12":"12","02":"Yes","02_ages_10":"10","02_ages_11":"11","02_ages_12":"12","03":"Yes","03_ages_10":"10","03_ages_11":"11","03_ages_12":"12","03_ages_13":"13","03_ages_14":"14","03_ages_15":"15","03_ages_16":"16","03_ages_17":"17","04":"Yes","04_ages_12":"12","04_ages_13":"13","04_ages_14":"14","04_ages_15":"15","04_ages_16":"16","04_ages_17":"17","05":"No"},"rt":32611.600000023842,"item_order":[0,1,2,3,4],"radio_events":[8745.799999952316,14921.799999952316,15671.899999976158,20491.799999952316,26689.899999976158,32085.699999928474],"checkbox_events":[12353.899999976158,12689.699999928474,13359.5,16601.600000023842,16881.899999976158,17210.399999976158,21465.799999952316,22629.899999976158,23041.899999976158,23371.799999952316,23917.699999928474,24245.799999952316,24901.5,25251.899999976158,28641.699999928474,29024,29367.600000023842,29711.799999952316,30039.799999952316,30499.899999976158],"key_events":[],"mouse_events":[8745.799999952316,11768,12353.899999976158,12689.699999928474,13359.5,14921.799999952316,15671.899999976158,16601.600000023842,16881.899999976158,17210.399999976158,20491.799999952316,21465.799999952316,21817.899999976158,22629.899999976158,23041.899999976158,23371.799999952316,23917.699999928474,24245.799999952316,24901.5,25251.899999976158,26689.899999976158,28641.699999928474,29024,29367.600000023842,29711.799999952316,30039.799999952316,30499.899999976158,32085.699999928474,32608.299999952316],"honeypot":0,"survey":"mace","page":6,"trial_type":"survey-mace","trial_index":14,"time_elapsed":421600,"internal_node_id":"0.0-14.0","task_version":"prescreen-v0.3","browser_interactions":0},{"responses":{"01":"No","02":"No","03":"No","04":"No","05":"No","06":"No","07":"No"},"rt":9784.899999976158,"item_order":[0,1,2,3,4,5,6],"radio_events":[3133.2000000476837,4397.100000023842,5545.600000023842,6412.899999976158,7497,8793.200000047684,9246.700000047684],"checkbox_events":[],"key_events":[],"mouse_events":[3133.2000000476837,4397.100000023842,5545.600000023842,6412.899999976158,7497,8238.899999976158,8793.200000047684,9246.700000047684,9777],"honeypot":0,"survey":"mace","page":7,"trial_type":"survey-mace","trial_index":15,"time_elapsed":431398,"internal_node_id":"0.0-15.0","task_version":"prescreen-v0.3","browser_interactions":0},{"responses":{"01":"Yes","01_ages_1":"1","01_ages_2":"2","01_ages_3":"3","01_ages_4":"4","01_ages_5":"5","01_ages_6":"6","01_ages_7":"7","01_ages_8":"8","01_ages_9":"9","01_ages_10":"10","01_ages_11":"11","01_ages_12":"12","01_ages_13":"13","01_ages_14":"14","01_ages_15":"15","01_ages_16":"16","01_ages_17":"17","01_ages_18":"18","02":"Yes","02_ages_1":"1","02_ages_2":"2","02_ages_3":"3","02_ages_4":"4","02_ages_5":"5","02_ages_6":"6","02_ages_7":"7","02_ages_8":"8","02_ages_9":"9","02_ages_10":"10","02_ages_11":"11","02_ages_12":"12","02_ages_13":"13","02_ages_14":"14","02_ages_15":"15","02_ages_16":"16","02_ages_17":"17","02_ages_18":"18","03":"Yes","03_ages_1":"1","03_ages_2":"2","03_ages_3":"3","03_ages_4":"4","03_ages_5":"5","03_ages_6":"6","03_ages_7":"7","03_ages_8":"8","03_ages_9":"9","03_ages_10":"10","03_ages_11":"11","03_ages_12":"12","03_ages_13":"13","03_ages_14":"14","03_ages_15":"15","03_ages_16":"16","03_ages_17":"17","03_ages_18":"18","04":"Yes","04_ages_1":"1","04_ages_2":"2","04_ages_3":"3","04_ages_4":"4","04_ages_5":"5","04_ages_6":"6","04_ages_7":"7","04_ages_8":"8","04_ages_9":"9","04_ages_10":"10","04_ages_11":"11","04_ages_12":"12","04_ages_13":"13","04_ages_14":"14","04_ages_15":"15","04_ages_16":"16","04_ages_17":"17","04_ages_18":"18"},"rt":61410.300000071526,"item_order":[0,1,2,3],"radio_events":[5647.400000095367,22319.700000047684,35407.60000002384,45221.700000047684],"checkbox_events":[10630.100000023842,11277.5,11599.5,12067.600000023842,12583.700000047684,12918,13465.5,13855.200000047684,14245.600000023842,14995.700000047684,15425.700000047684,16291.800000071526,16635.600000023842,17213.600000023842,17557.5,18119.600000023842,18463.700000047684,19141.600000023842,23193.700000047684,24287.5,25099.800000071526,25951.700000047684,26271.5,26747.400000095367,27153.800000071526,27496.900000095367,27825.600000023842,28489.600000023842,28973.700000047684,29487.700000047684,30097.5,30651.700000047684,31089.100000023842,31511.5,31971.600000023842,32751.200000047684,36483.60000002384,37023.60000002384,37975.700000047684,38335.700000047684,38787.300000071526,39177.300000071526,39701.700000047684,40248.60000002384,40575.200000047684,41162.40000009537,41551.5,41903.800000071526,42309.60000002384,42691.60000002384,43105.5,43441.60000002384,43785.60000002384,44097.700000047684,46735.200000047684,47087.300000071526,47771.5,48313.60000002384,49257.300000071526,49953.40000009537,50367.60000002384,50921.800000071526,51459.60000002384,52249.5,52795.60000002384,53287.200000047684,58199.60000002384,58659.60000002384,59291.90000009537,59713.700000047684,60135.60000002384,60455.60000002384],"key_events":[],"mouse_events":[4962.300000071526,5313.300000071526,5647.400000095367,8460.300000071526,10630.100000023842,11277.5,11599.5,12067.600000023842,12583.700000047684,12918,13465.5,13855.200000047684,14245.600000023842,14581.700000047684,14995.700000047684,15425.700000047684,15925.600000023842,16291.800000071526,16635.600000023842,17213.600000023842,17557.5,18119.600000023842,18463.700000047684,18799.600000023842,19141.600000023842,22319.700000047684,23193.700000047684,23881.600000023842,24287.5,24577.5,25099.800000071526,25951.700000047684,26271.5,26747.400000095367,27153.800000071526,27496.900000095367,27825.600000023842,28489.600000023842,28973.700000047684,29487.700000047684,29808.100000023842,30097.5,30651.700000047684,31089.100000023842,31511.5,31971.600000023842,32408.900000095367,32751.200000047684,35407.60000002384,36483.60000002384,37023.60000002384,37671.40000009537,37975.700000047684,38335.700000047684,38787.300000071526,39177.300000071526,39701.700000047684,40248.60000002384,40575.200000047684,41162.40000009537,41551.5,41903.800000071526,42309.60000002384,42691.60000002384,43105.5,43441.60000002384,43785.60000002384,44097.700000047684,45221.700000047684,46735.200000047684,47087.300000071526,47771.5,48313.60000002384,48945.700000047684,49257.300000071526,49953.40000009537,50367.60000002384,50921.800000071526,51459.60000002384,51795.40000009537,52249.5,52795.60000002384,53287.200000047684,53709.700000047684,54239.5,54653.5,57518.90000009537,58199.60000002384,58659.60000002384,59291.90000009537,59713.700000047684,60135.60000002384,60455.60000002384,60981.60000002384,61407.700000047684],"honeypot":0,"survey":"mace","page":8,"trial_type":"survey-mace","trial_index":16,"time_elapsed":492819,"internal_node_id":"0.0-16.0","task_version":"prescreen-v0.3","browser_interactions":0},{"responses":{"01":"Yes","01_ages_1":"1","01_ages_2":"2","01_ages_3":"3","01_ages_4":"4","01_ages_5":"5","01_ages_6":"6","01_ages_7":"7","01_ages_8":"8","01_ages_9":"9","01_ages_10":"10","01_ages_11":"11","01_ages_12":"12","01_ages_13":"13","01_ages_14":"14","01_ages_15":"15","01_ages_16":"16","01_ages_17":"17","01_ages_18":"18","02":"Yes","02_ages_1":"1","02_ages_2":"2","02_ages_3":"3","02_ages_4":"4","02_ages_5":"5","02_ages_6":"6","02_ages_7":"7","02_ages_8":"8","02_ages_9":"9","02_ages_10":"10","02_ages_11":"11","02_ages_12":"12","02_ages_13":"13","02_ages_14":"14","02_ages_15":"15","02_ages_16":"16","02_ages_17":"17","02_ages_18":"18","03":"Yes","03_ages_1":"1","03_ages_2":"2","03_ages_3":"3","03_ages_4":"4","03_ages_5":"5","03_ages_6":"6","03_ages_7":"7","03_ages_8":"8","03_ages_9":"9","03_ages_10":"10","03_ages_11":"11","03_ages_12":"12","03_ages_13":"13","03_ages_14":"14","03_ages_15":"15","03_ages_16":"16","03_ages_17":"17","03_ages_18":"18","04":"Yes","04_ages_1":"1","04_ages_2":"2","04_ages_3":"3","04_ages_4":"4","04_ages_5":"5","04_ages_6":"6","04_ages_7":"7","04_ages_8":"8","04_ages_9":"9","04_ages_10":"10","04_ages_11":"11","04_ages_12":"12","04_ages_13":"13","04_ages_14":"14","04_ages_15":"15","04_ages_16":"16","04_ages_17":"17","04_ages_18":"18"},"rt":65716.90000009537,"item_order":[0,1,2,3],"radio_events":[4567.200000047684,19839.100000023842,33221,46266.300000071526],"checkbox_events":[7339.800000071526,8275.100000023842,9110.800000071526,9495.200000047684,10057.200000047684,11046.400000095367,11595.400000095367,12171,12765.100000023842,13179.200000047684,14093,14575.300000071526,15061,16168.400000095367,16529.100000023842,17160.600000023842,17653.200000047684,18026.5,18597.200000047684,18941,21019.200000047684,21479.200000047684,21877.200000047684,22415.100000023842,23423,23759.200000047684,24227.200000047684,24797.5,25087.200000047684,26379.200000047684,26740.900000095367,27313.100000023842,27888.700000047684,28319.200000047684,28786.900000095367,29185.100000023842,29583,30582.800000071526,35656.800000071526,36165.200000047684,37632.700000047684,38178.800000071526,38609.10000002384,39077.200000047684,39810.90000009537,40193.5,40615.10000002384,41200.60000002384,42505.10000002384,43302.40000009537,43620.800000071526,44003,44425.200000047684,44838.90000009537,45221,45565.10000002384,47297.10000002384,56908.90000009537,57502.800000071526,58259.10000002384,58790.90000009537,59439,59789,60248.90000009537,61132.800000071526,61794.800000071526,62282.90000009537,62639,63053,63434.700000047684,63795,64193.10000002384,64527,65175.200000047684],"key_events":[],"mouse_events":[4567.200000047684,7339.800000071526,8275.100000023842,9110.800000071526,9495.200000047684,10057.200000047684,10360.900000095367,11046.400000095367,11595.400000095367,12171,12765.100000023842,13179.200000047684,14093,14575.300000071526,15061,15373.100000023842,16168.400000095367,16529.100000023842,17160.600000023842,17653.200000047684,18026.5,18597.200000047684,18941,19839.100000023842,21019.200000047684,21479.200000047684,21877.200000047684,22415.100000023842,22729.100000023842,23423,23759.200000047684,24227.200000047684,24797.5,25087.200000047684,25907.100000023842,26379.200000047684,26740.900000095367,27313.100000023842,27888.700000047684,28319.200000047684,28786.900000095367,29185.100000023842,29583,29950.900000095367,30582.800000071526,32581.100000023842,33221,35656.800000071526,36165.200000047684,36766.700000047684,37632.700000047684,38178.800000071526,38609.10000002384,39077.200000047684,39810.90000009537,40193.5,40615.10000002384,41200.60000002384,42114.700000047684,42505.10000002384,42833,43302.40000009537,43620.800000071526,44003,44425.200000047684,44838.90000009537,45221,45565.10000002384,46266.300000071526,47297.10000002384,48891.10000002384,56572.90000009537,56908.90000009537,57502.800000071526,58259.10000002384,58790.90000009537,59439,59789,60248.90000009537,61132.800000071526,61794.800000071526,62282.90000009537,62639,63053,63434.700000047684,63795,64193.10000002384,64527,64855,65175.200000047684,65714.70000004768],"honeypot":0,"survey":"mace","page":9,"trial_type":"survey-mace","trial_index":17,"time_elapsed":558542,"internal_node_id":"0.0-17.0","task_version":"prescreen-v0.3","browser_interactions":0},{"responses":{"01":"No","02":"No","03":"No","04":"Yes","04_ages_11":"11","04_ages_12":"12","04_ages_13":"13","04_ages_14":"14","04_ages_15":"15","04_ages_16":"16","04_ages_17":"17","04_ages_18":"18","05":"No","06":"Yes","06_ages_17":"17","07":"Yes","07_ages_1":"1","07_ages_2":"2","07_ages_3":"3","07_ages_4":"4","07_ages_5":"5","07_ages_6":"6","07_ages_7":"7","07_ages_8":"8","07_ages_9":"9","07_ages_10":"10","07_ages_11":"11","07_ages_12":"12","07_ages_13":"13","07_ages_14":"14","07_ages_15":"15","07_ages_16":"16","07_ages_17":"17","07_ages_18":"18","08":"Yes","08_ages_1":"1","08_ages_2":"2","08_ages_3":"3","08_ages_4":"4","08_ages_5":"5","08_ages_6":"6","08_ages_7":"7","08_ages_8":"8","08_ages_9":"9","08_ages_10":"10","08_ages_11":"11","08_ages_12":"12","08_ages_13":"13","08_ages_14":"14","08_ages_15":"15","08_ages_16":"16","08_ages_17":"17","08_ages_18":"18"},"rt":78937.10000002384,"item_order":[0,1,2,3,4,5,6,7],"radio_events":[11201.200000047684,11903.300000071526,33422.5,34421.200000047684,46988.700000047684,47763.10000002384,52812.5,67543],"checkbox_events":[40384.800000071526,41010.800000071526,41495.10000002384,41954.60000002384,42406.800000071526,42898.89999997616,43375,43883.300000071526,48863,58230.800000071526,58714.60000002384,59057.200000047684,59446.5,59845,60220.60000002384,60820.800000071526,61141,61546.89999997616,61928.800000071526,62523.10000002384,62864.39999997616,63810.39999997616,64483.300000071526,64910.200000047684,65286.200000047684,65668.30000007153,66075,68938.80000007153,69860.60000002384,70509.89999997616,70860.89999997616,71718.89999997616,72076.60000002384,72772.80000007153,73122.80000007153,73536.89999997616,73950.89999997616,74451.30000007153,75222.89999997616,75636.10000002384,76316.80000007153,76924.39999997616,77230.80000007153,77768.89999997616,78236.80000007153],"key_events":[],"mouse_events":[11201.200000047684,11903.300000071526,33422.5,34421.200000047684,40384.800000071526,41010.800000071526,41495.10000002384,41954.60000002384,42406.800000071526,42898.89999997616,43375,43883.300000071526,46286.700000047684,46988.700000047684,47763.10000002384,48863,52812.5,58230.800000071526,58714.60000002384,59057.200000047684,59446.5,59845,60220.60000002384,60820.800000071526,61141,61546.89999997616,61928.800000071526,62523.10000002384,62864.39999997616,63318.5,63810.39999997616,64483.300000071526,64910.200000047684,65286.200000047684,65668.30000007153,66075,67543,68627.20000004768,68938.80000007153,69860.60000002384,70509.89999997616,70860.89999997616,71304.89999997616,71718.89999997616,72076.60000002384,72772.80000007153,73122.80000007153,73536.89999997616,73950.89999997616,74451.30000007153,74840.80000007153,75222.89999997616,75636.10000002384,76020.89999997616,76316.80000007153,76924.39999997616,77230.80000007153,77768.89999997616,78236.80000007153,78932.89999997616],"honeypot":0,"survey":"mace","page":10,"trial_type":"survey-mace","trial_index":18,"time_elapsed":637488,"internal_node_id":"0.0-18.0","task_version":"prescreen-v0.3","browser_interactions":0,"instructed":0},{"rt":4271,"trial_type":"mental-health-alert","trial_index":19,"time_elapsed":641767,"internal_node_id":"0.0-19.0","task_version":"prescreen-v0.3","interactions":"[{\"event\":\"blur\",\"trial\":0,\"time\":3829},{\"event\":\"focus\",\"trial\":0,\"time\":25355},{\"event\":\"blur\",\"trial\":1,\"time\":38083},{\"event\":\"focus\",\"trial\":1,\"time\":74444},{\"event\":\"blur\",\"trial\":3,\"time\":161396},{\"event\":\"focus\",\"trial\":3,\"time\":207157}]"}]