[{"view_history":[{"page_index":0,"viewing_time":2239},{"page_index":1,"viewing_time":1766},{"page_index":2,"viewing_time":2512},{"page_index":3,"viewing_time":833}],"rt":7350,"trial_type":"instructions","trial_index":0,"time_elapsed":7360,"internal_node_id":"0.0-0.0","task_version":"prescreen-v0.3"},{"rt":9770,"responses":{"age":"32","gender-categorical":"Male","gender-free-response":"","ethnicity":"Not Hispanic or Latino","race":["White"],"education":"Bachelor degree","siblings":"2"},"trial_type":"survey-demo","trial_index":1,"time_elapsed":17149,"internal_node_id":"0.0-1.0","task_version":"prescreen-v0.3"},{"responses":{"Q19":"0","Q07":"0","Q12":"1","Q04":"0","Q21":"3","Q09":"2","Q16":"1","Q03":"0","Q08":"1","Q15":"1","Q01":"2","Q02":"1","Q20":"0","Q05":"0","Q11":"2","Q06":"1","Q14":"0","Q18":"0","Q10":"1","Q17":"1","Q13":"1"},"rt":91062,"item_order":[18,6,11,3,20,8,15,2,7,14,0,1,19,4,10,5,13,17,9,16,12],"radio_events":[24547,28858,32931,40595,43220,46244,50091,53444,55572,59523,61636,64172,66156,71669,73557,76260,79133,81269,85469,87454,90294],"key_events":[],"mouse_events":[24547,27843,28858,32931,39995,40595,43220,46244,50091,52746,53444,55572,59523,61636,64172,66156,71669,73557,76260,79133,81269,85469,87454,90294,91061],"straightlining":0.42857142857142855,"zigzagging":0.65,"honeypot":0,"survey":"sns","trial_type":"survey-template","trial_index":2,"time_elapsed":108225,"internal_node_id":"0.0-2.0","task_version":"prescreen-v0.3","browser_interactions":0,"infrequency":0},{"responses":{"Q06":"2","Q09":"2","Q08":"2","Q12":"2","Q07":"3","Q03":"3","Q10":"2","Q04":"3","Q05":"3","Q11":"2","Q01":"2","Q02":"3","Q13":"0"},"rt":36539,"item_order":[5,8,7,11,6,2,9,3,4,10,0,1,12],"radio_events":[4972,6773,8340,10620,12411,15524,16900,19133,23364,24317,26445,28733,30325,32365,35078],"key_events":[],"mouse_events":[4972,6773,8340,9989,10620,12411,15524,16900,19133,23364,24317,26445,28733,30325,32365,35078,36539],"straightlining":0.5384615384615384,"zigzagging":0.5,"honeypot":0,"survey":"bisbas","trial_type":"survey-template","trial_index":3,"time_elapsed":144775,"internal_node_id":"0.0-3.0","task_version":"prescreen-v0.3","browser_interactions":0,"infrequency":0},{"responses":{"Q01":"3","Q02":"3","Q03":"3"},"rt":14244,"radio_events":[9153,11273,13546],"key_events":[],"mouse_events":[9153,11273,13546,14244],"survey":"map","page":1,"trial_type":"survey-map","trial_index":4,"time_elapsed":159026,"internal_node_id":"0.0-4.0","task_version":"prescreen-v0.3","browser_interactions":0},{"responses":{"Q04":"3","Q05":"3","Q06":"3"},"rt":13322,"radio_events":[11088,11944,12721],"key_events":[],"mouse_events":[11088,11944,12721,13322],"survey":"map","page":2,"trial_type":"survey-map","trial_index":5,"time_elapsed":172354,"internal_node_id":"0.0-5.0","task_version":"prescreen-v0.3","browser_interactions":0},{"responses":{"Q07":"3","Q08":"4","Q09":"2"},"rt":12980,"radio_events":[3952,4448,5336,10024,12049],"key_events":[],"mouse_events":[3952,4448,5336,10024,12049,12980],"survey":"map","page":3,"trial_type":"survey-map","trial_index":6,"time_elapsed":185342,"internal_node_id":"0.0-6.0","task_version":"prescreen-v0.3","browser_interactions":0},{"responses":{"Q10":"2","Q11":"2","Q12":"1","Q13":"1","Q16":"0","Q14":"3","Q15":"3"},"rt":25791,"radio_events":[2579,5003,8427,11155,14211,19139,25043],"key_events":[],"mouse_events":[2579,5003,8427,11155,14211,19139,25043,25791],"survey":"map","page":4,"trial_type":"survey-map","trial_index":7,"time_elapsed":211143,"internal_node_id":"0.0-7.0","task_version":"prescreen-v0.3","browser_interactions":0,"infrequency":0},{"view_history":[{"page_index":0,"viewing_time":2383},{"page_index":1,"viewing_time":3376}],"rt":5760,"trial_type":"instructions","trial_index":8,"time_elapsed":216906,"internal_node_id":"0.0-8.0","task_version":"prescreen-v0.3"},{"responses":{"01":"No","02":"No","03":"No","04":"No","05":"No","06":"No"},"rt":21430,"item_order":[0,1,2,3,4,5],"radio_events":[10389,11358,13572,15093,16221,20814],"checkbox_events":[],"key_events":[],"mouse_events":[0,10389,11358,13572,15093,16221,20814,21430],"honeypot":0,"survey":"mace","page":1,"trial_type":"survey-mace","trial_index":9,"time_elapsed":238358,"internal_node_id":"0.0-9.0","task_version":"prescreen-v0.3","browser_interactions":0},{"responses":{"01":"No","02":"No","03":"No","04":"No","05":"No","06":"No","07":"No","08":"No"},"rt":15597,"item_order":[0,1,2,3,4,5,6,7],"radio_events":[3744,5400,6930,8888,10224,11902,13279,14583],"checkbox_events":[],"key_events":[],"mouse_events":[2456,3744,5400,6930,8888,10224,11902,13279,14583,15596],"honeypot":0,"survey":"mace","page":2,"trial_type":"survey-mace","trial_index":10,"time_elapsed":253979,"internal_node_id":"0.0-10.0","task_version":"prescreen-v0.3","browser_interactions":0},{"responses":{"01":"No","02":"No","03":"No","04":"No"},"rt":9953,"item_order":[0,1,2,3],"radio_events":[5516,6876,8252,9428],"checkbox_events":[],"key_events":[],"mouse_events":[5516,6876,8252,9428,9953],"honeypot":0,"survey":"mace","page":3,"trial_type":"survey-mace","trial_index":11,"time_elapsed":263952,"internal_node_id":"0.0-11.0","task_version":"prescreen-v0.3","browser_interactions":0},{"responses":{"01":"No","02":"No"},"rt":9930,"item_order":[0,1],"radio_events":[5688,6280],"checkbox_events":[],"key_events":[],"mouse_events":[5688,6280,9930],"honeypot":0,"survey":"mace","page":4,"trial_type":"survey-mace","trial_index":12,"time_elapsed":273897,"internal_node_id":"0.0-12.0","task_version":"prescreen-v0.3","browser_interactions":0},{"responses":{"01":"No","02":"No","03":"No","04":"No","05":"No"},"rt":15543,"item_order":[0,1,2,3,4],"radio_events":[8586,9153,10866,11922,13162],"checkbox_events":[],"key_events":[],"mouse_events":[8586,9153,10866,11922,13162,15543],"honeypot":0,"survey":"mace","page":5,"trial_type":"survey-mace","trial_index":13,"time_elapsed":289453,"internal_node_id":"0.0-13.0","task_version":"prescreen-v0.3","browser_interactions":0},{"responses":{"01":"No","02":"Yes","02_ages_7":"7","02_ages_8":"8","03":"No","04":"No","05":"No"},"rt":34421,"item_order":[0,1,2,3,4],"radio_events":[7400,10728,30774,31718,33294],"checkbox_events":[26959,27414],"key_events":[],"mouse_events":[7400,10728,26959,27414,30774,31718,33294,34052,34421],"honeypot":0,"survey":"mace","page":6,"trial_type":"survey-mace","trial_index":14,"time_elapsed":323892,"internal_node_id":"0.0-14.0","task_version":"prescreen-v0.3","browser_interactions":0},{"responses":{"01":"No","02":"No","03":"No","04":"No","05":"No","06":"No","07":"No"},"rt":10444,"item_order":[0,1,2,3,4,5,6],"radio_events":[1837,4293,5669,6557,7573,8733,9509],"checkbox_events":[],"key_events":[],"mouse_events":[1837,4293,5669,6557,7573,8733,9509,10444],"honeypot":0,"survey":"mace","page":7,"trial_type":"survey-mace","trial_index":15,"time_elapsed":334363,"internal_node_id":"0.0-15.0","task_version":"prescreen-v0.3","browser_interactions":0},{"responses":{"01":"No","02":"Yes","02_ages_5":"5","02_ages_6":"6","02_ages_7":"7","02_ages_8":"8","02_ages_9":"9","03":"Yes","03_ages_5":"5","03_ages_6":"6","03_ages_7":"7","03_ages_8":"8","03_ages_9":"9","04":"Yes","04_ages_5":"5","04_ages_6":"6","04_ages_7":"7","04_ages_8":"8","04_ages_9":"9"},"rt":46413,"item_order":[0,1,2,3],"radio_events":[8560,14023,38534,42406],"checkbox_events":[19480,20271,21014,22240,25359,39383,40014,40942,41502,41901,43318,43725,44661,45006,45638],"key_events":[],"mouse_events":[8560,14023,19480,20271,21014,22240,25359,38534,39383,40014,40486,40942,41502,41901,42406,43318,43725,44166,44661,45006,45638,46413],"honeypot":0,"survey":"mace","page":8,"trial_type":"survey-mace","trial_index":16,"time_elapsed":380794,"internal_node_id":"0.0-16.0","task_version":"prescreen-v0.3","browser_interactions":0},{"responses":{"01":"Yes","01_ages_1":"1","01_ages_2":"2","01_ages_3":"3","01_ages_4":"4","01_ages_5":"5","01_ages_6":"6","01_ages_7":"7","01_ages_8":"8","01_ages_9":"9","01_ages_10":"10","01_ages_11":"11","01_ages_12":"12","01_ages_13":"13","01_ages_14":"14","01_ages_15":"15","01_ages_16":"16","01_ages_17":"17","01_ages_18":"18","02":"Yes","02_ages_5":"5","02_ages_6":"6","02_ages_7":"7","02_ages_8":"8","02_ages_9":"9","02_ages_10":"10","02_ages_11":"11","02_ages_12":"12","02_ages_13":"13","02_ages_14":"14","02_ages_15":"15","02_ages_16":"16","02_ages_17":"17","02_ages_18":"18","03":"Yes","03_ages_1":"1","03_ages_2":"2","03_ages_3":"3","03_ages_4":"4","03_ages_5":"5","03_ages_6":"6","03_ages_7":"7","03_ages_8":"8","03_ages_9":"9","03_ages_10":"10","03_ages_11":"11","03_ages_12":"12","03_ages_13":"13","03_ages_14":"14","03_ages_15":"15","03_ages_16":"16","03_ages_17":"17","03_ages_18":"18","04":"Yes","04_ages_1":"1","04_ages_2":"2","04_ages_3":"3","04_ages_4":"4","04_ages_5":"5","04_ages_6":"6","04_ages_7":"7","04_ages_8":"8","04_ages_9":"9","04_ages_10":"10","04_ages_11":"11","04_ages_12":"12","04_ages_13":"13","04_ages_14":"14","04_ages_15":"15","04_ages_16":"16","04_ages_17":"17","04_ages_18":"18"},"rt":61812,"item_order":[0,1,2,3],"radio_events":[3385,17783,34247,49606],"checkbox_events":[5929,6553,7250,7818,8217,8609,9016,9897,10345,11257,11801,12322,12784,13265,13721,14327,14784,15336,24815,25374,25815,26271,26719,27223,27919,28295,29064,29625,30104,30616,31215,33335,35015,36103,36590,37015,37767,38175,38575,39679,40071,40735,41158,41710,42486,43014,43614,44095,44503,45390,51238,51759,52245,53118,53590,54077,54631,55102,55558,56173,56862,57589,58045,59197,59661,60222,60733,61365],"key_events":[],"mouse_events":[3385,5929,6553,7250,7818,8217,8609,9016,9497,9897,10345,10865,11257,11801,12322,12784,13265,13721,14327,14784,15336,17783,24815,25374,25815,26271,26719,27223,27919,28295,29064,29625,30104,30616,31215,31854,33335,34247,35015,36103,36590,37015,37767,38175,38575,39679,40071,40735,41158,41710,42486,43014,43614,44095,44503,45390,48286,48838,49606,50382,51238,51759,52245,52791,53118,53590,54077,54631,55102,55558,56173,56862,57589,58045,58493,59197,59661,60222,60733,61365,61812],"honeypot":0,"survey":"mace","page":9,"trial_type":"survey-mace","trial_index":17,"time_elapsed":442630,"internal_node_id":"0.0-17.0","task_version":"prescreen-v0.3","browser_interactions":0},{"responses":{"01":"No","02":"No","03":"No","04":"No","05":"Yes","05_ages_5":"5","05_ages_6":"6","05_ages_7":"7","05_ages_8":"8","05_ages_9":"9","05_ages_10":"10","05_ages_14":"14","05_ages_15":"15","05_ages_16":"16","05_ages_17":"17","06":"Yes","06_ages_17":"17","07":"Yes","07_ages_1":"1","07_ages_2":"2","07_ages_3":"3","07_ages_4":"4","07_ages_5":"5","07_ages_6":"6","07_ages_7":"7","07_ages_8":"8","07_ages_9":"9","07_ages_10":"10","07_ages_11":"11","07_ages_12":"12","07_ages_13":"13","07_ages_14":"14","07_ages_15":"15","07_ages_16":"16","07_ages_17":"17","07_ages_18":"18","08":"Yes","08_ages_1":"1","08_ages_2":"2","08_ages_3":"3","08_ages_4":"4","08_ages_5":"5","08_ages_6":"6","08_ages_7":"7","08_ages_8":"8","08_ages_9":"9","08_ages_10":"10","08_ages_11":"11","08_ages_12":"12","08_ages_13":"13","08_ages_14":"14","08_ages_15":"15","08_ages_16":"16","08_ages_17":"17","08_ages_18":"18"},"rt":56490,"item_order":[0,1,2,3,4,5,6,7],"radio_events":[2406,3566,6502,8117,11182,26195,30365,43340],"checkbox_events":[16782,17460,17901,18309,18733,19157,22349,23069,23701,24405,27229,32429,32868,33244,33620,34037,34597,35517,36077,36596,37012,38148,38732,39156,40084,40612,41196,41684,42476,46644,47108,47603,48187,48684,49186,49667,50171,50882,51427,52003,52580,53269,53715,54156,54876,55387,55931],"key_events":[],"mouse_events":[2406,3566,6502,8117,11182,16782,17460,17901,18309,18733,19157,22349,23069,23701,24405,26195,27229,30365,32429,32868,33244,33620,34037,34597,34980,35517,36077,36596,37012,37652,38148,38732,39156,40084,40612,41196,41684,42476,43340,46644,47108,47603,48187,48684,49186,49667,50171,50882,51427,52003,52580,53269,53715,54156,54876,55387,55931,56489],"honeypot":0,"survey":"mace","page":10,"trial_type":"survey-mace","trial_index":18,"time_elapsed":499148,"internal_node_id":"0.0-18.0","task_version":"prescreen-v0.3","browser_interactions":0,"instructed":0},{"rt":3878,"trial_type":"mental-health-alert","trial_index":19,"time_elapsed":503031,"internal_node_id":"0.0-19.0","task_version":"prescreen-v0.3","interactions":"[{\"event\":\"focus\",\"trial\":0,\"time\":2},{\"event\":\"blur\",\"trial\":0,\"time\":5296},{\"event\":\"focus\",\"trial\":0,\"time\":5304}]"}]