[{"view_history":[{"page_index":0,"viewing_time":4805.5},{"page_index":1,"viewing_time":1211.4000000953674},{"page_index":2,"viewing_time":4852.099999904633},{"page_index":3,"viewing_time":1482.6000000238419}],"rt":12352.400000095367,"trial_type":"instructions","trial_index":0,"time_elapsed":12362,"internal_node_id":"0.0-0.0","task_version":"prescreen-v0.3"},{"rt":14482.100000023842,"responses":{"age":"20","gender-categorical":"Female","gender-free-response":"","ethnicity":"Not Hispanic or Latino","race":["White"],"education":"Some college"},"trial_type":"survey-demo","trial_index":1,"time_elapsed":26849,"internal_node_id":"0.0-1.0","task_version":"prescreen-v0.3"},{"responses":{"Q18":"2","Q07":"2","Q06":"2","Q04":"2","Q16":"2","Q17":"1","Q20":"2","Q01":"2","Q19":"1","Q12":"3","Q03":"2","Q11":"1","Q13":"2","Q08":"2","Q09":"1","Q05":"1","Q14":"2","Q10":"1","Q02":"1","Q21":"2","Q15":"2"},"rt":111138.10000002384,"item_order":[17,6,5,3,15,16,19,0,18,11,2,10,12,7,8,4,13,9,1,20,14],"radio_events":[7972.899999976158,16907.799999952316,20452.799999952316,24423.600000023842,31021.199999928474,36916,39644,45256.199999928474,52170.10000002384,55456,58864.199999928474,61674.799999952316,64371.799999952316,67149.89999997616,81741.79999995232,82880.5,87822.60000002384,91542.89999997616,94634.10000002384,99272.10000002384,110238.60000002384],"key_events":[],"mouse_events":[7972.899999976158,16907.799999952316,20452.799999952316,24423.600000023842,31021.199999928474,36916,39644,45256.199999928474,52170.10000002384,55456,58864.199999928474,61674.799999952316,64371.799999952316,67149.89999997616,81741.79999995232,82880.5,87822.60000002384,91542.89999997616,94634.10000002384,99272.10000002384,110238.60000002384,111133],"straightlining":0.6190476190476191,"zigzagging":0.5,"honeypot":0,"survey":"sns","trial_type":"survey-template","trial_index":2,"time_elapsed":137995,"internal_node_id":"0.0-2.0","task_version":"prescreen-v0.3","browser_interactions":0,"infrequency":0.5},{"responses":{"Q05":"2","Q10":"1","Q06":"2","Q01":"2","Q11":"2","Q08":"2","Q09":"1","Q07":"1","Q03":"1","Q02":"1","Q12":"1","Q04":"2","Q13":"0"},"rt":137426.69999992847,"item_order":[4,9,5,0,10,7,8,6,2,1,11,3,12],"radio_events":[9293.099999904633,10786.099999904633,17123.5,18861.099999904633,29388.399999976158,101726.09999990463,104761.79999995232,107355.69999992847,113896,116269.89999997616,125273.09999990463,129084,134511.09999990463],"key_events":[],"mouse_events":[9293.099999904633,10786.099999904633,17123.5,18861.099999904633,29388.399999976158,101726.09999990463,104761.79999995232,107355.69999992847,113896,116269.89999997616,125273.09999990463,129084,134511.09999990463,137423.69999992847],"straightlining":0.46153846153846156,"zigzagging":0.3333333333333333,"honeypot":0,"survey":"bisbas","trial_type":"survey-template","trial_index":3,"time_elapsed":275429,"internal_node_id":"0.0-3.0","task_version":"prescreen-v0.3","browser_interactions":0,"infrequency":0},{"responses":{"Q01":"2","Q02":"0","Q03":"2"},"rt":20718.800000071526,"radio_events":[8275.5,13713.5,19497.800000071526],"key_events":[],"mouse_events":[8275.5,13713.5,19497.800000071526,20717.100000023842],"survey":"map","page":1,"trial_type":"survey-map","trial_index":4,"time_elapsed":296153,"internal_node_id":"0.0-4.0","task_version":"prescreen-v0.3","browser_interactions":0},{"responses":{"Q04":"2","Q05":"2","Q06":"2"},"rt":16514.099999904633,"radio_events":[9866.799999952316,11755.899999976158,15356.299999952316],"key_events":[],"mouse_events":[9866.799999952316,11755.899999976158,15356.299999952316,16512.799999952316],"survey":"map","page":2,"trial_type":"survey-map","trial_index":5,"time_elapsed":312671,"internal_node_id":"0.0-5.0","task_version":"prescreen-v0.3","browser_interactions":0},{"responses":{"Q07":"3","Q08":"1","Q09":"1"},"rt":18225.100000023842,"radio_events":[9825.699999928474,13790.600000023842,16762.100000023842],"key_events":[],"mouse_events":[9825.699999928474,13790.600000023842,16762.100000023842,18223.799999952316],"survey":"map","page":3,"trial_type":"survey-map","trial_index":6,"time_elapsed":330900,"internal_node_id":"0.0-6.0","task_version":"prescreen-v0.3","browser_interactions":0},{"responses":{"Q10":"3","Q11":"3","Q12":"1","Q13":"1","Q16":"0","Q14":"3","Q15":"1"},"rt":56324,"radio_events":[6519,10798.699999928474,19344,30552.100000023842,35566.699999928474,51113.299999952316,52536.5],"key_events":[],"mouse_events":[6519,10798.699999928474,19344,30552.100000023842,35566.699999928474,51113.299999952316,52536.5,56321.299999952316],"survey":"map","page":4,"trial_type":"survey-map","trial_index":7,"time_elapsed":387229,"internal_node_id":"0.0-7.0","task_version":"prescreen-v0.3","browser_interactions":0,"infrequency":0},{"view_history":[{"page_index":0,"viewing_time":2480.899999976158},{"page_index":1,"viewing_time":2744.2000000476837}],"rt":5226.600000023842,"trial_type":"instructions","trial_index":8,"time_elapsed":392458,"internal_node_id":"0.0-8.0","task_version":"prescreen-v0.3"},{"responses":{"01":"Yes","01_ages_8":"8","01_ages_9":"9","01_ages_10":"10","01_ages_11":"11","02":"Yes","02_ages_8":"8","02_ages_9":"9","02_ages_10":"10","02_ages_11":"11","03":"Yes","03_ages_13":"13","03_ages_14":"14","03_ages_18":"18","04":"Yes","04_ages_18":"18","05":"No","06":"No"},"rt":96375.59999990463,"item_order":[0,1,2,3,4,5],"radio_events":[6231.199999928474,26291.799999952316,51246.89999997616,68302.89999997616,72607.29999995232,94923.09999990463],"checkbox_events":[16574.799999952316,17494.899999976158,18407.399999976158,19618.799999952316,20523.399999976158,31792.199999928474,32914.799999952316,33576.89999997616,34288,35200.699999928474,44389,45351.89999997616,53040,56981.39999997616,61075.39999997616,69401.09999990463],"key_events":[],"mouse_events":[0.19999992847442627,6231.199999928474,16574.799999952316,17494.899999976158,18407.399999976158,19618.799999952316,20523.399999976158,26291.799999952316,31792.199999928474,32397.699999928474,32914.799999952316,33576.89999997616,34288,35200.699999928474,44389,45351.89999997616,51246.89999997616,53040,56981.39999997616,61075.39999997616,68302.89999997616,69401.09999990463,72607.29999995232,94923.09999990463,96369.39999997616],"honeypot":0,"survey":"mace","page":1,"trial_type":"survey-mace","trial_index":9,"time_elapsed":488845,"internal_node_id":"0.0-9.0","task_version":"prescreen-v0.3","browser_interactions":0},{"responses":{"01":"Yes","01_ages_5":"5","01_ages_6":"6","01_ages_7":"7","02":"No","03":"Yes","03_ages_5":"5","03_ages_6":"6","03_ages_7":"7","03_ages_8":"8","04":"Yes","04_ages_5":"5","04_ages_6":"6","04_ages_7":"7","04_ages_8":"8","05":"Yes","05_ages_5":"5","05_ages_6":"6","05_ages_7":"7","05_ages_8":"8","06":"No","07":"No","08":"No"},"rt":55684.199999928474,"item_order":[0,1,2,3,4,5,6,7],"radio_events":[4573.199999928474,18569.799999952316,20692.799999952316,33687.5,39356.5,50645.199999928474,53558.199999928474,54714.5],"checkbox_events":[8327.600000023842,10007.100000023842,11024.399999976158,24213.699999928474,24915.600000023842,25650.5,30077.5,34938.89999997616,35722,36336.199999928474,37046.39999997616,40559.39999997616,41246,41932.10000002384,44015.60000002384],"key_events":[],"mouse_events":[4573.199999928474,8327.600000023842,8747.299999952316,9425.899999976158,10007.100000023842,11024.399999976158,18569.799999952316,20692.799999952316,24213.699999928474,24915.600000023842,25650.5,30077.5,33687.5,34938.89999997616,35722,36336.199999928474,37046.39999997616,39356.5,40559.39999997616,41246,41932.10000002384,44015.60000002384,50645.199999928474,53558.199999928474,54714.5,55675.699999928474],"honeypot":0,"survey":"mace","page":2,"trial_type":"survey-mace","trial_index":10,"time_elapsed":544536,"internal_node_id":"0.0-10.0","task_version":"prescreen-v0.3","browser_interactions":0},{"responses":{"01":"No","02":"No","03":"No","04":"No"},"rt":13060.800000071526,"item_order":[0,1,2,3],"radio_events":[9419.700000047684,10464.200000047684,11457.399999976158,12305.399999976158],"checkbox_events":[],"key_events":[],"mouse_events":[9419.700000047684,10464.200000047684,11457.399999976158,12305.399999976158,13056.300000071526],"honeypot":0,"survey":"mace","page":3,"trial_type":"survey-mace","trial_index":11,"time_elapsed":557601,"internal_node_id":"0.0-11.0","task_version":"prescreen-v0.3","browser_interactions":0},{"responses":{"01":"No","02":"No"},"rt":6525.200000047684,"item_order":[0,1],"radio_events":[4494.700000047684,5796.100000023842],"checkbox_events":[],"key_events":[],"mouse_events":[4494.700000047684,5796.100000023842,6522.600000023842],"honeypot":0,"survey":"mace","page":4,"trial_type":"survey-mace","trial_index":12,"time_elapsed":564131,"internal_node_id":"0.0-12.0","task_version":"prescreen-v0.3","browser_interactions":0},{"responses":{"01":"No","02":"No","03":"No","04":"No","05":"No"},"rt":23538.799999952316,"item_order":[0,1,2,3,4],"radio_events":[15119.100000023842,16774.100000023842,17969.5,21627.299999952316,22771.899999976158],"checkbox_events":[],"key_events":[],"mouse_events":[15119.100000023842,16774.100000023842,17969.5,21627.299999952316,22771.899999976158,23533.200000047684],"honeypot":0,"survey":"mace","page":5,"trial_type":"survey-mace","trial_index":13,"time_elapsed":587675,"internal_node_id":"0.0-13.0","task_version":"prescreen-v0.3","browser_interactions":0},{"responses":{"01":"Yes","01_ages_8":"8","01_ages_9":"9","01_ages_10":"10","02":"Yes","02_ages_8":"8","02_ages_9":"9","02_ages_10":"10","03":"No","04":"No","05":"Yes","05_ages_16":"16","05_ages_17":"17","05_ages_18":"18"},"rt":48333,"item_order":[0,1,2,3,4],"radio_events":[11902.5,22060.299999952316,32660,37737.700000047684,41018.10000002384,43295.39999997616],"checkbox_events":[15471.700000047684,16400.200000047684,18257.5,19024.299999952316,23312.100000023842,23762.5,24297.100000023842,25483.700000047684,26412.600000023842,27575.200000047684,44967.10000002384,45693.60000002384,46224.200000047684],"key_events":[],"mouse_events":[11902.5,15471.700000047684,16400.200000047684,18257.5,19024.299999952316,22060.299999952316,23312.100000023842,23762.5,24297.100000023842,24757.5,25483.700000047684,26412.600000023842,27575.200000047684,32660,37737.700000047684,41018.10000002384,43295.39999997616,44967.10000002384,45693.60000002384,46224.200000047684,48327],"honeypot":0,"survey":"mace","page":6,"trial_type":"survey-mace","trial_index":14,"time_elapsed":636014,"internal_node_id":"0.0-14.0","task_version":"prescreen-v0.3","browser_interactions":0},{"responses":{"01":"No","02":"Yes","02_ages_16":"16","02_ages_17":"17","02_ages_18":"18","03":"Yes","03_ages_16":"16","03_ages_17":"17","03_ages_18":"18","04":"Yes","04_ages_15":"15","04_ages_16":"16","05":"No","06":"No","07":"No"},"rt":29784,"item_order":[0,1,2,3,4,5,6],"radio_events":[5986,7053.5,13084.099999904633,18219.799999952316,24698,27314.399999976158,29001.599999904633],"checkbox_events":[8846,9710.299999952316,10299.399999976158,14481.299999952316,15330.5,15960.599999904633,19723.399999976158,20498.799999952316],"key_events":[],"mouse_events":[5986,7053.5,8846,9282.099999904633,9710.299999952316,10299.399999976158,13084.099999904633,14481.299999952316,15330.5,15960.599999904633,18219.799999952316,19723.399999976158,20498.799999952316,24698,27314.399999976158,29001.599999904633,29777],"honeypot":0,"survey":"mace","page":7,"trial_type":"survey-mace","trial_index":15,"time_elapsed":665805,"internal_node_id":"0.0-15.0","task_version":"prescreen-v0.3","browser_interactions":0},{"responses":{"01":"No","02":"Yes","02_ages_12":"12","02_ages_13":"13","02_ages_14":"14","02_ages_15":"15","02_ages_16":"16","02_ages_17":"17","02_ages_18":"18","03":"Yes","03_ages_10":"10","03_ages_11":"11","03_ages_12":"12","03_ages_13":"13","03_ages_14":"14","03_ages_15":"15","03_ages_16":"16","03_ages_17":"17","03_ages_18":"18","04":"Yes","04_ages_12":"12","04_ages_13":"13","04_ages_14":"14","04_ages_15":"15","04_ages_16":"16","04_ages_17":"17","04_ages_18":"18"},"rt":52742.799999952316,"item_order":[0,1,2,3],"radio_events":[10535.799999952316,14607.399999976158,33310,44444.89999997616],"checkbox_events":[17295,17805.399999976158,18435,19081.100000023842,24697.100000023842,25588,29780.5,35748.5,36353.89999997616,36951.60000002384,37532.700000047684,38138.39999997616,38735.799999952316,39347.89999997616,39931,40552.60000002384,47051.5,47489.200000047684,48658.39999997616,49103.89999997616,49740.39999997616,51017.799999952316,51946.60000002384],"key_events":[],"mouse_events":[10535.799999952316,14607.399999976158,17295,17805.399999976158,18435,19081.100000023842,19703.100000023842,24697.100000023842,25588,29780.5,33310,35748.5,36353.89999997616,36951.60000002384,37532.700000047684,38138.39999997616,38735.799999952316,39347.89999997616,39931,40552.60000002384,44444.89999997616,47051.5,47489.200000047684,48159.299999952316,48658.39999997616,49103.89999997616,49740.39999997616,50307.700000047684,51017.799999952316,51437.39999997616,51946.60000002384,52738.10000002384],"honeypot":0,"survey":"mace","page":8,"trial_type":"survey-mace","trial_index":16,"time_elapsed":718553,"internal_node_id":"0.0-16.0","task_version":"prescreen-v0.3","browser_interactions":0},{"responses":{"01":"Yes","01_ages_4":"4","01_ages_5":"5","01_ages_6":"6","01_ages_7":"7","01_ages_8":"8","01_ages_9":"9","01_ages_10":"10","01_ages_11":"11","01_ages_12":"12","01_ages_13":"13","01_ages_14":"14","01_ages_18":"18","02":"Yes","02_ages_4":"4","02_ages_5":"5","02_ages_6":"6","02_ages_7":"7","02_ages_8":"8","02_ages_9":"9","02_ages_10":"10","02_ages_11":"11","02_ages_12":"12","02_ages_13":"13","02_ages_14":"14","02_ages_18":"18","03":"Yes","03_ages_1":"1","03_ages_2":"2","03_ages_3":"3","03_ages_4":"4","03_ages_5":"5","03_ages_6":"6","03_ages_7":"7","03_ages_8":"8","03_ages_9":"9","03_ages_10":"10","03_ages_11":"11","03_ages_12":"12","03_ages_13":"13","03_ages_14":"14","04":"No"},"rt":85175.39999997616,"item_order":[0,1,2,3],"radio_events":[4381.100000023842,44247.89999997616,61577.299999952316,84403.89999997616],"checkbox_events":[5989.399999976158,6546.799999952316,8847.899999976158,10665,13435.100000023842,15655.5,16380.399999976158,17407.700000047684,18287.799999952316,19289.200000047684,20016.100000023842,20739.200000047684,21397,29829.799999952316,31515.799999952316,34045.200000047684,45441.299999952316,48856.89999997616,49706.299999952316,51151.700000047684,51991.39999997616,52619.799999952316,53865.200000047684,54808.299999952316,55738.60000002384,56465.39999997616,58032,58821.89999997616,67124.79999995232,67593,68077.89999997616,68721.89999997616,69248.5,69934.70000004768,70508.29999995232,71630.70000004768,72293.20000004768,72945.10000002384,73948.20000004768,74852.89999997616,75620,76952.10000002384],"key_events":[],"mouse_events":[4381.100000023842,5989.399999976158,6546.799999952316,8847.899999976158,10665,13435.100000023842,15655.5,16380.399999976158,17407.700000047684,17836,18287.799999952316,19289.200000047684,20016.100000023842,20739.200000047684,21397,29829.799999952316,31515.799999952316,34045.200000047684,44247.89999997616,45441.299999952316,48856.89999997616,49706.299999952316,50221.60000002384,51151.700000047684,51652.299999952316,51991.39999997616,52619.799999952316,53865.200000047684,54808.299999952316,55738.60000002384,56465.39999997616,57264.799999952316,58032,58821.89999997616,61577.299999952316,67124.79999995232,67593,68077.89999997616,68721.89999997616,69248.5,69934.70000004768,70508.29999995232,71194.60000002384,71630.70000004768,72293.20000004768,72945.10000002384,73948.20000004768,74852.89999997616,75620,76952.10000002384,84403.89999997616,85171.29999995232],"honeypot":0,"survey":"mace","page":9,"trial_type":"survey-mace","trial_index":17,"time_elapsed":803750,"internal_node_id":"0.0-17.0","task_version":"prescreen-v0.3","browser_interactions":0},{"responses":{"01":"No","02":"No","03":"Yes","03_ages_16":"16","03_ages_17":"17","03_ages_18":"18","04":"Yes","04_ages_16":"16","04_ages_17":"17","04_ages_18":"18","05":"Yes","05_ages_16":"16","05_ages_17":"17","05_ages_18":"18","06":"Yes","06_ages_17":"17","07":"No","08":"Yes","08_ages_12":"12","08_ages_13":"13","08_ages_14":"14","08_ages_15":"15"},"rt":57726.200000047684,"item_order":[0,1,2,3,4,5,6,7],"radio_events":[4791,5622.600000023842,8319.600000023842,15104.200000047684,20416,28734.800000071526,43086.5,47204.5],"checkbox_events":[9459.200000047684,10146.300000071526,11106.800000071526,16113.5,17034,17791.600000023842,23397.200000047684,24018.899999976158,24753.600000023842,30164.300000071526,51452.10000002384,52017.5,52758.60000002384,54300.800000071526],"key_events":[],"mouse_events":[4791,5622.600000023842,8319.600000023842,9459.200000047684,10146.300000071526,11106.800000071526,15104.200000047684,16113.5,16589.899999976158,17034,17791.600000023842,20416,23397.200000047684,24018.899999976158,24753.600000023842,28734.800000071526,30164.300000071526,43086.5,47204.5,51452.10000002384,52017.5,52758.60000002384,54300.800000071526,57718.89999997616],"honeypot":0,"survey":"mace","page":10,"trial_type":"survey-mace","trial_index":18,"time_elapsed":861489,"internal_node_id":"0.0-18.0","task_version":"prescreen-v0.3","browser_interactions":0,"instructed":0},{"rt":3403.0999999046326,"trial_type":"mental-health-alert","trial_index":19,"time_elapsed":864895,"internal_node_id":"0.0-19.0","task_version":"prescreen-v0.3","interactions":"[]"}]