[{"view_history":[{"page_index":0,"viewing_time":4114.099999904633},{"page_index":1,"viewing_time":3711.2000000476837},{"page_index":2,"viewing_time":4410.700000047684},{"page_index":3,"viewing_time":1598.2000000476837}],"rt":13835.099999904633,"trial_type":"instructions","trial_index":0,"time_elapsed":13862,"internal_node_id":"0.0-0.0","task_version":"prescreen-v0.3"},{"rt":19118.799999952316,"responses":{"age":"37","gender-categorical":"Female","gender-free-response":"","ethnicity":"Not Hispanic or Latino","race":["White"],"education":"Bachelor degree"},"trial_type":"survey-demo","trial_index":1,"time_elapsed":32990,"internal_node_id":"0.0-1.0","task_version":"prescreen-v0.3"},{"responses":{"Q02":"0","Q14":"1","Q13":"1","Q07":"0","Q21":"3","Q04":"1","Q20":"2","Q01":"1","Q12":"2","Q08":"1","Q15":"2","Q11":"2","Q16":"2","Q03":"1","Q17":"0","Q18":"2","Q09":"0","Q10":"1","Q05":"0","Q19":"1","Q06":"0"},"rt":114082.59999990463,"item_order":[1,13,12,6,20,3,19,0,11,7,14,10,15,2,16,17,8,9,4,18,5],"radio_events":[7795.699999809265,12244.299999952316,15085.199999809265,21703,24918.299999952316,30766.5,33503.5,38265.39999985695,43968.699999809265,46304.5,55778.5,57041.59999990463,63210.299999952316,65458.39999985695,92102.59999990463,94614.29999995232,98942,102670.89999985695,105503.29999995232,109568.19999980927,113057.29999995232],"key_events":[],"mouse_events":[6627.5,7795.699999809265,12244.299999952316,15085.199999809265,21703,24918.299999952316,30766.5,33503.5,38265.39999985695,43968.699999809265,46304.5,52554,54953.39999985695,55778.5,57041.59999990463,62114.299999952316,63210.299999952316,65458.39999985695,86245.19999980927,92102.59999990463,94614.29999995232,98942,102670.89999985695,105503.29999995232,109568.19999980927,113057.29999995232,114081.09999990463],"straightlining":0.38095238095238093,"zigzagging":0.7,"honeypot":0,"survey":"sns","trial_type":"survey-template","trial_index":2,"time_elapsed":147082,"internal_node_id":"0.0-2.0","task_version":"prescreen-v0.3","browser_interactions":2,"infrequency":0},{"responses":{"Q10":"2","Q09":"2","Q08":"2","Q04":"3","Q13":"0","Q12":"1","Q03":"3","Q11":"2","Q01":"3","Q02":"3","Q05":"3","Q06":"3","Q07":"3"},"rt":51448.09999990463,"item_order":[9,8,7,3,12,11,2,10,0,1,4,5,6],"radio_events":[6609.5,9914.599999904633,13634.799999952316,17475.700000047684,21515.799999952316,30508.099999904633,34863.39999985695,38894.59999990463,40653.09999990463,42390.09999990463,45350.89999985695,48350.59999990463,50896],"key_events":[],"mouse_events":[4337.700000047684,6609.5,9914.599999904633,13634.799999952316,17475.700000047684,21515.799999952316,30508.099999904633,34863.39999985695,38894.59999990463,40653.09999990463,42390.09999990463,45350.89999985695,47863.59999990463,48350.59999990463,50896,51447.39999985695],"straightlining":0.5384615384615384,"zigzagging":0.4166666666666667,"honeypot":0,"survey":"bisbas","trial_type":"survey-template","trial_index":3,"time_elapsed":198536,"internal_node_id":"0.0-3.0","task_version":"prescreen-v0.3","browser_interactions":0,"infrequency":0},{"responses":{"Q01":"3","Q02":"4","Q03":"2"},"rt":20598,"radio_events":[9243.900000095367,13255,17492.099999904633,20020.700000047684],"key_events":[],"mouse_events":[9243.900000095367,13255,17492.099999904633,19156.599999904633,20020.700000047684,20597.200000047684],"survey":"map","page":1,"trial_type":"survey-map","trial_index":4,"time_elapsed":219139,"internal_node_id":"0.0-4.0","task_version":"prescreen-v0.3","browser_interactions":0},{"responses":{"Q04":"3","Q05":"3","Q06":"2"},"rt":16587.099999904633,"radio_events":[6768.099999904633,12049.099999904633,15921.099999904633],"key_events":[],"mouse_events":[6768.099999904633,12049.099999904633,14649.900000095367,15275.200000047684,15921.099999904633,16586.400000095367],"survey":"map","page":2,"trial_type":"survey-map","trial_index":5,"time_elapsed":235733,"internal_node_id":"0.0-5.0","task_version":"prescreen-v0.3","browser_interactions":0},{"responses":{"Q07":"3","Q08":"4","Q09":"3"},"rt":14409.200000047684,"radio_events":[7552.400000095367,11113.400000095367,13712.700000047684],"key_events":[],"mouse_events":[1744.0999999046326,7552.400000095367,11113.400000095367,13712.700000047684,14408.799999952316],"survey":"map","page":3,"trial_type":"survey-map","trial_index":6,"time_elapsed":250149,"internal_node_id":"0.0-6.0","task_version":"prescreen-v0.3","browser_interactions":0},{"responses":{"Q10":"1","Q11":"1","Q12":"1","Q13":"4","Q16":"0","Q14":"2","Q15":"2"},"rt":33313.59999990463,"radio_events":[4549.699999809265,8997.599999904633,15966.099999904633,21303.699999809265,26543,31288.099999904633,32576.5],"key_events":[],"mouse_events":[1340.1999998092651,4549.699999809265,8997.599999904633,15079.799999952316,15966.099999904633,21303.699999809265,26543,31288.099999904633,32576.5,33312.89999985695],"survey":"map","page":4,"trial_type":"survey-map","trial_index":7,"time_elapsed":283466,"internal_node_id":"0.0-7.0","task_version":"prescreen-v0.3","browser_interactions":0,"infrequency":0},{"view_history":[{"page_index":0,"viewing_time":2595.5},{"page_index":1,"viewing_time":3673.2000000476837}],"rt":6269.700000047684,"trial_type":"instructions","trial_index":8,"time_elapsed":289738,"internal_node_id":"0.0-8.0","task_version":"prescreen-v0.3"},{"responses":{"01":"Yes","01_ages_14":"14","01_ages_15":"15","01_ages_16":"16","01_ages_17":"17","01_ages_18":"18","02":"Yes","02_ages_14":"14","02_ages_15":"15","02_ages_16":"16","02_ages_17":"17","02_ages_18":"18","03":"No","04":"No","05":"No","06":"No"},"rt":51599.700000047684,"item_order":[0,1,2,3,4,5],"radio_events":[12629.899999856949,33208.700000047684,44203.09999990463,46282.299999952316,47955.700000047684,50387],"checkbox_events":[23168.299999952316,23896.099999904633,24776,27928.200000047684,30161.39999985695,38058.09999990463,38833,39402.200000047684,39945.799999952316,41010.09999990463],"key_events":[],"mouse_events":[0,12629.899999856949,23168.299999952316,23896.099999904633,24776,27928.200000047684,30161.39999985695,33208.700000047684,38058.09999990463,38833,39402.200000047684,39945.799999952316,40482.200000047684,41010.09999990463,44203.09999990463,46282.299999952316,47955.700000047684,50387,51595.59999990463],"honeypot":0,"survey":"mace","page":1,"trial_type":"survey-mace","trial_index":9,"time_elapsed":341351,"internal_node_id":"0.0-9.0","task_version":"prescreen-v0.3","browser_interactions":2},{"responses":{"01":"No","02":"No","03":"Yes","03_ages_7":"7","04":"No","05":"No","06":"No","07":"No","08":"No"},"rt":26097.60000014305,"item_order":[0,1,2,3,4,5,6,7],"radio_events":[5114.200000047684,8323.400000095367,10610.900000095367,15260.400000095367,20046.10000014305,21877.200000047684,24653.300000190735,25381.10000014305],"checkbox_events":[12596.100000143051],"key_events":[],"mouse_events":[5114.200000047684,8323.400000095367,10610.900000095367,12596.100000143051,15260.400000095367,18941.400000095367,19581.400000095367,20046.10000014305,21877.200000047684,24653.300000190735,25381.10000014305,26095.200000047684],"honeypot":0,"survey":"mace","page":2,"trial_type":"survey-mace","trial_index":10,"time_elapsed":367457,"internal_node_id":"0.0-10.0","task_version":"prescreen-v0.3","browser_interactions":0},{"responses":{"01":"No","02":"No","03":"No","04":"No"},"rt":11617.400000095367,"item_order":[0,1,2,3],"radio_events":[4687.400000095367,7863.5,9664.5,10919.600000143051],"checkbox_events":[],"key_events":[],"mouse_events":[4687.400000095367,7863.5,9664.5,10919.600000143051,11616],"honeypot":0,"survey":"mace","page":3,"trial_type":"survey-mace","trial_index":11,"time_elapsed":379079,"internal_node_id":"0.0-11.0","task_version":"prescreen-v0.3","browser_interactions":0},{"responses":{"01":"No","02":"No"},"rt":9543.599999904633,"item_order":[0,1],"radio_events":[6691.400000095367,7965.400000095367],"checkbox_events":[],"key_events":[],"mouse_events":[4898.900000095367,6691.400000095367,7965.400000095367,8844,9542.700000047684],"honeypot":0,"survey":"mace","page":4,"trial_type":"survey-mace","trial_index":12,"time_elapsed":388626,"internal_node_id":"0.0-12.0","task_version":"prescreen-v0.3","browser_interactions":0},{"responses":{"01":"No","02":"No","03":"No","04":"No","05":"No"},"rt":21662.700000047684,"item_order":[0,1,2,3,4],"radio_events":[8905.299999952316,12937.700000047684,16065.700000047684,19058.700000047684,20866.799999952316],"checkbox_events":[],"key_events":[],"mouse_events":[8905.299999952316,12937.700000047684,16065.700000047684,19058.700000047684,20866.799999952316,21659.299999952316],"honeypot":0,"survey":"mace","page":5,"trial_type":"survey-mace","trial_index":13,"time_elapsed":410294,"internal_node_id":"0.0-13.0","task_version":"prescreen-v0.3","browser_interactions":0},{"responses":{"01":"Yes","01_ages_7":"7","01_ages_8":"8","01_ages_9":"9","01_ages_10":"10","01_ages_11":"11","01_ages_12":"12","01_ages_13":"13","01_ages_14":"14","01_ages_15":"15","01_ages_16":"16","02":"Yes","02_ages_7":"7","02_ages_8":"8","02_ages_9":"9","02_ages_10":"10","02_ages_11":"11","02_ages_12":"12","02_ages_13":"13","02_ages_14":"14","02_ages_15":"15","02_ages_16":"16","03":"Yes","03_ages_7":"7","03_ages_8":"8","03_ages_13":"13","03_ages_14":"14","03_ages_15":"15","03_ages_16":"16","04":"Yes","04_ages_6":"6","04_ages_7":"7","05":"No"},"rt":46666.09999990463,"item_order":[0,1,2,3,4],"radio_events":[6204,17652.900000095367,26830.799999952316,37607.200000047684,45697],"checkbox_events":[8603.5,9164.599999904633,9620.5,10501.099999904633,11572.799999952316,12053.599999904633,12494,12956.700000047684,13948.700000047684,14654,18845.200000047684,19445.599999904633,19845.700000047684,20285.900000095367,20861.799999952316,21405.599999904633,21917.799999952316,22766.700000047684,23558,24055.5,28454.400000095367,30174.599999904633,31623.5,32055.5,32767.900000095367,33223,34392.200000047684,34993.90000009537,38799.59999990463,39295.59999990463],"key_events":[],"mouse_events":[6204,8603.5,9164.599999904633,9620.5,10501.099999904633,11572.799999952316,12053.599999904633,12494,12956.700000047684,13948.700000047684,14654,17029.400000095367,17652.900000095367,18845.200000047684,19445.599999904633,19845.700000047684,20285.900000095367,20861.799999952316,21405.599999904633,21917.799999952316,22766.700000047684,23173.5,23558,24055.5,26830.799999952316,28454.400000095367,29838.700000047684,30174.599999904633,31623.5,32055.5,32767.900000095367,33223,34392.200000047684,34993.90000009537,37607.200000047684,38455.59999990463,38799.59999990463,39295.59999990463,45697,46664.59999990463],"honeypot":0,"survey":"mace","page":6,"trial_type":"survey-mace","trial_index":14,"time_elapsed":456969,"internal_node_id":"0.0-14.0","task_version":"prescreen-v0.3","browser_interactions":0},{"responses":{"01":"No","02":"No","03":"No","04":"No","05":"No","06":"No","07":"No"},"rt":20361.699999809265,"item_order":[0,1,2,3,4,5,6],"radio_events":[6948.5,9226.699999809265,12667.199999809265,14276.599999904633,16219.199999809265,17948.699999809265,19580.199999809265],"checkbox_events":[],"key_events":[],"mouse_events":[6948.5,9226.699999809265,12667.199999809265,14276.599999904633,16219.199999809265,17948.699999809265,19580.199999809265,20357],"honeypot":0,"survey":"mace","page":7,"trial_type":"survey-mace","trial_index":15,"time_elapsed":477337,"internal_node_id":"0.0-15.0","task_version":"prescreen-v0.3","browser_interactions":0},{"responses":{"01":"Yes","01_ages_12":"12","01_ages_13":"13","01_ages_14":"14","01_ages_15":"15","01_ages_16":"16","01_ages_17":"17","01_ages_18":"18","02":"No","03":"Yes","03_ages_5":"5","03_ages_6":"6","03_ages_7":"7","03_ages_8":"8","03_ages_9":"9","03_ages_10":"10","03_ages_11":"11","03_ages_12":"12","03_ages_13":"13","03_ages_14":"14","03_ages_15":"15","03_ages_16":"16","03_ages_17":"17","03_ages_18":"18","04":"No"},"rt":82357.20000004768,"item_order":[0,1,2,3],"radio_events":[15452,23853.400000095367,29436.60000014305,81499.80000019073],"checkbox_events":[18812.10000014305,19235.60000014305,19740,20212.300000190735,20653.400000095367,21516,22140.200000047684,67642.10000014305,68026.10000014305,68818,69754.70000004768,70811,71290,71930.60000014305,72810.60000014305,73674.90000009537,74563.20000004768,75059.30000019073,75771,76435.60000014305,77251.10000014305,77675.30000019073,78314.90000009537],"key_events":[],"mouse_events":[12421.100000143051,12658.600000143051,15452,18812.10000014305,19235.60000014305,19740,20212.300000190735,20653.400000095367,21516,22140.200000047684,23853.400000095367,29436.60000014305,67642.10000014305,68026.10000014305,68458.80000019073,68818,69362.10000014305,69754.70000004768,70177.70000004768,70811,71290,71930.60000014305,72490.90000009537,72810.60000014305,73674.90000009537,74563.20000004768,75059.30000019073,75771,76435.60000014305,77251.10000014305,77675.30000019073,78314.90000009537,81499.80000019073,82355.80000019073],"honeypot":0,"survey":"mace","page":8,"trial_type":"survey-mace","trial_index":16,"time_elapsed":559702,"internal_node_id":"0.0-16.0","task_version":"prescreen-v0.3","browser_interactions":2},{"responses":{"01":"Yes","01_ages_1":"1","01_ages_2":"2","01_ages_3":"3","01_ages_4":"4","01_ages_5":"5","01_ages_6":"6","01_ages_7":"7","01_ages_8":"8","01_ages_9":"9","01_ages_10":"10","01_ages_11":"11","01_ages_12":"12","01_ages_13":"13","01_ages_14":"14","01_ages_15":"15","01_ages_16":"16","01_ages_17":"17","01_ages_18":"18","02":"Yes","02_ages_1":"1","02_ages_2":"2","02_ages_3":"3","02_ages_4":"4","02_ages_5":"5","02_ages_6":"6","02_ages_7":"7","02_ages_8":"8","02_ages_9":"9","02_ages_10":"10","02_ages_11":"11","02_ages_12":"12","03":"Yes","03_ages_1":"1","03_ages_2":"2","03_ages_3":"3","03_ages_4":"4","03_ages_5":"5","03_ages_6":"6","03_ages_7":"7","03_ages_8":"8","03_ages_9":"9","03_ages_10":"10","03_ages_11":"11","03_ages_12":"12","03_ages_13":"13","03_ages_14":"14","03_ages_15":"15","04":"Yes","04_ages_1":"1","04_ages_2":"2","04_ages_3":"3","04_ages_4":"4","04_ages_5":"5","04_ages_6":"6","04_ages_7":"7","04_ages_8":"8","04_ages_9":"9","04_ages_10":"10","04_ages_11":"11","04_ages_12":"12","04_ages_13":"13","04_ages_14":"14","04_ages_15":"15","04_ages_16":"16","04_ages_17":"17","04_ages_18":"18"},"rt":62997.200000047684,"item_order":[0,1,2,3],"radio_events":[2626.5,18325.900000095367,34670.800000190735,49344.200000047684],"checkbox_events":[3997.4000000953674,4626.300000190735,5050.600000143051,5547.5,6259.200000047684,7002.300000190735,7459.5,8179.100000143051,8715.400000095367,9347.400000095367,9787.400000095367,10427.200000047684,11243.5,11748.800000190735,12411.5,13811.400000095367,14299.400000095367,14955.700000047684,19908.200000047684,20476.700000047684,21093.10000014305,21828.400000095367,22237.800000190735,23909.800000190735,24549.700000047684,25053.200000047684,26205.400000095367,27597.60000014305,28141.700000047684,28781.800000190735,35718.800000190735,36109.90000009537,36541.800000190735,37246.300000190735,37958.5,38503.40000009537,39206.40000009537,39783.700000047684,40840.5,41735.60000014305,42374.800000190735,43169.200000047684,43735.300000190735,44271.10000014305,44928.40000009537,51208.300000190735,51616.300000190735,52265.10000014305,53024.300000190735,54128.700000047684,54528.90000009537,55080.40000009537,56161.700000047684,56609.300000190735,57097.40000009537,57961.700000047684,58945.700000047684,59747.700000047684,60201.300000190735,60705.300000190735,61161.5,61778.800000190735,62273.40000009537],"key_events":[],"mouse_events":[2626.5,3997.4000000953674,4626.300000190735,5050.600000143051,5547.5,6259.200000047684,7002.300000190735,7459.5,8179.100000143051,8715.400000095367,9347.400000095367,9787.400000095367,10427.200000047684,11243.5,11748.800000190735,12411.5,13811.400000095367,14299.400000095367,14955.700000047684,18325.900000095367,19908.200000047684,20476.700000047684,21093.10000014305,21828.400000095367,22237.800000190735,22660.400000095367,23909.800000190735,24549.700000047684,25053.200000047684,26205.400000095367,26757.200000047684,27597.60000014305,28141.700000047684,28781.800000190735,32862.5,33518,34670.800000190735,35718.800000190735,36109.90000009537,36541.800000190735,37246.300000190735,37958.5,38503.40000009537,39206.40000009537,39783.700000047684,40840.5,41735.60000014305,42374.800000190735,43169.200000047684,43735.300000190735,44271.10000014305,44928.40000009537,49344.200000047684,51208.300000190735,51616.300000190735,52265.10000014305,53024.300000190735,54128.700000047684,54528.90000009537,55080.40000009537,56161.700000047684,56609.300000190735,57097.40000009537,57561.800000190735,57961.700000047684,58945.700000047684,59747.700000047684,60201.300000190735,60705.300000190735,61161.5,61778.800000190735,62273.40000009537,62994.60000014305],"honeypot":0,"survey":"mace","page":9,"trial_type":"survey-mace","trial_index":17,"time_elapsed":622704,"internal_node_id":"0.0-17.0","task_version":"prescreen-v0.3","browser_interactions":0},{"responses":{"01":"No","02":"No","03":"Yes","03_ages_13":"13","03_ages_14":"14","03_ages_15":"15","03_ages_16":"16","03_ages_17":"17","03_ages_18":"18","04":"No","05":"Yes","05_ages_11":"11","05_ages_12":"12","05_ages_13":"13","05_ages_14":"14","05_ages_15":"15","06":"Yes","06_ages_17":"17","07":"Yes","07_ages_1":"1","07_ages_2":"2","07_ages_3":"3","07_ages_4":"4","07_ages_5":"5","07_ages_6":"6","07_ages_7":"7","07_ages_8":"8","07_ages_9":"9","07_ages_10":"10","07_ages_11":"11","07_ages_12":"12","07_ages_13":"13","07_ages_14":"14","07_ages_15":"15","07_ages_16":"16","07_ages_17":"17","07_ages_18":"18","08":"Yes","08_ages_1":"1","08_ages_2":"2","08_ages_3":"3","08_ages_4":"4","08_ages_5":"5","08_ages_6":"6","08_ages_7":"7","08_ages_8":"8","08_ages_9":"9","08_ages_10":"10","08_ages_11":"11","08_ages_12":"12","08_ages_13":"13","08_ages_14":"14","08_ages_15":"15"},"rt":76894.70000004768,"item_order":[0,1,2,3,4,5,6,7],"radio_events":[6392.200000047684,7488.400000095367,12561.400000095367,22038.5,23792.10000014305,38529.10000014305,47761.40000009537,64168.5],"checkbox_events":[16435.300000190735,16888.200000047684,17311.700000047684,17774.10000014305,18270.10000014305,19477.60000014305,29127.800000190735,29671.700000047684,30135.400000095367,30592.5,30968.400000095367,31360.10000014305,31783.700000047684,32480.700000047684,33391.90000009537,33920.5,34824.200000047684,40937.200000047684,50705.60000014305,51450.200000047684,52627.300000190735,53394.60000014305,53851,54897.90000009537,55385.800000190735,55974,56526,57007,57487,58239.40000009537,58615.300000190735,59055,59958.90000009537,60591.300000190735,61087.300000190735,62847.60000014305,66904.40000009537,67344.30000019073,69097.20000004768,69464.30000019073,69944.60000014305,70776.10000014305,71288.30000019073,71952.30000019073,72473.30000019073,72992.30000019073,73568.10000014305,74025.10000014305,74496.30000019073,75137.40000009537,75857.60000014305],"key_events":[],"mouse_events":[5208,6392.200000047684,7488.400000095367,12561.400000095367,16435.300000190735,16888.200000047684,17311.700000047684,17774.10000014305,18270.10000014305,19477.60000014305,22038.5,23792.10000014305,29127.800000190735,29671.700000047684,30135.400000095367,30592.5,30968.400000095367,31360.10000014305,31783.700000047684,32480.700000047684,33391.90000009537,33920.5,34440.300000190735,34824.200000047684,38529.10000014305,40392.800000190735,40937.200000047684,47761.40000009537,50705.60000014305,51450.200000047684,52018.5,52627.300000190735,52978.5,53394.60000014305,53851,54458.10000014305,54897.90000009537,55385.800000190735,55974,56526,57007,57487,58239.40000009537,58615.300000190735,59055,59566.90000009537,59958.90000009537,60591.300000190735,61087.300000190735,62847.60000014305,64168.5,66904.40000009537,67344.30000019073,67800.70000004768,68519.80000019073,69097.20000004768,69464.30000019073,69944.60000014305,70776.10000014305,71288.30000019073,71952.30000019073,72473.30000019073,72992.30000019073,73568.10000014305,74025.10000014305,74496.30000019073,75137.40000009537,75857.60000014305,76889.40000009537],"honeypot":0,"survey":"mace","page":10,"trial_type":"survey-mace","trial_index":18,"time_elapsed":699605,"internal_node_id":"0.0-18.0","task_version":"prescreen-v0.3","browser_interactions":0,"instructed":0},{"rt":9047.099999904633,"trial_type":"mental-health-alert","trial_index":19,"time_elapsed":708662,"internal_node_id":"0.0-19.0","task_version":"prescreen-v0.3","interactions":"[{\"event\":\"blur\",\"trial\":2,\"time\":102819},{\"event\":\"focus\",\"trial\":2,\"time\":119170},{\"event\":\"blur\",\"trial\":9,\"time\":291925},{\"event\":\"focus\",\"trial\":9,\"time\":302314},{\"event\":\"blur\",\"trial\":16,\"time\":508783},{\"event\":\"focus\",\"trial\":16,\"time\":544913}]"}]