[{"view_history":[{"page_index":0,"viewing_time":25700},{"page_index":1,"viewing_time":5776.199999928474},{"page_index":2,"viewing_time":3091.600000023842},{"page_index":3,"viewing_time":1692.2000000476837}],"rt":36260.799999952316,"trial_type":"instructions","trial_index":0,"time_elapsed":36297,"internal_node_id":"0.0-0.0","task_version":"prescreen-v0.3"},{"rt":32757.700000047684,"responses":{"age":"46","gender-categorical":"Male","gender-free-response":"","ethnicity":"Not Hispanic or Latino","race":["Black or African American"],"education":"Master degree or higher","siblings":"3"},"trial_type":"survey-demo","trial_index":1,"time_elapsed":69061,"internal_node_id":"0.0-1.0","task_version":"prescreen-v0.3"},{"responses":{"Q14":"1","Q18":"0","Q11":"1","Q15":"1","Q21":"3","Q03":"1","Q12":"1","Q05":"0","Q13":"0","Q08":"2","Q09":"1","Q10":"0","Q01":"2","Q02":"1","Q17":"1","Q07":"2","Q06":"1","Q16":"0","Q19":"1","Q20":"0","Q04":"2"},"rt":169462,"item_order":[13,17,10,14,20,2,11,4,12,7,8,9,0,1,16,6,5,15,18,19,3],"radio_events":[17520.099999904633,23640.899999976158,28650.699999928474,35703.89999997616,39948.59999990463,44094.89999997616,51006.39999997616,59669.89999997616,63490.39999997616,70688.59999990463,76333.19999992847,83907.39999997616,87832.09999990463,97105,104747.5,111705.39999997616,118517.29999995232,122823.69999992847,130830.39999997616,148988.5,154859.09999990463,168223.5],"key_events":[],"mouse_events":[17520.099999904633,23640.899999976158,28650.699999928474,35703.89999997616,39948.59999990463,44094.89999997616,51006.39999997616,59669.89999997616,63490.39999997616,70688.59999990463,76333.19999992847,83907.39999997616,87832.09999990463,97105,104747.5,111705.39999997616,118517.29999995232,122823.69999992847,130830.39999997616,148988.5,154859.09999990463,168223.5,169460],"straightlining":0.47619047619047616,"zigzagging":0.55,"honeypot":0,"survey":"sns","trial_type":"survey-template","trial_index":2,"time_elapsed":238534,"internal_node_id":"0.0-2.0","task_version":"prescreen-v0.3","browser_interactions":0,"infrequency":0},{"responses":{"Q04":"3","Q07":"3","Q06":"3","Q02":"2","Q05":"3","Q11":"2","Q03":"2","Q10":"2","Q01":"2","Q13":"0","Q12":"1","Q08":"2","Q09":"2"},"rt":77123,"item_order":[3,6,5,1,4,10,2,9,0,12,11,7,8],"radio_events":[19057.200000047684,22021.399999976158,25376.600000023842,31602.200000047684,34856.10000002384,39152.10000002384,46910.700000047684,53242.299999952316,55086.700000047684,60894.700000047684,67452.79999995232,72348.20000004768,75874.29999995232],"key_events":[],"mouse_events":[19057.200000047684,22021.399999976158,25376.600000023842,31602.200000047684,34856.10000002384,39152.10000002384,46910.700000047684,53242.299999952316,55086.700000047684,60894.700000047684,67452.79999995232,72348.20000004768,75874.29999995232,77121.89999997616],"straightlining":0.5384615384615384,"zigzagging":0.4166666666666667,"honeypot":0,"survey":"bisbas","trial_type":"survey-template","trial_index":3,"time_elapsed":315662,"internal_node_id":"0.0-3.0","task_version":"prescreen-v0.3","browser_interactions":0,"infrequency":0},{"responses":{"Q01":"2","Q02":"3","Q03":"2"},"rt":36802.199999928474,"radio_events":[19558.899999976158,29133.100000023842,35454.60000002384],"key_events":[],"mouse_events":[19558.899999976158,26355.5,27986.399999976158,29133.100000023842,35454.60000002384,36801.699999928474],"survey":"map","page":1,"trial_type":"survey-map","trial_index":4,"time_elapsed":352467,"internal_node_id":"0.0-4.0","task_version":"prescreen-v0.3","browser_interactions":0},{"responses":{"Q04":"3","Q05":"3","Q06":"3"},"rt":22419.399999976158,"radio_events":[7670,14037.699999928474,21130.199999928474],"key_events":[],"mouse_events":[7670,14037.699999928474,19864.299999952316,21130.199999928474,22419],"survey":"map","page":2,"trial_type":"survey-map","trial_index":5,"time_elapsed":374889,"internal_node_id":"0.0-5.0","task_version":"prescreen-v0.3","browser_interactions":0},{"responses":{"Q07":"4","Q08":"3","Q09":"2"},"rt":35787,"radio_events":[8937.300000071526,32381.300000071526,34541.200000047684],"key_events":[],"mouse_events":[8937.300000071526,26015.700000047684,32381.300000071526,33668.300000071526,34541.200000047684,35786.5],"survey":"map","page":3,"trial_type":"survey-map","trial_index":6,"time_elapsed":410679,"internal_node_id":"0.0-6.0","task_version":"prescreen-v0.3","browser_interactions":0},{"responses":{"Q10":"2","Q11":"1","Q12":"4","Q13":"4","Q16":"0","Q14":"2","Q15":"2"},"rt":75089.20000004768,"radio_events":[30991.899999976158,37250.200000047684,45784.200000047684,52717.10000002384,60562.700000047684,64767.5,73232.5],"key_events":[],"mouse_events":[28517.799999952316,29904.700000047684,30991.899999976158,37250.200000047684,43978,45784.200000047684,52717.10000002384,60562.700000047684,64767.5,73232.5,75088.29999995232],"survey":"map","page":4,"trial_type":"survey-map","trial_index":7,"time_elapsed":485770,"internal_node_id":"0.0-7.0","task_version":"prescreen-v0.3","browser_interactions":4,"infrequency":0},{"view_history":[{"page_index":0,"viewing_time":5641.100000023842},{"page_index":1,"viewing_time":8773.899999976158}],"rt":14416.200000047684,"trial_type":"instructions","trial_index":8,"time_elapsed":500188,"internal_node_id":"0.0-8.0","task_version":"prescreen-v0.3"},{"responses":{"01":"No","02":"No","03":"No","04":"No","05":"No","06":"No"},"rt":35237.299999952316,"item_order":[0,1,2,3,4,5],"radio_events":[13269.700000047684,19513,23740.399999976158,25703.799999952316,28055.799999952316,34044.799999952316],"checkbox_events":[],"key_events":[],"mouse_events":[0.10000002384185791,13269.700000047684,19513,23740.399999976158,25703.799999952316,28055.799999952316,34044.799999952316,35231.299999952316],"honeypot":0,"survey":"mace","page":1,"trial_type":"survey-mace","trial_index":9,"time_elapsed":535433,"internal_node_id":"0.0-9.0","task_version":"prescreen-v0.3","browser_interactions":0},{"responses":{"01":"No","02":"No","03":"Yes","03_ages_12":"12","03_ages_13":"13","04":"No","05":"Yes","05_ages_12":"12","05_ages_13":"13","06":"No","07":"No","08":"No"},"rt":71956.60000002384,"item_order":[0,1,2,3,4,5,6,7],"radio_events":[18874.600000023842,27123,32992.40000009537,36328,48859.200000047684,58169.5,66880.5,68553.60000002384,70754.70000004768],"checkbox_events":[42226.5,43403,59762.10000002384,61545.60000002384],"key_events":[],"mouse_events":[18874.600000023842,27123,32992.40000009537,36328,42226.5,43403,48859.200000047684,58169.5,59762.10000002384,60512.700000047684,61545.60000002384,66880.5,68553.60000002384,70754.70000004768,71952.30000007153],"honeypot":0,"survey":"mace","page":2,"trial_type":"survey-mace","trial_index":10,"time_elapsed":607394,"internal_node_id":"0.0-10.0","task_version":"prescreen-v0.3","browser_interactions":0},{"responses":{"01":"No","02":"No","03":"No","04":"No"},"rt":22990.799999952316,"item_order":[0,1,2,3],"radio_events":[9889.799999952316,12393.799999952316,15485.199999928474,16996.199999928474],"checkbox_events":[],"key_events":[],"mouse_events":[9889.799999952316,12393.799999952316,15485.199999928474,16996.199999928474,22988.899999976158],"honeypot":0,"survey":"mace","page":3,"trial_type":"survey-mace","trial_index":11,"time_elapsed":630388,"internal_node_id":"0.0-11.0","task_version":"prescreen-v0.3","browser_interactions":0},{"responses":{"01":"No","02":"No"},"rt":6605.700000047684,"item_order":[0,1],"radio_events":[4365.800000071526,5654.100000023842],"checkbox_events":[],"key_events":[],"mouse_events":[4365.800000071526,5654.100000023842,6603.700000047684],"honeypot":0,"survey":"mace","page":4,"trial_type":"survey-mace","trial_index":12,"time_elapsed":636996,"internal_node_id":"0.0-12.0","task_version":"prescreen-v0.3","browser_interactions":0},{"responses":{"01":"No","02":"No","03":"No","04":"No","05":"No"},"rt":20960.899999976158,"item_order":[0,1,2,3,4],"radio_events":[5857.399999976158,8697.5,10337.399999976158,15810.100000023842,19124.399999976158],"checkbox_events":[],"key_events":[],"mouse_events":[5857.399999976158,8697.5,10337.399999976158,15810.100000023842,17432.100000023842,19124.399999976158,20958.299999952316],"honeypot":0,"survey":"mace","page":5,"trial_type":"survey-mace","trial_index":13,"time_elapsed":657961,"internal_node_id":"0.0-13.0","task_version":"prescreen-v0.3","browser_interactions":0},{"responses":{"01":"No","02":"No","03":"No","04":"No","05":"No"},"rt":21463.399999976158,"item_order":[0,1,2,3,4],"radio_events":[9629.600000023842,11595.600000023842,13745.299999952316,15954.100000023842,18450],"checkbox_events":[],"key_events":[],"mouse_events":[9629.600000023842,11595.600000023842,13745.299999952316,15954.100000023842,18450,21460.899999976158],"honeypot":0,"survey":"mace","page":6,"trial_type":"survey-mace","trial_index":14,"time_elapsed":679429,"internal_node_id":"0.0-14.0","task_version":"prescreen-v0.3","browser_interactions":0},{"responses":{"01":"No","02":"No","03":"No","04":"No","05":"No","06":"No","07":"No"},"rt":25141.600000023842,"item_order":[0,1,2,3,4,5,6],"radio_events":[7842.200000047684,12427.700000047684,13921.899999976158,16738.100000023842,18036.5,22956.700000047684,24001.899999976158],"checkbox_events":[],"key_events":[],"mouse_events":[5906.800000071526,7842.200000047684,12427.700000047684,13921.899999976158,16738.100000023842,18036.5,22956.700000047684,24001.899999976158,25138.600000023842],"honeypot":0,"survey":"mace","page":7,"trial_type":"survey-mace","trial_index":15,"time_elapsed":704575,"internal_node_id":"0.0-15.0","task_version":"prescreen-v0.3","browser_interactions":0},{"responses":{"01":"No","02":"No","03":"No","04":"No"},"rt":23765.700000047684,"item_order":[0,1,2,3],"radio_events":[14033.700000047684,15282.600000023842,18925,22850.400000095367],"checkbox_events":[],"key_events":[],"mouse_events":[11002.700000047684,14033.700000047684,15282.600000023842,18925,21683.700000047684,22850.400000095367,23763.200000047684],"honeypot":0,"survey":"mace","page":8,"trial_type":"survey-mace","trial_index":16,"time_elapsed":728344,"internal_node_id":"0.0-16.0","task_version":"prescreen-v0.3","browser_interactions":0},{"responses":{"01":"Yes","01_ages_1":"1","01_ages_2":"2","01_ages_3":"3","01_ages_4":"4","01_ages_5":"5","01_ages_6":"6","01_ages_7":"7","01_ages_8":"8","01_ages_9":"9","01_ages_10":"10","01_ages_11":"11","01_ages_12":"12","01_ages_13":"13","01_ages_14":"14","01_ages_15":"15","01_ages_16":"16","01_ages_17":"17","01_ages_18":"18","02":"Yes","02_ages_1":"1","02_ages_2":"2","02_ages_3":"3","02_ages_4":"4","02_ages_5":"5","02_ages_6":"6","02_ages_7":"7","02_ages_8":"8","02_ages_9":"9","02_ages_10":"10","02_ages_11":"11","02_ages_12":"12","02_ages_13":"13","02_ages_14":"14","02_ages_15":"15","02_ages_16":"16","02_ages_17":"17","02_ages_18":"18","03":"Yes","03_ages_1":"1","03_ages_2":"2","03_ages_3":"3","03_ages_4":"4","03_ages_5":"5","03_ages_6":"6","03_ages_7":"7","03_ages_8":"8","03_ages_9":"9","03_ages_10":"10","03_ages_11":"11","03_ages_12":"12","03_ages_13":"13","03_ages_14":"14","03_ages_15":"15","03_ages_16":"16","03_ages_17":"17","03_ages_18":"18","04":"Yes","04_ages_14":"14","04_ages_16":"16"},"rt":93663.39999997616,"item_order":[0,1,2,3],"radio_events":[8049.899999976158,33049.299999952316,58935.89999997616,86709.19999992847],"checkbox_events":[12290.799999952316,13266.899999976158,14919.5,15853,16898.399999976158,17749.699999928474,18662.599999904633,20327.299999952316,21330.199999928474,22182.299999952316,23115.599999904633,23977.199999928474,24880.199999928474,25853.199999928474,26756.099999904633,27649.399999976158,28541.699999928474,29546.399999976158,34763.799999952316,35615.199999928474,36367.699999928474,37117.199999928474,37817.699999928474,38498.09999990463,39268.39999997616,40009.09999990463,40823.199999928474,41549.89999997616,43843.699999928474,44695.299999952316,45496.699999928474,47443.89999997616,48266.5,49410.39999997616,50343.299999952316,51318.39999997616,60588.799999952316,61409.59999990463,63214.59999990463,64046.59999990463,66227.09999990463,67159.79999995232,68186.5,69088.19999992847,69980.39999997616,70842.79999995232,71795.19999992847,72698.79999995232,73529.89999997616,74493.09999990463,75345.29999995232,76248.89999997616,77039.59999990463,77993.09999990463,88914.79999995232,90273.89999997616],"key_events":[],"mouse_events":[8049.899999976158,12290.799999952316,13266.899999976158,14470.199999928474,14919.5,15853,16898.399999976158,17749.699999928474,18662.599999904633,19466,20327.299999952316,21330.199999928474,22182.299999952316,23115.599999904633,23977.199999928474,24880.199999928474,25853.199999928474,26756.099999904633,27649.399999976158,28541.699999928474,29546.399999976158,33049.299999952316,34763.799999952316,35615.199999928474,36367.699999928474,37117.199999928474,37817.699999928474,38498.09999990463,39268.39999997616,40009.09999990463,40823.199999928474,41549.89999997616,42658.59999990463,43843.699999928474,44695.299999952316,45496.699999928474,46621.699999928474,47443.89999997616,48266.5,49410.39999997616,50343.299999952316,51318.39999997616,58935.89999997616,60588.799999952316,61409.59999990463,62272.299999952316,63214.59999990463,64046.59999990463,65071.59999990463,66227.09999990463,67159.79999995232,68186.5,69088.19999992847,69980.39999997616,70842.79999995232,71795.19999992847,72698.79999995232,73529.89999997616,74493.09999990463,75345.29999995232,76248.89999997616,77039.59999990463,77993.09999990463,86709.19999992847,88914.79999995232,90273.89999997616,93660.89999997616],"honeypot":0,"survey":"mace","page":9,"trial_type":"survey-mace","trial_index":17,"time_elapsed":822014,"internal_node_id":"0.0-17.0","task_version":"prescreen-v0.3","browser_interactions":0},{"responses":{"01":"No","02":"No","03":"No","04":"No","05":"No","06":"Yes","06_ages_17":"17","07":"Yes","07_ages_1":"1","07_ages_2":"2","07_ages_3":"3","07_ages_4":"4","07_ages_5":"5","07_ages_6":"6","07_ages_7":"7","07_ages_8":"8","07_ages_9":"9","07_ages_10":"10","07_ages_11":"11","07_ages_12":"12","07_ages_13":"13","07_ages_14":"14","07_ages_15":"15","07_ages_16":"16","07_ages_17":"17","07_ages_18":"18","08":"Yes","08_ages_1":"1","08_ages_2":"2","08_ages_3":"3","08_ages_4":"4","08_ages_5":"5","08_ages_6":"6","08_ages_7":"7","08_ages_8":"8","08_ages_9":"9","08_ages_10":"10","08_ages_11":"11","08_ages_12":"12","08_ages_13":"13","08_ages_14":"14","08_ages_15":"15","08_ages_16":"16","08_ages_17":"17","08_ages_18":"18"},"rt":88078.70000004768,"item_order":[0,1,2,3,4,5,6,7],"radio_events":[4425.700000047684,5621.400000095367,8025.600000023842,11341.300000071526,12647.700000047684,24800.300000071526,33145.300000071526,60903.90000009537],"checkbox_events":[26705.300000071526,37129.40000009537,37837.10000002384,38547.40000009537,39337.60000002384,40149.5,40901.300000071526,41774.700000047684,42689.200000047684,45161.200000047684,47059.5,47944.5,48958.800000071526,49880,51866.700000047684,53369.10000002384,54281.5,55296,56319.90000009537,62545.60000002384,63365.40000009537,64095.700000047684,64825.800000071526,65625.70000004768,66434.70000004768,67195.60000002384,68109.20000004768,68898.80000007153,69799.10000002384,70619.60000002384,71500.80000007153,72291.40000009537,73456.60000002384,74319.40000009537,75109.60000002384,75849.80000007153,76861.70000004768],"key_events":[],"mouse_events":[4425.700000047684,5621.400000095367,8025.600000023842,9556.900000095367,11341.300000071526,12647.700000047684,24800.300000071526,26705.300000071526,33145.300000071526,37129.40000009537,37837.10000002384,38547.40000009537,39337.60000002384,40149.5,40901.300000071526,41774.700000047684,42689.200000047684,43701.700000047684,45161.200000047684,46217.10000002384,47059.5,47944.5,48958.800000071526,49880,50914.300000071526,51866.700000047684,53369.10000002384,54281.5,55296,56319.90000009537,60903.90000009537,62545.60000002384,63365.40000009537,64095.700000047684,64825.800000071526,65625.70000004768,66434.70000004768,67195.60000002384,68109.20000004768,68898.80000007153,69799.10000002384,70619.60000002384,71500.80000007153,72291.40000009537,73456.60000002384,74319.40000009537,75109.60000002384,75849.80000007153,76861.70000004768,88074.30000007153],"honeypot":0,"survey":"mace","page":10,"trial_type":"survey-mace","trial_index":18,"time_elapsed":910099,"internal_node_id":"0.0-18.0","task_version":"prescreen-v0.3","browser_interactions":0,"instructed":0},{"rt":9102.5,"trial_type":"mental-health-alert","trial_index":19,"time_elapsed":919204,"internal_node_id":"0.0-19.0","task_version":"prescreen-v0.3","interactions":"[{\"event\":\"blur\",\"trial\":7,\"time\":424890},{\"event\":\"focus\",\"trial\":7,\"time\":426623},{\"event\":\"blur\",\"trial\":7,\"time\":428326},{\"event\":\"focus\",\"trial\":7,\"time\":431223}]"}]