[{"view_history":[{"page_index":0,"viewing_time":7184},{"page_index":1,"viewing_time":7584},{"page_index":2,"viewing_time":9952},{"page_index":3,"viewing_time":1599}],"rt":26320,"trial_type":"instructions","trial_index":0,"time_elapsed":26326,"internal_node_id":"0.0-0.0","task_version":"prescreen-v0.3"},{"rt":41818,"responses":{"age":"53","gender-categorical":"Female","gender-free-response":"","ethnicity":"Not Hispanic or Latino","race":["White"],"education":"Some college"},"trial_type":"survey-demo","trial_index":1,"time_elapsed":68153,"internal_node_id":"0.0-1.0","task_version":"prescreen-v0.3"},{"responses":{"Q09":"2","Q08":"2","Q07":"1","Q11":"2","Q13":"1","Q04":"2","Q14":"0","Q06":"1","Q01":"2","Q12":"2","Q10":"2","Q19":"0","Q21":"3","Q05":"0","Q20":"0","Q02":"0","Q15":"1","Q16":"0","Q18":"0","Q03":"2","Q17":"1"},"rt":181714,"item_order":[8,7,6,10,12,3,13,5,0,11,9,18,20,4,19,1,14,15,17,2,16],"radio_events":[10576,17209,32624,40248,47073,55712,65304,76840,81248,96064,99360,106872,112135,127743,134224,144295,151144,160791,163735,169111,180320],"key_events":[],"mouse_events":[10576,17209,32624,40248,47073,55712,65304,76840,81248,96064,99360,106872,112135,127743,134224,144295,151144,160791,163735,169111,180320,181714],"straightlining":0.38095238095238093,"zigzagging":0.55,"honeypot":0,"survey":"sns","trial_type":"survey-template","trial_index":2,"time_elapsed":249872,"internal_node_id":"0.0-2.0","task_version":"prescreen-v0.3","browser_interactions":0,"infrequency":0},{"responses":{"Q04":"3","Q08":"3","Q10":"3","Q03":"3","Q05":"3","Q11":"2","Q07":"3","Q13":"0","Q06":"3","Q01":"2","Q12":"2","Q02":"2","Q09":"3"},"rt":92066,"item_order":[3,7,9,2,4,10,6,12,5,0,11,1,8],"radio_events":[9961,14025,30241,37401,40480,44889,49025,53881,68369,72065,77641,86409,90481],"key_events":[],"mouse_events":[9961,14025,30241,37401,40480,44889,49025,53881,68369,72065,77641,86409,90481,92066],"straightlining":0.6153846153846154,"zigzagging":0.5,"honeypot":0,"survey":"bisbas","trial_type":"survey-template","trial_index":3,"time_elapsed":341941,"internal_node_id":"0.0-3.0","task_version":"prescreen-v0.3","browser_interactions":0,"infrequency":0},{"responses":{"Q01":"2","Q02":"2","Q03":"2"},"rt":39109,"radio_events":[20404,31451,37988],"key_events":[],"mouse_events":[20404,31451,37988,39109],"survey":"map","page":1,"trial_type":"survey-map","trial_index":4,"time_elapsed":381053,"internal_node_id":"0.0-4.0","task_version":"prescreen-v0.3","browser_interactions":0},{"responses":{"Q04":"4","Q05":"4","Q06":"4"},"rt":31205,"radio_events":[15060,20100,25260,29660],"key_events":[],"mouse_events":[15060,20100,25260,29660,31205],"survey":"map","page":2,"trial_type":"survey-map","trial_index":5,"time_elapsed":412259,"internal_node_id":"0.0-5.0","task_version":"prescreen-v0.3","browser_interactions":0},{"responses":{"Q07":"2","Q08":"4","Q09":"1"},"rt":33838,"radio_events":[18813,23485,31525],"key_events":[],"mouse_events":[18813,23485,31525,33838],"survey":"map","page":3,"trial_type":"survey-map","trial_index":6,"time_elapsed":446100,"internal_node_id":"0.0-6.0","task_version":"prescreen-v0.3","browser_interactions":0},{"responses":{"Q10":"1","Q11":"0","Q12":"1","Q13":"1","Q16":"0","Q14":"4","Q15":"4"},"rt":73286,"radio_events":[10356,34309,47444,57981,61309,66037,70340],"key_events":[],"mouse_events":[10356,34309,47444,57981,61309,66037,70340,73286],"survey":"map","page":4,"trial_type":"survey-map","trial_index":7,"time_elapsed":519388,"internal_node_id":"0.0-7.0","task_version":"prescreen-v0.3","browser_interactions":0,"infrequency":0},{"view_history":[{"page_index":0,"viewing_time":4077},{"page_index":1,"viewing_time":5481}],"rt":9558,"trial_type":"instructions","trial_index":8,"time_elapsed":528946,"internal_node_id":"0.0-8.0","task_version":"prescreen-v0.3"},{"responses":{"01":"No","02":"No","03":"No","04":"No","05":"No","06":"No"},"rt":33615,"item_order":[0,1,2,3,4,5],"radio_events":[15277,21805,24796,26733,29005,32548],"checkbox_events":[],"key_events":[],"mouse_events":[0,15277,21805,24796,26733,29005,32548,33615],"honeypot":0,"survey":"mace","page":1,"trial_type":"survey-mace","trial_index":9,"time_elapsed":562573,"internal_node_id":"0.0-9.0","task_version":"prescreen-v0.3","browser_interactions":0},{"responses":{"01":"No","02":"No","03":"Yes","03_ages_5":"5","03_ages_6":"6","03_ages_7":"7","03_ages_8":"8","04":"No","05":"No","06":"No","07":"No","08":"No"},"rt":95637,"item_order":[0,1,2,3,4,5,6,7],"radio_events":[8010,12354,27954,75969,78747,83554,89114,91313,93802],"checkbox_events":[43066,44562,54346,55737],"key_events":[],"mouse_events":[8010,12354,27954,43066,44562,54346,55737,75969,78747,83554,89114,91313,93802,95637],"honeypot":0,"survey":"mace","page":2,"trial_type":"survey-mace","trial_index":10,"time_elapsed":658222,"internal_node_id":"0.0-10.0","task_version":"prescreen-v0.3","browser_interactions":0},{"responses":{"01":"No","02":"No","03":"No","04":"No"},"rt":21678,"item_order":[0,1,2,3],"radio_events":[12341,16461,18893,20653],"checkbox_events":[],"key_events":[],"mouse_events":[12341,16461,18893,20653,21678],"honeypot":0,"survey":"mace","page":3,"trial_type":"survey-mace","trial_index":11,"time_elapsed":679907,"internal_node_id":"0.0-11.0","task_version":"prescreen-v0.3","browser_interactions":0},{"responses":{"01":"No","02":"No"},"rt":12971,"item_order":[0,1],"radio_events":[9537,11978],"checkbox_events":[],"key_events":[],"mouse_events":[9537,11978,12971],"honeypot":0,"survey":"mace","page":4,"trial_type":"survey-mace","trial_index":12,"time_elapsed":692882,"internal_node_id":"0.0-12.0","task_version":"prescreen-v0.3","browser_interactions":0},{"responses":{"01":"No","02":"No","03":"No","04":"No","05":"No"},"rt":30193,"item_order":[0,1,2,3,4],"radio_events":[14160,18168,21327,25559,28447],"checkbox_events":[],"key_events":[],"mouse_events":[14160,18168,21327,25559,28447,30193],"honeypot":0,"survey":"mace","page":5,"trial_type":"survey-mace","trial_index":13,"time_elapsed":723083,"internal_node_id":"0.0-13.0","task_version":"prescreen-v0.3","browser_interactions":0},{"responses":{"01":"Yes","01_ages_5":"5","01_ages_6":"6","01_ages_7":"7","01_ages_8":"8","01_ages_9":"9","01_ages_10":"10","01_ages_11":"11","01_ages_12":"12","02":"Yes","02_ages_5":"5","02_ages_6":"6","02_ages_7":"7","02_ages_8":"8","02_ages_9":"9","02_ages_10":"10","02_ages_11":"11","02_ages_12":"12","03":"No","04":"Yes","04_ages_5":"5","04_ages_6":"6","04_ages_7":"7","04_ages_8":"8","04_ages_9":"9","04_ages_10":"10","04_ages_11":"11","04_ages_12":"12","05":"No"},"rt":120920,"item_order":[0,1,2,3,4],"radio_events":[22079,65646,73030,95550,98846],"checkbox_events":[27359,28486,29398,30374,31878,33374,34063,34934,76894,77614,78318,79086,81502,82590,83559,84334,103958,104733,105598,106590,107853,108525,110709,111790],"key_events":[],"mouse_events":[22079,27359,28486,29398,30374,31878,33374,34063,34934,65646,73030,76894,77614,78318,79086,79734,81502,82590,83559,84334,95550,98846,102334,103958,104733,105598,106590,107853,108525,109637,110709,111790,120920],"honeypot":0,"survey":"mace","page":6,"trial_type":"survey-mace","trial_index":14,"time_elapsed":844012,"internal_node_id":"0.0-14.0","task_version":"prescreen-v0.3","browser_interactions":0},{"responses":{"01":"No","02":"No","03":"No","04":"No","05":"No","06":"No","07":"No"},"rt":36844,"item_order":[0,1,2,3,4,5,6],"radio_events":[19050,24482,25993,27369,30145,33937,35866],"checkbox_events":[],"key_events":[],"mouse_events":[19050,24482,25993,27369,30145,33937,35866,36844],"honeypot":0,"survey":"mace","page":7,"trial_type":"survey-mace","trial_index":15,"time_elapsed":880868,"internal_node_id":"0.0-15.0","task_version":"prescreen-v0.3","browser_interactions":0},{"responses":{"01":"No","02":"No","03":"No","04":"No"},"rt":26167,"item_order":[0,1,2,3],"radio_events":[9389,16790,21678,24797],"checkbox_events":[],"key_events":[],"mouse_events":[9389,16790,21678,24797,26167],"honeypot":0,"survey":"mace","page":8,"trial_type":"survey-mace","trial_index":16,"time_elapsed":907043,"internal_node_id":"0.0-16.0","task_version":"prescreen-v0.3","browser_interactions":0},{"responses":{"01":"Yes","01_ages_1":"1","01_ages_2":"2","01_ages_3":"3","01_ages_4":"4","01_ages_5":"5","01_ages_6":"6","01_ages_7":"7","01_ages_8":"8","01_ages_9":"9","01_ages_10":"10","01_ages_11":"11","01_ages_12":"12","01_ages_13":"13","01_ages_14":"14","01_ages_15":"15","01_ages_16":"16","01_ages_17":"17","01_ages_18":"18","02":"Yes","02_ages_1":"1","02_ages_2":"2","02_ages_3":"3","02_ages_4":"4","02_ages_5":"5","02_ages_6":"6","02_ages_7":"7","02_ages_8":"8","02_ages_9":"9","02_ages_10":"10","02_ages_11":"11","02_ages_12":"12","02_ages_13":"13","02_ages_14":"14","02_ages_15":"15","02_ages_16":"16","02_ages_17":"17","02_ages_18":"18","03":"Yes","03_ages_1":"1","03_ages_2":"2","03_ages_3":"3","03_ages_4":"4","03_ages_5":"5","03_ages_6":"6","03_ages_7":"7","03_ages_8":"8","03_ages_9":"9","03_ages_10":"10","03_ages_11":"11","03_ages_12":"12","03_ages_13":"13","03_ages_14":"14","03_ages_15":"15","03_ages_16":"16","03_ages_17":"17","03_ages_18":"18","04":"Yes","04_ages_1":"1","04_ages_2":"2","04_ages_3":"3","04_ages_4":"4","04_ages_5":"5","04_ages_6":"6","04_ages_7":"7","04_ages_8":"8","04_ages_9":"9","04_ages_10":"10","04_ages_11":"11","04_ages_12":"12","04_ages_13":"13","04_ages_14":"14","04_ages_15":"15","04_ages_16":"16","04_ages_17":"17","04_ages_18":"18"},"rt":87984,"item_order":[0,1,2,3],"radio_events":[7016,32383,49727,70702],"checkbox_events":[12383,13535,15159,15799,16719,17759,18567,19095,19599,20247,21095,22095,23575,24367,26215,27007,27759,28695,34920,35566,36639,37303,37951,38512,39080,39655,40239,40727,41351,42039,42911,43534,44175,44663,45263,45983,51638,52503,53383,54031,54959,55503,56311,57023,57758,58503,59263,60567,61718,62591,63511,64087,64551,65039,72151,72814,73495,74271,75006,75871,77239,77855,78647,79663,81047,81991,82911,83495,84119,84879,86006,87110],"key_events":[],"mouse_events":[7016,12383,12967,13535,14159,15159,15799,16719,17759,18567,19095,19599,20247,21095,22095,23575,24367,25168,26215,27007,27759,28695,32383,34920,35566,36639,37303,37951,38512,39080,39655,40239,40727,41351,42039,42911,43534,44175,44663,45263,45983,49727,51638,52503,53383,54031,54959,55503,56311,57023,57758,58503,59263,60567,61087,61718,62591,63511,64087,64551,65039,70702,72151,72814,73495,74271,75006,75871,76438,77239,77855,78647,79663,81047,81991,82911,83495,84119,84879,86006,87110,87984],"honeypot":0,"survey":"mace","page":9,"trial_type":"survey-mace","trial_index":17,"time_elapsed":995036,"internal_node_id":"0.0-17.0","task_version":"prescreen-v0.3","browser_interactions":0},{"responses":{"01":"No","02":"No","03":"No","04":"No","05":"No","06":"Yes","06_ages_17":"17","07":"Yes","07_ages_1":"1","07_ages_2":"2","07_ages_3":"3","07_ages_4":"4","07_ages_5":"5","07_ages_6":"6","07_ages_7":"7","07_ages_8":"8","07_ages_9":"9","07_ages_10":"10","07_ages_11":"11","07_ages_12":"12","07_ages_13":"13","07_ages_14":"14","07_ages_15":"15","07_ages_16":"16","07_ages_17":"17","07_ages_18":"18","08":"Yes","08_ages_1":"1","08_ages_2":"2","08_ages_3":"3","08_ages_4":"4","08_ages_5":"5","08_ages_6":"6","08_ages_7":"7","08_ages_8":"8","08_ages_9":"9","08_ages_10":"10","08_ages_11":"11","08_ages_12":"12","08_ages_13":"13","08_ages_14":"14","08_ages_15":"15","08_ages_16":"16","08_ages_17":"17","08_ages_18":"18"},"rt":72187,"item_order":[0,1,2,3,4,5,6,7],"radio_events":[7993,9888,12273,15169,19512,22561,32841,55984],"checkbox_events":[25177,37952,38952,39545,40400,41936,42544,43392,45384,46625,47409,48032,48752,49320,50072,50793,51624,52449,53336,58488,58975,60208,60760,61400,61912,62736,63408,63952,65088,65760,66296,66976,67689,68345,69769,70544,71400],"key_events":[],"mouse_events":[7993,9888,12273,15169,19512,22561,25177,32841,37952,38952,39545,40400,41113,41936,42544,43392,45384,46625,47409,48032,48752,49320,50072,50793,51624,52449,53336,55984,58488,58975,60208,60760,61400,61912,62736,63408,63952,65088,65760,66296,66976,67689,68345,69769,70544,71400,72187],"honeypot":0,"survey":"mace","page":10,"trial_type":"survey-mace","trial_index":18,"time_elapsed":1067235,"internal_node_id":"0.0-18.0","task_version":"prescreen-v0.3","browser_interactions":0,"instructed":0},{"rt":11441,"trial_type":"mental-health-alert","trial_index":19,"time_elapsed":1078680,"internal_node_id":"0.0-19.0","task_version":"prescreen-v0.3","interactions":"[{\"event\":\"focus\",\"trial\":0,\"time\":3}]"}]