[{"view_history":[{"page_index":0,"viewing_time":18126.20000000001},{"page_index":1,"viewing_time":16743.5},{"page_index":2,"viewing_time":27831.79999999999},{"page_index":3,"viewing_time":11504}],"rt":74206.40000000002,"trial_type":"instructions","trial_index":0,"time_elapsed":74221,"internal_node_id":"0.0-0.0","task_version":"prescreen-v0.3"},{"rt":76401.59999999998,"responses":{"age":"35","gender-categorical":"Male","gender-free-response":"","ethnicity":"Not Hispanic or Latino","race":["White"],"education":"Bachelor degree","siblings":"1"},"trial_type":"survey-demo","trial_index":1,"time_elapsed":150629,"internal_node_id":"0.0-1.0","task_version":"prescreen-v0.3"},{"responses":{"Q12":"0","Q01":"0","Q18":"0","Q08":"0","Q16":"0","Q09":"0","Q05":"0","Q02":"0","Q11":"0","Q13":"0","Q19":"0","Q04":"0","Q21":"3","Q17":"0","Q10":"0","Q06":"0","Q03":"0","Q20":"0","Q15":"0","Q07":"0","Q14":"0"},"rt":195203,"item_order":[11,0,17,7,15,8,4,1,10,12,18,3,20,16,9,5,2,19,14,6,13],"radio_events":[51225.80000000005,57082.09999999998,65865.90000000002,68481.59999999998,78353.5,90017.69999999995,90577.40000000002,99417.30000000005,108737.59999999998,109585.59999999998,126649.40000000002,127393.40000000002,142953.30000000005,144321.30000000005,168577,168992.90000000002,178369,178769,179209,193624.80000000005,194400.69999999995],"key_events":[],"mouse_events":[2274.1999999999534,21682.199999999953,51225.80000000005,57082.09999999998,65513.90000000002,65865.90000000002,67353.59999999998,67913.90000000002,68481.59999999998,78353.5,90017.69999999995,90577.40000000002,99417.30000000005,108737.59999999998,109193.59999999998,109585.59999999998,124937.19999999995,125929.30000000005,126649.40000000002,127393.40000000002,142393.40000000002,142953.30000000005,144321.30000000005,168577,168992.90000000002,178369,178769,179209,193049,193624.80000000005,194400.69999999995,195200.80000000005],"straightlining":0.9523809523809523,"zigzagging":0.1,"honeypot":0,"survey":"sns","trial_type":"survey-template","trial_index":2,"time_elapsed":346253,"internal_node_id":"0.0-2.0","task_version":"prescreen-v0.3","browser_interactions":30,"infrequency":0},{"responses":{"Q10":"0","Q12":"1","Q04":"3","Q11":"3","Q03":"2","Q01":"3","Q09":"2","Q06":"3","Q07":"3","Q02":"0","Q08":"3","Q13":"0","Q05":"3"},"rt":246048.49999999994,"item_order":[9,11,3,10,2,0,8,5,6,1,7,12,4],"radio_events":[139071.69999999995,148943.80000000005,158831.69999999995,159695.69999999995,168047.40000000002,176455.60000000003,177567.49999999994,188719.49999999994,207959.40000000008,215687.10000000003,216519.1999999999,228271.1999999999,230575.10000000003,245318.99999999994],"key_events":[137815.80000000005],"mouse_events":[88168.09999999998,139071.69999999995,146711.59999999998,147735.69999999995,148183.80000000005,148943.80000000005,158831.69999999995,159695.69999999995,168047.40000000002,176455.60000000003,177567.49999999994,188719.49999999994,206703.3,207959.40000000008,215687.10000000003,216519.1999999999,228271.1999999999,229438.99999999994,230062.99999999994,230575.10000000003,245318.99999999994,246047.10000000003],"straightlining":0.5384615384615384,"zigzagging":0.75,"honeypot":0,"survey":"bisbas","trial_type":"survey-template","trial_index":3,"time_elapsed":592306,"internal_node_id":"0.0-3.0","task_version":"prescreen-v0.3","browser_interactions":20,"infrequency":0},{"responses":{"Q01":"2","Q02":"4","Q03":"2"},"rt":63915,"radio_events":[34938.19999999995,48722.39999999991,49658.19999999995,62762.19999999995],"key_events":[],"mouse_events":[2042.3999999999069,33450.19999999995,34938.19999999995,48722.39999999991,49658.19999999995,61146.30000000005,61818.19999999995,62762.19999999995,63914.30000000005],"survey":"map","page":1,"trial_type":"survey-map","trial_index":4,"time_elapsed":656224,"internal_node_id":"0.0-4.0","task_version":"prescreen-v0.3","browser_interactions":6},{"responses":{"Q04":"2","Q05":"4","Q06":"2"},"rt":55172.89999999991,"radio_events":[27404.5,43740.39999999991,53516.5,54324.5],"key_events":[],"mouse_events":[6932.59999999986,25732.5,26420.800000000047,27404.5,42764.39999999991,43740.39999999991,51932.30000000005,52900.19999999995,53516.5,54324.5,55172.30000000005],"survey":"map","page":2,"trial_type":"survey-map","trial_index":5,"time_elapsed":711400,"internal_node_id":"0.0-5.0","task_version":"prescreen-v0.3","browser_interactions":6},{"responses":{"Q07":"4","Q08":"4","Q09":"4"},"rt":69421.20000000019,"radio_events":[19677.100000000093,28445,68452.6000000001],"key_events":[],"mouse_events":[2820.9000000001397,18965,19677.100000000093,28445,68452.6000000001,69420.6000000001],"survey":"map","page":3,"trial_type":"survey-map","trial_index":6,"time_elapsed":780823,"internal_node_id":"0.0-6.0","task_version":"prescreen-v0.3","browser_interactions":6},{"responses":{"Q10":"4","Q11":"2","Q12":"4","Q13":"4","Q16":"0","Q14":"4","Q15":"3"},"rt":153196.80000000005,"radio_events":[27876.399999999907,39988.59999999986,67740.30000000005,77628.19999999995,99180,115371.8999999999,150027.59999999986,152371.59999999986],"key_events":[],"mouse_events":[2620.5999999998603,26652.699999999953,27396.5,27876.399999999907,39988.59999999986,66748.19999999995,67236.09999999986,67740.30000000005,77628.19999999995,99180,114699.8999999999,115371.8999999999,150027.59999999986,152371.59999999986,153195.69999999995],"survey":"map","page":4,"trial_type":"survey-map","trial_index":7,"time_elapsed":934023,"internal_node_id":"0.0-7.0","task_version":"prescreen-v0.3","browser_interactions":14,"infrequency":0},{"view_history":[{"page_index":0,"viewing_time":4700.399999999907},{"page_index":1,"viewing_time":12887.800000000047}],"rt":17589,"trial_type":"instructions","trial_index":8,"time_elapsed":951614,"internal_node_id":"0.0-8.0","task_version":"prescreen-v0.3"},{"responses":{"01":"No","02":"No","03":"No","04":"No","05":"No","06":"No"},"rt":123490.3999999999,"item_order":[0,1,2,3,4,5],"radio_events":[94063.5,105343.19999999995,106055.19999999995,121375.6000000001,122215,122879],"checkbox_events":[],"key_events":[],"mouse_events":[0.19999999995343387,1615.6999999999534,94063.5,94511.1000000001,105343.19999999995,106055.19999999995,119510.8999999999,120294.80000000005,120950.80000000005,121375.6000000001,122215,122879,123487.30000000005],"honeypot":0,"survey":"mace","page":1,"trial_type":"survey-mace","trial_index":9,"time_elapsed":1075113,"internal_node_id":"0.0-9.0","task_version":"prescreen-v0.3","browser_interactions":8},{"responses":{"01":"No","02":"No","03":"No","04":"No","05":"No","06":"No","07":"No","08":"No"},"rt":86027.09999999986,"item_order":[0,1,2,3,4,5,6,7],"radio_events":[39535.30000000005,41183.30000000005,41935.09999999986,73743.09999999986,74407.59999999986,75359.19999999995,84207,84815.09999999986],"checkbox_events":[],"key_events":[],"mouse_events":[3319.6999999999534,39535.30000000005,41183.30000000005,41935.09999999986,42263.30000000005,72871.19999999995,73743.09999999986,74407.59999999986,75359.19999999995,84207,84815.09999999986,86022.8999999999],"honeypot":0,"survey":"mace","page":2,"trial_type":"survey-mace","trial_index":10,"time_elapsed":1161145,"internal_node_id":"0.0-10.0","task_version":"prescreen-v0.3","browser_interactions":8},{"responses":{"01":"No","02":"No","03":"No","04":"No"},"rt":26417.90000000014,"item_order":[0,1,2,3],"radio_events":[23263.40000000014,24135.700000000186,24927.700000000186,25695.800000000047],"checkbox_events":[],"key_events":[],"mouse_events":[1703.7000000001863,4759.800000000047,23263.40000000014,24135.700000000186,24927.700000000186,25695.800000000047,26415.700000000186],"honeypot":0,"survey":"mace","page":3,"trial_type":"survey-mace","trial_index":11,"time_elapsed":1187566,"internal_node_id":"0.0-11.0","task_version":"prescreen-v0.3","browser_interactions":2},{"responses":{"01":"No","02":"No"},"rt":19564.200000000186,"item_order":[0,1],"radio_events":[17947.300000000047,18955.100000000093],"checkbox_events":[],"key_events":[],"mouse_events":[1347,17947.300000000047,18955.100000000093,19563],"honeypot":0,"survey":"mace","page":4,"trial_type":"survey-mace","trial_index":12,"time_elapsed":1207132,"internal_node_id":"0.0-12.0","task_version":"prescreen-v0.3","browser_interactions":2},{"responses":{"01":"No","02":"No","03":"No","04":"No","05":"No"},"rt":34149.80000000005,"item_order":[0,1,2,3,4],"radio_events":[29883,30483,31899,32571,33515],"checkbox_events":[],"key_events":[],"mouse_events":[1683,4475.09999999986,29883,30483,31090.800000000047,31899,32571,33515,34146.80000000005],"honeypot":0,"survey":"mace","page":5,"trial_type":"survey-mace","trial_index":13,"time_elapsed":1241286,"internal_node_id":"0.0-13.0","task_version":"prescreen-v0.3","browser_interactions":2},{"responses":{"01":"No","02":"No","03":"No","04":"No","05":"No"},"rt":43883.89999999991,"item_order":[0,1,2,3,4],"radio_events":[39417.5,40217.39999999991,41057.299999999814,41745.09999999986,43025.299999999814],"checkbox_events":[],"key_events":[],"mouse_events":[1809.5999999998603,24185.399999999907,39417.5,40217.39999999991,41057.299999999814,41745.09999999986,43025.299999999814,43881.19999999995],"honeypot":0,"survey":"mace","page":6,"trial_type":"survey-mace","trial_index":14,"time_elapsed":1285173,"internal_node_id":"0.0-14.0","task_version":"prescreen-v0.3","browser_interactions":4},{"responses":{"01":"No","02":"No","03":"No","04":"No","05":"No","06":"No","07":"No"},"rt":41661,"item_order":[0,1,2,3,4,5,6],"radio_events":[36577.200000000186,37233.90000000014,37825.10000000009,38489.10000000009,40089.200000000186,40625.200000000186,41225.200000000186],"checkbox_events":[],"key_events":[],"mouse_events":[1977.5,2569.600000000093,3881.3000000000466,36577.200000000186,37233.90000000014,37825.10000000009,38489.10000000009,38825.10000000009,40089.200000000186,40625.200000000186,41225.200000000186,41657.30000000005],"honeypot":0,"survey":"mace","page":7,"trial_type":"survey-mace","trial_index":15,"time_elapsed":1326839,"internal_node_id":"0.0-15.0","task_version":"prescreen-v0.3","browser_interactions":2},{"responses":{"01":"No","02":"No","03":"No","04":"No"},"rt":46058,"item_order":[0,1,2,3],"radio_events":[43047.69999999995,43775.69999999995,44599.80000000005,45279.69999999995],"checkbox_events":[],"key_events":[],"mouse_events":[1543.8999999999069,43047.69999999995,43775.69999999995,44599.80000000005,45279.69999999995,46055.80000000005],"honeypot":0,"survey":"mace","page":8,"trial_type":"survey-mace","trial_index":16,"time_elapsed":1372901,"internal_node_id":"0.0-16.0","task_version":"prescreen-v0.3","browser_interactions":2},{"responses":{"01":"Yes","01_ages_1":"1","01_ages_2":"2","01_ages_3":"3","01_ages_4":"4","01_ages_5":"5","01_ages_6":"6","01_ages_7":"7","01_ages_8":"8","01_ages_9":"9","01_ages_10":"10","01_ages_11":"11","01_ages_12":"12","01_ages_13":"13","01_ages_14":"14","01_ages_15":"15","01_ages_16":"16","01_ages_17":"17","01_ages_18":"18","02":"Yes","02_ages_1":"1","02_ages_2":"2","02_ages_3":"3","02_ages_4":"4","02_ages_5":"5","02_ages_6":"6","02_ages_7":"7","02_ages_8":"8","02_ages_9":"9","02_ages_10":"10","02_ages_11":"11","02_ages_12":"12","02_ages_13":"13","02_ages_14":"14","02_ages_15":"15","02_ages_16":"16","02_ages_17":"17","02_ages_18":"18","03":"Yes","03_ages_1":"1","03_ages_2":"2","03_ages_3":"3","03_ages_4":"4","03_ages_5":"5","03_ages_6":"6","03_ages_7":"7","03_ages_8":"8","03_ages_9":"9","03_ages_10":"10","03_ages_11":"11","03_ages_12":"12","03_ages_13":"13","03_ages_14":"14","03_ages_15":"15","03_ages_16":"16","03_ages_17":"17","03_ages_18":"18","04":"Yes","04_ages_1":"1","04_ages_2":"2","04_ages_3":"3","04_ages_4":"4","04_ages_5":"5","04_ages_6":"6","04_ages_7":"7","04_ages_8":"8","04_ages_9":"9","04_ages_10":"10","04_ages_11":"11","04_ages_12":"12","04_ages_13":"13","04_ages_14":"14","04_ages_15":"15","04_ages_16":"16","04_ages_17":"17","04_ages_18":"18"},"rt":118756.5,"item_order":[0,1,2,3],"radio_events":[19050.399999999907,44586.5,45770.19999999995,47098.299999999814],"checkbox_events":[22090.799999999814,67658.5,68042,68730,70370.29999999981,70770.5,71162.19999999995,71610.3999999999,72242,72617.8999999999,73122.09999999986,74042.09999999986,74506.09999999986,75034.09999999986,75410.19999999995,76626.59999999986,77361.79999999981,77985.8999999999,79625.8999999999,80089.8999999999,80785.79999999981,81330,81714.09999999986,82178.09999999986,82626.09999999986,83169.79999999981,83705.79999999981,84490.09999999986,85050,85772.19999999995,86594,88266,89298.09999999986,89786.09999999986,90282.09999999986,90794,93066,93505.8999999999,94193.69999999995,94913.8999999999,95433.8999999999,96538.3999999999,97057.8999999999,97561.79999999981,98433.69999999995,98897.8999999999,99393.79999999981,99817.8999999999,100977.8999999999,101625.8999999999,102665.79999999981,103289.8999999999,104065.8999999999,104705.8999999999,106233.69999999995,106705.79999999981,107754,108297.8999999999,108857.79999999981,110729.79999999981,111273.79999999981,111785.79999999981,112257.69999999995,113089.79999999981,113905.79999999981,114393.8999999999,114865.8999999999,115697.79999999981,116177.79999999981,116881.59999999986,117489.79999999981,118041.5],"key_events":[],"mouse_events":[1594.3999999999069,19050.399999999907,20242.399999999907,22090.799999999814,44586.5,45770.19999999995,47098.299999999814,48818,65890.09999999986,66465.8999999999,67658.5,68042,68730,69194.09999999986,70370.29999999981,70770.5,71162.19999999995,71610.3999999999,72242,72617.8999999999,73122.09999999986,73569.8999999999,74042.09999999986,74506.09999999986,75034.09999999986,75410.19999999995,75922,76626.59999999986,77361.79999999981,77985.8999999999,79625.8999999999,80089.8999999999,80785.79999999981,81330,81714.09999999986,82178.09999999986,82626.09999999986,83169.79999999981,83705.79999999981,84490.09999999986,85050,85772.19999999995,86594,87601.79999999981,88266,88665.69999999995,89298.09999999986,89786.09999999986,90282.09999999986,90794,92049.69999999995,93066,93505.8999999999,94193.69999999995,94913.8999999999,95433.8999999999,95897.69999999995,96538.3999999999,97057.8999999999,97561.79999999981,98433.69999999995,98897.8999999999,99393.79999999981,99817.8999999999,100345.79999999981,100977.8999999999,101625.8999999999,102665.79999999981,103289.8999999999,104065.8999999999,104705.8999999999,106233.69999999995,106705.79999999981,107113.69999999995,107754,108297.8999999999,108857.79999999981,109585.8999999999,109937.59999999986,110729.79999999981,111273.79999999981,111785.79999999981,112257.69999999995,113089.79999999981,113905.79999999981,114393.8999999999,114865.8999999999,115697.79999999981,116177.79999999981,116881.59999999986,117489.79999999981,118041.5,118754.29999999981],"honeypot":0,"survey":"mace","page":9,"trial_type":"survey-mace","trial_index":17,"time_elapsed":1491661,"internal_node_id":"0.0-17.0","task_version":"prescreen-v0.3","browser_interactions":6},{"responses":{"01":"No","02":"No","03":"No","04":"No","05":"No","06":"Yes","06_ages_17":"17","07":"Yes","07_ages_1":"1","07_ages_2":"2","07_ages_3":"3","07_ages_4":"4","07_ages_5":"5","07_ages_6":"6","07_ages_7":"7","07_ages_8":"8","07_ages_9":"9","07_ages_10":"10","07_ages_11":"11","07_ages_12":"12","07_ages_13":"13","07_ages_14":"14","07_ages_15":"15","07_ages_16":"16","07_ages_17":"17","07_ages_18":"18","08":"Yes","08_ages_1":"1","08_ages_2":"2","08_ages_3":"3","08_ages_4":"4","08_ages_5":"5","08_ages_6":"6","08_ages_7":"7","08_ages_8":"8","08_ages_9":"9","08_ages_10":"10","08_ages_11":"11","08_ages_12":"12","08_ages_13":"13","08_ages_14":"14","08_ages_15":"15","08_ages_16":"16","08_ages_17":"17","08_ages_18":"18"},"rt":94252.69999999995,"item_order":[0,1,2,3,4,5,6,7],"radio_events":[18177,24184.800000000047,37680.69999999995,38328.59999999986,46944.69999999995,49464.69999999995,66048.59999999986,80512.3999999999],"checkbox_events":[50696.80000000005,68232.59999999986,68616.69999999995,69912.5,70529.09999999986,71368.59999999986,71792.59999999986,72552.5,73112.30000000005,73792.69999999995,74216.5,74976.5,75464.5,75912.69999999995,76360.5,76840.3999999999,77320.5,78128.3999999999,79296.5,81824.19999999995,82432.3999999999,83024.3999999999,84144.5,84704.3999999999,85952.19999999995,86584.69999999995,87336.3999999999,87960.09999999986,88792.3999999999,89560.19999999995,90120.19999999995,90816.30000000005,91312.30000000005,91976.80000000005,92480.3999999999,92960.09999999986,93440.19999999995],"key_events":[],"mouse_events":[2856.899999999907,18177,19048.899999999907,24184.800000000047,37680.69999999995,38328.59999999986,46944.69999999995,48632.69999999995,49464.69999999995,50696.80000000005,66048.59999999986,67112.69999999995,67713.30000000005,68232.59999999986,68616.69999999995,69080.59999999986,69464.5,69912.5,70529.09999999986,71368.59999999986,71792.59999999986,72552.5,73112.30000000005,73792.69999999995,74216.5,74976.5,75464.5,75912.69999999995,76360.5,76840.3999999999,77320.5,77752.69999999995,78128.3999999999,78840.5,79296.5,80512.3999999999,81824.19999999995,82432.3999999999,83024.3999999999,83624.3999999999,84144.5,84704.3999999999,85336.80000000005,85952.19999999995,86584.69999999995,87336.3999999999,87960.09999999986,88792.3999999999,89560.19999999995,90120.19999999995,90816.30000000005,91312.30000000005,91976.80000000005,92480.3999999999,92960.09999999986,93440.19999999995,94248.5],"honeypot":0,"survey":"mace","page":10,"trial_type":"survey-mace","trial_index":18,"time_elapsed":1585918,"internal_node_id":"0.0-18.0","task_version":"prescreen-v0.3","browser_interactions":10,"instructed":0},{"rt":15968,"trial_type":"mental-health-alert","trial_index":19,"time_elapsed":1601888,"internal_node_id":"0.0-19.0","task_version":"prescreen-v0.3","interactions":"[{\"event\":\"blur\",\"trial\":0,\"time\":4958},{\"event\":\"focus\",\"trial\":0,\"time\":16890},{\"event\":\"blur\",\"trial\":0,\"time\":23518},{\"event\":\"focus\",\"trial\":0,\"time\":33753},{\"event\":\"blur\",\"trial\":0,\"time\":43549},{\"event\":\"focus\",\"trial\":0,\"time\":60953},{\"event\":\"blur\",\"trial\":0,\"time\":67933},{\"event\":\"focus\",\"trial\":0,\"time\":73239},{\"event\":\"blur\",\"trial\":1,\"time\":81935},{\"event\":\"focus\",\"trial\":1,\"time\":85544},{\"event\":\"blur\",\"trial\":1,\"time\":96941},{\"event\":\"focus\",\"trial\":1,\"time\":103904},{\"event\":\"blur\",\"trial\":1,\"time\":116245},{\"event\":\"focus\",\"trial\":1,\"time\":129480},{\"event\":\"blur\",\"trial\":1,\"time\":134973},{\"event\":\"focus\",\"trial\":1,\"time\":137532},{\"event\":\"blur\",\"trial\":1,\"time\":138021},{\"event\":\"focus\",\"trial\":1,\"time\":147312},{\"event\":\"blur\",\"trial\":2,\"time\":156900},{\"event\":\"focus\",\"trial\":2,\"time\":171090},{\"event\":\"blur\",\"trial\":2,\"time\":173156},{\"event\":\"focus\",\"trial\":2,\"time\":194324},{\"event\":\"blur\",\"trial\":2,\"time\":197092},{\"event\":\"focus\",\"trial\":2,\"time\":200684},{\"event\":\"blur\",\"trial\":2,\"time\":202556},{\"event\":\"focus\",\"trial\":2,\"time\":206555},{\"event\":\"blur\",\"trial\":2,\"time\":208612},{\"event\":\"focus\",\"trial\":2,\"time\":215317},{\"event\":\"blur\",\"trial\":2,\"time\":219748},{\"event\":\"focus\",\"trial\":2,\"time\":227867},{\"event\":\"blur\",\"trial\":2,\"time\":229996},{\"event\":\"focus\",\"trial\":2,\"time\":239700},{\"event\":\"blur\",\"trial\":2,\"time\":243020},{\"event\":\"focus\",\"trial\":2,\"time\":248923},{\"event\":\"blur\",\"trial\":2,\"time\":251732},{\"event\":\"focus\",\"trial\":2,\"time\":252581},{\"event\":\"blur\",\"trial\":2,\"time\":253412},{\"event\":\"focus\",\"trial\":2,\"time\":258953},{\"event\":\"blur\",\"trial\":2,\"time\":261363},{\"event\":\"focus\",\"trial\":2,\"time\":275045},{\"event\":\"blur\",\"trial\":2,\"time\":279659},{\"event\":\"focus\",\"trial\":2,\"time\":291938},{\"event\":\"blur\",\"trial\":2,\"time\":298427},{\"event\":\"focus\",\"trial\":2,\"time\":318308},{\"event\":\"blur\",\"trial\":2,\"time\":320858},{\"event\":\"focus\",\"trial\":2,\"time\":328361},{\"event\":\"blur\",\"trial\":2,\"time\":331059},{\"event\":\"focus\",\"trial\":2,\"time\":342900},{\"event\":\"blur\",\"trial\":3,\"time\":438330},{\"event\":\"focus\",\"trial\":3,\"time\":482596},{\"event\":\"blur\",\"trial\":3,\"time\":486418},{\"event\":\"focus\",\"trial\":3,\"time\":491481},{\"event\":\"blur\",\"trial\":3,\"time\":496073},{\"event\":\"focus\",\"trial\":3,\"time\":504008},{\"event\":\"blur\",\"trial\":3,\"time\":507649},{\"event\":\"focus\",\"trial\":3,\"time\":513226},{\"event\":\"blur\",\"trial\":3,\"time\":515265},{\"event\":\"focus\",\"trial\":3,\"time\":521456},{\"event\":\"blur\",\"trial\":3,\"time\":525472},{\"event\":\"focus\",\"trial\":3,\"time\":533432},{\"event\":\"blur\",\"trial\":3,\"time\":536936},{\"event\":\"focus\",\"trial\":3,\"time\":551688},{\"event\":\"blur\",\"trial\":3,\"time\":555201},{\"event\":\"focus\",\"trial\":3,\"time\":560658},{\"event\":\"blur\",\"trial\":3,\"time\":564057},{\"event\":\"focus\",\"trial\":3,\"time\":572712},{\"event\":\"blur\",\"trial\":3,\"time\":577760},{\"event\":\"focus\",\"trial\":3,\"time\":590448},{\"event\":\"blur\",\"trial\":4,\"time\":598017},{\"event\":\"focus\",\"trial\":4,\"time\":624243},{\"event\":\"blur\",\"trial\":4,\"time\":628168},{\"event\":\"focus\",\"trial\":4,\"time\":639903},{\"event\":\"blur\",\"trial\":4,\"time\":643824},{\"event\":\"focus\",\"trial\":4,\"time\":652239},{\"event\":\"blur\",\"trial\":5,\"time\":665864},{\"event\":\"focus\",\"trial\":5,\"time\":681250},{\"event\":\"blur\",\"trial\":5,\"time\":684568},{\"event\":\"focus\",\"trial\":5,\"time\":697878},{\"event\":\"blur\",\"trial\":5,\"time\":700784},{\"event\":\"focus\",\"trial\":5,\"time\":707087},{\"event\":\"blur\",\"trial\":6,\"time\":716687},{\"event\":\"focus\",\"trial\":6,\"time\":728954},{\"event\":\"blur\",\"trial\":6,\"time\":732047},{\"event\":\"focus\",\"trial\":6,\"time\":738742},{\"event\":\"blur\",\"trial\":6,\"time\":740895},{\"event\":\"focus\",\"trial\":6,\"time\":778837},{\"event\":\"blur\",\"trial\":7,\"time\":787919},{\"event\":\"focus\",\"trial\":7,\"time\":806602},{\"event\":\"blur\",\"trial\":7,\"time\":809575},{\"event\":\"focus\",\"trial\":7,\"time\":819849},{\"event\":\"blur\",\"trial\":7,\"time\":827567},{\"event\":\"focus\",\"trial\":7,\"time\":846345},{\"event\":\"blur\",\"trial\":7,\"time\":849446},{\"event\":\"focus\",\"trial\":7,\"time\":857222},{\"event\":\"blur\",\"trial\":7,\"time\":861150},{\"event\":\"focus\",\"trial\":7,\"time\":875013},{\"event\":\"blur\",\"trial\":7,\"time\":883230},{\"event\":\"focus\",\"trial\":7,\"time\":894040},{\"event\":\"blur\",\"trial\":7,\"time\":898190},{\"event\":\"focus\",\"trial\":7,\"time\":929712},{\"event\":\"blur\",\"trial\":8,\"time\":942654},{\"event\":\"focus\",\"trial\":8,\"time\":950600},{\"event\":\"blur\",\"trial\":9,\"time\":957734},{\"event\":\"focus\",\"trial\":9,\"time\":1043969},{\"event\":\"blur\",\"trial\":9,\"time\":1047709},{\"event\":\"focus\",\"trial\":9,\"time\":1055917},{\"event\":\"blur\",\"trial\":9,\"time\":1059821},{\"event\":\"focus\",\"trial\":9,\"time\":1060390},{\"event\":\"blur\",\"trial\":9,\"time\":1062381},{\"event\":\"focus\",\"trial\":9,\"time\":1070029},{\"event\":\"blur\",\"trial\":10,\"time\":1082069},{\"event\":\"focus\",\"trial\":10,\"time\":1113644},{\"event\":\"blur\",\"trial\":10,\"time\":1119245},{\"event\":\"focus\",\"trial\":10,\"time\":1146710},{\"event\":\"blur\",\"trial\":10,\"time\":1151317},{\"event\":\"focus\",\"trial\":10,\"time\":1156292},{\"event\":\"blur\",\"trial\":10,\"time\":1156780},{\"event\":\"focus\",\"trial\":10,\"time\":1158147},{\"event\":\"blur\",\"trial\":11,\"time\":1166676},{\"event\":\"focus\",\"trial\":11,\"time\":1183526},{\"event\":\"blur\",\"trial\":12,\"time\":1191619},{\"event\":\"focus\",\"trial\":12,\"time\":1204143},{\"event\":\"blur\",\"trial\":13,\"time\":1213139},{\"event\":\"focus\",\"trial\":13,\"time\":1235741},{\"event\":\"blur\",\"trial\":14,\"time\":1245651},{\"event\":\"focus\",\"trial\":14,\"time\":1264559},{\"event\":\"blur\",\"trial\":14,\"time\":1266435},{\"event\":\"focus\",\"trial\":14,\"time\":1279565},{\"event\":\"blur\",\"trial\":15,\"time\":1293075},{\"event\":\"focus\",\"trial\":15,\"time\":1320902},{\"event\":\"blur\",\"trial\":16,\"time\":1331067},{\"event\":\"focus\",\"trial\":16,\"time\":1368807},{\"event\":\"blur\",\"trial\":17,\"time\":1378203},{\"event\":\"focus\",\"trial\":17,\"time\":1390822},{\"event\":\"blur\",\"trial\":17,\"time\":1397258},{\"event\":\"focus\",\"trial\":17,\"time\":1416323},{\"event\":\"blur\",\"trial\":17,\"time\":1424530},{\"event\":\"focus\",\"trial\":17,\"time\":1437959},{\"event\":\"blur\",\"trial\":18,\"time\":1496722},{\"event\":\"focus\",\"trial\":18,\"time\":1507869},{\"event\":\"blur\",\"trial\":18,\"time\":1511649},{\"event\":\"focus\",\"trial\":18,\"time\":1514921},{\"event\":\"blur\",\"trial\":18,\"time\":1516801},{\"event\":\"focus\",\"trial\":18,\"time\":1528080},{\"event\":\"blur\",\"trial\":18,\"time\":1530809},{\"event\":\"focus\",\"trial\":18,\"time\":1537208},{\"event\":\"blur\",\"trial\":18,\"time\":1544474},{\"event\":\"focus\",\"trial\":18,\"time\":1556400},{\"event\":\"blur\",\"trial\":19,\"time\":1589361},{\"event\":\"focus\",\"trial\":19,\"time\":1596395}]"}]