[{"view_history":[{"page_index":0,"viewing_time":5879.9000000003725},{"page_index":1,"viewing_time":6489.89999999851},{"page_index":2,"viewing_time":5125.800000000745},{"page_index":3,"viewing_time":1545.800000000745}],"rt":19042.299999998882,"trial_type":"instructions","trial_index":0,"time_elapsed":19072,"internal_node_id":"0.0-0.0","task_version":"prescreen-v0.3"},{"rt":38907.90000000037,"responses":{"age":"48","gender-categorical":"Male","gender-free-response":"","ethnicity":"Not Hispanic or Latino","race":["White"],"education":"Some college","siblings":"0"},"trial_type":"survey-demo","trial_index":1,"time_elapsed":57988,"internal_node_id":"0.0-1.0","task_version":"prescreen-v0.3"},{"responses":{"Q10":"1","Q18":"1","Q12":"2","Q04":"3","Q03":"2","Q15":"2","Q06":"1","Q16":"0","Q20":"0","Q07":"2","Q17":"2","Q02":"1","Q08":"2","Q19":"1","Q13":"1","Q14":"1","Q09":"1","Q05":"2","Q11":"0","Q21":"3","Q01":"2"},"rt":159791.40000000037,"item_order":[9,17,11,3,2,14,5,15,19,6,16,1,7,18,12,13,8,4,10,20,0],"radio_events":[12397,17765,23522.599999999627,29864.800000000745,33598.59999999963,34880.40000000037,39966.699999999255,46184.40000000037,64434.300000000745,68356.69999999925,75980.09999999963,80558,84324.09999999963,93869.80000000075,100807.80000000075,107002,111931.59999999963,118017.40000000037,135157.40000000037,140423.5,147187.30000000075,149773.19999999925],"key_events":[],"mouse_events":[12397,17765,22663.099999999627,23522.599999999627,29864.800000000745,33598.59999999963,34880.40000000037,39966.699999999255,46184.40000000037,64434.300000000745,67684.30000000075,68356.69999999925,75980.09999999963,80558,84324.09999999963,93869.80000000075,100807.80000000075,107002,111931.59999999963,118017.40000000037,135157.40000000037,140423.5,147187.30000000075,149773.19999999925,159789],"straightlining":0.38095238095238093,"zigzagging":0.55,"honeypot":0,"survey":"sns","trial_type":"survey-template","trial_index":2,"time_elapsed":217788,"internal_node_id":"0.0-2.0","task_version":"prescreen-v0.3","browser_interactions":2,"infrequency":0},{"responses":{"Q04":"3","Q02":"3","Q03":"3","Q12":"2","Q13":"0","Q10":"2","Q08":"3","Q07":"3","Q09":"2","Q01":"3","Q05":"3","Q06":"3","Q11":"2"},"rt":60511.79999999888,"item_order":[3,1,2,11,12,9,7,6,8,0,4,5,10],"radio_events":[8505,10568.799999998882,15238.699999999255,22058.599999999627,24574.5,29676.39999999851,33246.39999999851,36324.5,41004.39999999851,44636.199999999255,48246.5,51362.29999999888,56494.199999999255,59658.199999999255],"key_events":[],"mouse_events":[8505,10568.799999998882,15238.699999999255,22058.599999999627,24574.5,29676.39999999851,32731.099999999627,33246.39999999851,36324.5,41004.39999999851,44636.199999999255,48246.5,50768.199999999255,51362.29999999888,56494.199999999255,59658.199999999255,60510.39999999851],"straightlining":0.6153846153846154,"zigzagging":0.4166666666666667,"honeypot":0,"survey":"bisbas","trial_type":"survey-template","trial_index":3,"time_elapsed":278304,"internal_node_id":"0.0-3.0","task_version":"prescreen-v0.3","browser_interactions":0,"infrequency":0},{"responses":{"Q01":"2","Q02":"2","Q03":"2"},"rt":21322.900000000373,"radio_events":[8376.300000000745,14618.300000000745,20524.200000001118],"key_events":[],"mouse_events":[8376.300000000745,14618.300000000745,20524.200000001118,21322.099999999627],"survey":"map","page":1,"trial_type":"survey-map","trial_index":4,"time_elapsed":299631,"internal_node_id":"0.0-4.0","task_version":"prescreen-v0.3","browser_interactions":0},{"responses":{"Q04":"3","Q05":"3","Q06":"3"},"rt":15550.5,"radio_events":[5800.0999999996275,11033.800000000745,14143.900000000373],"key_events":[],"mouse_events":[5800.0999999996275,11033.800000000745,14143.900000000373,15549.900000000373],"survey":"map","page":2,"trial_type":"survey-map","trial_index":5,"time_elapsed":315184,"internal_node_id":"0.0-5.0","task_version":"prescreen-v0.3","browser_interactions":0},{"responses":{"Q07":"2","Q08":"4","Q09":"0"},"rt":19707.200000001118,"radio_events":[10784.900000000373,15080.599999999627,18088.700000001118],"key_events":[],"mouse_events":[10784.900000000373,14403,15080.599999999627,18088.700000001118,19706.599999999627],"survey":"map","page":3,"trial_type":"survey-map","trial_index":6,"time_elapsed":334894,"internal_node_id":"0.0-6.0","task_version":"prescreen-v0.3","browser_interactions":0},{"responses":{"Q10":"0","Q11":"1","Q12":"3","Q13":"2","Q16":"0","Q14":"1","Q15":"1"},"rt":55941.59999999963,"radio_events":[8418.89999999851,13129.199999999255,23416.699999999255,30972.799999998882,36464.699999999255,47236.29999999888,51814.29999999888,54424.29999999888,55166.699999999255],"key_events":[],"mouse_events":[8418.89999999851,13129.199999999255,23416.699999999255,30972.799999998882,36464.699999999255,47236.29999999888,51298.5,51814.29999999888,54424.29999999888,55166.699999999255,55940.39999999851],"survey":"map","page":4,"trial_type":"survey-map","trial_index":7,"time_elapsed":390839,"internal_node_id":"0.0-7.0","task_version":"prescreen-v0.3","browser_interactions":0,"infrequency":0},{"view_history":[{"page_index":0,"viewing_time":3644.7000000011176},{"page_index":1,"viewing_time":3201.699999999255}],"rt":6847.9000000003725,"trial_type":"instructions","trial_index":8,"time_elapsed":397689,"internal_node_id":"0.0-8.0","task_version":"prescreen-v0.3"},{"responses":{"01":"No","02":"No","03":"No","04":"No","05":"No","06":"No"},"rt":36638.699999999255,"item_order":[0,1,2,3,4,5],"radio_events":[16656.5,21607.599999999627,27677.299999998882,28857.699999999255,31021.400000000373,35911.199999999255],"checkbox_events":[],"key_events":[],"mouse_events":[0.09999999962747097,16656.5,21607.599999999627,27677.299999998882,28857.699999999255,31021.400000000373,35911.199999999255,36631.90000000037],"honeypot":0,"survey":"mace","page":1,"trial_type":"survey-mace","trial_index":9,"time_elapsed":434337,"internal_node_id":"0.0-9.0","task_version":"prescreen-v0.3","browser_interactions":2},{"responses":{"01":"No","02":"No","03":"Yes","03_ages_4":"4","03_ages_5":"5","03_ages_6":"6","03_ages_7":"7","03_ages_8":"8","03_ages_9":"9","03_ages_10":"10","04":"Yes","04_ages_4":"4","04_ages_5":"5","04_ages_6":"6","04_ages_7":"7","04_ages_8":"8","04_ages_9":"9","04_ages_10":"10","05":"No","06":"No","07":"No","08":"No"},"rt":54642.40000000037,"item_order":[0,1,2,3,4,5,6,7],"radio_events":[3382.800000000745,8084.9000000003725,9898.5,36412.300000000745,46904.09999999963,49278.300000000745,51574,53942.40000000037],"checkbox_events":[17047.099999999627,17554.800000000745,18412.900000000373,19194.699999999255,19630.5,20138.300000000745,20904.5,41200.40000000037,41842.300000000745,42348.59999999963,42904.199999999255,43388.300000000745,43840,44692.5],"key_events":[],"mouse_events":[3382.800000000745,8084.9000000003725,9898.5,17047.099999999627,17554.800000000745,18412.900000000373,19194.699999999255,19630.5,20138.300000000745,20904.5,36412.300000000745,41200.40000000037,41842.300000000745,42348.59999999963,42904.199999999255,43388.300000000745,43840,44692.5,46904.09999999963,49278.300000000745,51574,53942.40000000037,54638.300000000745],"honeypot":0,"survey":"mace","page":2,"trial_type":"survey-mace","trial_index":10,"time_elapsed":488986,"internal_node_id":"0.0-10.0","task_version":"prescreen-v0.3","browser_interactions":0},{"responses":{"01":"No","02":"No","03":"No","04":"No"},"rt":8912.599999999627,"item_order":[0,1,2,3],"radio_events":[3912.5999999996275,4786.5999999996275,6466.700000001118,8192.5],"checkbox_events":[],"key_events":[],"mouse_events":[3912.5999999996275,4786.5999999996275,6466.700000001118,8192.5,8910.099999999627],"honeypot":0,"survey":"mace","page":3,"trial_type":"survey-mace","trial_index":11,"time_elapsed":497903,"internal_node_id":"0.0-11.0","task_version":"prescreen-v0.3","browser_interactions":0},{"responses":{"01":"No","02":"No"},"rt":6567.0999999996275,"item_order":[0,1],"radio_events":[3175,6019],"checkbox_events":[],"key_events":[],"mouse_events":[3175,6019,6565],"honeypot":0,"survey":"mace","page":4,"trial_type":"survey-mace","trial_index":12,"time_elapsed":504473,"internal_node_id":"0.0-12.0","task_version":"prescreen-v0.3","browser_interactions":0},{"responses":{"01":"No","02":"No","03":"No","04":"No","05":"No"},"rt":30347.900000000373,"item_order":[0,1,2,3,4],"radio_events":[5189.200000001118,9149.300000000745,13603.300000000745,28399,29735],"checkbox_events":[],"key_events":[],"mouse_events":[5189.200000001118,9149.300000000745,13603.300000000745,28399,29735,30344.900000000373],"honeypot":0,"survey":"mace","page":5,"trial_type":"survey-mace","trial_index":13,"time_elapsed":534826,"internal_node_id":"0.0-13.0","task_version":"prescreen-v0.3","browser_interactions":0},{"responses":{"01":"Yes","01_ages_6":"6","01_ages_7":"7","01_ages_8":"8","01_ages_9":"9","01_ages_10":"10","01_ages_11":"11","01_ages_12":"12","01_ages_13":"13","02":"Yes","02_ages_6":"6","02_ages_7":"7","02_ages_8":"8","02_ages_9":"9","02_ages_10":"10","02_ages_11":"11","02_ages_12":"12","02_ages_13":"13","03":"No","04":"No","05":"Yes","05_ages_10":"10","05_ages_11":"11","05_ages_12":"12","05_ages_13":"13"},"rt":69290.90000000037,"item_order":[0,1,2,3,4],"radio_events":[12991.400000000373,39045.300000000745,53302.90000000037,57910.90000000037,62888.699999999255],"checkbox_events":[22413.300000000745,27945.300000000745,28881.300000000745,29421.099999999627,29827.5,30295.099999999627,31405.400000000373,32287.300000000745,33163.09999999963,41725.199999999255,42529.800000000745,42857.199999999255,44271.199999999255,44671.09999999963,46561.300000000745,47077.09999999963,47593,47999.59999999963,66380.59999999963,66778.69999999925,67286.59999999963,67778.90000000037],"key_events":[],"mouse_events":[12991.400000000373,22413.300000000745,27945.300000000745,28881.300000000745,29421.099999999627,29827.5,30295.099999999627,31405.400000000373,32287.300000000745,33163.09999999963,39045.300000000745,40436.90000000037,41725.199999999255,42529.800000000745,42857.199999999255,43271.199999999255,43913,44271.199999999255,44671.09999999963,45279.300000000745,45724.90000000037,46561.300000000745,47077.09999999963,47593,47999.59999999963,53302.90000000037,57910.90000000037,62888.699999999255,66380.59999999963,66778.69999999925,67286.59999999963,67778.90000000037,69287.30000000075],"honeypot":0,"survey":"mace","page":6,"trial_type":"survey-mace","trial_index":14,"time_elapsed":604121,"internal_node_id":"0.0-14.0","task_version":"prescreen-v0.3","browser_interactions":0},{"responses":{"01":"No","02":"No","03":"Yes","03_ages_12":"12","03_ages_13":"13","04":"No","05":"No","06":"No","07":"No"},"rt":26405.900000000373,"item_order":[0,1,2,3,4,5,6],"radio_events":[3754.4000000003725,8310.299999998882,10254.400000000373,19488.299999998882,22044.199999999255,24270.299999998882,25011.900000000373],"checkbox_events":[14184.199999999255,15364.400000000373],"key_events":[],"mouse_events":[3754.4000000003725,8310.299999998882,10254.400000000373,14184.199999999255,15364.400000000373,19488.299999998882,22044.199999999255,24270.299999998882,25011.900000000373,26402.099999999627],"honeypot":0,"survey":"mace","page":7,"trial_type":"survey-mace","trial_index":15,"time_elapsed":630532,"internal_node_id":"0.0-15.0","task_version":"prescreen-v0.3","browser_interactions":0},{"responses":{"01":"No","02":"No","03":"No","04":"No"},"rt":22704.199999999255,"item_order":[0,1,2,3],"radio_events":[8788.199999999255,12476.099999999627,17992,21795.799999998882],"checkbox_events":[],"key_events":[],"mouse_events":[8788.199999999255,12476.099999999627,17992,21795.799999998882,22701.89999999851],"honeypot":0,"survey":"mace","page":8,"trial_type":"survey-mace","trial_index":16,"time_elapsed":653240,"internal_node_id":"0.0-16.0","task_version":"prescreen-v0.3","browser_interactions":0},{"responses":{"01":"Yes","01_ages_4":"4","01_ages_5":"5","01_ages_6":"6","01_ages_7":"7","01_ages_8":"8","01_ages_9":"9","01_ages_10":"10","01_ages_11":"11","01_ages_12":"12","01_ages_13":"13","01_ages_14":"14","01_ages_15":"15","01_ages_16":"16","01_ages_17":"17","01_ages_18":"18","02":"Yes","02_ages_4":"4","02_ages_5":"5","02_ages_6":"6","02_ages_7":"7","02_ages_8":"8","02_ages_9":"9","02_ages_10":"10","02_ages_11":"11","02_ages_12":"12","02_ages_13":"13","02_ages_14":"14","02_ages_15":"15","02_ages_16":"16","02_ages_17":"17","02_ages_18":"18","03":"Yes","03_ages_1":"1","03_ages_2":"2","03_ages_3":"3","03_ages_4":"4","03_ages_5":"5","03_ages_6":"6","03_ages_7":"7","03_ages_8":"8","03_ages_9":"9","03_ages_10":"10","03_ages_11":"11","03_ages_12":"12","03_ages_13":"13","03_ages_14":"14","03_ages_15":"15","03_ages_16":"16","03_ages_17":"17","03_ages_18":"18","04":"Yes","04_ages_1":"1","04_ages_2":"2","04_ages_3":"3","04_ages_4":"4","04_ages_5":"5","04_ages_6":"6","04_ages_7":"7","04_ages_8":"8","04_ages_9":"9","04_ages_10":"10","04_ages_11":"11","04_ages_12":"12","04_ages_13":"13","04_ages_14":"14","04_ages_15":"15","04_ages_16":"16","04_ages_17":"17","04_ages_18":"18"},"rt":82109.90000000037,"item_order":[0,1,2,3],"radio_events":[10032.400000000373,31618.10000000149,47437.70000000112,68319.90000000037],"checkbox_events":[19540.200000001118,20212.300000000745,20790.300000000745,22282.5,23876.10000000149,24392.300000000745,25352.200000001118,25712.800000000745,26172.400000000373,27212.300000000745,28118.300000000745,28712.700000001118,29290.200000001118,29720.300000000745,30204.10000000149,33172.5,33500.10000000149,34344.5,36024.10000000149,36524.20000000112,38008.300000000745,38422.10000000149,39220.10000000149,39696.300000000745,40212.10000000149,40820.20000000112,41492,42148.70000000112,42750,43734.10000000149,48688,49187.90000000037,50148,50594,51484.40000000037,51929.90000000037,52914.300000000745,53546.10000000149,54085.800000000745,54913.90000000037,55585.90000000037,57023.70000000112,57438,57967.800000000745,58631.70000000112,59601.800000000745,61787.70000000112,62451.800000000745,69623.60000000149,70046.30000000075,70499.60000000149,70951.60000000149,71459.60000000149,71991.5,72975.70000000112,73427.60000000149,73951.60000000149,74443.60000000149,75427.60000000149,77155.40000000037,77733.60000000149,78537.70000000112,79099.5,79521.60000000149,80107.5,80787.70000000112],"key_events":[],"mouse_events":[6034.4000000003725,10032.400000000373,19540.200000001118,20212.300000000745,20790.300000000745,21282.400000000373,21922,22282.5,23876.10000000149,24392.300000000745,24868.10000000149,25352.200000001118,25712.800000000745,26172.400000000373,26711.900000000373,27212.300000000745,28118.300000000745,28712.700000001118,29290.200000001118,29720.300000000745,30204.10000000149,31618.10000000149,33172.5,33500.10000000149,34017.70000000112,34344.5,34938.10000000149,36024.10000000149,36524.20000000112,38008.300000000745,38422.10000000149,38876.5,39220.10000000149,39696.300000000745,40212.10000000149,40820.20000000112,41492,42148.70000000112,42750,43734.10000000149,46954.20000000112,47437.70000000112,48688,49187.90000000037,49679.90000000037,50148,50594,51094,51484.40000000037,51929.90000000037,52593.70000000112,52914.300000000745,53546.10000000149,54085.800000000745,54554,54913.90000000037,55585.90000000037,57023.70000000112,57438,57967.800000000745,58631.70000000112,59601.800000000745,61787.70000000112,62451.800000000745,68319.90000000037,69623.60000000149,70046.30000000075,70499.60000000149,70951.60000000149,71459.60000000149,71991.5,72475.70000000112,72975.70000000112,73427.60000000149,73951.60000000149,74443.60000000149,75021.70000000112,75427.60000000149,76247.40000000037,77155.40000000037,77733.60000000149,78537.70000000112,79099.5,79521.60000000149,80107.5,80787.70000000112,82107.60000000149],"honeypot":0,"survey":"mace","page":9,"trial_type":"survey-mace","trial_index":17,"time_elapsed":735353,"internal_node_id":"0.0-17.0","task_version":"prescreen-v0.3","browser_interactions":0},{"responses":{"01":"No","02":"No","03":"No","04":"No","05":"No","06":"Yes","06_ages_17":"17","07":"Yes","07_ages_4":"4","07_ages_5":"5","07_ages_6":"6","07_ages_7":"7","07_ages_8":"8","07_ages_9":"9","07_ages_10":"10","07_ages_11":"11","07_ages_12":"12","07_ages_13":"13","07_ages_14":"14","07_ages_15":"15","07_ages_16":"16","07_ages_17":"17","07_ages_18":"18","08":"Yes","08_ages_4":"4","08_ages_5":"5","08_ages_6":"6","08_ages_7":"7","08_ages_8":"8","08_ages_9":"9","08_ages_10":"10","08_ages_11":"11","08_ages_12":"12","08_ages_13":"13","08_ages_14":"14","08_ages_15":"15","08_ages_16":"16","08_ages_17":"17","08_ages_18":"18"},"rt":59142.300000000745,"item_order":[0,1,2,3,4,5,6,7],"radio_events":[3304.0999999996275,4226.0999999996275,6968.0999999996275,9648.099999999627,12844.099999999627,17680,24194,46677.59999999963],"checkbox_events":[19193.900000000373,30279.700000001118,31866.099999999627,32373.800000000745,32811.70000000112,33600.09999999963,34069.59999999963,34513.70000000112,36451.90000000037,36943.5,37411.800000000745,38177.800000000745,38639.70000000112,39029.70000000112,39459.90000000037,40866.40000000037,41427.70000000112,42161.70000000112,42801.5,44169.800000000745,45154,45559.5,48411.90000000037,49223.5,49935.59999999963,50357.59999999963,50795.59999999963,52935.5,53489.5,54271.59999999963,54739.59999999963,55263.5,55787.40000000037,56365.70000000112,56911.40000000037,57599.800000000745,58105.59999999963],"key_events":[],"mouse_events":[3304.0999999996275,4226.0999999996275,6968.0999999996275,9648.099999999627,12844.099999999627,17680,19193.900000000373,24194,30279.700000001118,31091.700000001118,31866.099999999627,32373.800000000745,32811.70000000112,33225.800000000745,33600.09999999963,34069.59999999963,34513.70000000112,36451.90000000037,36943.5,37411.800000000745,38177.800000000745,38639.70000000112,39029.70000000112,39459.90000000037,39943.800000000745,40530.20000000112,40866.40000000037,41427.70000000112,42161.70000000112,42801.5,44169.800000000745,44567.90000000037,45154,45559.5,46677.59999999963,48411.90000000037,48873.300000000745,49223.5,49935.59999999963,50357.59999999963,50795.59999999963,51223.300000000745,51621.300000000745,52935.5,53489.5,54271.59999999963,54739.59999999963,55263.5,55787.40000000037,56365.70000000112,56911.40000000037,57599.800000000745,58105.59999999963,59137.800000000745],"honeypot":0,"survey":"mace","page":10,"trial_type":"survey-mace","trial_index":18,"time_elapsed":794502,"internal_node_id":"0.0-18.0","task_version":"prescreen-v0.3","browser_interactions":0,"instructed":0},{"rt":7266,"trial_type":"mental-health-alert","trial_index":19,"time_elapsed":801771,"internal_node_id":"0.0-19.0","task_version":"prescreen-v0.3","interactions":"[{\"event\":\"blur\",\"trial\":2,\"time\":110899},{\"event\":\"focus\",\"trial\":2,\"time\":114893},{\"event\":\"blur\",\"trial\":9,\"time\":399750},{\"event\":\"focus\",\"trial\":9,\"time\":401686}]"}]