[{"view_history":[{"page_index":0,"viewing_time":102263},{"page_index":1,"viewing_time":533},{"page_index":2,"viewing_time":543},{"page_index":3,"viewing_time":1001}],"rt":104341,"trial_type":"instructions","trial_index":0,"time_elapsed":104345,"internal_node_id":"0.0-0.0","task_version":"prescreen-v0.3"},{"rt":204389,"responses":{"age":"46","gender-categorical":"Male","gender-free-response":"","ethnicity":"Not Hispanic or Latino","race":["White"],"education":"Master degree or higher"},"trial_type":"survey-demo","trial_index":1,"time_elapsed":308758,"internal_node_id":"0.0-1.0","task_version":"prescreen-v0.3"},{"responses":{"Q15":"2","Q17":"1","Q05":"2","Q14":"1","Q06":"2","Q01":"1","Q16":"2","Q04":"1","Q09":"2","Q19":"1","Q21":"2","Q20":"1","Q03":"2","Q10":"3","Q13":"2","Q11":"3","Q08":"2","Q02":"1","Q18":"2","Q07":"3","Q12":"2"},"rt":116146,"item_order":[14,16,4,13,5,0,15,3,8,18,20,19,2,9,12,10,7,1,17,6,11],"radio_events":[76632,77895,79248,80848,83560,84456,86656,89185,92296,97176,97921,99857,102472,103272,107000,107848,109871,110521,111296,112727,113464],"key_events":[],"mouse_events":[76632,77895,79248,79912,80848,83560,84456,85592,86040,86656,89185,90928,92296,93608,95704,97176,97921,99328,99857,101872,102472,103272,106328,107000,107848,108935,109871,110521,111296,112727,113464,116146],"straightlining":0.5238095238095238,"zigzagging":1,"honeypot":0,"survey":"sns","trial_type":"survey-template","trial_index":2,"time_elapsed":425715,"internal_node_id":"0.0-2.0","task_version":"prescreen-v0.3","browser_interactions":6,"infrequency":0.5},{"responses":{"Q05":"2","Q12":"1","Q03":"2","Q02":"1","Q04":"2","Q06":"1","Q09":"2","Q08":"1","Q13":"2","Q10":"1","Q11":"2","Q07":"1","Q01":"2"},"rt":144946,"item_order":[4,11,2,1,3,5,8,7,12,9,10,6,0],"radio_events":[100552,101880,104648,107248,110200,112288,115288,117216,119024,121152,124129,125432,126616],"key_events":[],"mouse_events":[100552,101880,104648,105696,107248,109681,110200,111608,112288,115288,117216,119024,121152,123040,124129,124856,125432,126616,144946],"straightlining":0.5384615384615384,"zigzagging":1,"honeypot":0,"survey":"bisbas","trial_type":"survey-template","trial_index":3,"time_elapsed":570873,"internal_node_id":"0.0-3.0","task_version":"prescreen-v0.3","browser_interactions":2,"infrequency":1},{"responses":{"Q01":"3","Q02":"2","Q03":"3"},"rt":11291,"radio_events":[7770,9074,10114],"key_events":[],"mouse_events":[7770,9074,10114,11291],"survey":"map","page":1,"trial_type":"survey-map","trial_index":4,"time_elapsed":582167,"internal_node_id":"0.0-4.0","task_version":"prescreen-v0.3","browser_interactions":2},{"responses":{"Q04":"3","Q05":"3","Q06":"2"},"rt":18669,"radio_events":[12684,15172,16044],"key_events":[],"mouse_events":[12684,13604,15172,16044,18669],"survey":"map","page":2,"trial_type":"survey-map","trial_index":5,"time_elapsed":600839,"internal_node_id":"0.0-5.0","task_version":"prescreen-v0.3","browser_interactions":2},{"responses":{"Q07":"3","Q08":"3","Q09":"2"},"rt":171638,"radio_events":[151509,152829,154805],"key_events":[],"mouse_events":[151509,152829,154805,171638],"survey":"map","page":3,"trial_type":"survey-map","trial_index":6,"time_elapsed":772479,"internal_node_id":"0.0-6.0","task_version":"prescreen-v0.3","browser_interactions":10},{"responses":{"Q10":"3","Q11":"2","Q12":"3","Q13":"2","Q16":"1","Q14":"3","Q15":"2"},"rt":173604,"radio_events":[152162,157603,158691,161115,162242,164530,165811],"key_events":[],"mouse_events":[152162,156803,157603,158299,158691,161115,162242,164530,165811,173604],"survey":"map","page":4,"trial_type":"survey-map","trial_index":7,"time_elapsed":946087,"internal_node_id":"0.0-7.0","task_version":"prescreen-v0.3","browser_interactions":4,"infrequency":1},{"view_history":[{"page_index":0,"viewing_time":1182},{"page_index":1,"viewing_time":742}],"rt":1924,"trial_type":"instructions","trial_index":8,"time_elapsed":948013,"internal_node_id":"0.0-8.0","task_version":"prescreen-v0.3"},{"responses":{"01":"Yes","01_ages_14":"14","02":"No","03":"No","04":"No","05":"No","06":"No"},"rt":137630,"item_order":[0,1,2,3,4,5],"radio_events":[128071,131570,132803,133659,134707,135330],"checkbox_events":[130315],"key_events":[],"mouse_events":[0,128071,130315,131570,132803,133659,134707,135330,137629],"honeypot":0,"survey":"mace","page":1,"trial_type":"survey-mace","trial_index":9,"time_elapsed":1085659,"internal_node_id":"0.0-9.0","task_version":"prescreen-v0.3","browser_interactions":2},{"responses":{"01":"Yes","01_ages_16":"16","02":"No","03":"No","04":"No","05":"Yes","05_ages_16":"16","06":"No","07":"No","08":"No"},"rt":96671,"item_order":[0,1,2,3,4,5,6,7],"radio_events":[83187,85684,86499,88163,90188,92627,93339,94044],"checkbox_events":[84748,91340],"key_events":[],"mouse_events":[83187,84748,85684,86499,88163,89444,90188,91340,92627,93339,94044,96671],"honeypot":0,"survey":"mace","page":2,"trial_type":"survey-mace","trial_index":10,"time_elapsed":1182339,"internal_node_id":"0.0-10.0","task_version":"prescreen-v0.3","browser_interactions":2},{"responses":{"01":"Yes","01_ages_16":"16","02":"No","03":"Yes","03_ages_14":"14","04":"No"},"rt":224128,"item_order":[0,1,2,3],"radio_events":[217422,220420,221116,223293],"checkbox_events":[218900,221965],"key_events":[],"mouse_events":[217422,218900,220420,221116,221965,223293,224128],"honeypot":0,"survey":"mace","page":3,"trial_type":"survey-mace","trial_index":11,"time_elapsed":1406474,"internal_node_id":"0.0-11.0","task_version":"prescreen-v0.3","browser_interactions":6},{"responses":{"01":"No","02":"No"},"rt":4971,"item_order":[0,1],"radio_events":[3418,4290],"checkbox_events":[],"key_events":[],"mouse_events":[3418,4290,4971],"honeypot":0,"survey":"mace","page":4,"trial_type":"survey-mace","trial_index":12,"time_elapsed":1411455,"internal_node_id":"0.0-12.0","task_version":"prescreen-v0.3","browser_interactions":0},{"responses":{"01":"Yes","01_ages_17":"17","02":"No","03":"Yes","03_ages_16":"16","04":"No","05":"No"},"rt":165314,"item_order":[0,1,2,3,4],"radio_events":[137024,139073,140513,141384,141945,156465],"checkbox_events":[138297,158321],"key_events":[],"mouse_events":[137024,138297,139073,140513,141384,141945,156465,157937,158321,165314],"honeypot":0,"survey":"mace","page":5,"trial_type":"survey-mace","trial_index":13,"time_elapsed":1576776,"internal_node_id":"0.0-13.0","task_version":"prescreen-v0.3","browser_interactions":2},{"responses":{"01":"No","02":"No","03":"No","04":"No","05":"No"},"rt":70952,"item_order":[0,1,2,3,4],"radio_events":[65575,66407,66967,68127,68958],"checkbox_events":[],"key_events":[],"mouse_events":[65575,66407,66967,67615,68127,68958,70952],"honeypot":0,"survey":"mace","page":6,"trial_type":"survey-mace","trial_index":14,"time_elapsed":1647736,"internal_node_id":"0.0-14.0","task_version":"prescreen-v0.3","browser_interactions":4},{"responses":{"01":"No","02":"Yes","02_ages_14":"14","03":"Yes","03_ages_13":"13","04":"No","05":"No","06":"No","07":"No"},"rt":30082,"item_order":[0,1,2,3,4,5,6],"radio_events":[12048,14976,18847,22552,23376,25191,26359],"checkbox_events":[15864,20704],"key_events":[],"mouse_events":[10688,12048,14976,15864,18464,18847,19944,20704,22552,23376,25191,26359,29120,30082],"honeypot":0,"survey":"mace","page":7,"trial_type":"survey-mace","trial_index":15,"time_elapsed":1677824,"internal_node_id":"0.0-15.0","task_version":"prescreen-v0.3","browser_interactions":4},{"responses":{"01":"No","02":"No","03":"No","04":"No"},"rt":8809,"item_order":[0,1,2,3],"radio_events":[2927,5623,6975,7751],"checkbox_events":[],"key_events":[],"mouse_events":[2927,5623,6975,7751,8808],"honeypot":0,"survey":"mace","page":8,"trial_type":"survey-mace","trial_index":16,"time_elapsed":1686638,"internal_node_id":"0.0-16.0","task_version":"prescreen-v0.3","browser_interactions":0},{"responses":{"01":"No","02":"No","03":"No","04":"No"},"rt":301935,"item_order":[0,1,2,3],"radio_events":[294110,295874,296570,297377],"checkbox_events":[],"key_events":[],"mouse_events":[294110,295874,296570,297377,301935],"honeypot":0,"survey":"mace","page":9,"trial_type":"survey-mace","trial_index":17,"time_elapsed":1988580,"internal_node_id":"0.0-17.0","task_version":"prescreen-v0.3","browser_interactions":4},{"responses":{"01":"Yes","01_ages_13":"13","02":"No","03":"Yes","03_ages_12":"12","04":"No","05":"No","06":"Yes","06_ages_17":"17","07":"No","08":"No"},"rt":42193,"item_order":[0,1,2,3,4,5,6,7],"radio_events":[3336,8488,10183,11623,12671,14039,17048,19664,22688,31512],"checkbox_events":[4392,10960,15863],"key_events":[],"mouse_events":[2159,2920,3336,4392,8488,10183,10960,11623,12671,14039,15863,17048,19664,22688,31512,42193],"honeypot":0,"survey":"mace","page":10,"trial_type":"survey-mace","trial_index":18,"time_elapsed":2030795,"internal_node_id":"0.0-18.0","task_version":"prescreen-v0.3","browser_interactions":0,"instructed":0},{"rt":1270,"trial_type":"mental-health-alert","trial_index":19,"time_elapsed":2032079,"internal_node_id":"0.0-19.0","task_version":"prescreen-v0.3","interactions":"[{\"event\":\"focus\",\"trial\":0,\"time\":101534},{\"event\":\"blur\",\"trial\":1,\"time\":108450},{\"event\":\"focus\",\"trial\":1,\"time\":158601},{\"event\":\"blur\",\"trial\":1,\"time\":160375},{\"event\":\"focus\",\"trial\":1,\"time\":184872},{\"event\":\"blur\",\"trial\":1,\"time\":190727},{\"event\":\"focus\",\"trial\":1,\"time\":193371},{\"event\":\"blur\",\"trial\":1,\"time\":204093},{\"event\":\"focus\",\"trial\":1,\"time\":288785},{\"event\":\"blur\",\"trial\":2,\"time\":311207},{\"event\":\"focus\",\"trial\":2,\"time\":373007},{\"event\":\"blur\",\"trial\":2,\"time\":375197},{\"event\":\"focus\",\"trial\":2,\"time\":378596},{\"event\":\"blur\",\"trial\":2,\"time\":379712},{\"event\":\"focus\",\"trial\":2,\"time\":382696},{\"event\":\"blur\",\"trial\":3,\"time\":429164},{\"event\":\"focus\",\"trial\":3,\"time\":519361},{\"event\":\"blur\",\"trial\":4,\"time\":573086},{\"event\":\"focus\",\"trial\":4,\"time\":574193},{\"event\":\"blur\",\"trial\":5,\"time\":583406},{\"event\":\"focus\",\"trial\":5,\"time\":593357},{\"event\":\"blur\",\"trial\":6,\"time\":602324},{\"event\":\"focus\",\"trial\":6,\"time\":729876},{\"event\":\"blur\",\"trial\":6,\"time\":735055},{\"event\":\"focus\",\"trial\":6,\"time\":736370},{\"event\":\"blur\",\"trial\":6,\"time\":736732},{\"event\":\"focus\",\"trial\":6,\"time\":737537},{\"event\":\"blur\",\"trial\":6,\"time\":741666},{\"event\":\"focus\",\"trial\":6,\"time\":743318},{\"event\":\"blur\",\"trial\":6,\"time\":744913},{\"event\":\"focus\",\"trial\":6,\"time\":749006},{\"event\":\"blur\",\"trial\":7,\"time\":774928},{\"event\":\"focus\",\"trial\":7,\"time\":798372},{\"event\":\"blur\",\"trial\":7,\"time\":803301},{\"event\":\"focus\",\"trial\":7,\"time\":922140},{\"event\":\"blur\",\"trial\":9,\"time\":955334},{\"event\":\"focus\",\"trial\":9,\"time\":1073988},{\"event\":\"blur\",\"trial\":10,\"time\":1087080},{\"event\":\"focus\",\"trial\":10,\"time\":1167888},{\"event\":\"blur\",\"trial\":11,\"time\":1183934},{\"event\":\"focus\",\"trial\":11,\"time\":1225156},{\"event\":\"blur\",\"trial\":11,\"time\":1226976},{\"event\":\"focus\",\"trial\":11,\"time\":1276477},{\"event\":\"blur\",\"trial\":11,\"time\":1276691},{\"event\":\"focus\",\"trial\":11,\"time\":1398559},{\"event\":\"blur\",\"trial\":13,\"time\":1413745},{\"event\":\"focus\",\"trial\":13,\"time\":1546384},{\"event\":\"blur\",\"trial\":14,\"time\":1578382},{\"event\":\"focus\",\"trial\":14,\"time\":1592972},{\"event\":\"blur\",\"trial\":14,\"time\":1594116},{\"event\":\"focus\",\"trial\":14,\"time\":1638273},{\"event\":\"blur\",\"trial\":15,\"time\":1652341},{\"event\":\"focus\",\"trial\":15,\"time\":1658364},{\"event\":\"blur\",\"trial\":15,\"time\":1675390},{\"event\":\"focus\",\"trial\":15,\"time\":1676797},{\"event\":\"blur\",\"trial\":17,\"time\":1688144},{\"event\":\"focus\",\"trial\":17,\"time\":1746156},{\"event\":\"blur\",\"trial\":17,\"time\":1747083},{\"event\":\"focus\",\"trial\":17,\"time\":1978823}]"}]