[{"view_history":[{"page_index":0,"viewing_time":2765.699999999255},{"page_index":1,"viewing_time":808.6999999992549},{"page_index":2,"viewing_time":1171.300000000745},{"page_index":3,"viewing_time":997.6000000014901}],"rt":5745.300000000745,"trial_type":"instructions","trial_index":0,"time_elapsed":5751,"internal_node_id":"0.0-0.0","task_version":"prescreen-v0.3"},{"rt":13727.29999999702,"responses":{"age":"18","gender-categorical":"Female","gender-free-response":"","ethnicity":"Not Hispanic or Latino","race":["White"],"education":"Some college"},"trial_type":"survey-demo","trial_index":1,"time_elapsed":19487,"internal_node_id":"0.0-1.0","task_version":"prescreen-v0.3"},{"responses":{"Q06":"2","Q14":"2","Q21":"2","Q20":"1","Q05":"1","Q18":"2","Q11":"1","Q04":"2","Q07":"2","Q08":"2","Q17":"2","Q13":"2","Q01":"2","Q19":"2","Q15":"2","Q12":"2","Q09":"2","Q10":"2","Q03":"2","Q16":"2","Q02":"0"},"rt":65045.800000000745,"item_order":[5,13,20,19,4,17,10,3,6,7,16,12,0,18,14,11,8,9,2,15,1],"radio_events":[4857,7166.800000000745,8045.400000002235,12516.800000000745,18602.10000000149,20588.5,23904.900000002235,30147.300000000745,36677.199999999255,37736.900000002235,38907.699999999255,39993.300000000745,40633.800000000745,41955.800000000745,48910.800000000745,51332.400000002235,52100.199999999255,53327.10000000149,59175.5,61700.400000002235,63235.300000000745,64303.60000000149],"key_events":[],"mouse_events":[4857,7166.800000000745,8045.400000002235,12516.800000000745,15999.300000000745,18602.10000000149,19370,20588.5,23121.10000000149,23904.900000002235,30147.300000000745,30678.5,31177.199999999255,31533.800000000745,31969.300000000745,32617,33290,36297.10000000149,36677.199999999255,37183.400000002235,37736.900000002235,38291.800000000745,38907.699999999255,39343.60000000149,39993.300000000745,40633.800000000745,41426.10000000149,41955.800000000745,48341.900000002235,48910.800000000745,49655.60000000149,50660,51332.400000002235,52100.199999999255,53327.10000000149,59175.5,60384.5,61700.400000002235,62269.400000002235,63235.300000000745,64303.60000000149,65039.5],"straightlining":0.8095238095238095,"zigzagging":0.2,"honeypot":0,"survey":"sns","trial_type":"survey-template","trial_index":2,"time_elapsed":84539,"internal_node_id":"0.0-2.0","task_version":"prescreen-v0.3","browser_interactions":0,"infrequency":0.5},{"responses":{"Q08":"0","Q13":"1","Q09":"1","Q06":"1","Q10":"1","Q07":"2","Q05":"2","Q01":"2","Q12":"2","Q03":"2","Q04":"2","Q02":"2","Q11":"2"},"rt":37406.400000002235,"item_order":[7,12,8,5,9,6,4,0,11,2,3,1,10],"radio_events":[7513.10000000149,9863.199999999255,11327.60000000149,13795.900000002235,16440.10000000149,18726.800000000745,21140.400000002235,22984.300000000745,24645.800000000745,30960.800000000745,32022,32567.5,34388.199999999255,35226.800000000745,35939.300000000745],"key_events":[],"mouse_events":[6380.5,7513.10000000149,9863.199999999255,11327.60000000149,12229.400000002235,13795.900000002235,14430.300000000745,16440.10000000149,18726.800000000745,21140.400000002235,22984.300000000745,24645.800000000745,27597.800000000745,28215.400000002235,28760.800000000745,29529.10000000149,30248.800000000745,30960.800000000745,31428.800000000745,32022,32567.5,33438.300000000745,33960.900000002235,34388.199999999255,35226.800000000745,35939.300000000745,37403.10000000149],"straightlining":0.6153846153846154,"zigzagging":0.16666666666666666,"honeypot":0,"survey":"bisbas","trial_type":"survey-template","trial_index":3,"time_elapsed":121949,"internal_node_id":"0.0-3.0","task_version":"prescreen-v0.3","browser_interactions":0,"infrequency":0.5},{"responses":{"Q01":"2","Q02":"2","Q03":"2"},"rt":7280.89999999851,"radio_events":[4660.199999999255,5545.89999999851,6407.599999997765],"key_events":[],"mouse_events":[4660.199999999255,5545.89999999851,6407.599999997765,7278.5],"survey":"map","page":1,"trial_type":"survey-map","trial_index":4,"time_elapsed":129236,"internal_node_id":"0.0-4.0","task_version":"prescreen-v0.3","browser_interactions":0},{"responses":{"Q04":"2","Q05":"2","Q06":"2"},"rt":12488.800000000745,"radio_events":[7200.800000000745,10801.39999999851,11648],"key_events":[],"mouse_events":[798.3999999985099,7200.800000000745,10801.39999999851,11648,12487.300000000745],"survey":"map","page":2,"trial_type":"survey-map","trial_index":5,"time_elapsed":141729,"internal_node_id":"0.0-5.0","task_version":"prescreen-v0.3","browser_interactions":0},{"responses":{"Q07":"2","Q08":"3","Q09":"3"},"rt":22982.10000000149,"radio_events":[10995.70000000298,15470.20000000298,18461.400000002235,20749.400000002235,21943.70000000298],"key_events":[],"mouse_events":[10995.70000000298,14314.70000000298,15470.20000000298,17669.70000000298,18461.400000002235,19735.70000000298,20749.400000002235,21943.70000000298,22980.300000000745],"survey":"map","page":3,"trial_type":"survey-map","trial_index":6,"time_elapsed":164714,"internal_node_id":"0.0-6.0","task_version":"prescreen-v0.3","browser_interactions":0},{"responses":{"Q10":"2","Q11":"2","Q12":"2","Q13":"2","Q16":"2","Q14":"1","Q15":"1"},"rt":17021.79999999702,"radio_events":[4086.599999997765,5851.29999999702,8866.599999997765,10370.099999997765,11818.099999997765,13788.79999999702,15902.199999999255],"key_events":[],"mouse_events":[2527.199999999255,3112.89999999851,4086.599999997765,5851.29999999702,8249.5,8866.599999997765,10370.099999997765,11818.099999997765,13788.79999999702,15157.5,15902.199999999255,17017.699999999255],"survey":"map","page":4,"trial_type":"survey-map","trial_index":7,"time_elapsed":181739,"internal_node_id":"0.0-7.0","task_version":"prescreen-v0.3","browser_interactions":0,"infrequency":1},{"view_history":[{"page_index":0,"viewing_time":1898.6000000014901},{"page_index":1,"viewing_time":2143.5}],"rt":4043.300000000745,"trial_type":"instructions","trial_index":8,"time_elapsed":185785,"internal_node_id":"0.0-8.0","task_version":"prescreen-v0.3"},{"responses":{"01":"Yes","01_ages_8":"8","01_ages_9":"9","01_ages_10":"10","01_ages_11":"11","01_ages_12":"12","01_ages_13":"13","01_ages_14":"14","01_ages_15":"15","01_ages_16":"16","01_ages_17":"17","02":"No","03":"No","04":"No","05":"No","06":"No"},"rt":42173.199999999255,"item_order":[0,1,2,3,4,5],"radio_events":[10706.300000000745,32666.900000002235,33410.5,36884.699999999255,39598.800000000745,40809.699999999255],"checkbox_events":[14110.400000002235,16625.900000002235,17140.900000002235,17615.10000000149,18920.900000002235,19917.699999999255,21271.800000000745,21935.400000002235,22481.699999999255,24792.300000000745],"key_events":[],"mouse_events":[0.19999999925494194,9772.300000000745,10706.300000000745,14110.400000002235,14686.800000000745,16625.900000002235,17140.900000002235,17615.10000000149,18279.60000000149,18920.900000002235,19917.699999999255,20400.10000000149,21271.800000000745,21935.400000002235,22481.699999999255,22955.800000000745,23922,24792.300000000745,32666.900000002235,33410.5,36884.699999999255,37430.400000002235,39598.800000000745,40809.699999999255,42164],"honeypot":0,"survey":"mace","page":1,"trial_type":"survey-mace","trial_index":9,"time_elapsed":227967,"internal_node_id":"0.0-9.0","task_version":"prescreen-v0.3","browser_interactions":0},{"responses":{"01":"No","02":"No","03":"Yes","03_ages_3":"3","03_ages_5":"5","03_ages_6":"6","03_ages_7":"7","03_ages_8":"8","03_ages_9":"9","03_ages_10":"10","03_ages_11":"11","03_ages_12":"12","03_ages_13":"13","03_ages_14":"14","04":"No","05":"No","06":"No","07":"No","08":"No"},"rt":33731.300000000745,"item_order":[0,1,2,3,4,5,6,7],"radio_events":[5048.5,6852.699999999255,8206.199999999255,22165,26549.300000000745,29184.900000002235,30340.10000000149,31368.5,32872.699999999255],"checkbox_events":[10928.900000002235,12194,13381.300000000745,14006.400000002235,15549.10000000149,17100.900000002235,17757.5,18382.900000002235,19047.5,19712.199999999255,20266.300000000745],"key_events":[],"mouse_events":[5048.5,6852.699999999255,8206.199999999255,10429.900000002235,10928.900000002235,11425.900000002235,12194,12803.199999999255,13381.300000000745,14006.400000002235,14710,15549.10000000149,16206.900000002235,16649.900000002235,17100.900000002235,17757.5,18382.900000002235,19047.5,19712.199999999255,20266.300000000745,22165,26549.300000000745,29184.900000002235,30340.10000000149,31368.5,32872.699999999255,33719.60000000149],"honeypot":0,"survey":"mace","page":2,"trial_type":"survey-mace","trial_index":10,"time_elapsed":261702,"internal_node_id":"0.0-10.0","task_version":"prescreen-v0.3","browser_interactions":0},{"responses":{"01":"No","02":"No","03":"No","04":"No"},"rt":15880.800000000745,"item_order":[0,1,2,3],"radio_events":[11655.5,12883.10000000149,14045.10000000149,15193.60000000149],"checkbox_events":[],"key_events":[],"mouse_events":[6970.699999999255,9313.10000000149,11655.5,12883.10000000149,14045.10000000149,15193.60000000149,15874],"honeypot":0,"survey":"mace","page":3,"trial_type":"survey-mace","trial_index":11,"time_elapsed":277587,"internal_node_id":"0.0-11.0","task_version":"prescreen-v0.3","browser_interactions":0},{"responses":{"01":"No","02":"No"},"rt":4082.800000000745,"item_order":[0,1],"radio_events":[2007,3352.199999999255],"checkbox_events":[],"key_events":[],"mouse_events":[2007,2648.099999997765,3352.199999999255,4079.699999999255],"honeypot":0,"survey":"mace","page":4,"trial_type":"survey-mace","trial_index":12,"time_elapsed":281673,"internal_node_id":"0.0-12.0","task_version":"prescreen-v0.3","browser_interactions":0},{"responses":{"01":"No","02":"No","03":"No","04":"No","05":"No"},"rt":11623.800000000745,"item_order":[0,1,2,3,4],"radio_events":[2492.800000000745,5721.900000002235,8245.400000002235,9852.699999999255,10723],"checkbox_events":[],"key_events":[],"mouse_events":[1313.300000000745,2492.800000000745,3275.900000002235,5721.900000002235,7320.5,8245.400000002235,9107.900000002235,9852.699999999255,10723,11616.800000000745],"honeypot":0,"survey":"mace","page":5,"trial_type":"survey-mace","trial_index":13,"time_elapsed":293302,"internal_node_id":"0.0-13.0","task_version":"prescreen-v0.3","browser_interactions":0},{"responses":{"01":"Yes","01_ages_8":"8","01_ages_9":"9","01_ages_10":"10","01_ages_11":"11","01_ages_12":"12","01_ages_13":"13","01_ages_14":"14","01_ages_15":"15","01_ages_16":"16","01_ages_17":"17","01_ages_18":"18","02":"Yes","02_ages_5":"5","02_ages_6":"6","02_ages_7":"7","02_ages_8":"8","02_ages_9":"9","02_ages_10":"10","02_ages_11":"11","02_ages_12":"12","02_ages_13":"13","02_ages_14":"14","02_ages_15":"15","02_ages_16":"16","02_ages_17":"17","03":"No","04":"No","05":"Yes","05_ages_15":"15","05_ages_16":"16","05_ages_17":"17"},"rt":48488.10000000149,"item_order":[0,1,2,3,4],"radio_events":[4783,19779.400000002235,34528.70000000298,38794,46477.60000000149],"checkbox_events":[7980.60000000149,8511,9072.300000000745,10212.400000002235,10710.10000000149,11999.70000000298,12562.300000000745,13202.800000000745,13756.900000002235,14872.800000000745,16091.400000002235,20870.400000002235,21361.5,22223.70000000298,22928,23822.300000000745,24407.300000000745,25009.400000002235,25729.300000000745,26236.10000000149,26837,27311.800000000745,27921.5,28443.400000002235,29037.20000000298,29591.300000000745,30152.900000002235,30675,40788.10000000149,43074.70000000298,43692.70000000298],"key_events":[],"mouse_events":[4783,7322.70000000298,7980.60000000149,8511,9072.300000000745,9728.70000000298,10212.400000002235,10710.10000000149,11359.400000002235,11999.70000000298,12562.300000000745,13202.800000000745,13756.900000002235,14334.10000000149,14872.800000000745,16091.400000002235,19779.400000002235,20870.400000002235,21361.5,22223.70000000298,22928,23822.300000000745,24407.300000000745,25009.400000002235,25729.300000000745,26236.10000000149,26837,27311.800000000745,27921.5,28443.400000002235,29037.20000000298,29591.300000000745,30152.900000002235,30675,34528.70000000298,38794,40788.10000000149,41357.60000000149,41967.5,42465.20000000298,43074.70000000298,43692.70000000298,46477.60000000149,48480.900000002235],"honeypot":0,"survey":"mace","page":6,"trial_type":"survey-mace","trial_index":14,"time_elapsed":341792,"internal_node_id":"0.0-14.0","task_version":"prescreen-v0.3","browser_interactions":0},{"responses":{"01":"No","02":"No","03":"No","04":"Yes","04_ages_16":"16","04_ages_17":"17","04_ages_18":"18","05":"No","06":"No","07":"No"},"rt":21963.39999999851,"item_order":[0,1,2,3,4,5,6],"radio_events":[3561.800000000745,4394,4971.699999999255,6443.699999999255,8231.800000000745,18574.5,20536.699999999255,21193.39999999851],"checkbox_events":[9870.599999997765,11041.39999999851,11840.699999999255,12331.199999999255,13351.89999999851],"key_events":[],"mouse_events":[3561.800000000745,4394,4971.699999999255,6443.699999999255,7124.199999999255,8231.800000000745,9870.599999997765,10352.39999999851,11041.39999999851,11476.5,11840.699999999255,12331.199999999255,13351.89999999851,18574.5,19310.5,20536.699999999255,21193.39999999851,21953.300000000745],"honeypot":0,"survey":"mace","page":7,"trial_type":"survey-mace","trial_index":15,"time_elapsed":363760,"internal_node_id":"0.0-15.0","task_version":"prescreen-v0.3","browser_interactions":0},{"responses":{"01":"No","02":"No","03":"No","04":"No"},"rt":13823,"item_order":[0,1,2,3],"radio_events":[3894,4605.800000000745,6410.39999999851,10840.5,12328.800000000745,13017.5],"checkbox_events":[],"key_events":[],"mouse_events":[3894,4605.800000000745,5404.5,6410.39999999851,7565,10840.5,11759.300000000745,12328.800000000745,13017.5,13816.599999997765],"honeypot":0,"survey":"mace","page":8,"trial_type":"survey-mace","trial_index":16,"time_elapsed":377587,"internal_node_id":"0.0-16.0","task_version":"prescreen-v0.3","browser_interactions":0},{"responses":{"01":"Yes","01_ages_1":"1","01_ages_2":"2","01_ages_3":"3","01_ages_4":"4","01_ages_5":"5","01_ages_6":"6","01_ages_7":"7","01_ages_8":"8","01_ages_9":"9","01_ages_10":"10","01_ages_11":"11","01_ages_12":"12","01_ages_13":"13","01_ages_14":"14","01_ages_15":"15","01_ages_16":"16","01_ages_17":"17","01_ages_18":"18","02":"No","03":"No","04":"Yes","04_ages_13":"13"},"rt":38881.5,"item_order":[0,1,2,3],"radio_events":[3360.60000000149,27249.199999999255,28428.39999999851,34466.800000000745],"checkbox_events":[8393,9097.10000000149,9635.199999999255,10323.5,11146.10000000149,11992.800000000745,12808.39999999851,13892.300000000745,15617.5,16361.10000000149,17041.5,17587.39999999851,18513.10000000149,19003.89999999851,19953.60000000149,20436.39999999851,21275,21669.39999999851,37852.89999999851],"key_events":[],"mouse_events":[3360.60000000149,7545.800000000745,7949,8393,9097.10000000149,9635.199999999255,10323.5,11146.10000000149,11992.800000000745,12808.39999999851,13892.300000000745,14984.199999999255,15617.5,16361.10000000149,17041.5,17587.39999999851,18513.10000000149,19003.89999999851,19953.60000000149,20436.39999999851,21275,21669.39999999851,27249.199999999255,28428.39999999851,34466.800000000745,37361.60000000149,37852.89999999851,38875.10000000149],"honeypot":0,"survey":"mace","page":9,"trial_type":"survey-mace","trial_index":17,"time_elapsed":416471,"internal_node_id":"0.0-17.0","task_version":"prescreen-v0.3","browser_interactions":0},{"responses":{"01":"No","02":"No","03":"No","04":"No","05":"No","06":"Yes","06_ages_17":"17","07":"Yes","07_ages_12":"12","07_ages_13":"13","07_ages_14":"14","07_ages_15":"15","07_ages_16":"16","07_ages_17":"17","07_ages_18":"18","08":"Yes","08_ages_5":"5","08_ages_6":"6","08_ages_7":"7","08_ages_8":"8","08_ages_9":"9","08_ages_10":"10","08_ages_11":"11","08_ages_12":"12","08_ages_13":"13","08_ages_14":"14","08_ages_15":"15","08_ages_16":"16","08_ages_17":"17","08_ages_18":"18"},"rt":55680.199999999255,"item_order":[0,1,2,3,4,5,6,7],"radio_events":[5613,6255,8541.800000000745,13874.800000000745,17696.39999999851,21993.699999999255,28710,45477.5,46869.699999999255],"checkbox_events":[19516.5,30079.199999999255,31068.10000000149,32080.5,33361,33893,34565.199999999255,35435.5,36227.199999999255,37160.5,37880.699999999255,38925.300000000745,40035.10000000149,40745.199999999255,41378,41955.5,43657,47938.199999999255,48571,49631.10000000149,50216.60000000149,50699.10000000149,52013.60000000149,52709.800000000745],"key_events":[],"mouse_events":[5613,6255,7021,7987.300000000745,8541.800000000745,13874.800000000745,17206.300000000745,17696.39999999851,19516.5,21993.699999999255,28710,30079.199999999255,31068.10000000149,32080.5,32570.89999999851,33361,33893,34565.199999999255,35435.5,36227.199999999255,37160.5,37880.699999999255,38925.300000000745,40035.10000000149,40745.199999999255,41378,41955.5,42984.699999999255,43657,45033.800000000745,45477.5,46869.699999999255,47938.199999999255,48571,49061.5,49631.10000000149,50216.60000000149,50699.10000000149,51372.39999999851,52013.60000000149,52709.800000000745,54845.39999999851,55668.60000000149],"honeypot":0,"survey":"mace","page":10,"trial_type":"survey-mace","trial_index":18,"time_elapsed":472154,"internal_node_id":"0.0-18.0","task_version":"prescreen-v0.3","browser_interactions":0,"instructed":0},{"rt":1852.0999999977648,"trial_type":"mental-health-alert","trial_index":19,"time_elapsed":474009,"internal_node_id":"0.0-19.0","task_version":"prescreen-v0.3","interactions":"[{\"event\":\"focus\",\"trial\":0,\"time\":1147}]"}]