[{"view_history":[{"page_index":0,"viewing_time":3162.699999988079},{"page_index":1,"viewing_time":3849.2000000476837},{"page_index":2,"viewing_time":1928.199999988079},{"page_index":3,"viewing_time":1226.3999999761581}],"rt":10167.300000011921,"trial_type":"instructions","trial_index":0,"time_elapsed":10191,"internal_node_id":"0.0-0.0","task_version":"prescreen-v0.3"},{"rt":21354.600000023842,"responses":{"age":"18","gender-categorical":"Female","gender-free-response":"","ethnicity":"Not Hispanic or Latino","race":["White"],"education":"High school"},"trial_type":"survey-demo","trial_index":1,"time_elapsed":31550,"internal_node_id":"0.0-1.0","task_version":"prescreen-v0.3"},{"responses":{"Q05":"2","Q10":"3","Q03":"2","Q13":"2","Q17":"1","Q01":"2","Q18":"2","Q21":"2","Q07":"1","Q19":"2","Q16":"3","Q11":"3","Q12":"2","Q14":"2","Q20":"1","Q06":"1","Q09":"2","Q08":"2","Q04":"2","Q02":"3","Q15":"3"},"rt":131086.19999998808,"item_order":[4,9,2,12,16,0,17,20,6,18,15,10,11,13,19,5,8,7,3,1,14],"radio_events":[21989.5,28485.099999964237,33355.799999952316,37152.09999996424,39822.19999998808,41783.19999998808,45026.89999997616,50569.89999997616,58099.5,67235.29999995232,72396.59999996424,74350.69999998808,85701,89177.59999996424,96297.39999997616,98497.89999997616,106462.89999997616,108625.89999997616,111264.79999995232,115469.29999995232,119593.79999995232,122090.89999997616,129466.09999996424],"key_events":[],"mouse_events":[11130.599999964237,21989.5,28485.099999964237,33355.799999952316,37152.09999996424,39822.19999998808,41783.19999998808,45026.89999997616,45862.19999998808,50569.89999997616,58099.5,67235.29999995232,68570.59999996424,72396.59999996424,74350.69999998808,84529.5,85701,86462,89177.59999996424,96297.39999997616,98497.89999997616,106462.89999997616,108625.89999997616,111264.79999995232,115469.29999995232,119593.79999995232,122090.89999997616,122949,128250,129466.09999996424,131084.39999997616],"straightlining":0.5714285714285714,"zigzagging":0.55,"honeypot":0,"survey":"sns","trial_type":"survey-template","trial_index":2,"time_elapsed":162642,"internal_node_id":"0.0-2.0","task_version":"prescreen-v0.3","browser_interactions":0,"infrequency":0.5},{"responses":{"Q09":"1","Q01":"3","Q06":"3","Q07":"2","Q12":"1","Q10":"1","Q03":"3","Q04":"3","Q02":"2","Q05":"2","Q08":"2","Q13":"0","Q11":"1"},"rt":55322.39999997616,"item_order":[8,0,5,6,11,9,2,3,1,4,7,12,10],"radio_events":[6233.899999976158,8023.300000011921,13086.600000023842,16425.399999976158,21326.69999998808,25990.30000001192,29215,33152.60000002384,35754.19999998808,39687.60000002384,41539.5,44960.39999997616,48132.89999997616,54290],"key_events":[],"mouse_events":[6233.899999976158,8023.300000011921,12146.899999976158,13086.600000023842,16425.399999976158,21326.69999998808,25990.30000001192,29215,33152.60000002384,35754.19999998808,39687.60000002384,41539.5,44960.39999997616,48132.89999997616,54290,55321.30000001192],"straightlining":0.3076923076923077,"zigzagging":0.3333333333333333,"honeypot":0,"survey":"bisbas","trial_type":"survey-template","trial_index":3,"time_elapsed":217970,"internal_node_id":"0.0-3.0","task_version":"prescreen-v0.3","browser_interactions":0,"infrequency":0},{"responses":{"Q01":"2","Q02":"1","Q03":"2"},"rt":20921.5,"radio_events":[8939.5,15051.699999988079,19806.69999998808],"key_events":[],"mouse_events":[8939.5,15051.699999988079,19806.69999998808,20921],"survey":"map","page":1,"trial_type":"survey-map","trial_index":4,"time_elapsed":238895,"internal_node_id":"0.0-4.0","task_version":"prescreen-v0.3","browser_interactions":0},{"responses":{"Q04":"2","Q05":"3","Q06":"1"},"rt":26862.700000047684,"radio_events":[13946.5,20730.900000035763,23676.30000001192,25625.30000001192],"key_events":[],"mouse_events":[13946.5,20730.900000035763,23676.30000001192,25625.30000001192,26862.30000001192],"survey":"map","page":2,"trial_type":"survey-map","trial_index":5,"time_elapsed":265760,"internal_node_id":"0.0-5.0","task_version":"prescreen-v0.3","browser_interactions":0},{"responses":{"Q07":"2","Q08":"0","Q09":"2"},"rt":15786.799999952316,"radio_events":[7034.199999988079,10085.399999976158,14470.5],"key_events":[],"mouse_events":[7034.199999988079,10085.399999976158,13361.299999952316,14470.5,15786.399999976158],"survey":"map","page":3,"trial_type":"survey-map","trial_index":6,"time_elapsed":281549,"internal_node_id":"0.0-6.0","task_version":"prescreen-v0.3","browser_interactions":0},{"responses":{"Q10":"1","Q11":"1","Q12":"0","Q13":"2","Q16":"0","Q14":"2","Q15":"2"},"rt":38221,"radio_events":[4269.400000035763,7801.300000011921,12735.700000047684,23528.400000035763,28720.5,32554.900000035763,36761],"key_events":[],"mouse_events":[4269.400000035763,7801.300000011921,12735.700000047684,23528.400000035763,28720.5,32554.900000035763,36761,38219.90000003576],"survey":"map","page":4,"trial_type":"survey-map","trial_index":7,"time_elapsed":319772,"internal_node_id":"0.0-7.0","task_version":"prescreen-v0.3","browser_interactions":0,"infrequency":0},{"view_history":[{"page_index":0,"viewing_time":2865.399999976158},{"page_index":1,"viewing_time":3248.300000011921}],"rt":6115,"trial_type":"instructions","trial_index":8,"time_elapsed":325889,"internal_node_id":"0.0-8.0","task_version":"prescreen-v0.3"},{"responses":{"01":"No","02":"Yes","02_ages_10":"10","02_ages_11":"11","02_ages_12":"12","02_ages_13":"13","02_ages_14":"14","02_ages_15":"15","02_ages_16":"16","02_ages_17":"17","02_ages_18":"18","03":"No","04":"No","05":"No","06":"No"},"rt":61097.799999952316,"item_order":[0,1,2,3,4,5],"radio_events":[20815.799999952316,24806.099999964237,51684.19999998808,54822.19999998808,56901.59999996424,59860.19999998808],"checkbox_events":[30895.299999952316,31910.899999976158,33272.799999952316,34697.39999997616,36346.39999997616,37961.799999952316,42064.799999952316,43391.59999996424,44974.89999997616,46128.19999998808,49722.19999998808],"key_events":[],"mouse_events":[0.2999999523162842,12211.099999964237,13995.899999976158,20815.799999952316,24806.099999964237,30895.299999952316,31910.899999976158,33272.799999952316,34697.39999997616,36346.39999997616,37961.799999952316,42064.799999952316,43391.59999996424,44974.89999997616,46128.19999998808,49722.19999998808,51684.19999998808,54822.19999998808,56901.59999996424,59860.19999998808,61095.5],"honeypot":0,"survey":"mace","page":1,"trial_type":"survey-mace","trial_index":9,"time_elapsed":386998,"internal_node_id":"0.0-9.0","task_version":"prescreen-v0.3","browser_interactions":0},{"responses":{"01":"No","02":"No","03":"Yes","03_ages_4":"4","03_ages_5":"5","03_ages_6":"6","03_ages_7":"7","03_ages_8":"8","04":"No","05":"No","06":"No","07":"No","08":"No"},"rt":50138.30000001192,"item_order":[0,1,2,3,4,5,6,7],"radio_events":[3774.900000035763,11873.700000047684,13634.800000011921,20725.700000047684,38158.40000003576,40488.10000002384,43153.700000047684,46556.30000001192,48760.5],"checkbox_events":[26425.600000023842,29034.900000035763,30351.400000035763,33186.30000001192,35308.90000003576],"key_events":[],"mouse_events":[3774.900000035763,11873.700000047684,13634.800000011921,20725.700000047684,26425.600000023842,29034.900000035763,30351.400000035763,33186.30000001192,35308.90000003576,38158.40000003576,40488.10000002384,43153.700000047684,46556.30000001192,48760.5,50135.40000003576],"honeypot":0,"survey":"mace","page":2,"trial_type":"survey-mace","trial_index":10,"time_elapsed":437140,"internal_node_id":"0.0-10.0","task_version":"prescreen-v0.3","browser_interactions":0},{"responses":{"01":"No","02":"No","03":"No","04":"No"},"rt":16654.19999998808,"item_order":[0,1,2,3],"radio_events":[9259.099999964237,12274.199999988079,14107.799999952316,15614.899999976158],"checkbox_events":[],"key_events":[],"mouse_events":[9259.099999964237,12274.199999988079,14107.799999952316,15614.899999976158,16652.599999964237],"honeypot":0,"survey":"mace","page":3,"trial_type":"survey-mace","trial_index":11,"time_elapsed":453798,"internal_node_id":"0.0-11.0","task_version":"prescreen-v0.3","browser_interactions":0},{"responses":{"01":"No","02":"No"},"rt":13542.099999964237,"item_order":[0,1],"radio_events":[10756.099999964237,12100.099999964237],"checkbox_events":[],"key_events":[],"mouse_events":[10756.099999964237,12100.099999964237,13541],"honeypot":0,"survey":"mace","page":4,"trial_type":"survey-mace","trial_index":12,"time_elapsed":467342,"internal_node_id":"0.0-12.0","task_version":"prescreen-v0.3","browser_interactions":0},{"responses":{"01":"No","02":"No","03":"No","04":"No","05":"No"},"rt":32382.5,"item_order":[0,1,2,3,4],"radio_events":[19109.900000035763,21383.5,25172.80000001192,29337.100000023842,31419.600000023842],"checkbox_events":[],"key_events":[],"mouse_events":[12385,19109.900000035763,21383.5,25172.80000001192,29337.100000023842,31419.600000023842,32378.600000023842],"honeypot":0,"survey":"mace","page":5,"trial_type":"survey-mace","trial_index":13,"time_elapsed":499730,"internal_node_id":"0.0-13.0","task_version":"prescreen-v0.3","browser_interactions":0},{"responses":{"01":"Yes","01_ages_9":"9","01_ages_10":"10","01_ages_11":"11","01_ages_12":"12","01_ages_13":"13","01_ages_14":"14","02":"Yes","02_ages_7":"7","02_ages_8":"8","02_ages_9":"9","02_ages_10":"10","02_ages_11":"11","02_ages_12":"12","02_ages_13":"13","02_ages_14":"14","02_ages_15":"15","03":"Yes","03_ages_9":"9","03_ages_10":"10","03_ages_11":"11","03_ages_12":"12","03_ages_13":"13","03_ages_14":"14","04":"Yes","04_ages_11":"11","04_ages_12":"12","04_ages_13":"13","04_ages_14":"14","05":"No"},"rt":73967.39999997616,"item_order":[0,1,2,3,4],"radio_events":[7763.799999952316,22815.599999964237,39429.69999998808,61118.69999998808,73025.19999998808],"checkbox_events":[11384.399999976158,11874,12561.799999952316,16704.799999952316,17606.599999964237,18508.599999964237,19275.899999976158,20244.299999952316,24423.399999976158,25482,26197.19999998808,27009.5,27881.299999952316,29311.599999964237,29959.899999976158,33945.89999997616,36308.299999952316,41314.39999997616,42983.09999996424,43832.799999952316,50858.39999997616,53198.39999997616,54331.299999952316,62750.69999998808,63600.39999997616,64404.299999952316,65224.5,66066.19999998808,69955.29999995232],"key_events":[],"mouse_events":[7763.799999952316,11384.399999976158,11874,12561.799999952316,15429.799999952316,16704.799999952316,17606.599999964237,18508.599999964237,19275.899999976158,20244.299999952316,22815.599999964237,24423.399999976158,25482,26197.19999998808,27009.5,27881.299999952316,29311.599999964237,29959.899999976158,33945.89999997616,36308.299999952316,39429.69999998808,41314.39999997616,42983.09999996424,43832.799999952316,46686.19999998808,50858.39999997616,53198.39999997616,54331.299999952316,61118.69999998808,62750.69999998808,63600.39999997616,64404.299999952316,65224.5,66066.19999998808,69955.29999995232,73025.19999998808,73964.5],"honeypot":0,"survey":"mace","page":6,"trial_type":"survey-mace","trial_index":14,"time_elapsed":573705,"internal_node_id":"0.0-14.0","task_version":"prescreen-v0.3","browser_interactions":0},{"responses":{"01":"No","02":"No","03":"No","04":"No","05":"No","06":"No","07":"No"},"rt":14141.600000023842,"item_order":[0,1,2,3,4,5,6],"radio_events":[3320.300000011921,6226.5,7574.300000011921,8736.600000023842,10151.800000011921,11872.600000023842,12997.800000011921],"checkbox_events":[],"key_events":[],"mouse_events":[3320.300000011921,6226.5,7574.300000011921,8736.600000023842,10151.800000011921,11872.600000023842,12997.800000011921,14137.800000011921],"honeypot":0,"survey":"mace","page":7,"trial_type":"survey-mace","trial_index":15,"time_elapsed":587852,"internal_node_id":"0.0-15.0","task_version":"prescreen-v0.3","browser_interactions":0},{"responses":{"01":"No","02":"Yes","02_ages_11":"11","02_ages_12":"12","02_ages_13":"13","03":"Yes","03_ages_10":"10","03_ages_11":"11","03_ages_12":"12","03_ages_13":"13","03_ages_14":"14","03_ages_15":"15","03_ages_16":"16","03_ages_17":"17","03_ages_18":"18","04":"No"},"rt":49414.59999996424,"item_order":[0,1,2,3],"radio_events":[11234.300000011921,15135.899999976158,28977.099999964237,48614.39999997616],"checkbox_events":[17511.899999976158,19613,24827.599999964237,31725.599999964237,33491.30000001192,36008.80000001192,36708.89999997616,37297.39999997616,37982.59999996424,38563.89999997616,39420.59999996424,41134.89999997616],"key_events":[],"mouse_events":[11234.300000011921,15135.899999976158,17511.899999976158,19613,24827.599999964237,28977.099999964237,31725.599999964237,32425.399999976158,33491.30000001192,34838.09999996424,35278.5,36008.80000001192,36708.89999997616,37297.39999997616,37982.59999996424,38563.89999997616,39420.59999996424,40262.39999997616,41134.89999997616,48614.39999997616,49411.5],"honeypot":0,"survey":"mace","page":8,"trial_type":"survey-mace","trial_index":16,"time_elapsed":637273,"internal_node_id":"0.0-16.0","task_version":"prescreen-v0.3","browser_interactions":0},{"responses":{"01":"No","02":"No","03":"Yes","03_ages_3":"3","03_ages_4":"4","03_ages_5":"5","03_ages_6":"6","03_ages_7":"7","03_ages_8":"8","03_ages_9":"9","03_ages_10":"10","03_ages_11":"11","03_ages_12":"12","03_ages_13":"13","04":"Yes","04_ages_7":"7","04_ages_8":"8","04_ages_9":"9","04_ages_10":"10","04_ages_11":"11","04_ages_12":"12","04_ages_13":"13","04_ages_14":"14","04_ages_15":"15","04_ages_16":"16","04_ages_17":"17"},"rt":58422.30000001192,"item_order":[0,1,2,3],"radio_events":[5674.600000023842,8438.400000035763,10911,13279.300000011921,38665.30000001192],"checkbox_events":[17235.400000035763,18211,19120.100000023842,23708.69999998808,24490.80000001192,25295.400000035763,26584.30000001192,27239.400000035763,28044.600000023842,33204.10000002384,34328,43253.5,46872.69999998808,48318.10000002384,49220,49987.5,51812.30000001192,52825.30000001192,54643,56013.69999998808,56915.40000003576,57705.30000001192],"key_events":[],"mouse_events":[5674.600000023842,8438.400000035763,10911,13279.300000011921,17235.400000035763,18211,19120.100000023842,21965.400000035763,23708.69999998808,24490.80000001192,25295.400000035763,26584.30000001192,27239.400000035763,28044.600000023842,29765.400000035763,31941.19999998808,33204.10000002384,34328,38665.30000001192,43253.5,44213.40000003576,45226.30000001192,46872.69999998808,48318.10000002384,49220,49987.5,50933.40000003576,51812.30000001192,52825.30000001192,54643,56013.69999998808,56915.40000003576,57705.30000001192,58420],"honeypot":0,"survey":"mace","page":9,"trial_type":"survey-mace","trial_index":17,"time_elapsed":695700,"internal_node_id":"0.0-17.0","task_version":"prescreen-v0.3","browser_interactions":0},{"responses":{"01":"No","02":"No","03":"No","04":"No","05":"No","06":"Yes","06_ages_17":"17","07":"No","08":"No"},"rt":35890.700000047684,"item_order":[0,1,2,3,4,5,6,7],"radio_events":[8720.300000011921,9889,12994.300000011921,14573.5,18536.80000001192,20466.5,28078.700000047684,32928.5,33882.10000002384],"checkbox_events":[22522.200000047684],"key_events":[],"mouse_events":[8720.300000011921,9889,12994.300000011921,14573.5,15534,18536.80000001192,20466.5,22522.200000047684,28078.700000047684,29613.100000023842,32928.5,33882.10000002384,35885.90000003576],"honeypot":0,"survey":"mace","page":10,"trial_type":"survey-mace","trial_index":18,"time_elapsed":731597,"internal_node_id":"0.0-18.0","task_version":"prescreen-v0.3","browser_interactions":0,"instructed":0},{"rt":5807.900000035763,"trial_type":"mental-health-alert","trial_index":19,"time_elapsed":737408,"internal_node_id":"0.0-19.0","task_version":"prescreen-v0.3","interactions":"[]"}]