[{"view_history":[{"page_index":0,"viewing_time":2807},{"page_index":1,"viewing_time":2616.900000035763},{"page_index":2,"viewing_time":1117.7999999523163},{"page_index":3,"viewing_time":675.1000000238419}],"rt":7217.699999988079,"trial_type":"instructions","trial_index":0,"time_elapsed":7224,"internal_node_id":"0.0-0.0","task_version":"prescreen-v0.3"},{"rt":13189.100000023842,"responses":{"age":"20","gender-categorical":"Male","gender-free-response":"","ethnicity":"Not Hispanic or Latino","race":["White"],"education":"Some college","siblings":"1"},"trial_type":"survey-demo","trial_index":1,"time_elapsed":20417,"internal_node_id":"0.0-1.0","task_version":"prescreen-v0.3"},{"responses":{"Q16":"3","Q08":"2","Q05":"0","Q01":"2","Q20":"2","Q21":"1","Q09":"3","Q17":"1","Q10":"3","Q11":"2","Q19":"3","Q18":"3","Q14":"3","Q02":"2","Q13":"3","Q12":"2","Q06":"0","Q07":"1","Q15":"3","Q03":"2","Q04":"1"},"rt":71866,"item_order":[15,7,4,0,19,20,8,16,9,10,18,17,13,1,12,11,5,6,14,2,3],"radio_events":[3048.300000011921,5168.899999976158,12424.5,15298.600000023842,16832.100000023842,20860.19999998808,24300.5,26336.80000001192,28574.600000023842,31524.100000023842,33362.30000001192,35492.5,36549,38968.89999997616,48154.5,50181.39999997616,54605.10000002384,61434.19999998808,64421,65720.60000002384,69942.39999997616,71140.39999997616],"key_events":[],"mouse_events":[3048.300000011921,5168.899999976158,12424.5,14212.600000023842,14674.300000011921,15298.600000023842,15715.899999976158,16832.100000023842,20860.19999998808,23240.80000001192,24300.5,25346.19999998808,26336.80000001192,27003.399999976158,28574.600000023842,31524.100000023842,33362.30000001192,35492.5,36549,37642.80000001192,38968.89999997616,45396.39999997616,47287.5,47670.10000002384,48154.5,50181.39999997616,54605.10000002384,60500.69999998808,61434.19999998808,64421,65720.60000002384,69942.39999997616,70747.80000001192,71140.39999997616,71864.39999997616],"straightlining":0.38095238095238093,"zigzagging":0.5,"honeypot":0,"survey":"sns","trial_type":"survey-template","trial_index":2,"time_elapsed":90505,"internal_node_id":"0.0-2.0","task_version":"prescreen-v0.3","browser_interactions":0,"infrequency":1},{"responses":{"Q10":"0","Q09":"0","Q02":"3","Q01":"3","Q08":"2","Q06":"0","Q07":"0","Q12":"0","Q03":"3","Q05":"1","Q13":"0","Q04":"3","Q11":"0"},"rt":43097.60000002384,"item_order":[9,8,1,0,7,5,6,11,2,4,12,3,10],"radio_events":[3393.600000023842,3814.699999988079,5624.300000011921,6236.399999976158,8948,12103,13633.399999976158,16436.5,19281.5,20679.399999976158,32358.5,40403.39999997616,41302.30000001192],"key_events":[],"mouse_events":[2533.5,3393.600000023842,3814.699999988079,5219.600000023842,5624.300000011921,6236.399999976158,8948,11188.199999988079,12103,13633.399999976158,16436.5,19281.5,20679.399999976158,32358.5,40403.39999997616,41302.30000001192,43096.5],"straightlining":0.5384615384615384,"zigzagging":0.5,"honeypot":0,"survey":"bisbas","trial_type":"survey-template","trial_index":3,"time_elapsed":133609,"internal_node_id":"0.0-3.0","task_version":"prescreen-v0.3","browser_interactions":0,"infrequency":0},{"responses":{"Q01":"2","Q02":"2","Q03":"1"},"rt":9611,"radio_events":[2843.300000011921,4420,6944.899999976158],"key_events":[],"mouse_events":[2843.300000011921,4420,6944.899999976158,9610.199999988079],"survey":"map","page":1,"trial_type":"survey-map","trial_index":4,"time_elapsed":143225,"internal_node_id":"0.0-4.0","task_version":"prescreen-v0.3","browser_interactions":0},{"responses":{"Q04":"1","Q05":"2","Q06":"1"},"rt":7095,"radio_events":[3015,4693,6279],"key_events":[],"mouse_events":[3015,4693,6279,7094.600000023842],"survey":"map","page":2,"trial_type":"survey-map","trial_index":5,"time_elapsed":150325,"internal_node_id":"0.0-5.0","task_version":"prescreen-v0.3","browser_interactions":0},{"responses":{"Q07":"1","Q08":"0","Q09":"2"},"rt":12742.200000047684,"radio_events":[5831,6479.100000023842,8294.800000011921,10980.900000035763],"key_events":[],"mouse_events":[5831,6479.100000023842,8294.800000011921,10980.900000035763,12741.700000047684],"survey":"map","page":3,"trial_type":"survey-map","trial_index":6,"time_elapsed":163072,"internal_node_id":"0.0-6.0","task_version":"prescreen-v0.3","browser_interactions":0},{"responses":{"Q10":"1","Q11":"0","Q12":"0","Q13":"0","Q16":"0","Q14":"0","Q15":"0"},"rt":47682.69999998808,"radio_events":[3368.699999988079,5065.800000011921,6734.300000011921,16008.600000023842,17017.600000023842,44213.19999998808,45951.60000002384],"key_events":[],"mouse_events":[3368.699999988079,5065.800000011921,6734.300000011921,12113.800000011921,14861.800000011921,16008.600000023842,16550.400000035763,17017.600000023842,44213.19999998808,45447.5,45951.60000002384,47681.69999998808],"survey":"map","page":4,"trial_type":"survey-map","trial_index":7,"time_elapsed":210760,"internal_node_id":"0.0-7.0","task_version":"prescreen-v0.3","browser_interactions":0,"infrequency":0},{"view_history":[{"page_index":0,"viewing_time":1055.800000011921},{"page_index":1,"viewing_time":1472.7999999523163}],"rt":2528.800000011921,"trial_type":"instructions","trial_index":8,"time_elapsed":213293,"internal_node_id":"0.0-8.0","task_version":"prescreen-v0.3"},{"responses":{"01":"Yes","01_ages_8":"8","01_ages_9":"9","01_ages_10":"10","01_ages_11":"11","01_ages_12":"12","01_ages_13":"13","01_ages_14":"14","01_ages_15":"15","01_ages_16":"16","01_ages_17":"17","01_ages_18":"18","02":"Yes","02_ages_8":"8","02_ages_9":"9","02_ages_10":"10","02_ages_11":"11","02_ages_12":"12","02_ages_13":"13","02_ages_14":"14","02_ages_15":"15","02_ages_16":"16","02_ages_17":"17","02_ages_18":"18","03":"Yes","03_ages_6":"6","03_ages_7":"7","03_ages_8":"8","03_ages_9":"9","04":"Yes","04_ages_15":"15","04_ages_16":"16","05":"No","06":"No"},"rt":52103.90000003576,"item_order":[0,1,2,3,4,5],"radio_events":[3450.5,6681.5,9443,20979,29425,30535.5,31933.600000023842,38068.60000002384,39938.40000003576,42628.30000001192],"checkbox_events":[15029.300000011921,15324.699999988079,15963.800000011921,16249.400000035763,16656,17299.600000023842,17727.100000023842,18234.80000001192,19069.900000035763,19401.100000023842,19843.400000035763,23688.400000035763,24171.100000023842,24725.900000035763,25036.100000023842,25404.5,25929.30000001192,26274.900000035763,26716.600000023842,27283.400000035763,27657.19999998808,28003.400000035763,33326.80000001192,33587.5,34023.30000001192,34594.5,44695.5,45071.60000002384],"key_events":[],"mouse_events":[0.10000002384185791,3450.5,5664.800000011921,6681.5,9443,15029.300000011921,15324.699999988079,15963.800000011921,16249.400000035763,16656,17299.600000023842,17727.100000023842,18234.80000001192,18482.100000023842,19069.900000035763,19401.100000023842,19843.400000035763,20979,23688.400000035763,24171.100000023842,24725.900000035763,25036.100000023842,25404.5,25929.30000001192,26274.900000035763,26716.600000023842,27283.400000035763,27657.19999998808,28003.400000035763,29425,30535.5,31933.600000023842,33326.80000001192,33587.5,34023.30000001192,34594.5,38068.60000002384,39938.40000003576,42628.30000001192,44695.5,45071.60000002384,52101.90000003576],"honeypot":0,"survey":"mace","page":1,"trial_type":"survey-mace","trial_index":9,"time_elapsed":265404,"internal_node_id":"0.0-9.0","task_version":"prescreen-v0.3","browser_interactions":0},{"responses":{"01":"No","02":"No","03":"No","04":"No","05":"No","06":"No","07":"No","08":"No"},"rt":11330,"item_order":[0,1,2,3,4,5,6,7],"radio_events":[1948.800000011921,2702.699999988079,3980.400000035763,5341.5,6429.300000011921,7297.5,9416.400000035763,10317.400000035763],"checkbox_events":[],"key_events":[],"mouse_events":[1948.800000011921,2702.699999988079,3980.400000035763,5341.5,6429.300000011921,7297.5,8287.600000023842,9416.400000035763,9827.300000011921,10317.400000035763,11326.400000035763],"honeypot":0,"survey":"mace","page":2,"trial_type":"survey-mace","trial_index":10,"time_elapsed":276740,"internal_node_id":"0.0-10.0","task_version":"prescreen-v0.3","browser_interactions":0},{"responses":{"01":"No","02":"No","03":"No","04":"No"},"rt":11550.600000023842,"item_order":[0,1,2,3],"radio_events":[4068.900000035763,6163.100000023842,8541.300000011921,10218.600000023842],"checkbox_events":[],"key_events":[],"mouse_events":[3064.900000035763,4068.900000035763,4403.100000023842,6163.100000023842,6624.100000023842,7383.800000011921,8541.300000011921,9451.100000023842,10218.600000023842,11549.200000047684],"honeypot":0,"survey":"mace","page":3,"trial_type":"survey-mace","trial_index":11,"time_elapsed":288297,"internal_node_id":"0.0-11.0","task_version":"prescreen-v0.3","browser_interactions":0},{"responses":{"01":"No","02":"No"},"rt":4211.699999988079,"item_order":[0,1],"radio_events":[2746.199999988079,3678.300000011921],"checkbox_events":[],"key_events":[],"mouse_events":[2746.199999988079,3678.300000011921,4211],"honeypot":0,"survey":"mace","page":4,"trial_type":"survey-mace","trial_index":12,"time_elapsed":292513,"internal_node_id":"0.0-12.0","task_version":"prescreen-v0.3","browser_interactions":0},{"responses":{"01":"No","02":"No","03":"No","04":"No","05":"No"},"rt":15116.600000023842,"item_order":[0,1,2,3,4],"radio_events":[5395.300000011921,9852,10725.900000035763,12875.300000011921,13732.900000035763],"checkbox_events":[],"key_events":[],"mouse_events":[4334.400000035763,5395.300000011921,9852,10725.900000035763,11382.800000011921,12875.300000011921,13732.900000035763,15114.199999988079],"honeypot":0,"survey":"mace","page":5,"trial_type":"survey-mace","trial_index":13,"time_elapsed":307635,"internal_node_id":"0.0-13.0","task_version":"prescreen-v0.3","browser_interactions":0},{"responses":{"01":"No","02":"Yes","02_ages_15":"15","02_ages_16":"16","03":"Yes","03_ages_15":"15","03_ages_16":"16","04":"Yes","04_ages_15":"15","04_ages_16":"16","05":"No"},"rt":30435.69999998808,"item_order":[0,1,2,3,4],"radio_events":[8477.800000011921,13530.800000011921,17052.599999964237,23542.69999998808,25574.899999976158,28088.69999998808],"checkbox_events":[9887.399999976158,11933.599999964237,14621.099999964237,14957.699999988079,24568,24814.19999998808],"key_events":[],"mouse_events":[8477.800000011921,9887.399999976158,11933.599999964237,13530.800000011921,14621.099999964237,14957.699999988079,17052.599999964237,23542.69999998808,24568,24814.19999998808,25574.899999976158,28088.69999998808,30433.899999976158],"honeypot":0,"survey":"mace","page":6,"trial_type":"survey-mace","trial_index":14,"time_elapsed":338078,"internal_node_id":"0.0-14.0","task_version":"prescreen-v0.3","browser_interactions":0},{"responses":{"01":"No","02":"No","03":"No","04":"No","05":"No","06":"No","07":"No"},"rt":12280.800000011921,"item_order":[0,1,2,3,4,5,6],"radio_events":[5262,6295.699999988079,7161.199999988079,7951.300000011921,8604.599999964237,9550.5,10755.199999988079],"checkbox_events":[],"key_events":[],"mouse_events":[5262,5662.300000011921,6295.699999988079,7161.199999988079,7951.300000011921,8604.599999964237,9550.5,10358.800000011921,10755.199999988079,12278.199999988079],"honeypot":0,"survey":"mace","page":7,"trial_type":"survey-mace","trial_index":15,"time_elapsed":350364,"internal_node_id":"0.0-15.0","task_version":"prescreen-v0.3","browser_interactions":0},{"responses":{"01":"Yes","01_ages_7":"7","01_ages_8":"8","01_ages_9":"9","01_ages_10":"10","01_ages_11":"11","01_ages_12":"12","01_ages_13":"13","01_ages_14":"14","01_ages_15":"15","01_ages_16":"16","01_ages_17":"17","01_ages_18":"18","02":"Yes","02_ages_7":"7","02_ages_8":"8","02_ages_9":"9","02_ages_10":"10","02_ages_11":"11","02_ages_12":"12","02_ages_13":"13","02_ages_14":"14","02_ages_15":"15","02_ages_16":"16","02_ages_17":"17","02_ages_18":"18","03":"Yes","03_ages_1":"1","03_ages_2":"2","03_ages_3":"3","03_ages_4":"4","03_ages_5":"5","03_ages_6":"6","03_ages_7":"7","03_ages_8":"8","03_ages_9":"9","03_ages_10":"10","03_ages_11":"11","03_ages_12":"12","03_ages_13":"13","03_ages_14":"14","03_ages_15":"15","03_ages_16":"16","03_ages_17":"17","03_ages_18":"18","04":"No"},"rt":48492.60000002384,"item_order":[0,1,2,3],"radio_events":[7588.399999976158,23471.899999976158,33712,47072.89999997616],"checkbox_events":[17438.100000023842,17667.899999976158,17945.100000023842,18256,18694.80000001192,19504.80000001192,19771.399999976158,20115.100000023842,20438,20732.100000023842,21197,21556.69999998808,27397,27650.80000001192,28208.80000001192,28537.5,29069.69999998808,29473,29913.399999976158,30223.19999998808,30597.600000023842,31102.19999998808,31511.5,33041.60000002384,37746.89999997616,38062.5,38564.80000001192,38916.5,39216.60000002384,39740.10000002384,40112,40401.39999997616,40702,41518.19999998808,42225.5,43441,43768.80000001192,44387,44739.80000001192,45233.69999998808,46084,46524.60000002384],"key_events":[],"mouse_events":[7588.399999976158,17438.100000023842,17667.899999976158,17945.100000023842,18256,18694.80000001192,19233.19999998808,19504.80000001192,19771.399999976158,20115.100000023842,20438,20732.100000023842,21197,21556.69999998808,23471.899999976158,27397,27650.80000001192,27922.399999976158,28208.80000001192,28537.5,29069.69999998808,29473,29913.399999976158,30223.19999998808,30597.600000023842,31102.19999998808,31511.5,31785,33041.60000002384,33712,37746.89999997616,38062.5,38564.80000001192,38916.5,39216.60000002384,39740.10000002384,40112,40401.39999997616,40702,41091.60000002384,41518.19999998808,41896.19999998808,42225.5,42589.80000001192,43441,43768.80000001192,44387,44739.80000001192,45233.69999998808,45635.69999998808,46084,46524.60000002384,47072.89999997616,48491.19999998808],"honeypot":0,"survey":"mace","page":8,"trial_type":"survey-mace","trial_index":16,"time_elapsed":398862,"internal_node_id":"0.0-16.0","task_version":"prescreen-v0.3","browser_interactions":0},{"responses":{"01":"No","02":"No","03":"Yes","03_ages_1":"1","03_ages_2":"2","03_ages_3":"3","03_ages_4":"4","03_ages_5":"5","03_ages_6":"6","03_ages_7":"7","03_ages_8":"8","03_ages_9":"9","03_ages_10":"10","03_ages_11":"11","03_ages_12":"12","03_ages_13":"13","03_ages_14":"14","03_ages_15":"15","03_ages_16":"16","03_ages_17":"17","03_ages_18":"18","04":"Yes","04_ages_1":"1","04_ages_2":"2","04_ages_3":"3","04_ages_4":"4","04_ages_5":"5","04_ages_6":"6","04_ages_7":"7","04_ages_8":"8","04_ages_9":"9","04_ages_10":"10","04_ages_11":"11","04_ages_12":"12","04_ages_13":"13","04_ages_14":"14","04_ages_15":"15","04_ages_16":"16","04_ages_17":"17","04_ages_18":"18"},"rt":30837.599999964237,"item_order":[0,1,2,3],"radio_events":[4033.099999964237,4769.699999988079,6817.399999976158,9504],"checkbox_events":[12274.799999952316,12853.899999976158,13311.299999952316,14044.099999964237,14423.299999952316,15174.199999988079,15535.5,16095.899999976158,16412.099999964237,16729.899999976158,17559.099999964237,17876.099999964237,18238.799999952316,18631,19192,19514.899999976158,19998,20290.799999952316,21131.599999964237,21449.599999964237,21803.399999976158,22446.799999952316,22788,23173.799999952316,23806.599999964237,24661.599999964237,25486.299999952316,25949.799999952316,26541.299999952316,27090.099999964237,27620.799999952316,27996.599999964237,28461.69999998808,28806.19999998808,29625.5,30148.899999976158],"key_events":[],"mouse_events":[4033.099999964237,4769.699999988079,6817.399999976158,9504,12274.799999952316,12853.899999976158,13311.299999952316,13614.199999988079,14044.099999964237,14423.299999952316,14674.699999988079,15174.199999988079,15535.5,16095.899999976158,16412.099999964237,16729.899999976158,17062.799999952316,17559.099999964237,17876.099999964237,18238.799999952316,18631,19192,19514.899999976158,19998,20290.799999952316,21131.599999964237,21449.599999964237,21803.399999976158,22446.799999952316,22788,23173.799999952316,23806.599999964237,24246.5,24661.599999964237,25197.69999998808,25486.299999952316,25949.799999952316,26541.299999952316,27090.099999964237,27620.799999952316,27996.599999964237,28461.69999998808,28806.19999998808,29131.099999964237,29625.5,30148.899999976158,30836.099999964237],"honeypot":0,"survey":"mace","page":9,"trial_type":"survey-mace","trial_index":17,"time_elapsed":429705,"internal_node_id":"0.0-17.0","task_version":"prescreen-v0.3","browser_interactions":0},{"responses":{"01":"No","02":"No","03":"Yes","03_ages_14":"14","03_ages_15":"15","03_ages_16":"16","03_ages_17":"17","03_ages_18":"18","04":"Yes","04_ages_8":"8","04_ages_9":"9","04_ages_10":"10","04_ages_11":"11","04_ages_12":"12","04_ages_13":"13","04_ages_14":"14","04_ages_15":"15","04_ages_16":"16","04_ages_17":"17","04_ages_18":"18","05":"Yes","05_ages_1":"1","05_ages_2":"2","05_ages_3":"3","05_ages_4":"4","05_ages_5":"5","05_ages_6":"6","05_ages_7":"7","05_ages_8":"8","05_ages_9":"9","05_ages_10":"10","05_ages_11":"11","05_ages_12":"12","05_ages_13":"13","05_ages_14":"14","05_ages_15":"15","05_ages_16":"16","05_ages_17":"17","05_ages_18":"18","06":"Yes","06_ages_17":"17","07":"Yes","07_ages_1":"1","07_ages_2":"2","07_ages_3":"3","07_ages_4":"4","07_ages_5":"5","07_ages_6":"6","07_ages_7":"7","07_ages_8":"8","07_ages_9":"9","07_ages_10":"10","08":"No"},"rt":73186.30000001192,"item_order":[0,1,2,3,4,5,6,7],"radio_events":[3419.5,4975.600000023842,5511.700000047684,11157.700000047684,19575.600000023842,55441.60000002384,60185.60000002384,62697,63668.700000047684],"checkbox_events":[8550.800000011921,8816.300000011921,9134.5,9714.5,10267.600000023842,13089,13335.400000035763,14204.400000035763,14634.400000035763,15009.300000011921,15403.200000047684,15803,16313.200000047684,16744.5,17795.700000047684,18117.400000035763,21174.30000001192,21535.600000023842,22754.200000047684,23422,23817.80000001192,24206.30000001192,24665.600000023842,25109.5,25615.100000023842,26077.700000047684,50140.90000003576,50629.80000001192,51210.700000047684,52332.5,52733.30000001192,53417.5,53825.700000047684,54144.60000002384,56313.40000003576,66407.60000002384,66758.40000003576,67227.80000001192,67720.70000004768,68041.70000004768,68372.90000003576,68660.5,69681.80000001192,70040.90000003576,70409.40000003576],"key_events":[],"mouse_events":[2827.5,3419.5,4130.200000047684,4975.600000023842,5511.700000047684,8550.800000011921,8816.300000011921,9134.5,9714.5,10267.600000023842,11157.700000047684,12342.100000023842,12557.5,13089,13335.400000035763,14204.400000035763,14634.400000035763,15009.300000011921,15403.200000047684,15803,16313.200000047684,16744.5,17072.600000023842,17311.100000023842,17795.700000047684,18117.400000035763,18851.200000047684,19575.600000023842,20574.400000035763,21174.30000001192,21535.600000023842,21895.600000023842,22225.5,22754.200000047684,23422,23817.80000001192,24206.30000001192,24665.600000023842,25109.5,25615.100000023842,26077.700000047684,26488.400000035763,50140.90000003576,50629.80000001192,51210.700000047684,51541.60000002384,52332.5,52733.30000001192,53033.40000003576,53417.5,53825.700000047684,54144.60000002384,55441.60000002384,56313.40000003576,60185.60000002384,62697,63668.700000047684,66407.60000002384,66758.40000003576,67227.80000001192,67720.70000004768,68041.70000004768,68372.90000003576,68660.5,69218.30000001192,69681.80000001192,70040.90000003576,70409.40000003576,73183.70000004768],"honeypot":0,"survey":"mace","page":10,"trial_type":"survey-mace","trial_index":18,"time_elapsed":502898,"internal_node_id":"0.0-18.0","task_version":"prescreen-v0.3","browser_interactions":0,"instructed":0},{"rt":4027.100000023842,"trial_type":"mental-health-alert","trial_index":19,"time_elapsed":506930,"internal_node_id":"0.0-19.0","task_version":"prescreen-v0.3","interactions":"[]"}]