[{"view_history":[{"page_index":0,"viewing_time":2385.199999988079},{"page_index":1,"viewing_time":3271.5},{"page_index":2,"viewing_time":3352.100000023842},{"page_index":3,"viewing_time":1631.8999999761581}],"rt":10641.800000011921,"trial_type":"instructions","trial_index":0,"time_elapsed":10655,"internal_node_id":"0.0-0.0","task_version":"prescreen-v0.3"},{"rt":12834.199999988079,"responses":{"age":"44","gender-categorical":"Male","gender-free-response":"","ethnicity":"Not Hispanic or Latino","race":["White"],"education":"Master degree or higher","siblings":"2"},"trial_type":"survey-demo","trial_index":1,"time_elapsed":23495,"internal_node_id":"0.0-1.0","task_version":"prescreen-v0.3"},{"responses":{"Q07":"0","Q02":"1","Q05":"2","Q10":"0","Q06":"2","Q09":"0","Q08":"2","Q11":"0","Q16":"0","Q04":"0","Q13":"0","Q21":"3","Q18":"2","Q19":"0","Q12":"0","Q03":"0","Q15":"0","Q14":"0","Q01":"2","Q20":"0","Q17":"0"},"rt":106860.90000003576,"item_order":[6,1,4,9,5,8,7,10,15,3,12,20,17,18,11,2,14,13,0,19,16],"radio_events":[12985.100000023842,18601.100000023842,26233,30057.100000023842,33761,37057.10000002384,41097.10000002384,44609.10000002384,48641.10000002384,52801.10000002384,57745.10000002384,60537,65881,68993,73417.10000002384,75601.19999998808,82009.10000002384,83609.19999998808,91649.10000002384,93145.10000002384,101160.90000003576,103057,105833],"key_events":[],"mouse_events":[12985.100000023842,18601.100000023842,26233,30057.100000023842,33761,37057.10000002384,41097.10000002384,44609.10000002384,48641.10000002384,52801.10000002384,57745.10000002384,60537,65881,68993,73417.10000002384,75601.19999998808,82009.10000002384,83609.19999998808,91649.10000002384,93145.10000002384,101160.90000003576,103057,105833,106857.10000002384],"straightlining":0.6666666666666666,"zigzagging":0.2,"honeypot":0,"survey":"sns","trial_type":"survey-template","trial_index":2,"time_elapsed":130361,"internal_node_id":"0.0-2.0","task_version":"prescreen-v0.3","browser_interactions":0,"infrequency":0},{"responses":{"Q12":"0","Q11":"3","Q01":"1","Q08":"3","Q04":"3","Q06":"3","Q03":"2","Q10":"3","Q09":"3","Q13":"0","Q05":"3","Q07":"3","Q02":"2"},"rt":58569.200000047684,"item_order":[11,10,0,7,3,5,2,9,8,12,4,6,1],"radio_events":[5966.900000035763,7374.800000011921,10886.800000011921,13958.700000047684,17166.900000035763,21270.900000035763,24726.80000001192,28734.900000035763,32622.80000001192,34839,36598.80000001192,39926.90000003576,44351,57830.90000003576],"key_events":[],"mouse_events":[5966.900000035763,7374.800000011921,10886.800000011921,13958.700000047684,17166.900000035763,21270.900000035763,24726.80000001192,28734.900000035763,32622.80000001192,34839,36598.80000001192,39926.90000003576,41142.90000003576,44351,45606.80000001192,51495,57830.90000003576,58566.90000003576],"straightlining":0.6153846153846154,"zigzagging":0.5,"honeypot":0,"survey":"bisbas","trial_type":"survey-template","trial_index":3,"time_elapsed":188934,"internal_node_id":"0.0-3.0","task_version":"prescreen-v0.3","browser_interactions":0,"infrequency":0},{"responses":{"Q01":"4","Q02":"3","Q03":"3"},"rt":16987,"radio_events":[5689.899999976158,9713.5,16145.799999952316],"key_events":[],"mouse_events":[5689.899999976158,9713.5,16145.799999952316,16985.899999976158],"survey":"map","page":1,"trial_type":"survey-map","trial_index":4,"time_elapsed":205925,"internal_node_id":"0.0-4.0","task_version":"prescreen-v0.3","browser_interactions":0},{"responses":{"Q04":"4","Q05":"4","Q06":"4"},"rt":9052.5,"radio_events":[5123.300000011921,7515.199999988079,8187.5],"key_events":[],"mouse_events":[5123.300000011921,6363.399999976158,7515.199999988079,8187.5,9051.5],"survey":"map","page":2,"trial_type":"survey-map","trial_index":5,"time_elapsed":214980,"internal_node_id":"0.0-5.0","task_version":"prescreen-v0.3","browser_interactions":0},{"responses":{"Q07":"3","Q08":"4","Q09":"3"},"rt":13573.200000047684,"radio_events":[5492.400000035763,6084.5,8772.300000011921,12692.200000047684],"key_events":[],"mouse_events":[5492.400000035763,6084.5,8772.300000011921,12692.200000047684,13572.300000011921],"survey":"map","page":3,"trial_type":"survey-map","trial_index":6,"time_elapsed":228556,"internal_node_id":"0.0-6.0","task_version":"prescreen-v0.3","browser_interactions":0},{"responses":{"Q10":"3","Q11":"2","Q12":"3","Q13":"3","Q16":"0","Q14":"4","Q15":"4"},"rt":32286.099999964237,"radio_events":[5412.199999988079,8436.099999964237,9116.199999988079,10492.199999988079,15700.199999988079,20628.19999998808,23884.099999964237,29028,31699.899999976158],"key_events":[],"mouse_events":[5412.199999988079,8436.099999964237,9116.199999988079,10492.199999988079,15700.199999988079,20628.19999998808,23884.099999964237,29028,31699.899999976158,32284.099999964237],"survey":"map","page":4,"trial_type":"survey-map","trial_index":7,"time_elapsed":260845,"internal_node_id":"0.0-7.0","task_version":"prescreen-v0.3","browser_interactions":0,"infrequency":0},{"view_history":[{"page_index":0,"viewing_time":3051.5},{"page_index":1,"viewing_time":4223.800000011921}],"rt":7276.199999988079,"trial_type":"instructions","trial_index":8,"time_elapsed":268122,"internal_node_id":"0.0-8.0","task_version":"prescreen-v0.3"},{"responses":{"01":"Yes","01_ages_10":"10","01_ages_11":"11","01_ages_12":"12","01_ages_13":"13","01_ages_14":"14","01_ages_15":"15","01_ages_16":"16","01_ages_17":"17","01_ages_18":"18","02":"Yes","02_ages_10":"10","02_ages_11":"11","02_ages_12":"12","02_ages_13":"13","02_ages_14":"14","02_ages_15":"15","02_ages_16":"16","02_ages_17":"17","02_ages_18":"18","03":"Yes","03_ages_14":"14","03_ages_15":"15","03_ages_16":"16","03_ages_17":"17","03_ages_18":"18","04":"No","05":"No","06":"Yes","06_ages_17":"17","06_ages_18":"18"},"rt":69734.39999997616,"item_order":[0,1,2,3,4,5],"radio_events":[7600.800000011921,21696.599999964237,31544.399999976158,39760.5,60888.5,63552.5,65664.5],"checkbox_events":[14840.899999976158,15328.599999964237,15816.5,16256.599999964237,16648.69999998808,17032.399999976158,18256.80000001192,18784.599999964237,19496.5,22744.5,23264.5,24472.5,24880.5,25720.69999998808,26160.5,26592.30000001192,27064.599999964237,27608.5,33736.5,34400.39999997616,34968.5,36560.59999996424,37656.5,67928.5,68528.5],"key_events":[],"mouse_events":[0.09999996423721313,7600.800000011921,14840.899999976158,15328.599999964237,15816.5,16256.599999964237,16648.69999998808,17032.399999976158,17448.19999998808,17824.5,18256.80000001192,18784.599999964237,19496.5,21696.599999964237,22744.5,23264.5,23760.5,24472.5,24880.5,25720.69999998808,26160.5,26592.30000001192,27064.599999964237,27608.5,31544.399999976158,33736.5,34400.39999997616,34968.5,36560.59999996424,37656.5,39760.5,60888.5,63552.5,65664.5,67928.5,68528.5,69728.89999997616],"honeypot":0,"survey":"mace","page":1,"trial_type":"survey-mace","trial_index":9,"time_elapsed":337864,"internal_node_id":"0.0-9.0","task_version":"prescreen-v0.3","browser_interactions":0},{"responses":{"01":"Yes","01_ages_3":"3","01_ages_4":"4","02":"No","03":"Yes","03_ages_3":"3","03_ages_4":"4","04":"Yes","04_ages_3":"3","04_ages_4":"4","05":"Yes","05_ages_3":"3","05_ages_4":"4","06":"No","07":"No","08":"No"},"rt":40995.799999952316,"item_order":[0,1,2,3,4,5,6,7],"radio_events":[4076.399999976158,15852.399999976158,19500.19999998808,26148.299999952316,31676.19999998808,35844.19999998808,37340.299999952316,40284.39999997616],"checkbox_events":[8668.099999964237,9236.299999952316,21236.299999952316,21716.299999952316,27404.099999964237,27900.19999998808,32940.09999996424,33516.299999952316],"key_events":[],"mouse_events":[4076.399999976158,8668.099999964237,9236.299999952316,15852.399999976158,19500.19999998808,21236.299999952316,21716.299999952316,26148.299999952316,27404.099999964237,27900.19999998808,31676.19999998808,32940.09999996424,33516.299999952316,35844.19999998808,37340.299999952316,40284.39999997616,40988.5],"honeypot":0,"survey":"mace","page":2,"trial_type":"survey-mace","trial_index":10,"time_elapsed":378866,"internal_node_id":"0.0-10.0","task_version":"prescreen-v0.3","browser_interactions":0},{"responses":{"01":"Yes","01_ages_8":"8","01_ages_9":"9","02":"No","03":"No","04":"No"},"rt":32798.89999997616,"item_order":[0,1,2,3],"radio_events":[4331.300000011921,11483.5,17171.5,18603.30000001192,28283.399999976158,31523.30000001192],"checkbox_events":[23491.30000001192,23947.19999998808],"key_events":[],"mouse_events":[4331.300000011921,11483.5,17171.5,18603.30000001192,23491.30000001192,23947.19999998808,28283.399999976158,31523.30000001192,32795.39999997616],"honeypot":0,"survey":"mace","page":3,"trial_type":"survey-mace","trial_index":11,"time_elapsed":411668,"internal_node_id":"0.0-11.0","task_version":"prescreen-v0.3","browser_interactions":0},{"responses":{"01":"No","02":"No"},"rt":9387.300000011921,"item_order":[0,1],"radio_events":[2665.100000023842,5313.300000011921],"checkbox_events":[],"key_events":[],"mouse_events":[2665.100000023842,5313.300000011921,9385.199999988079],"honeypot":0,"survey":"mace","page":4,"trial_type":"survey-mace","trial_index":12,"time_elapsed":421059,"internal_node_id":"0.0-12.0","task_version":"prescreen-v0.3","browser_interactions":0},{"responses":{"01":"No","02":"No","03":"No","04":"No","05":"No"},"rt":15990.300000011921,"item_order":[0,1,2,3,4],"radio_events":[6394,8554,11737.699999988079,13585.899999976158,15265.699999988079],"checkbox_events":[],"key_events":[],"mouse_events":[6394,8554,11737.699999988079,13585.899999976158,15265.699999988079,15985.899999976158],"honeypot":0,"survey":"mace","page":5,"trial_type":"survey-mace","trial_index":13,"time_elapsed":437053,"internal_node_id":"0.0-13.0","task_version":"prescreen-v0.3","browser_interactions":0},{"responses":{"01":"Yes","01_ages_15":"15","01_ages_16":"16","01_ages_17":"17","01_ages_18":"18","02":"Yes","02_ages_15":"15","02_ages_16":"16","02_ages_17":"17","02_ages_18":"18","03":"No","04":"No","05":"No"},"rt":25715.600000023842,"item_order":[0,1,2,3,4],"radio_events":[5719.400000035763,10831,15831.300000011921,18335,23071,23351,24063.100000023842],"checkbox_events":[7487.199999988079,8055.199999988079,8407.400000035763,8863.300000011921,11814.900000035763,12175.199999988079,12567.100000023842,13023.100000023842],"key_events":[],"mouse_events":[5719.400000035763,7487.199999988079,8055.199999988079,8407.400000035763,8863.300000011921,10831,11814.900000035763,12175.199999988079,12567.100000023842,13023.100000023842,15831.300000011921,18335,20311.100000023842,23071,23351,24063.100000023842,25711.400000035763],"honeypot":0,"survey":"mace","page":6,"trial_type":"survey-mace","trial_index":14,"time_elapsed":462773,"internal_node_id":"0.0-14.0","task_version":"prescreen-v0.3","browser_interactions":0},{"responses":{"01":"Yes","01_ages_14":"14","01_ages_15":"15","02":"Yes","02_ages_14":"14","02_ages_15":"15","03":"Yes","03_ages_14":"14","03_ages_15":"15","04":"Yes","04_ages_14":"14","04_ages_15":"15","05":"Yes","05_ages_14":"14","05_ages_15":"15","06":"No","07":"No"},"rt":47492.89999997616,"item_order":[0,1,2,3,4,5,6],"radio_events":[3406.699999988079,5974.799999952316,15390.799999952316,18022.799999952316,27030.899999976158,31606.69999998808,38758.69999998808,42694.39999997616,44494.69999998808],"checkbox_events":[19942.799999952316,21038.799999952316,23622.899999976158,24182.899999976158,28182.799999952316,28662.69999998808,32646.899999976158,33142.69999998808,39950.799999952316,40446.69999998808],"key_events":[],"mouse_events":[3406.699999988079,5974.799999952316,15390.799999952316,18022.799999952316,19942.799999952316,21038.799999952316,23622.899999976158,24182.899999976158,27030.899999976158,28182.799999952316,28662.69999998808,31606.69999998808,32646.899999976158,33142.69999998808,38758.69999998808,39950.799999952316,40446.69999998808,42694.39999997616,44494.69999998808,47486.89999997616],"honeypot":0,"survey":"mace","page":7,"trial_type":"survey-mace","trial_index":15,"time_elapsed":510270,"internal_node_id":"0.0-15.0","task_version":"prescreen-v0.3","browser_interactions":0},{"responses":{"01":"Yes","01_ages_11":"11","01_ages_12":"12","01_ages_13":"13","01_ages_14":"14","02":"Yes","02_ages_10":"10","02_ages_11":"11","02_ages_12":"12","02_ages_13":"13","02_ages_14":"14","02_ages_15":"15","02_ages_16":"16","02_ages_17":"17","02_ages_18":"18","03":"Yes","03_ages_12":"12","03_ages_13":"13","03_ages_14":"14","03_ages_15":"15","03_ages_16":"16","04":"No"},"rt":45825.60000002384,"item_order":[0,1,2,3],"radio_events":[11534.100000023842,27637.900000035763,36565.80000001192,45006],"checkbox_events":[14469.900000035763,15005.900000035763,15437.900000035763,15869.700000047684,16445.80000001192,16990,18117.900000035763,18606.100000023842,21085.80000001192,21806,22797.80000001192,23366,28510,29021.80000001192,30149.900000035763,30597.600000023842,31013.900000035763,31941.900000035763,32349.600000023842,32742,33342,38902.10000002384,39302,39693.90000003576,40118.10000002384,40549.700000047684],"key_events":[],"mouse_events":[11534.100000023842,14469.900000035763,15005.900000035763,15437.900000035763,15869.700000047684,16445.80000001192,16990,18117.900000035763,18606.100000023842,21085.80000001192,21806,22797.80000001192,23366,27637.900000035763,28510,29021.80000001192,30149.900000035763,30597.600000023842,31013.900000035763,31941.900000035763,32349.600000023842,32742,33342,36565.80000001192,38902.10000002384,39302,39693.90000003576,40118.10000002384,40549.700000047684,40917.90000003576,41341.80000001192,45006,45821.80000001192],"honeypot":0,"survey":"mace","page":8,"trial_type":"survey-mace","trial_index":16,"time_elapsed":556098,"internal_node_id":"0.0-16.0","task_version":"prescreen-v0.3","browser_interactions":0},{"responses":{"01":"Yes","01_ages_2":"2","01_ages_3":"3","01_ages_4":"4","01_ages_5":"5","01_ages_6":"6","01_ages_7":"7","01_ages_8":"8","01_ages_9":"9","01_ages_10":"10","01_ages_11":"11","01_ages_12":"12","01_ages_13":"13","01_ages_14":"14","01_ages_15":"15","01_ages_16":"16","01_ages_17":"17","01_ages_18":"18","02":"Yes","02_ages_1":"1","02_ages_2":"2","02_ages_3":"3","02_ages_4":"4","02_ages_5":"5","02_ages_6":"6","02_ages_7":"7","02_ages_8":"8","02_ages_9":"9","02_ages_10":"10","02_ages_11":"11","02_ages_12":"12","02_ages_13":"13","02_ages_14":"14","02_ages_15":"15","02_ages_16":"16","02_ages_17":"17","02_ages_18":"18","03":"Yes","03_ages_1":"1","03_ages_2":"2","03_ages_3":"3","03_ages_4":"4","03_ages_5":"5","03_ages_6":"6","03_ages_7":"7","03_ages_8":"8","03_ages_9":"9","03_ages_10":"10","03_ages_11":"11","03_ages_12":"12","03_ages_13":"13","03_ages_14":"14","03_ages_15":"15","03_ages_16":"16","03_ages_17":"17","03_ages_18":"18","04":"Yes","04_ages_1":"1","04_ages_2":"2","04_ages_3":"3","04_ages_4":"4","04_ages_5":"5","04_ages_6":"6","04_ages_7":"7","04_ages_8":"8","04_ages_9":"9","04_ages_10":"10","04_ages_11":"11","04_ages_12":"12","04_ages_13":"13","04_ages_14":"14","04_ages_15":"15","04_ages_16":"16","04_ages_17":"17","04_ages_18":"18"},"rt":69100.60000002384,"item_order":[0,1,2,3],"radio_events":[5704.5,19768.69999998808,34608.40000003576,49472.10000002384],"checkbox_events":[8440.699999988079,8992.5,9456.5,9856.800000011921,10256.400000035763,10680.699999988079,11104.699999988079,11464.800000011921,12448.699999988079,12920.699999988079,13464.600000023842,14352.5,14776.600000023842,15256.600000023842,15680.699999988079,16152.5,16632.5,21008.69999998808,21352.30000001192,22344.600000023842,22720.69999998808,23352.80000001192,23744.5,24136.5,24480.600000023842,24872.80000001192,25864.5,26320.600000023842,26824.80000001192,27408.5,29144.5,29704.600000023842,30160.69999998808,30648.600000023842,36160.80000001192,36616.40000003576,37144.5,37624.5,38560.5,38968.60000002384,39560.30000001192,40064.80000001192,40720.69999998808,41112.5,41576.69999998808,41984.80000001192,42400.60000002384,43320.60000002384,43832.69999998808,44400.69999998808,44976.5,50608.60000002384,51032.60000002384,51440.80000001192,51816.5,52224.60000002384,52616.60000002384,53488.5,53920.69999998808,54488.60000002384,54912.69999998808,55872.60000002384,56904.60000002384,57632.30000001192,58304.5,58640.40000003576,59248.40000003576,59712.30000001192,60528.60000002384,61784.80000001192,66512.5],"key_events":[],"mouse_events":[5704.5,8088.600000023842,8440.699999988079,8992.5,9456.5,9856.800000011921,10256.400000035763,10680.699999988079,11104.699999988079,11464.800000011921,11920.699999988079,12448.699999988079,12920.699999988079,13464.600000023842,14352.5,14776.600000023842,15256.600000023842,15680.699999988079,16152.5,16632.5,19768.69999998808,21008.69999998808,21352.30000001192,21712.600000023842,22344.600000023842,22720.69999998808,23352.80000001192,23744.5,24136.5,24480.600000023842,24872.80000001192,25272.5,25864.5,26320.600000023842,26824.80000001192,27408.5,27800.600000023842,28184.600000023842,29144.5,29704.600000023842,30160.69999998808,30648.600000023842,34608.40000003576,36160.80000001192,36616.40000003576,37144.5,37624.5,38088.69999998808,38560.5,38968.60000002384,39560.30000001192,40064.80000001192,40720.69999998808,41112.5,41576.69999998808,41984.80000001192,42400.60000002384,42816.69999998808,43320.60000002384,43832.69999998808,44400.69999998808,44976.5,49472.10000002384,50608.60000002384,51032.60000002384,51440.80000001192,51816.5,52224.60000002384,52616.60000002384,53040.5,53488.5,53920.69999998808,54488.60000002384,54912.69999998808,55408.60000002384,55872.60000002384,56336.5,56904.60000002384,57632.30000001192,58304.5,58640.40000003576,59248.40000003576,59712.30000001192,60528.60000002384,61784.80000001192,66512.5,69096.69999998808],"honeypot":0,"survey":"mace","page":9,"trial_type":"survey-mace","trial_index":17,"time_elapsed":625202,"internal_node_id":"0.0-17.0","task_version":"prescreen-v0.3","browser_interactions":0},{"responses":{"01":"No","02":"No","03":"Yes","03_ages_6":"6","03_ages_7":"7","03_ages_8":"8","03_ages_9":"9","03_ages_17":"17","03_ages_18":"18","04":"Yes","04_ages_6":"6","04_ages_7":"7","04_ages_8":"8","04_ages_9":"9","04_ages_10":"10","04_ages_11":"11","04_ages_12":"12","04_ages_13":"13","04_ages_14":"14","04_ages_15":"15","04_ages_16":"16","04_ages_17":"17","04_ages_18":"18","05":"No","06":"Yes","06_ages_17":"17","07":"Yes","07_ages_1":"1","07_ages_2":"2","07_ages_3":"3","07_ages_4":"4","07_ages_5":"5","07_ages_6":"6","07_ages_7":"7","07_ages_8":"8","07_ages_9":"9","07_ages_10":"10","07_ages_11":"11","07_ages_12":"12","07_ages_13":"13","07_ages_14":"14","07_ages_15":"15","07_ages_16":"16","07_ages_17":"17","07_ages_18":"18","08":"Yes","08_ages_1":"1","08_ages_2":"2","08_ages_3":"3","08_ages_4":"4","08_ages_5":"5","08_ages_6":"6","08_ages_7":"7","08_ages_8":"8","08_ages_9":"9","08_ages_10":"10","08_ages_11":"11","08_ages_12":"12","08_ages_13":"13","08_ages_14":"14","08_ages_15":"15","08_ages_16":"16","08_ages_17":"17","08_ages_18":"18"},"rt":69495.19999998808,"item_order":[0,1,2,3,4,5,6,7],"radio_events":[4256,6056,9743.599999964237,18615.799999952316,35479.5,36879.799999952316,41735.5,56719.69999998808],"checkbox_events":[11495.799999952316,11943.799999952316,12400,13111.699999988079,14751.899999976158,15247.799999952316,20151.899999976158,20663.69999998808,21231.399999976158,22431.599999964237,22855.599999964237,23575.799999952316,24927.899999976158,25383.69999998808,25815.799999952316,26231.799999952316,27191.799999952316,27943.799999952316,28719.799999952316,29383.69999998808,29856.399999976158,30295.799999952316,30767.799999952316,31239.899999976158,31767.69999998808,38399.59999996424,43015.89999997616,43663.89999997616,44135.89999997616,44735.59999996424,45175.799999952316,45631.69999998808,46103.799999952316,46503.69999998808,46951.89999997616,47335.59999996424,47863.59999996424,48351.5,49423.799999952316,50007.799999952316,50791.59999996424,51247.69999998808,51775.69999998808,52431.69999998808,57783.89999997616,58247.799999952316,59559.39999997616,60151.799999952316,60567.59999996424,61063.799999952316,61503.69999998808,61935.69999998808,62351.69999998808,62775.69999998808,63159.69999998808,63559.69999998808,64663.59999996424,65183.59999996424,66183.69999998808,66639.69999998808,67247.79999995232,67871.29999995232],"key_events":[],"mouse_events":[4256,6056,9743.599999964237,11495.799999952316,11943.799999952316,12400,13111.699999988079,14751.899999976158,15247.799999952316,18615.799999952316,20151.899999976158,20663.69999998808,21231.399999976158,22431.599999964237,22855.599999964237,23575.799999952316,24927.899999976158,25383.69999998808,25815.799999952316,26231.799999952316,26823.69999998808,27191.799999952316,27943.799999952316,28719.799999952316,29383.69999998808,29856.399999976158,30295.799999952316,30767.799999952316,31239.899999976158,31767.69999998808,35479.5,36879.799999952316,38399.59999996424,41735.5,43015.89999997616,43663.89999997616,44135.89999997616,44735.59999996424,45175.799999952316,45631.69999998808,46103.799999952316,46503.69999998808,46951.89999997616,47335.59999996424,47863.59999996424,48351.5,48727.5,49423.799999952316,50007.799999952316,50791.59999996424,51247.69999998808,51775.69999998808,52431.69999998808,56719.69999998808,57783.89999997616,58247.799999952316,59559.39999997616,60151.799999952316,60567.59999996424,61063.799999952316,61503.69999998808,61935.69999998808,62351.69999998808,62775.69999998808,63159.69999998808,63559.69999998808,64079.799999952316,64663.59999996424,65183.59999996424,65623.79999995232,66183.69999998808,66639.69999998808,67247.79999995232,67871.29999995232,69488],"honeypot":0,"survey":"mace","page":10,"trial_type":"survey-mace","trial_index":18,"time_elapsed":694701,"internal_node_id":"0.0-18.0","task_version":"prescreen-v0.3","browser_interactions":0,"instructed":0},{"rt":5108.800000011921,"trial_type":"mental-health-alert","trial_index":19,"time_elapsed":699812,"internal_node_id":"0.0-19.0","task_version":"prescreen-v0.3","interactions":"[]"}]