[{"view_history":[{"page_index":0,"viewing_time":3319},{"page_index":1,"viewing_time":3863},{"page_index":2,"viewing_time":954},{"page_index":3,"viewing_time":841}],"rt":8978,"trial_type":"instructions","trial_index":0,"time_elapsed":8999,"internal_node_id":"0.0-0.0","task_version":"prescreen-v0.3"},{"rt":17302.000000000004,"responses":{"age":"21","gender-categorical":"Female","gender-free-response":"","ethnicity":"Not Hispanic or Latino","race":["White"],"education":"Bachelor degree"},"trial_type":"survey-demo","trial_index":1,"time_elapsed":26311,"internal_node_id":"0.0-1.0","task_version":"prescreen-v0.3"},{"responses":{"Q13":"0","Q19":"1","Q11":"2","Q20":"0","Q04":"1","Q14":"1","Q07":"1","Q08":"2","Q03":"1","Q02":"1","Q06":"1","Q18":"0","Q01":"1","Q15":"1","Q09":"2","Q16":"0","Q12":"2","Q21":"3","Q05":"2","Q10":"1","Q17":"1"},"rt":129640.00000000003,"item_order":[12,18,10,19,3,13,6,7,2,1,5,17,0,14,8,15,11,20,4,9,16],"radio_events":[8039,21423,23847,28427,40189.000000000015,44350,50724,58305.000000000015,61447,65510,73996,76988,80734,85196,96288,99112,107067,112465,120954,124397,127514],"key_events":[],"mouse_events":[8039,21423,23847,28427,40189.000000000015,44350,50724,58305.000000000015,61447,65510,73996,76988,80734,85196,96288,99112,107067,112465,120954,124397,127514,129621],"straightlining":0.5238095238095238,"zigzagging":0.55,"honeypot":0,"survey":"sns","trial_type":"survey-template","trial_index":2,"time_elapsed":155955,"internal_node_id":"0.0-2.0","task_version":"prescreen-v0.3","browser_interactions":0,"infrequency":0},{"responses":{"Q06":"3","Q02":"1","Q08":"3","Q13":"0","Q11":"3","Q07":"3","Q05":"3","Q01":"1","Q10":"3","Q03":"2","Q12":"2","Q09":"2","Q04":"2"},"rt":92830.99999999997,"item_order":[5,1,7,12,10,6,4,0,9,2,11,8,3],"radio_events":[7685.999999999971,13553.99999999997,20238,23363,33756,36329.99999999997,40358.99999999997,46204.99999999997,52805.99999999997,72220,81682.99999999997,86277.99999999997,92076.99999999997],"key_events":[],"mouse_events":[7685.999999999971,13553.99999999997,20238,23363,33756,36329.99999999997,40358.99999999997,46204.99999999997,52805.99999999997,72220,81682.99999999997,86277.99999999997,92076.99999999997,92818.99999999997],"straightlining":0.46153846153846156,"zigzagging":0.25,"honeypot":0,"survey":"bisbas","trial_type":"survey-template","trial_index":3,"time_elapsed":248787,"internal_node_id":"0.0-3.0","task_version":"prescreen-v0.3","browser_interactions":0,"infrequency":0},{"responses":{"Q01":"3","Q02":"4","Q03":"3"},"rt":32242.99999999997,"radio_events":[10741,23089.99999999997,24406.99999999997,31087.99999999997],"key_events":[],"mouse_events":[10741,23089.99999999997,24406.99999999997,31087.99999999997,32228.99999999997],"survey":"map","page":1,"trial_type":"survey-map","trial_index":4,"time_elapsed":281036,"internal_node_id":"0.0-4.0","task_version":"prescreen-v0.3","browser_interactions":0},{"responses":{"Q04":"2","Q05":"3","Q06":"3"},"rt":23715.99999999994,"radio_events":[12464,19666.99999999994,22809.99999999994],"key_events":[],"mouse_events":[12464,19666.99999999994,22180.99999999994,22809.99999999994,23711.99999999994],"survey":"map","page":2,"trial_type":"survey-map","trial_index":5,"time_elapsed":304756,"internal_node_id":"0.0-5.0","task_version":"prescreen-v0.3","browser_interactions":0},{"responses":{"Q07":"4","Q08":"4","Q09":"3"},"rt":24198,"radio_events":[11269,17286,23572],"key_events":[],"mouse_events":[11269,17286,21833,22827,23572,24194],"survey":"map","page":3,"trial_type":"survey-map","trial_index":6,"time_elapsed":328958,"internal_node_id":"0.0-6.0","task_version":"prescreen-v0.3","browser_interactions":0},{"responses":{"Q10":"3","Q11":"2","Q12":"1","Q13":"2","Q16":"0","Q14":"3","Q15":"2"},"rt":59508,"radio_events":[7020,13372,17932,25886,31182,48456,58899],"key_events":[],"mouse_events":[7020,13372,17932,25886,31182,48456,58899,59500],"survey":"map","page":4,"trial_type":"survey-map","trial_index":7,"time_elapsed":388469,"internal_node_id":"0.0-7.0","task_version":"prescreen-v0.3","browser_interactions":0,"infrequency":0},{"view_history":[{"page_index":0,"viewing_time":3085},{"page_index":1,"viewing_time":2566}],"rt":5651,"trial_type":"instructions","trial_index":8,"time_elapsed":394122,"internal_node_id":"0.0-8.0","task_version":"prescreen-v0.3"},{"responses":{"01":"No","02":"Yes","02_ages_10":"10","02_ages_11":"11","02_ages_12":"12","02_ages_13":"13","02_ages_14":"14","02_ages_15":"15","02_ages_16":"16","02_ages_17":"17","03":"No","04":"No","05":"No","06":"No"},"rt":44871,"item_order":[0,1,2,3,4,5],"radio_events":[15228,18498,36595,37911,39933,44168],"checkbox_events":[25014,25818.00000000006,26941,28362,29191,29928,30608,31154],"key_events":[],"mouse_events":[0,15228,18498,25014,25818.00000000006,26941,28362,29191,29928,30608,31154,36595,37911,39933,44168,44858],"honeypot":0,"survey":"mace","page":1,"trial_type":"survey-mace","trial_index":9,"time_elapsed":439005,"internal_node_id":"0.0-9.0","task_version":"prescreen-v0.3","browser_interactions":0},{"responses":{"01":"No","02":"No","03":"No","04":"No","05":"No","06":"No","07":"No","08":"No"},"rt":19405,"item_order":[0,1,2,3,4,5,6,7],"radio_events":[4368,5306,7446,9498,12671,13288,17534,18278],"checkbox_events":[],"key_events":[],"mouse_events":[4368,5306,7446,9498,12671,13288,17534,18278,19392],"honeypot":0,"survey":"mace","page":2,"trial_type":"survey-mace","trial_index":10,"time_elapsed":458421,"internal_node_id":"0.0-10.0","task_version":"prescreen-v0.3","browser_interactions":0},{"responses":{"01":"No","02":"No","03":"No","04":"No"},"rt":11714,"item_order":[0,1,2,3],"radio_events":[2829,7441.000000000058,10449,11133],"checkbox_events":[],"key_events":[],"mouse_events":[2829,7441.000000000058,10449,11133,11706],"honeypot":0,"survey":"mace","page":3,"trial_type":"survey-mace","trial_index":11,"time_elapsed":470145,"internal_node_id":"0.0-11.0","task_version":"prescreen-v0.3","browser_interactions":0},{"responses":{"01":"No","02":"No"},"rt":12577,"item_order":[0,1],"radio_events":[10610,11633],"checkbox_events":[],"key_events":[],"mouse_events":[10610,11633,12572.000000000058],"honeypot":0,"survey":"mace","page":4,"trial_type":"survey-mace","trial_index":12,"time_elapsed":482728,"internal_node_id":"0.0-12.0","task_version":"prescreen-v0.3","browser_interactions":0},{"responses":{"01":"Yes","01_ages_14":"14","02":"Yes","02_ages_14":"14","03":"Yes","03_ages_14":"14","04":"No","05":"No"},"rt":49514.99999999994,"item_order":[0,1,2,3,4],"radio_events":[9311.999999999942,24685,35626.99999999994,44996.99999999994,47391.99999999994],"checkbox_events":[12787.999999999942,26490.99999999994,36746.99999999994],"key_events":[],"mouse_events":[9311.999999999942,12787.999999999942,24685,26490.99999999994,35626.99999999994,36746.99999999994,44996.99999999994,47391.99999999994,49498.99999999994],"honeypot":0,"survey":"mace","page":5,"trial_type":"survey-mace","trial_index":13,"time_elapsed":532248,"internal_node_id":"0.0-13.0","task_version":"prescreen-v0.3","browser_interactions":0},{"responses":{"01":"Yes","01_ages_8":"8","01_ages_9":"9","01_ages_10":"10","01_ages_11":"11","01_ages_12":"12","01_ages_13":"13","01_ages_14":"14","01_ages_15":"15","02":"Yes","02_ages_8":"8","02_ages_9":"9","02_ages_10":"10","02_ages_11":"11","02_ages_12":"12","02_ages_13":"13","02_ages_14":"14","02_ages_15":"15","03":"Yes","03_ages_8":"8","03_ages_9":"9","03_ages_10":"10","03_ages_11":"11","03_ages_12":"12","03_ages_13":"13","03_ages_14":"14","03_ages_15":"15","04":"Yes","04_ages_8":"8","04_ages_9":"9","04_ages_10":"10","04_ages_11":"11","04_ages_12":"12","04_ages_13":"13","04_ages_14":"14","04_ages_15":"15","04_ages_16":"16","04_ages_17":"17","04_ages_18":"18","05":"No"},"rt":51259,"item_order":[0,1,2,3,4],"radio_events":[7162,19177,27930,39054,50485],"checkbox_events":[11674,12104,12743.000000000116,13279,13863.000000000116,14432,17317,20041.000000000116,21250,21812,22485,23703,24168,24825,29151,29669,30287,31039,31693,32420,33807,34559,35400,36218,40826,41601,42219.00000000012,42821,43355,44486,45239,45812,46380,46931,47535],"key_events":[],"mouse_events":[7162,11674,12104,12743.000000000116,13279,13863.000000000116,14432,17317,19177,20041.000000000116,20675,21250,21812,22485,23054,23703,24168,24825,27930,29151,29669,30287,31039,31693,32420,33133,33807,34559,35400,36218,39054,40826,41601,42219.00000000012,42821,43355,43939,44486,45239,45812,46380,46931,47535,50485,51243.00000000012],"honeypot":0,"survey":"mace","page":6,"trial_type":"survey-mace","trial_index":14,"time_elapsed":583515,"internal_node_id":"0.0-14.0","task_version":"prescreen-v0.3","browser_interactions":0},{"responses":{"01":"No","02":"No","03":"No","04":"No","05":"No","06":"No","07":"No"},"rt":19004,"item_order":[0,1,2,3,4,5,6],"radio_events":[4988,6556,8728,10086,14808,16434,18438.000000000116],"checkbox_events":[],"key_events":[],"mouse_events":[4988,6556,8728,10086,14808,16434,17282,17908,18438.000000000116,18994],"honeypot":0,"survey":"mace","page":7,"trial_type":"survey-mace","trial_index":15,"time_elapsed":602530,"internal_node_id":"0.0-15.0","task_version":"prescreen-v0.3","browser_interactions":0},{"responses":{"01":"No","02":"Yes","02_ages_6":"6","02_ages_7":"7","02_ages_8":"8","02_ages_9":"9","02_ages_10":"10","02_ages_11":"11","02_ages_12":"12","02_ages_13":"13","02_ages_14":"14","03":"Yes","03_ages_6":"6","03_ages_7":"7","03_ages_8":"8","03_ages_9":"9","03_ages_10":"10","03_ages_11":"11","03_ages_12":"12","03_ages_13":"13","03_ages_14":"14","04":"No"},"rt":83960,"item_order":[0,1,2,3],"radio_events":[54403,58596,71653,83064],"checkbox_events":[61738,62456,63096,64277,65180,66355,66991,67508,68459,72747,73304.00000000012,74357.00000000012,75036,76012,76730,77482.00000000012,78051,78730],"key_events":[],"mouse_events":[54403,58596,61738,62456,63096,63788,64277,65180,65669,66355,66991,67508,68459,71653,72747,73304.00000000012,74357.00000000012,75036,76012,76730,77482.00000000012,78051,78730,83064,83951],"honeypot":0,"survey":"mace","page":8,"trial_type":"survey-mace","trial_index":16,"time_elapsed":686496,"internal_node_id":"0.0-16.0","task_version":"prescreen-v0.3","browser_interactions":0},{"responses":{"01":"Yes","01_ages_1":"1","01_ages_2":"2","01_ages_3":"3","01_ages_4":"4","01_ages_5":"5","01_ages_6":"6","01_ages_7":"7","01_ages_8":"8","01_ages_9":"9","01_ages_10":"10","01_ages_11":"11","01_ages_12":"12","01_ages_13":"13","01_ages_14":"14","01_ages_15":"15","01_ages_16":"16","01_ages_17":"17","01_ages_18":"18","02":"Yes","02_ages_1":"1","02_ages_2":"2","02_ages_3":"3","02_ages_4":"4","02_ages_5":"5","02_ages_6":"6","02_ages_7":"7","02_ages_8":"8","02_ages_9":"9","02_ages_10":"10","02_ages_11":"11","02_ages_12":"12","02_ages_13":"13","02_ages_14":"14","02_ages_15":"15","02_ages_16":"16","02_ages_17":"17","02_ages_18":"18","03":"Yes","03_ages_1":"1","03_ages_2":"2","03_ages_3":"3","03_ages_4":"4","03_ages_5":"5","03_ages_6":"6","03_ages_7":"7","03_ages_8":"8","03_ages_9":"9","03_ages_10":"10","03_ages_11":"11","03_ages_12":"12","03_ages_13":"13","03_ages_14":"14","03_ages_15":"15","03_ages_16":"16","03_ages_17":"17","03_ages_18":"18","04":"Yes","04_ages_1":"1","04_ages_2":"2","04_ages_3":"3","04_ages_4":"4","04_ages_5":"5","04_ages_6":"6","04_ages_7":"7","04_ages_8":"8","04_ages_9":"9","04_ages_10":"10","04_ages_11":"11","04_ages_12":"12","04_ages_13":"13","04_ages_14":"14","04_ages_15":"15","04_ages_16":"16","04_ages_17":"17","04_ages_18":"18"},"rt":75651,"item_order":[0,1,2,3],"radio_events":[11396,27539,30111,37848],"checkbox_events":[12644,13070,13469,13904,14872,15738,16360,17140,17624,18328,18767,19370,19936.000000000116,20399,20905,21518,22053,22777,39137,39722,40226,40859.00000000012,41660,42054,42544,43080.00000000012,43514,44050,44637,45237,45638.00000000012,46106,47070,48713,49163,49568,50562,51314,51849,52289,53187,53625,54810,55195,55733,56148,57068,57635,58086,58587,59072,59573,60213,60593,62715.00000000012,63283,64065,64481,65140,65582,66725,67210.00000000012,68079,69148,69828,70319,71289,72040,73444,73828,74346,74881],"key_events":[],"mouse_events":[11396,12644,13070,13469,13904,14872,15292,15738,16360,17140,17624,18328,18767,19370,19936.000000000116,20399,20905,21518,22053,22777,27539,28701,30111,37848,39137,39722,40226,40859.00000000012,41660,42054,42544,43080.00000000012,43514,44050,44637,45237,45638.00000000012,46106,47070,47443,48713,49163,49568,50151,50562,51314,51849,52289,53187,53625,54810,55195,55733,56148,56649,57068,57635,58086,58587,59072,59573,60213,60593,62715.00000000012,63283,63667,64065,64481,65140,65582,66235,66725,67210.00000000012,67678,68079,68430,69148,69828,70319,70920,71289,72040,72809,73444,73828,74346,74881,75641],"honeypot":0,"survey":"mace","page":9,"trial_type":"survey-mace","trial_index":17,"time_elapsed":762153,"internal_node_id":"0.0-17.0","task_version":"prescreen-v0.3","browser_interactions":0},{"responses":{"01":"No","02":"No","03":"No","04":"No","05":"No","06":"Yes","06_ages_17":"17","07":"Yes","07_ages_1":"1","07_ages_2":"2","07_ages_3":"3","07_ages_4":"4","07_ages_5":"5","07_ages_6":"6","07_ages_7":"7","07_ages_8":"8","07_ages_9":"9","07_ages_10":"10","07_ages_11":"11","07_ages_12":"12","07_ages_13":"13","07_ages_14":"14","07_ages_15":"15","07_ages_16":"16","07_ages_17":"17","07_ages_18":"18","08":"Yes","08_ages_1":"1","08_ages_2":"2","08_ages_3":"3","08_ages_4":"4","08_ages_5":"5","08_ages_6":"6","08_ages_7":"7","08_ages_8":"8","08_ages_9":"9","08_ages_10":"10","08_ages_11":"11","08_ages_12":"12","08_ages_13":"13","08_ages_14":"14","08_ages_15":"15","08_ages_16":"16","08_ages_17":"17","08_ages_18":"18"},"rt":54884,"item_order":[0,1,2,3,4,5,6,7],"radio_events":[4784,5637,10279,11937,15005,17685,24763.000000000116,41296],"checkbox_events":[19405,27325,28279,28780,29632,30537,30986,31915,32457,32902,33495,33961,34412,35052.00000000012,36049,36584,37003,37788,38417.00000000012,42478,43462,43906,44384,44840.00000000012,45257,45775,46646,47246,47680,48149,49018.00000000012,49986,50371,51206,52576.00000000012,53128,53865],"key_events":[],"mouse_events":[4784,5637,10279,11937,15005,17685,19405,24285,24763.000000000116,27325,27877,28279,28780,29282,29632,30167.000000000116,30537,30986,31915,32457,32902,33495,33961,34412,35052.00000000012,35448,36049,36584,37003,37788,38417.00000000012,41296,42478,43017,43462,43906,44384,44840.00000000012,45257,45775,46277,46646,47246,47680,48149,48582,49018.00000000012,49986,50371,50957,51206,51826.00000000012,52576.00000000012,53128,53865,54868],"honeypot":0,"survey":"mace","page":10,"trial_type":"survey-mace","trial_index":18,"time_elapsed":817047,"internal_node_id":"0.0-18.0","task_version":"prescreen-v0.3","browser_interactions":0,"instructed":0},{"rt":2702,"trial_type":"mental-health-alert","trial_index":19,"time_elapsed":819755,"internal_node_id":"0.0-19.0","task_version":"prescreen-v0.3","interactions":"[]"}]