[{"view_history":[{"page_index":0,"viewing_time":2126},{"page_index":1,"viewing_time":1875},{"page_index":2,"viewing_time":1601},{"page_index":3,"viewing_time":1031}],"rt":6634,"trial_type":"instructions","trial_index":0,"time_elapsed":6638,"internal_node_id":"0.0-0.0","task_version":"prescreen-v0.3"},{"rt":11120.000000000004,"responses":{"age":"18","gender-categorical":"Female","gender-free-response":"","ethnicity":"Not Hispanic or Latino","race":["Asian"],"education":"High school"},"trial_type":"survey-demo","trial_index":1,"time_elapsed":17770,"internal_node_id":"0.0-1.0","task_version":"prescreen-v0.3"},{"responses":{"Q18":"1","Q20":"0","Q03":"0","Q09":"0","Q19":"1","Q11":"1","Q02":"1","Q15":"3","Q01":"1","Q08":"2","Q10":"1","Q07":"0","Q21":"3","Q17":"1","Q06":"0","Q04":"2","Q14":"2","Q05":"0","Q13":"2","Q16":"2","Q12":"2"},"rt":70264,"item_order":[17,19,2,8,18,10,1,14,0,7,9,6,20,16,5,3,13,4,12,15,11],"radio_events":[6536.000000000004,9054,9979,12134,17598,21337,24433.000000000007,28756,31344,33552.00000000001,36160,39200,42482.00000000001,45890.00000000001,49440,52953.000000000015,57164,60381,63545,65896,69442],"key_events":[],"mouse_events":[6536.000000000004,7939,9054,9979,12134,17598,21337,24433.000000000007,28756,31344,33552.00000000001,36160,39200,42482.00000000001,45890.00000000001,49440,52953.000000000015,57164,60381,63545,65896,68713,69442,70252],"straightlining":0.3333333333333333,"zigzagging":0.35,"honeypot":0,"survey":"sns","trial_type":"survey-template","trial_index":2,"time_elapsed":88040,"internal_node_id":"0.0-2.0","task_version":"prescreen-v0.3","browser_interactions":0,"infrequency":0},{"responses":{"Q05":"3","Q10":"3","Q13":"0","Q08":"2","Q03":"2","Q04":"3","Q09":"3","Q01":"3","Q06":"3","Q02":"3","Q12":"2","Q11":"2","Q07":"3"},"rt":35240,"item_order":[4,9,12,7,2,3,8,0,5,1,11,10,6],"radio_events":[9997,10654,11592,13989,16748,19184,22089,23418,26811,27556,30517,32544,34447.000000000015],"key_events":[],"mouse_events":[9997,10654,11592,13989,16748,19184,22089,23418,25322.000000000015,25882,26811,27556,30517,32544,34447.000000000015,35232],"straightlining":0.6153846153846154,"zigzagging":0.3333333333333333,"honeypot":0,"survey":"bisbas","trial_type":"survey-template","trial_index":3,"time_elapsed":123285,"internal_node_id":"0.0-3.0","task_version":"prescreen-v0.3","browser_interactions":0,"infrequency":0},{"responses":{"Q01":"4","Q02":"3","Q03":"4"},"rt":21230,"radio_events":[11264,13479,14834,19671],"key_events":[],"mouse_events":[11264,13479,14834,19671,21226],"survey":"map","page":1,"trial_type":"survey-map","trial_index":4,"time_elapsed":144520,"internal_node_id":"0.0-4.0","task_version":"prescreen-v0.3","browser_interactions":0},{"responses":{"Q04":"2","Q05":"3","Q06":"3"},"rt":12666.00000000003,"radio_events":[4644,8781,10628,12032],"key_events":[],"mouse_events":[4644,8781,9959,10628,12032,12663],"survey":"map","page":2,"trial_type":"survey-map","trial_index":5,"time_elapsed":157190,"internal_node_id":"0.0-5.0","task_version":"prescreen-v0.3","browser_interactions":0},{"responses":{"Q07":"4","Q08":"0","Q09":"3"},"rt":12421,"radio_events":[5192,9090,11633],"key_events":[],"mouse_events":[5192,9090,11633,12418.00000000003],"survey":"map","page":3,"trial_type":"survey-map","trial_index":6,"time_elapsed":169615,"internal_node_id":"0.0-6.0","task_version":"prescreen-v0.3","browser_interactions":0},{"responses":{"Q10":"1","Q11":"4","Q12":"2","Q13":"2","Q16":"0","Q14":"3","Q15":"3"},"rt":42731,"radio_events":[6650,8645,13312,22534,28654,31442,36053,41766.00000000003],"key_events":[],"mouse_events":[6650,8645,13312,22534,28654,31442,36053,41766.00000000003,42727],"survey":"map","page":4,"trial_type":"survey-map","trial_index":7,"time_elapsed":212353,"internal_node_id":"0.0-7.0","task_version":"prescreen-v0.3","browser_interactions":0,"infrequency":0},{"view_history":[{"page_index":0,"viewing_time":1925.999999999971},{"page_index":1,"viewing_time":2609}],"rt":4534.999999999971,"trial_type":"instructions","trial_index":8,"time_elapsed":216891,"internal_node_id":"0.0-8.0","task_version":"prescreen-v0.3"},{"responses":{"01":"Yes","01_ages_9":"9","01_ages_10":"10","01_ages_11":"11","01_ages_12":"12","01_ages_13":"13","01_ages_14":"14","01_ages_15":"15","01_ages_16":"16","01_ages_17":"17","01_ages_18":"18","02":"Yes","02_ages_10":"10","02_ages_11":"11","02_ages_12":"12","02_ages_13":"13","02_ages_14":"14","02_ages_15":"15","02_ages_16":"16","02_ages_17":"17","02_ages_18":"18","03":"Yes","03_ages_6":"6","03_ages_7":"7","03_ages_8":"8","03_ages_9":"9","03_ages_10":"10","03_ages_11":"11","03_ages_12":"12","03_ages_13":"13","03_ages_14":"14","03_ages_15":"15","04":"No","05":"No","06":"Yes","06_ages_6":"6","06_ages_7":"7","06_ages_8":"8","06_ages_9":"9","06_ages_10":"10","06_ages_11":"11","06_ages_12":"12","06_ages_13":"13","06_ages_14":"14"},"rt":72281,"item_order":[0,1,2,3,4,5],"radio_events":[11236,12096,31370,39647,57237,58715,60533],"checkbox_events":[19566,20402,21115,21860.00000000003,22606,23142,24188,24869,25566,26215,27208,28109,32480,33337,34235.00000000003,35565,36150,36795,37564,38237.00000000003,38758,43169,44298,45079,45784,46369.00000000006,46986,47563,48228,48913,50396,63358,64535.00000000006,65216,66081,66650,67147,67615,68152,70684.00000000006],"key_events":[],"mouse_events":[0,11236,12096,18332,18901.00000000003,19566,20402,21115,21860.00000000003,22606,23142,24188,24869,25566,26215,27208,28109,31370,32480,33337,34235.00000000003,35565,36150,36795,37564,38237.00000000003,38758,39647,43169,44298,45079,45784,46369.00000000006,46986,47563,48228,48913,50396,57237,58715,60533,63358,64535.00000000006,65216,66081,66650,67147,67615,68152,70684.00000000006,72267],"honeypot":0,"survey":"mace","page":1,"trial_type":"survey-mace","trial_index":9,"time_elapsed":289184,"internal_node_id":"0.0-9.0","task_version":"prescreen-v0.3","browser_interactions":0},{"responses":{"01":"No","02":"No","03":"Yes","03_ages_6":"6","03_ages_7":"7","03_ages_8":"8","03_ages_9":"9","03_ages_10":"10","03_ages_11":"11","04":"No","05":"Yes","05_ages_5":"5","05_ages_6":"6","05_ages_7":"7","05_ages_8":"8","05_ages_9":"9","05_ages_10":"10","06":"No","07":"No","08":"No"},"rt":30284,"item_order":[0,1,2,3,4,5,6,7],"radio_events":[6814,7779,8740,17714,19653,26903,28072,29413],"checkbox_events":[10599,11797,12550,13247,14080,16240,21844,22499,23270,24126.00000000006,24651,25164],"key_events":[],"mouse_events":[6814,7779,8740,10599,11797,12550,13247,14080,16240,17714,19653,21844,22499,23270,24126.00000000006,24651,25164,26903,28072,29413,30272],"honeypot":0,"survey":"mace","page":2,"trial_type":"survey-mace","trial_index":10,"time_elapsed":319506,"internal_node_id":"0.0-10.0","task_version":"prescreen-v0.3","browser_interactions":0},{"responses":{"01":"Yes","01_ages_9":"9","02":"Yes","02_ages_9":"9","03":"No","04":"No"},"rt":21554,"item_order":[0,1,2,3],"radio_events":[6581,15629,20163.00000000006,20949.00000000006],"checkbox_events":[13322,16574.00000000006],"key_events":[],"mouse_events":[6581,13322,15629,16574.00000000006,20163.00000000006,20949.00000000006,21545],"honeypot":0,"survey":"mace","page":3,"trial_type":"survey-mace","trial_index":11,"time_elapsed":341078,"internal_node_id":"0.0-11.0","task_version":"prescreen-v0.3","browser_interactions":0},{"responses":{"01":"No","02":"No"},"rt":10644,"item_order":[0,1],"radio_events":[8581,9374],"checkbox_events":[],"key_events":[],"mouse_events":[7382,8581,9374,10640],"honeypot":0,"survey":"mace","page":4,"trial_type":"survey-mace","trial_index":12,"time_elapsed":351731,"internal_node_id":"0.0-12.0","task_version":"prescreen-v0.3","browser_interactions":0},{"responses":{"01":"Yes","01_ages_13":"13","02":"No","03":"No","04":"No","05":"No"},"rt":23330,"item_order":[0,1,2,3,4],"radio_events":[3862,15521,17542,20485,22568],"checkbox_events":[7166],"key_events":[],"mouse_events":[3862,7166,15521,17542,20485,22144,22568,23322],"honeypot":0,"survey":"mace","page":5,"trial_type":"survey-mace","trial_index":13,"time_elapsed":375072,"internal_node_id":"0.0-13.0","task_version":"prescreen-v0.3","browser_interactions":0},{"responses":{"01":"No","02":"No","03":"Yes","03_ages_15":"15","03_ages_16":"16","04":"Yes","04_ages_9":"9","04_ages_16":"16","04_ages_17":"17","04_ages_18":"18","05":"No"},"rt":33895,"item_order":[0,1,2,3,4],"radio_events":[4401,11972,13915,22695.00000000006,32957.00000000006],"checkbox_events":[19639,21218,24713,28370,29020,29604],"key_events":[],"mouse_events":[4401,11972,13915,19639,21218,22695.00000000006,24713,28370,29020,29604,32957.00000000006,33886],"honeypot":0,"survey":"mace","page":6,"trial_type":"survey-mace","trial_index":14,"time_elapsed":408977,"internal_node_id":"0.0-14.0","task_version":"prescreen-v0.3","browser_interactions":0},{"responses":{"01":"No","02":"No","03":"No","04":"No","05":"No","06":"Yes","06_ages_18":"18","07":"No"},"rt":20799.99999999994,"item_order":[0,1,2,3,4,5,6],"radio_events":[3327.999999999942,5383.999999999942,7593.999999999942,8226.999999999942,9007.999999999942,10409.999999999942,16861.99999999994,19004.99999999994],"checkbox_events":[17854.99999999994],"key_events":[],"mouse_events":[3327.999999999942,5383.999999999942,7017.999999999942,7593.999999999942,8226.999999999942,9007.999999999942,10409.999999999942,16861.99999999994,17854.99999999994,18500.99999999994,19004.99999999994,20790.99999999994],"honeypot":0,"survey":"mace","page":7,"trial_type":"survey-mace","trial_index":15,"time_elapsed":429785,"internal_node_id":"0.0-15.0","task_version":"prescreen-v0.3","browser_interactions":0},{"responses":{"01":"No","02":"No","03":"No","04":"No"},"rt":14888,"item_order":[0,1,2,3],"radio_events":[5027,8547,12669,14211],"checkbox_events":[],"key_events":[],"mouse_events":[5027,8547,12669,13246,13690,14211,14884],"honeypot":0,"survey":"mace","page":8,"trial_type":"survey-mace","trial_index":16,"time_elapsed":444679,"internal_node_id":"0.0-16.0","task_version":"prescreen-v0.3","browser_interactions":0},{"responses":{"01":"Yes","01_ages_1":"1","01_ages_2":"2","01_ages_3":"3","01_ages_4":"4","01_ages_5":"5","01_ages_6":"6","01_ages_7":"7","01_ages_8":"8","01_ages_9":"9","01_ages_10":"10","01_ages_11":"11","01_ages_12":"12","01_ages_13":"13","01_ages_14":"14","01_ages_15":"15","01_ages_16":"16","01_ages_17":"17","01_ages_18":"18","02":"Yes","02_ages_1":"1","02_ages_2":"2","02_ages_3":"3","02_ages_4":"4","02_ages_5":"5","02_ages_6":"6","02_ages_7":"7","02_ages_8":"8","02_ages_9":"9","02_ages_10":"10","02_ages_11":"11","02_ages_12":"12","02_ages_13":"13","02_ages_14":"14","02_ages_15":"15","02_ages_16":"16","02_ages_17":"17","02_ages_18":"18","03":"Yes","03_ages_1":"1","03_ages_2":"2","03_ages_3":"3","03_ages_4":"4","03_ages_5":"5","03_ages_6":"6","03_ages_7":"7","03_ages_8":"8","03_ages_9":"9","03_ages_10":"10","03_ages_11":"11","03_ages_12":"12","03_ages_13":"13","03_ages_14":"14","03_ages_15":"15","03_ages_16":"16","03_ages_17":"17","03_ages_18":"18","04":"Yes","04_ages_1":"1","04_ages_2":"2","04_ages_3":"3","04_ages_4":"4","04_ages_5":"5","04_ages_6":"6","04_ages_7":"7","04_ages_8":"8","04_ages_9":"9","04_ages_10":"10","04_ages_11":"11","04_ages_12":"12","04_ages_13":"13","04_ages_14":"14","04_ages_15":"15","04_ages_16":"16","04_ages_17":"17","04_ages_18":"18"},"rt":62089,"item_order":[0,1,2,3],"radio_events":[3524,19459,32825,35485],"checkbox_events":[6917.000000000058,7357.000000000058,7806,8808,9320,10250,10826,11295,11752,12561,13522,14339,14780.000000000058,15249,15906,16787,17276,17740,20372,21365,22038,22968,23909,24797.00000000006,25367,26432,26961,27474,28023,28527,29289,29777,30250,30754,31203.00000000006,31664,38085,38645,39317,40252,40870,42030.00000000006,42550,42983,43439,43908,45366,46015,46832,47714,48695,49216,49688,50129,50850,51404,51920,52681,53154,53610,54036,55012,55501.00000000006,56314,56771,57508,58565,59038,59488,59943,60469,60973],"key_events":[],"mouse_events":[3524,6917.000000000058,7357.000000000058,7806,8254,8808,9320,10250,10826,11295,11752,12561,13522,14339,14780.000000000058,15249,15906,16378,16787,17276,17740,19459,20372,20836,21365,22038,22968,23476,23909,24414,24797.00000000006,25367,26432,26961,27474,28023,28527,29289,29777,30250,30754,31203.00000000006,31664,32825,35485,38085,38645,39317,39787,40252,40870,42030.00000000006,42550,42983,43439,43908,45366,46015,46832,47313,47714,48198,48695,49216,49688,50129,50850,51404,51920,52681,53154,53610,54036,54500,55012,55501.00000000006,56314,56771,57508,58109,58565,59038,59488,59943,60469,60973,62080],"honeypot":0,"survey":"mace","page":9,"trial_type":"survey-mace","trial_index":17,"time_elapsed":506778,"internal_node_id":"0.0-17.0","task_version":"prescreen-v0.3","browser_interactions":0},{"responses":{"01":"No","02":"No","03":"No","04":"Yes","04_ages_18":"18","05":"Yes","05_ages_1":"1","05_ages_2":"2","05_ages_3":"3","05_ages_4":"4","05_ages_5":"5","05_ages_6":"6","05_ages_7":"7","05_ages_8":"8","05_ages_9":"9","05_ages_10":"10","05_ages_11":"11","05_ages_12":"12","05_ages_13":"13","05_ages_14":"14","05_ages_15":"15","05_ages_16":"16","05_ages_17":"17","05_ages_18":"18","06":"Yes","06_ages_17":"17","07":"Yes","07_ages_1":"1","07_ages_2":"2","07_ages_3":"3","07_ages_4":"4","07_ages_5":"5","07_ages_6":"6","07_ages_7":"7","07_ages_8":"8","07_ages_9":"9","07_ages_10":"10","07_ages_11":"11","07_ages_12":"12","07_ages_13":"13","07_ages_14":"14","07_ages_15":"15","07_ages_16":"16","07_ages_17":"17","07_ages_18":"18","08":"Yes","08_ages_1":"1","08_ages_2":"2","08_ages_3":"3","08_ages_4":"4","08_ages_5":"5","08_ages_6":"6","08_ages_7":"7","08_ages_8":"8","08_ages_9":"9","08_ages_10":"10","08_ages_11":"11","08_ages_12":"12","08_ages_14":"14","08_ages_15":"15","08_ages_16":"16","08_ages_17":"17","08_ages_18":"18"},"rt":59912,"item_order":[0,1,2,3,4,5,6,7],"radio_events":[2994.000000000058,3793,5387,10835,13960,29054,31895,33546],"checkbox_events":[11837.000000000058,16270,16823,17320,19078,19663,20769,21275,21763,22180,22677,23088,23538,24002,24460,24909,25341,26390,26944,30417,34972,35761,36370,37508,38397,38902,40124,40701,41518,42103,42688,43453,44006,44471.00000000012,44951,45664,46105,46754,47940,48849,50652,51269,52803.00000000012,53404.00000000012,53869,54357,54879,55463,55904.00000000012,56373,56829,57278,57983,58479,58984],"key_events":[],"mouse_events":[2994.000000000058,3793,5387,10835,11837.000000000058,13960,16270,16823,17320,18177,19078,19663,20280,20769,21275,21763,22180,22677,23088,23538,24002,24460,24909,25341,25789,26390,26944,29054,30417,31895,33546,34972,35761,36370,37099,37508,38397,38902,39668,40124,40701,41518,42103,42688,43453,44006,44471.00000000012,44951,45664,46105,46754,47940,48449,48849,49867,50652,51269,52387,52803.00000000012,53404.00000000012,53869,54357,54879,55463,55904.00000000012,56373,56829,57278,57983,58479,58984,59898],"honeypot":0,"survey":"mace","page":10,"trial_type":"survey-mace","trial_index":18,"time_elapsed":566699,"internal_node_id":"0.0-18.0","task_version":"prescreen-v0.3","browser_interactions":0,"instructed":0},{"rt":9238,"trial_type":"mental-health-alert","trial_index":19,"time_elapsed":575940,"internal_node_id":"0.0-19.0","task_version":"prescreen-v0.3","interactions":"[]"}]