[{"view_history":[{"page_index":0,"viewing_time":1816.0999999642372},{"page_index":1,"viewing_time":1760.199999988079},{"page_index":2,"viewing_time":2357},{"page_index":3,"viewing_time":962.8000000119209}],"rt":6897.299999952316,"trial_type":"instructions","trial_index":0,"time_elapsed":6913,"internal_node_id":"0.0-0.0","task_version":"prescreen-v0.3"},{"rt":12054.300000011921,"responses":{"age":"25","gender-categorical":"Female","gender-free-response":"","ethnicity":"Not Hispanic or Latino","race":["Asian"],"education":"Bachelor degree"},"trial_type":"survey-demo","trial_index":1,"time_elapsed":18974,"internal_node_id":"0.0-1.0","task_version":"prescreen-v0.3"},{"responses":{"Q05":"2","Q11":"1","Q02":"1","Q01":"1","Q04":"2","Q16":"2","Q13":"2","Q17":"1","Q20":"1","Q18":"1","Q21":"3","Q09":"2","Q07":"1","Q14":"2","Q06":"1","Q12":"2","Q15":"2","Q08":"2","Q10":"1","Q03":"2","Q19":"1"},"rt":88214.39999997616,"item_order":[4,10,1,0,3,15,12,16,19,17,20,8,6,13,5,11,14,7,9,2,18],"radio_events":[11789.300000011921,13017,15467,18816.899999976158,21600.899999976158,25158.599999964237,27381.30000001192,31031.69999998808,35905.30000001192,37572.80000001192,49774.89999997616,53379.39999997616,55708.89999997616,63162.80000001192,66434.80000001192,69974.69999998808,73814.80000001192,77402.69999998808,79433,82892.39999997616,84560.80000001192,87622.59999996424],"key_events":[],"mouse_events":[11789.300000011921,13017,15467,18378.69999998808,18816.899999976158,21275.099999964237,21600.899999976158,25158.599999964237,27381.30000001192,31031.69999998808,35421,35905.30000001192,37572.80000001192,49774.89999997616,53379.39999997616,55708.89999997616,63162.80000001192,66434.80000001192,69974.69999998808,73814.80000001192,77402.69999998808,79433,82892.39999997616,84560.80000001192,87622.59999996424,88211],"straightlining":0.47619047619047616,"zigzagging":0.55,"honeypot":0,"survey":"sns","trial_type":"survey-template","trial_index":2,"time_elapsed":107194,"internal_node_id":"0.0-2.0","task_version":"prescreen-v0.3","browser_interactions":0,"infrequency":0},{"responses":{"Q06":"2","Q13":"0","Q08":"3","Q11":"2","Q12":"2","Q07":"3","Q04":"3","Q10":"2","Q01":"3","Q05":"3","Q09":"2","Q02":"3","Q03":"3"},"rt":45383.60000002384,"item_order":[5,12,7,10,11,6,3,9,0,4,8,1,2],"radio_events":[7745.300000011921,10505.600000023842,16909.80000001192,21051.600000023842,23619.5,26117.400000035763,26737.900000035763,29287.100000023842,31817.400000035763,34765.69999998808,37319.30000001192,40301.40000003576,42517.40000003576,44611.30000001192],"key_events":[],"mouse_events":[7303.400000035763,7745.300000011921,10505.600000023842,16909.80000001192,20437.5,21051.600000023842,23619.5,26117.400000035763,26737.900000035763,29287.100000023842,31817.400000035763,34765.69999998808,36353.80000001192,36969,37319.30000001192,39963.40000003576,40301.40000003576,42100.69999998808,42517.40000003576,44611.30000001192,45381.30000001192],"straightlining":0.5384615384615384,"zigzagging":0.5833333333333334,"honeypot":0,"survey":"bisbas","trial_type":"survey-template","trial_index":3,"time_elapsed":152582,"internal_node_id":"0.0-3.0","task_version":"prescreen-v0.3","browser_interactions":0,"infrequency":0},{"responses":{"Q01":"2","Q02":"2","Q03":"2"},"rt":17012.899999976158,"radio_events":[6687.899999976158,9318,12543.899999976158,16133.699999988079],"key_events":[],"mouse_events":[6687.899999976158,9318,12543.899999976158,16133.699999988079,17011.899999976158],"survey":"map","page":1,"trial_type":"survey-map","trial_index":4,"time_elapsed":169598,"internal_node_id":"0.0-4.0","task_version":"prescreen-v0.3","browser_interactions":0},{"responses":{"Q04":"3","Q05":"3","Q06":"3"},"rt":8098.400000035763,"radio_events":[3141.199999988079,5543.199999988079,7661.600000023842],"key_events":[],"mouse_events":[3141.199999988079,5543.199999988079,7661.600000023842,8097.5],"survey":"map","page":2,"trial_type":"survey-map","trial_index":5,"time_elapsed":177700,"internal_node_id":"0.0-5.0","task_version":"prescreen-v0.3","browser_interactions":0},{"responses":{"Q07":"4","Q08":"4","Q09":"3"},"rt":11952.5,"radio_events":[3718,6936.100000023842,9300.400000035763,11372.400000035763],"key_events":[],"mouse_events":[3718,6936.100000023842,9300.400000035763,10630,11372.400000035763,11951.700000047684],"survey":"map","page":3,"trial_type":"survey-map","trial_index":6,"time_elapsed":189655,"internal_node_id":"0.0-6.0","task_version":"prescreen-v0.3","browser_interactions":0},{"responses":{"Q10":"1","Q11":"2","Q12":"3","Q13":"3","Q16":"0","Q14":"2","Q15":"2"},"rt":30209.899999976158,"radio_events":[4228.399999976158,7076.399999976158,8415,12466.300000011921,17727.19999998808,20930.80000001192,26638.399999976158,29676.399999976158],"key_events":[],"mouse_events":[4228.399999976158,7076.399999976158,8415,12466.300000011921,17727.19999998808,20930.80000001192,26638.399999976158,28830.19999998808,29676.399999976158,30208.399999976158],"survey":"map","page":4,"trial_type":"survey-map","trial_index":7,"time_elapsed":219869,"internal_node_id":"0.0-7.0","task_version":"prescreen-v0.3","browser_interactions":0,"infrequency":0},{"view_history":[{"page_index":0,"viewing_time":1485.2999999523163},{"page_index":1,"viewing_time":3753.800000011921}],"rt":5240.5,"trial_type":"instructions","trial_index":8,"time_elapsed":225112,"internal_node_id":"0.0-8.0","task_version":"prescreen-v0.3"},{"responses":{"01":"Yes","01_ages_5":"5","01_ages_6":"6","01_ages_7":"7","01_ages_8":"8","01_ages_9":"9","01_ages_10":"10","01_ages_11":"11","01_ages_12":"12","01_ages_13":"13","01_ages_14":"14","01_ages_15":"15","01_ages_16":"16","01_ages_17":"17","01_ages_18":"18","02":"Yes","02_ages_4":"4","02_ages_5":"5","02_ages_6":"6","02_ages_7":"7","02_ages_8":"8","02_ages_9":"9","02_ages_10":"10","02_ages_11":"11","02_ages_12":"12","02_ages_13":"13","02_ages_14":"14","02_ages_15":"15","02_ages_16":"16","02_ages_17":"17","02_ages_18":"18","03":"Yes","03_ages_5":"5","03_ages_6":"6","03_ages_7":"7","03_ages_8":"8","03_ages_9":"9","03_ages_10":"10","03_ages_11":"11","03_ages_12":"12","03_ages_13":"13","03_ages_14":"14","04":"No","05":"No","06":"Yes","06_ages_5":"5","06_ages_6":"6","06_ages_7":"7","06_ages_8":"8","06_ages_9":"9","06_ages_10":"10","06_ages_11":"11","06_ages_12":"12","06_ages_13":"13","06_ages_14":"14"},"rt":63368.19999998808,"item_order":[0,1,2,3,4,5],"radio_events":[6445.899999976158,28330.899999976158,40513,50035.59999996424,52223,55259.19999998808],"checkbox_events":[10237.699999988079,10663.099999964237,11030.899999976158,11381.300000011921,11695.099999964237,12149.300000011921,12481.199999988079,12867.199999988079,13359.300000011921,13717,14261.300000011921,14751.199999988079,15079.199999988079,15787.399999976158,16179,22229.099999964237,30250,30631,32235,32661.5,33009.09999996424,33475,33831,34185.19999998808,34535,34917.19999998808,35273.19999998808,35719.09999996424,36139.09999996424,36875.19999998808,37359,42099.69999998808,43003.09999996424,43563.09999996424,43949.09999996424,44327.30000001192,44743,45168.69999998808,45521,45847.30000001192,47055.30000001192,56770.89999997616,57402.80000001192,59110.89999997616,59691.30000001192,60123,60536.59999996424,60938.89999997616,61795,62176.89999997616,62578.80000001192],"key_events":[],"mouse_events":[0,6445.899999976158,10237.699999988079,10663.099999964237,11030.899999976158,11381.300000011921,11695.099999964237,12149.300000011921,12481.199999988079,12867.199999988079,13359.300000011921,13717,14261.300000011921,14751.199999988079,15079.199999988079,15787.399999976158,16179,22229.099999964237,28330.899999976158,30250,30631,31091.19999998808,31481.69999998808,31953,32235,32661.5,33009.09999996424,33475,33831,34185.19999998808,34535,34917.19999998808,35273.19999998808,35719.09999996424,36139.09999996424,36553.09999996424,36875.19999998808,37359,39606.89999997616,39916.89999997616,40513,42099.69999998808,43003.09999996424,43563.09999996424,43949.09999996424,44327.30000001192,44743,45168.69999998808,45521,45847.30000001192,47055.30000001192,49717,50035.59999996424,52223,55259.19999998808,56770.89999997616,57402.80000001192,59110.89999997616,59691.30000001192,60123,60536.59999996424,60938.89999997616,61382.89999997616,61795,62176.89999997616,62578.80000001192,63365.59999996424],"honeypot":0,"survey":"mace","page":1,"trial_type":"survey-mace","trial_index":9,"time_elapsed":288487,"internal_node_id":"0.0-9.0","task_version":"prescreen-v0.3","browser_interactions":0},{"responses":{"01":"Yes","01_ages_8":"8","01_ages_9":"9","01_ages_10":"10","01_ages_11":"11","01_ages_12":"12","01_ages_13":"13","02":"No","03":"Yes","03_ages_5":"5","03_ages_6":"6","03_ages_7":"7","03_ages_8":"8","03_ages_9":"9","03_ages_10":"10","03_ages_11":"11","03_ages_12":"12","03_ages_13":"13","03_ages_14":"14","04":"No","05":"Yes","05_ages_5":"5","05_ages_6":"6","05_ages_7":"7","05_ages_8":"8","05_ages_9":"9","05_ages_10":"10","05_ages_11":"11","05_ages_12":"12","05_ages_13":"13","05_ages_14":"14","06":"No","07":"No","08":"No"},"rt":37846.80000001192,"item_order":[0,1,2,3,4,5,6,7],"radio_events":[4596,15404.100000023842,16524.100000023842,26192,28560.400000035763,35480,36484,37377.90000003576],"checkbox_events":[5974.600000023842,7150.100000023842,7706,8782.300000011921,9120.5,9470.199999988079,9829.800000011921,10172.199999988079,17508,18561.900000035763,18900.100000023842,19256.19999998808,19742.100000023842,20110,20428.30000001192,20774.100000023842,21148.100000023842,21560,21990.100000023842,23228,29422,29732,30135.80000001192,31078.30000001192,31460,31804.600000023842,32162,32536,33055.80000001192,33464],"key_events":[],"mouse_events":[4596,5974.600000023842,6336.100000023842,6646,7150.100000023842,7706,8782.300000011921,9120.5,9470.199999988079,9829.800000011921,10172.199999988079,15404.100000023842,16524.100000023842,17508,17961.80000001192,18561.900000035763,18900.100000023842,19256.19999998808,19742.100000023842,20110,20428.30000001192,20774.100000023842,21148.100000023842,21560,21990.100000023842,23228,26192,28560.400000035763,29422,29732,30135.80000001192,30493.80000001192,31078.30000001192,31460,31804.600000023842,32162,32536,33055.80000001192,33464,35480,36484,37377.90000003576,37842.60000002384],"honeypot":0,"survey":"mace","page":2,"trial_type":"survey-mace","trial_index":10,"time_elapsed":326339,"internal_node_id":"0.0-10.0","task_version":"prescreen-v0.3","browser_interactions":0},{"responses":{"01":"Yes","01_ages_5":"5","01_ages_6":"6","01_ages_7":"7","01_ages_8":"8","01_ages_9":"9","01_ages_10":"10","01_ages_11":"11","02":"No","03":"No","04":"No"},"rt":235136.5,"item_order":[0,1,2,3],"radio_events":[214778.89999997616,220475.19999998808,231395.19999998808,232567,233785],"checkbox_events":[223451.79999995232,223934.89999997616,224415.09999996424,224761.29999995232,225328.79999995232,225719.09999996424,227298.79999995232],"key_events":[],"mouse_events":[214778.89999997616,220475.19999998808,222521.09999996424,222993.09999996424,223451.79999995232,223934.89999997616,224415.09999996424,224761.29999995232,225328.79999995232,225719.09999996424,227298.79999995232,231395.19999998808,232567,233785,235133.19999998808],"honeypot":0,"survey":"mace","page":3,"trial_type":"survey-mace","trial_index":11,"time_elapsed":561478,"internal_node_id":"0.0-11.0","task_version":"prescreen-v0.3","browser_interactions":2},{"responses":{"01":"No","02":"No"},"rt":6123.199999988079,"item_order":[0,1],"radio_events":[4011.800000011921,5775.699999988079],"checkbox_events":[],"key_events":[],"mouse_events":[2355.600000023842,2849.399999976158,4011.800000011921,4867.600000023842,5775.699999988079,6121.5],"honeypot":0,"survey":"mace","page":4,"trial_type":"survey-mace","trial_index":12,"time_elapsed":567604,"internal_node_id":"0.0-12.0","task_version":"prescreen-v0.3","browser_interactions":0},{"responses":{"01":"No","02":"No","03":"No","04":"No","05":"No"},"rt":18746.69999998808,"item_order":[0,1,2,3,4],"radio_events":[7293.699999988079,10327.699999988079,13056,16169.699999988079,17949.69999998808],"checkbox_events":[],"key_events":[],"mouse_events":[7293.699999988079,10327.699999988079,13056,16169.699999988079,17949.69999998808,18384.30000001192,18743.600000023842],"honeypot":0,"survey":"mace","page":5,"trial_type":"survey-mace","trial_index":13,"time_elapsed":586353,"internal_node_id":"0.0-13.0","task_version":"prescreen-v0.3","browser_interactions":0},{"responses":{"01":"No","02":"Yes","02_ages_5":"5","02_ages_6":"6","02_ages_7":"7","02_ages_8":"8","02_ages_9":"9","02_ages_10":"10","02_ages_11":"11","02_ages_12":"12","02_ages_13":"13","02_ages_14":"14","02_ages_15":"15","02_ages_16":"16","02_ages_17":"17","02_ages_18":"18","03":"Yes","03_ages_8":"8","03_ages_9":"9","03_ages_10":"10","03_ages_11":"11","03_ages_12":"12","03_ages_13":"13","03_ages_14":"14","03_ages_15":"15","03_ages_16":"16","03_ages_17":"17","03_ages_18":"18","04":"Yes","04_ages_8":"8","04_ages_9":"9","04_ages_10":"10","04_ages_11":"11","04_ages_12":"12","04_ages_13":"13","04_ages_14":"14","04_ages_15":"15","04_ages_16":"16","04_ages_17":"17","04_ages_18":"18","05":"No"},"rt":37376,"item_order":[0,1,2,3,4],"radio_events":[8114.300000011921,9118.300000011921,18870.30000001192,29177.899999976158,36936.10000002384],"checkbox_events":[11954.100000023842,12308.199999988079,12638.100000023842,12984.199999988079,13813.899999976158,14298,14644.600000023842,15010.199999988079,15312.199999988079,15652.600000023842,15973.800000011921,16303.899999976158,16706.30000001192,17020.5,21162.100000023842,21686.100000023842,23426,24022.100000023842,24534,24984,25500.19999998808,26100.399999976158,26632,26954,27348,29968.19999998808,30418.100000023842,30793.80000001192,31136.100000023842,31922.100000023842,32408,32825.10000002384,33153.69999998808,33500.10000002384,34608.19999998808,34946.19999998808],"key_events":[],"mouse_events":[8114.300000011921,9118.300000011921,11954.100000023842,12308.199999988079,12638.100000023842,12984.199999988079,13468.100000023842,13813.899999976158,14298,14644.600000023842,15010.199999988079,15312.199999988079,15652.600000023842,15973.800000011921,16303.899999976158,16706.30000001192,17020.5,18870.30000001192,21162.100000023842,21686.100000023842,23426,24022.100000023842,24534,24984,25500.19999998808,26100.399999976158,26632,26954,27348,29177.899999976158,29968.19999998808,30418.100000023842,30793.80000001192,31136.100000023842,31466.30000001192,31922.100000023842,32408,32825.10000002384,33153.69999998808,33500.10000002384,33830.10000002384,34338,34608.19999998808,34946.19999998808,36936.10000002384,37372.30000001192],"honeypot":0,"survey":"mace","page":6,"trial_type":"survey-mace","trial_index":14,"time_elapsed":623733,"internal_node_id":"0.0-14.0","task_version":"prescreen-v0.3","browser_interactions":0},{"responses":{"01":"No","02":"No","03":"No","04":"No","05":"No","06":"No","07":"No"},"rt":10662.600000023842,"item_order":[0,1,2,3,4,5,6],"radio_events":[2884.400000035763,4676.400000035763,6276.600000023842,7040.400000035763,7766.300000011921,8592.5,9462.300000011921],"checkbox_events":[],"key_events":[],"mouse_events":[2884.400000035763,4676.400000035763,6276.600000023842,7040.400000035763,7766.300000011921,8592.5,9462.300000011921,10658.199999988079],"honeypot":0,"survey":"mace","page":7,"trial_type":"survey-mace","trial_index":15,"time_elapsed":634399,"internal_node_id":"0.0-15.0","task_version":"prescreen-v0.3","browser_interactions":0},{"responses":{"01":"Yes","01_ages_8":"8","01_ages_9":"9","01_ages_10":"10","01_ages_11":"11","01_ages_12":"12","01_ages_13":"13","01_ages_14":"14","02":"Yes","02_ages_5":"5","02_ages_6":"6","02_ages_7":"7","02_ages_8":"8","02_ages_9":"9","02_ages_10":"10","02_ages_11":"11","02_ages_12":"12","02_ages_13":"13","02_ages_14":"14","02_ages_15":"15","02_ages_16":"16","02_ages_17":"17","03":"Yes","03_ages_5":"5","03_ages_6":"6","03_ages_7":"7","03_ages_8":"8","03_ages_9":"9","03_ages_10":"10","03_ages_11":"11","03_ages_12":"12","03_ages_13":"13","03_ages_14":"14","03_ages_15":"15","03_ages_16":"16","03_ages_17":"17","03_ages_18":"18","04":"No","04_ages_5":"5","04_ages_6":"6","04_ages_7":"7","04_ages_8":"8","04_ages_9":"9","04_ages_10":"10","04_ages_11":"11","04_ages_12":"12","04_ages_13":"13","04_ages_14":"14","04_ages_15":"15","04_ages_16":"16","04_ages_17":"17","04_ages_18":"18"},"rt":56769.60000002384,"item_order":[0,1,2,3],"radio_events":[8028.100000023842,19534.400000035763,29890.100000023842,43110.40000003576,55852.19999998808],"checkbox_events":[13894.300000011921,14248.199999988079,14840,15190.199999988079,16064.400000035763,16734.30000001192,17668.30000001192,20786.400000035763,21204.19999998808,21820.30000001192,22160.30000001192,22966.30000001192,23457,23884.19999998808,24338.19999998808,24710.5,25104.400000035763,25430.400000035763,25768.19999998808,27476.69999998808,30686.5,31492.30000001192,31832.100000023842,32202.100000023842,32568.80000001192,32894.30000001192,33270.40000003576,34188,34704.90000003576,35806.40000003576,36730.40000003576,37187.90000003576,37522.10000002384,37934.30000001192,38324.90000003576,38682.19999998808,39340.19999998808,40217.90000003576,44044.10000002384,44366.10000002384,44962.19999998808,45330.30000001192,45660.69999998808,45962.30000001192,46368.30000001192,47146.19999998808,47448.5,47842.30000001192,48460.19999998808,48802.19999998808,49264.19999998808,49676.19999998808],"key_events":[],"mouse_events":[8028.100000023842,13894.300000011921,14248.199999988079,14840,15190.199999988079,15528.199999988079,16064.400000035763,16396.100000023842,16734.30000001192,17668.30000001192,19534.400000035763,20786.400000035763,21204.19999998808,21820.30000001192,22160.30000001192,22966.30000001192,23457,23884.19999998808,24338.19999998808,24710.5,25104.400000035763,25430.400000035763,25768.19999998808,27476.69999998808,29890.100000023842,30686.5,30992.400000035763,31492.30000001192,31832.100000023842,32202.100000023842,32568.80000001192,32894.30000001192,33270.40000003576,33596.5,34188,34704.90000003576,35002.30000001192,35806.40000003576,36730.40000003576,37187.90000003576,37522.10000002384,37934.30000001192,38324.90000003576,38682.19999998808,39034.10000002384,39340.19999998808,39718.30000001192,40217.90000003576,43110.40000003576,44044.10000002384,44366.10000002384,44704.30000001192,44962.19999998808,45330.30000001192,45660.69999998808,45962.30000001192,46368.30000001192,46828.30000001192,47146.19999998808,47448.5,47842.30000001192,48176.40000003576,48460.19999998808,48802.19999998808,49264.19999998808,49676.19999998808,55852.19999998808,56766.40000003576],"honeypot":0,"survey":"mace","page":8,"trial_type":"survey-mace","trial_index":16,"time_elapsed":691172,"internal_node_id":"0.0-16.0","task_version":"prescreen-v0.3","browser_interactions":0},{"responses":{"01":"Yes","01_ages_1":"1","01_ages_2":"2","01_ages_3":"3","01_ages_4":"4","01_ages_5":"5","01_ages_6":"6","01_ages_7":"7","01_ages_8":"8","01_ages_9":"9","01_ages_10":"10","01_ages_11":"11","01_ages_12":"12","01_ages_13":"13","01_ages_14":"14","01_ages_15":"15","01_ages_16":"16","01_ages_17":"17","01_ages_18":"18","02":"Yes","02_ages_1":"1","02_ages_2":"2","02_ages_3":"3","02_ages_4":"4","02_ages_5":"5","02_ages_6":"6","02_ages_7":"7","02_ages_8":"8","02_ages_9":"9","02_ages_10":"10","02_ages_11":"11","02_ages_12":"12","02_ages_13":"13","02_ages_14":"14","02_ages_15":"15","02_ages_16":"16","02_ages_17":"17","02_ages_18":"18","03":"Yes","03_ages_1":"1","03_ages_2":"2","03_ages_3":"3","03_ages_4":"4","03_ages_5":"5","03_ages_6":"6","03_ages_7":"7","03_ages_8":"8","03_ages_9":"9","03_ages_10":"10","03_ages_11":"11","03_ages_12":"12","03_ages_13":"13","03_ages_14":"14","03_ages_15":"15","03_ages_16":"16","03_ages_17":"17","03_ages_18":"18","04":"Yes","04_ages_1":"1","04_ages_2":"2","04_ages_3":"3","04_ages_4":"4","04_ages_5":"5","04_ages_6":"6","04_ages_7":"7","04_ages_8":"8","04_ages_9":"9","04_ages_10":"10","04_ages_11":"11","04_ages_12":"12","04_ages_13":"13","04_ages_14":"14","04_ages_15":"15","04_ages_16":"16","04_ages_17":"17","04_ages_18":"18"},"rt":73283.39999997616,"item_order":[0,1,2,3],"radio_events":[2533.300000011921,21494.80000001192,23719.69999998808,33565.39999997616,48021],"checkbox_events":[4644.800000011921,5951.599999964237,6273.099999964237,6699.199999988079,7834.800000011921,8263.199999988079,8589.099999964237,8908,9403.399999976158,10043.099999964237,10421.300000011921,10771.5,11271.300000011921,11616.899999976158,12374.899999976158,12733.199999988079,13124.899999976158,13605.099999964237,25073.19999998808,25826.69999998808,26162,26514.899999976158,26845.80000001192,27377.099999964237,27747.099999964237,28167,28489.19999998808,28799.099999964237,29129.19999998808,29523.099999964237,29959.19999998808,30413.599999964237,30913,31381.099999964237,31779,32195,34611.19999998808,34941.30000001192,35396.89999997616,36714.80000001192,37189,37565.39999997616,39357,41354.80000001192,41680.80000001192,42054.80000001192,42421.89999997616,42750.89999997616,43207.5,43643,45721.09999996424,46067.09999996424,46559,46865.19999998808,48903.19999998808,49566.89999997616,50208.89999997616,65760.59999996424,66415,66784.69999998808,67135.19999998808,67494,69318.89999997616,69644.69999998808,70092.89999997616,70720.69999998808,71111,71448.89999997616,71896.89999997616,72260.89999997616,72557,72898.89999997616],"key_events":[],"mouse_events":[2533.300000011921,4644.800000011921,5145,5650.800000011921,5951.599999964237,6273.099999964237,6699.199999988079,7834.800000011921,8263.199999988079,8589.099999964237,8908,9403.399999976158,9744.800000011921,10043.099999964237,10421.300000011921,10771.5,11271.300000011921,11616.899999976158,11935.599999964237,12374.899999976158,12733.199999988079,13124.899999976158,13605.099999964237,21494.80000001192,23719.69999998808,24633.099999964237,25073.19999998808,25518.899999976158,25826.69999998808,26162,26514.899999976158,26845.80000001192,27377.099999964237,27747.099999964237,28167,28489.19999998808,28799.099999964237,29129.19999998808,29523.099999964237,29959.19999998808,30413.599999964237,30913,31381.099999964237,31779,32195,33565.39999997616,34289,34611.19999998808,34941.30000001192,35396.89999997616,35893.69999998808,36714.80000001192,37189,37565.39999997616,39055,39357,40999,41354.80000001192,41680.80000001192,42054.80000001192,42421.89999997616,42750.89999997616,43207.5,43643,45721.09999996424,46067.09999996424,46559,46865.19999998808,48021,48903.19999998808,49217.30000001192,49566.89999997616,50208.89999997616,65760.59999996424,66129,66415,66784.69999998808,67135.19999998808,67494,67884.89999997616,68440.5,69318.89999997616,69644.69999998808,70092.89999997616,70720.69999998808,71111,71448.89999997616,71896.89999997616,72260.89999997616,72557,72898.89999997616,73280.19999998808],"honeypot":0,"survey":"mace","page":9,"trial_type":"survey-mace","trial_index":17,"time_elapsed":764459,"internal_node_id":"0.0-17.0","task_version":"prescreen-v0.3","browser_interactions":0},{"responses":{"01":"No","02":"No","03":"Yes","03_ages_5":"5","03_ages_6":"6","03_ages_7":"7","03_ages_8":"8","03_ages_9":"9","03_ages_10":"10","03_ages_11":"11","03_ages_12":"12","03_ages_13":"13","03_ages_14":"14","03_ages_15":"15","03_ages_16":"16","03_ages_17":"17","03_ages_18":"18","04":"No","05":"No","06":"Yes","06_ages_17":"17","07":"Yes","07_ages_1":"1","07_ages_2":"2","07_ages_3":"3","07_ages_4":"4","07_ages_5":"5","07_ages_6":"6","07_ages_7":"7","07_ages_8":"8","07_ages_9":"9","07_ages_10":"10","07_ages_11":"11","07_ages_12":"12","07_ages_13":"13","07_ages_14":"14","07_ages_15":"15","07_ages_16":"16","07_ages_17":"17","07_ages_18":"18","08":"No"},"rt":46006.30000001192,"item_order":[0,1,2,3,4,5,6,7],"radio_events":[2364.300000011921,3118.399999976158,4314.399999976158,16209.899999976158,20210.399999976158,22248.30000001192,29696.80000001192,41958.10000002384,45079.60000002384],"checkbox_events":[7432.199999988079,7894.300000011921,8950.399999976158,9965.899999976158,10360.399999976158,10718.199999988079,11016.199999988079,11380.399999976158,12446.100000023842,13006.100000023842,13755.899999976158,14328,14662.300000011921,15046.699999988079,23730,31786.19999998808,32192.399999976158,33083.89999997616,34412.19999998808,34871.89999997616,35262.19999998808,35584.10000002384,35944.19999998808,36572.39999997616,36958.10000002384,37327.89999997616,37636.19999998808,38042.10000002384,38372.39999997616,38828,39210.80000001192,39594.19999998808,40068.10000002384],"key_events":[],"mouse_events":[2364.300000011921,3118.399999976158,4314.399999976158,7432.199999988079,7894.300000011921,8636.399999976158,8950.399999976158,9438.100000023842,9965.899999976158,10360.399999976158,10718.199999988079,11016.199999988079,11380.399999976158,11872,12446.100000023842,13006.100000023842,13755.899999976158,14328,14662.300000011921,15046.699999988079,16209.899999976158,20210.399999976158,21684.399999976158,22248.30000001192,23290.100000023842,23730,29696.80000001192,31786.19999998808,32192.399999976158,32604.399999976158,33083.89999997616,33626.10000002384,34412.19999998808,34871.89999997616,35262.19999998808,35584.10000002384,35944.19999998808,36262.30000001192,36572.39999997616,36958.10000002384,37327.89999997616,37636.19999998808,38042.10000002384,38372.39999997616,38828,39210.80000001192,39594.19999998808,40068.10000002384,41958.10000002384,45079.60000002384,45606.30000001192,46002.19999998808],"honeypot":0,"survey":"mace","page":10,"trial_type":"survey-mace","trial_index":18,"time_elapsed":810469,"internal_node_id":"0.0-18.0","task_version":"prescreen-v0.3","browser_interactions":2,"instructed":0},{"rt":3862.899999976158,"trial_type":"mental-health-alert","trial_index":19,"time_elapsed":814334,"internal_node_id":"0.0-19.0","task_version":"prescreen-v0.3","interactions":"[{\"event\":\"blur\",\"trial\":11,\"time\":328680},{\"event\":\"focus\",\"trial\":11,\"time\":535358},{\"event\":\"blur\",\"trial\":18,\"time\":783935},{\"event\":\"focus\",\"trial\":18,\"time\":784204}]"}]