[{"view_history":[{"page_index":0,"viewing_time":3506},{"page_index":1,"viewing_time":3752},{"page_index":2,"viewing_time":5226},{"page_index":3,"viewing_time":1874}],"rt":14359,"trial_type":"instructions","trial_index":0,"time_elapsed":14363,"internal_node_id":"0.0-0.0","task_version":"prescreen-v0.3"},{"rt":13255,"responses":{"age":"36","gender-categorical":"Female","gender-free-response":"","ethnicity":"Not Hispanic or Latino","race":["White"],"education":"Bachelor degree"},"trial_type":"survey-demo","trial_index":1,"time_elapsed":27625,"internal_node_id":"0.0-1.0","task_version":"prescreen-v0.3"},{"responses":{"Q19":"0","Q11":"0","Q16":"1","Q05":"1","Q21":"3","Q18":"0","Q14":"0","Q03":"0","Q02":"0","Q13":"1","Q15":"2","Q17":"0","Q12":"1","Q09":"0","Q08":"0","Q10":"0","Q07":"1","Q20":"0","Q06":"0","Q01":"0","Q04":"0"},"rt":101476,"item_order":[18,10,15,4,20,17,13,2,1,12,14,16,11,8,7,9,6,19,5,0,3],"radio_events":[10872,15072,20348,26504.000000000007,30684.000000000007,36900.00000000001,39848,45746,50590,53246,55386,62020,65270,71152,73408,78772,81998,87582.00000000001,92462,95062,97624.00000000001,100030],"key_events":[],"mouse_events":[10872,13554,15072,20348,26504.000000000007,30684.000000000007,36900.00000000001,39848,43306,45746,47308,48664,49390,50590,53246,55386,62020,65270,71152,73408,78772,81998,87582.00000000001,92462,95062,97624.00000000001,100030,101464],"straightlining":0.6666666666666666,"zigzagging":0.4,"honeypot":0,"survey":"sns","trial_type":"survey-template","trial_index":2,"time_elapsed":129104,"internal_node_id":"0.0-2.0","task_version":"prescreen-v0.3","browser_interactions":0,"infrequency":0},{"responses":{"Q05":"3","Q07":"3","Q08":"3","Q11":"3","Q01":"2","Q03":"3","Q04":"3","Q02":"3","Q13":"0","Q06":"3","Q09":"2","Q12":"2","Q10":"2"},"rt":48763,"item_order":[4,6,7,10,0,2,3,1,12,5,8,11,9],"radio_events":[7527,9101,15079,17529,18821,23379,26125,30246,33310,38519,41401,44667,47699],"key_events":[],"mouse_events":[7527,9101,15079,17529,18821,23379,26125,30246,33310,38519,41401,44667,47037,47699,48755],"straightlining":0.6153846153846154,"zigzagging":0.4166666666666667,"honeypot":0,"survey":"bisbas","trial_type":"survey-template","trial_index":3,"time_elapsed":177871,"internal_node_id":"0.0-3.0","task_version":"prescreen-v0.3","browser_interactions":0,"infrequency":0},{"responses":{"Q01":"4","Q02":"4","Q03":"4"},"rt":17033,"radio_events":[5658,11663,16309],"key_events":[],"mouse_events":[5658,11663,16309,17029],"survey":"map","page":1,"trial_type":"survey-map","trial_index":4,"time_elapsed":194908,"internal_node_id":"0.0-4.0","task_version":"prescreen-v0.3","browser_interactions":0},{"responses":{"Q04":"2","Q05":"3","Q06":"2"},"rt":18547.00000000003,"radio_events":[3570,9752,11992,17566],"key_events":[],"mouse_events":[3570,9752,11992,16312,17566,18544],"survey":"map","page":2,"trial_type":"survey-map","trial_index":5,"time_elapsed":213457,"internal_node_id":"0.0-5.0","task_version":"prescreen-v0.3","browser_interactions":0},{"responses":{"Q07":"2","Q08":"0","Q09":"4"},"rt":17640,"radio_events":[8571,14049,16717],"key_events":[],"mouse_events":[8571,14049,16717,17637],"survey":"map","page":3,"trial_type":"survey-map","trial_index":6,"time_elapsed":231100,"internal_node_id":"0.0-6.0","task_version":"prescreen-v0.3","browser_interactions":0},{"responses":{"Q10":"4","Q11":"4","Q12":"2","Q13":"3","Q16":"0","Q14":"2","Q15":"2"},"rt":51686,"radio_events":[8348,22144,23146,34070.00000000006,40194,46496,50852],"key_events":[],"mouse_events":[8348,11362,12370,22144,23146,34070.00000000006,40194,45204,46496,50852,51680],"survey":"map","page":4,"trial_type":"survey-map","trial_index":7,"time_elapsed":282787,"internal_node_id":"0.0-7.0","task_version":"prescreen-v0.3","browser_interactions":0,"infrequency":0},{"view_history":[{"page_index":0,"viewing_time":2929},{"page_index":1,"viewing_time":4610}],"rt":7539,"trial_type":"instructions","trial_index":8,"time_elapsed":290330,"internal_node_id":"0.0-8.0","task_version":"prescreen-v0.3"},{"responses":{"01":"Yes","01_ages_16":"16","02":"No","03":"No","04":"No","05":"No","06":"No"},"rt":41395,"item_order":[0,1,2,3,4,5],"radio_events":[11694.000000000058,24370,31842,33692,35682.00000000006,40384.00000000006],"checkbox_events":[18822],"key_events":[],"mouse_events":[0,11024,11694.000000000058,18822,24370,31842,33692,35682.00000000006,40384.00000000006,41386],"honeypot":0,"survey":"mace","page":1,"trial_type":"survey-mace","trial_index":9,"time_elapsed":331730,"internal_node_id":"0.0-9.0","task_version":"prescreen-v0.3","browser_interactions":0},{"responses":{"01":"No","02":"No","03":"Yes","03_ages_2":"2","03_ages_3":"3","03_ages_4":"4","03_ages_5":"5","03_ages_6":"6","03_ages_7":"7","03_ages_8":"8","03_ages_9":"9","03_ages_10":"10","03_ages_11":"11","04":"No","05":"No","06":"No","07":"No","08":"No"},"rt":33247,"item_order":[0,1,2,3,4,5,6,7],"radio_events":[4381,8591,10563,22993,26443,27501,29311,32593],"checkbox_events":[14619,15435.000000000058,16045,16625,17191,17741,18281.00000000006,18903,19467,20109],"key_events":[],"mouse_events":[4381,8591,10563,14619,15435.000000000058,16045,16625,17191,17741,18281.00000000006,18903,19467,20109,22993,26443,27501,29311,32593,33239],"honeypot":0,"survey":"mace","page":2,"trial_type":"survey-mace","trial_index":10,"time_elapsed":364983,"internal_node_id":"0.0-10.0","task_version":"prescreen-v0.3","browser_interactions":0},{"responses":{"01":"No","02":"No","03":"No","04":"No"},"rt":14589,"item_order":[0,1,2,3],"radio_events":[10462,11310,12400,13432],"checkbox_events":[],"key_events":[],"mouse_events":[7228,7946.000000000058,8810,9582,10462,11310,12400,13432,14584],"honeypot":0,"survey":"mace","page":3,"trial_type":"survey-mace","trial_index":11,"time_elapsed":379575,"internal_node_id":"0.0-11.0","task_version":"prescreen-v0.3","browser_interactions":0},{"responses":{"01":"No","02":"No"},"rt":7303,"item_order":[0,1],"radio_events":[5671,6444],"checkbox_events":[],"key_events":[],"mouse_events":[2461.000000000058,5671,6444,7300.000000000058],"honeypot":0,"survey":"mace","page":4,"trial_type":"survey-mace","trial_index":12,"time_elapsed":386881,"internal_node_id":"0.0-12.0","task_version":"prescreen-v0.3","browser_interactions":0},{"responses":{"01":"No","02":"No","03":"No","04":"No","05":"No"},"rt":23982,"item_order":[0,1,2,3,4],"radio_events":[11942,14512,18458,22042,23354],"checkbox_events":[],"key_events":[],"mouse_events":[11942,14512,18458,22042,23354,23976],"honeypot":0,"survey":"mace","page":5,"trial_type":"survey-mace","trial_index":13,"time_elapsed":410867,"internal_node_id":"0.0-13.0","task_version":"prescreen-v0.3","browser_interactions":0},{"responses":{"01":"Yes","01_ages_13":"13","01_ages_15":"15","01_ages_16":"16","02":"Yes","02_ages_13":"13","02_ages_15":"15","02_ages_16":"16","03":"No","04":"No","05":"No"},"rt":31652,"item_order":[0,1,2,3,4],"radio_events":[7956,16086,26808,27886,30728.00000000006],"checkbox_events":[10290,11294,13402,18516,19434,20080],"key_events":[],"mouse_events":[7956,10290,11294,13402,16086,18516,19434,20080,23958,26808,27886,30728.00000000006,31644.00000000006],"honeypot":0,"survey":"mace","page":6,"trial_type":"survey-mace","trial_index":14,"time_elapsed":442522,"internal_node_id":"0.0-14.0","task_version":"prescreen-v0.3","browser_interactions":0},{"responses":{"01":"No","02":"No","03":"No","04":"No","05":"No","06":"No","07":"No"},"rt":18462.00000000006,"item_order":[0,1,2,3,4,5,6],"radio_events":[7318,8162,10027.000000000058,12134,13664.000000000058,15876,17460],"checkbox_events":[],"key_events":[],"mouse_events":[4952,7318,8162,10027.000000000058,12134,13664.000000000058,15876,17460,18456],"honeypot":0,"survey":"mace","page":7,"trial_type":"survey-mace","trial_index":15,"time_elapsed":460991,"internal_node_id":"0.0-15.0","task_version":"prescreen-v0.3","browser_interactions":0},{"responses":{"01":"Yes","01_ages_10":"10","01_ages_11":"11","01_ages_12":"12","01_ages_13":"13","01_ages_14":"14","01_ages_15":"15","01_ages_16":"16","01_ages_17":"17","01_ages_18":"18","02":"Yes","02_ages_10":"10","02_ages_11":"11","02_ages_12":"12","02_ages_13":"13","02_ages_14":"14","02_ages_15":"15","02_ages_16":"16","02_ages_17":"17","02_ages_18":"18","03":"Yes","03_ages_13":"13","03_ages_14":"14","03_ages_15":"15","03_ages_16":"16","03_ages_17":"17","03_ages_18":"18","04":"No"},"rt":47799,"item_order":[0,1,2,3],"radio_events":[9508,20820,31288,47158],"checkbox_events":[12984,13534,14074,14818,15446.000000000058,15996,16876.00000000006,17558,18446.00000000006,21962,22794,23472,24384,25086,25898,26544,27440,28142,35926,36524,37330,37980,38862,45090.00000000006],"key_events":[],"mouse_events":[9508,12406,12984,13534,14074,14818,15446.000000000058,15996,16876.00000000006,17558,18446.00000000006,20820,21962,22794,23472,24384,25086,25898,26544,27440,28142,31288,35926,36524,37330,37980,38862,39466,45090.00000000006,47158,47792.00000000006],"honeypot":0,"survey":"mace","page":8,"trial_type":"survey-mace","trial_index":16,"time_elapsed":508794,"internal_node_id":"0.0-16.0","task_version":"prescreen-v0.3","browser_interactions":0},{"responses":{"01":"Yes","01_ages_2":"2","01_ages_3":"3","01_ages_4":"4","01_ages_5":"5","01_ages_6":"6","01_ages_7":"7","01_ages_8":"8","01_ages_9":"9","01_ages_10":"10","01_ages_11":"11","01_ages_12":"12","01_ages_13":"13","01_ages_14":"14","01_ages_15":"15","01_ages_16":"16","01_ages_17":"17","01_ages_18":"18","02":"Yes","02_ages_2":"2","02_ages_3":"3","02_ages_4":"4","02_ages_5":"5","02_ages_6":"6","02_ages_7":"7","02_ages_8":"8","02_ages_9":"9","02_ages_10":"10","02_ages_11":"11","02_ages_12":"12","02_ages_13":"13","02_ages_14":"14","02_ages_15":"15","02_ages_16":"16","02_ages_17":"17","02_ages_18":"18","03":"Yes","03_ages_2":"2","03_ages_3":"3","03_ages_4":"4","03_ages_5":"5","03_ages_6":"6","03_ages_7":"7","03_ages_8":"8","03_ages_9":"9","03_ages_10":"10","03_ages_11":"11","03_ages_12":"12","03_ages_13":"13","03_ages_14":"14","03_ages_15":"15","03_ages_16":"16","03_ages_17":"17","03_ages_18":"18","04":"Yes","04_ages_1":"1","04_ages_2":"2","04_ages_3":"3","04_ages_4":"4","04_ages_5":"5","04_ages_6":"6","04_ages_7":"7","04_ages_8":"8","04_ages_9":"9","04_ages_10":"10","04_ages_11":"11","04_ages_12":"12","04_ages_13":"13","04_ages_14":"14","04_ages_15":"15","04_ages_16":"16","04_ages_17":"17","04_ages_18":"18"},"rt":82529.00000000012,"item_order":[0,1,2,3],"radio_events":[4997,27503,44079,65073],"checkbox_events":[9627,10329,11573.000000000058,12343,12997,13579,14321,14943,15589,16715,17401,18863,19711,20473,21773,22509,23203,23953,24781,29355,30171,30995,32043,32569,33453,36101.00000000012,36699,37445,38091,38793,39399,40021,40643,41261,42035,42649,50463,51151,51731.00000000012,52257,52821,53371,53891,54449,55005.00000000012,55547,56127,57468,58077.00000000012,61299,61929,62627,66487,69503,70117,70681,71243,72365,73261,73939,74497,75084,75718,76269,77470,78173,78818,79480,80325,80922,81600],"key_events":[],"mouse_events":[4997,9627,10329,11573.000000000058,12343,12997,13579,14321,14943,15589,16223,16715,17401,18241,18863,19711,20473,21161,21773,22509,23203,23953,24781,27503,29355,30171,30995,32043,32569,33453,36101.00000000012,36699,37445,38091,38793,39399,40021,40643,41261,42035,42649,44079,50463,51151,51731.00000000012,52257,52821,53371,53891,54449,55005.00000000012,55547,56127,56709,57468,58077.00000000012,58747,59661,61299,61929,62627,63757,65073,66487,69503,70117,70681,71243,71865,72365,73261,73939,74497,75084,75718,76269,76986,77470,78173,78818,79480,80325,80922,81600,82521],"honeypot":0,"survey":"mace","page":9,"trial_type":"survey-mace","trial_index":17,"time_elapsed":591317,"internal_node_id":"0.0-17.0","task_version":"prescreen-v0.3","browser_interactions":0},{"responses":{"01":"Yes","01_ages_2":"2","01_ages_3":"3","01_ages_4":"4","01_ages_5":"5","01_ages_6":"6","01_ages_7":"7","01_ages_8":"8","01_ages_9":"9","01_ages_10":"10","02":"No","03":"Yes","03_ages_8":"8","03_ages_9":"9","03_ages_10":"10","04":"No","05":"No","06":"Yes","06_ages_17":"17","07":"Yes","07_ages_7":"7","07_ages_8":"8","07_ages_9":"9","07_ages_10":"10","08":"No"},"rt":50623,"item_order":[0,1,2,3,4,5,6,7],"radio_events":[3284,13620,17910,25524,27926,31464,36662,49928],"checkbox_events":[5670,6324,7568,8036,8602,9752,10350.000000000116,11060,11836,21242,21846,22400,32742,42266,43070,43651,44532],"key_events":[],"mouse_events":[3284,5670,6324,7568,8036,8602,9174,9752,10350.000000000116,11060,11836,13620,17910,21242,21846,22400,25524,27926,31464,32742,36146,36662,42266,43070,43651,44532,49928,50614.00000000012],"honeypot":0,"survey":"mace","page":10,"trial_type":"survey-mace","trial_index":18,"time_elapsed":641927,"internal_node_id":"0.0-18.0","task_version":"prescreen-v0.3","browser_interactions":0,"instructed":0},{"rt":6078,"trial_type":"mental-health-alert","trial_index":19,"time_elapsed":648010,"internal_node_id":"0.0-19.0","task_version":"prescreen-v0.3","interactions":"[]"}]