[{"view_history":[{"page_index":0,"viewing_time":2807.60000000149},{"page_index":1,"viewing_time":2867.7000000029802},{"page_index":2,"viewing_time":2667},{"page_index":3,"viewing_time":4810.39999999851}],"rt":13154,"trial_type":"instructions","trial_index":0,"time_elapsed":13209,"internal_node_id":"0.0-0.0","task_version":"prescreen-v0.3"},{"rt":28684.60000000149,"responses":{"age":"20","gender-categorical":"Female","gender-free-response":"","ethnicity":"Not Hispanic or Latino","race":["White"],"education":"Some college"},"trial_type":"survey-demo","trial_index":1,"time_elapsed":41903,"internal_node_id":"0.0-1.0","task_version":"prescreen-v0.3"},{"responses":{"Q02":"2","Q11":"3","Q03":"1","Q15":"3","Q05":"1","Q10":"1","Q08":"3","Q14":"2","Q21":"3","Q20":"1","Q19":"1","Q13":"3","Q09":"3","Q06":"0","Q17":"1","Q18":"1","Q01":"3","Q07":"0","Q12":"3","Q04":"1","Q16":"1"},"rt":114789.69999999553,"item_order":[1,10,2,14,4,9,7,13,20,19,18,12,8,5,16,17,0,6,11,3,15],"radio_events":[4055.1999999955297,8151.69999999553,14034.5,19751.69999999553,22784.19999999553,32200.29999999702,36921.29999999702,39392.5,42710.5,44602.39999999851,45895,47763.60000000149,58458.10000000149,60232.79999999702,61863.60000000149,67727.79999999702,71420.89999999851,75103.10000000149,76564,84303.29999999702,86464.79999999702,91427.29999999702,96368.10000000149,98647.19999999553,112664.69999999553],"key_events":[],"mouse_events":[4055.1999999955297,6052.10000000149,8151.69999999553,13161.19999999553,14034.5,19751.69999999553,22784.19999999553,32200.29999999702,36921.29999999702,39392.5,42710.5,44602.39999999851,45895,47763.60000000149,58458.10000000149,60232.79999999702,61863.60000000149,66387.10000000149,67727.79999999702,71420.89999999851,75103.10000000149,76564,84303.29999999702,86464.79999999702,91427.29999999702,96368.10000000149,98647.19999999553,100339.79999999702,105423.39999999851,112664.69999999553,114786],"straightlining":0.42857142857142855,"zigzagging":0.35,"honeypot":0,"survey":"sns","trial_type":"survey-template","trial_index":2,"time_elapsed":156704,"internal_node_id":"0.0-2.0","task_version":"prescreen-v0.3","browser_interactions":0,"infrequency":0},{"responses":{"Q05":"3","Q12":"1","Q08":"3","Q09":"1","Q07":"3","Q03":"3","Q02":"3","Q04":"3","Q06":"3","Q13":"0","Q11":"1","Q01":"3","Q10":"1"},"rt":53494.89999999851,"item_order":[4,11,7,8,6,2,1,3,5,12,10,0,9],"radio_events":[4481.39999999851,11855.69999999553,16902.09999999404,19048,22198.69999999553,24111.69999999553,27536.79999999702,28848.89999999851,32839.79999999702,35373,38204.09999999404,46933,49973.79999999702,51415],"key_events":[],"mouse_events":[4481.39999999851,11855.69999999553,16902.09999999404,19048,22198.69999999553,24111.69999999553,27536.79999999702,28848.89999999851,32839.79999999702,35373,38204.09999999404,46933,49973.79999999702,51415,53493.39999999851],"straightlining":0.6153846153846154,"zigzagging":0.16666666666666666,"honeypot":0,"survey":"bisbas","trial_type":"survey-template","trial_index":3,"time_elapsed":210207,"internal_node_id":"0.0-3.0","task_version":"prescreen-v0.3","browser_interactions":0,"infrequency":0},{"responses":{"Q01":"3","Q02":"1","Q03":"4"},"rt":17877.39999999851,"radio_events":[5769.29999999702,11707.10000000149,16605.89999999851],"key_events":[],"mouse_events":[5769.29999999702,11707.10000000149,16605.89999999851,17876.20000000298],"survey":"map","page":1,"trial_type":"survey-map","trial_index":4,"time_elapsed":228092,"internal_node_id":"0.0-4.0","task_version":"prescreen-v0.3","browser_interactions":0},{"responses":{"Q04":"1","Q05":"1","Q06":"2"},"rt":17507,"radio_events":[6588.5,7882.89999999851,12991.5,15781],"key_events":[],"mouse_events":[6588.5,7882.89999999851,12991.5,14740,15781,17506.09999999404],"survey":"map","page":2,"trial_type":"survey-map","trial_index":5,"time_elapsed":245607,"internal_node_id":"0.0-5.0","task_version":"prescreen-v0.3","browser_interactions":0},{"responses":{"Q07":"3","Q08":"1","Q09":"4"},"rt":12023.89999999851,"radio_events":[5973,7821,10444.69999999553],"key_events":[],"mouse_events":[4787.69999999553,5973,7821,10444.69999999553,12022.59999999404],"survey":"map","page":3,"trial_type":"survey-map","trial_index":6,"time_elapsed":257637,"internal_node_id":"0.0-6.0","task_version":"prescreen-v0.3","browser_interactions":0},{"responses":{"Q10":"2","Q11":"3","Q12":"1","Q13":"1","Q16":"0","Q14":"1","Q15":"1"},"rt":32703.80000000447,"radio_events":[7835.5,9048,13606.5,18001.40000000596,19602.10000000149,22229.20000000298,28541.5,30984.20000000298],"key_events":[],"mouse_events":[5084,7835.5,9048,13606.5,18001.40000000596,19602.10000000149,22229.20000000298,28541.5,30984.20000000298,32702.30000000447],"survey":"map","page":4,"trial_type":"survey-map","trial_index":7,"time_elapsed":290348,"internal_node_id":"0.0-7.0","task_version":"prescreen-v0.3","browser_interactions":0,"infrequency":0},{"view_history":[{"page_index":0,"viewing_time":1918.6999999955297},{"page_index":1,"viewing_time":3171.2000000029802}],"rt":5091,"trial_type":"instructions","trial_index":8,"time_elapsed":295445,"internal_node_id":"0.0-8.0","task_version":"prescreen-v0.3"},{"responses":{"01":"No","02":"Yes","02_ages_13":"13","02_ages_14":"14","02_ages_15":"15","02_ages_16":"16","03":"Yes","03_ages_17":"17","03_ages_18":"18","04":"No","05":"No","06":"No"},"rt":45749.39999999851,"item_order":[0,1,2,3,4,5],"radio_events":[8653,10223.09999999404,33504.09999999404,37667.29999999702,39707.89999999851,41535.19999999553],"checkbox_events":[15726.69999999553,16904.5,18616.89999999851,19566.19999999553,20873.09999999404,22090.09999999404,23784.39999999851,29224.59999999404,34813.29999999702,35809.69999999553],"key_events":[],"mouse_events":[0.29999999701976776,8653,10223.09999999404,15726.69999999553,16904.5,18208.5,18616.89999999851,19566.19999999553,20873.09999999404,22090.09999999404,23086.39999999851,23784.39999999851,29224.59999999404,33504.09999999404,34813.29999999702,35809.69999999553,37667.29999999702,39707.89999999851,41535.19999999553,45745.5],"honeypot":0,"survey":"mace","page":1,"trial_type":"survey-mace","trial_index":9,"time_elapsed":341206,"internal_node_id":"0.0-9.0","task_version":"prescreen-v0.3","browser_interactions":0},{"responses":{"01":"No","02":"No","03":"Yes","03_ages_3":"3","03_ages_4":"4","04":"No","05":"No","06":"No","07":"No","08":"No"},"rt":23587.39999999851,"item_order":[0,1,2,3,4,5,6,7],"radio_events":[4438.70000000298,6577.70000000298,8197.20000000298,14669.89999999851,16290.70000000298,19329.70000000298,21481.39999999851,22631.30000000447],"checkbox_events":[10743.10000000149,11537.10000000149],"key_events":[],"mouse_events":[4438.70000000298,6577.70000000298,8197.20000000298,10743.10000000149,11537.10000000149,14669.89999999851,16290.70000000298,17975.80000000447,19329.70000000298,20673.20000000298,21481.39999999851,22631.30000000447,23581.39999999851],"honeypot":0,"survey":"mace","page":2,"trial_type":"survey-mace","trial_index":10,"time_elapsed":364801,"internal_node_id":"0.0-10.0","task_version":"prescreen-v0.3","browser_interactions":0},{"responses":{"01":"No","02":"No","03":"No","04":"No"},"rt":19656.5,"item_order":[0,1,2,3],"radio_events":[7369.70000000298,11866.70000000298,16597.60000000149,18613.70000000298],"checkbox_events":[],"key_events":[],"mouse_events":[7369.70000000298,11866.70000000298,16597.60000000149,18237.60000000149,18613.70000000298,19652.29999999702],"honeypot":0,"survey":"mace","page":3,"trial_type":"survey-mace","trial_index":11,"time_elapsed":384466,"internal_node_id":"0.0-11.0","task_version":"prescreen-v0.3","browser_interactions":0},{"responses":{"01":"No","02":"No"},"rt":6803,"item_order":[0,1],"radio_events":[3162.2999999970198,4824.10000000149],"checkbox_events":[],"key_events":[],"mouse_events":[3162.2999999970198,4824.10000000149,6801.10000000149],"honeypot":0,"survey":"mace","page":4,"trial_type":"survey-mace","trial_index":12,"time_elapsed":391279,"internal_node_id":"0.0-12.0","task_version":"prescreen-v0.3","browser_interactions":0},{"responses":{"01":"Yes","01_ages_17":"17","01_ages_18":"18","02":"No","03":"No","04":"Yes","04_ages_17":"17","04_ages_18":"18","05":"No"},"rt":34827.80000000447,"item_order":[0,1,2,3,4],"radio_events":[6778.70000000298,14880.80000000447,23583.80000000447,26237.20000000298,33779.89999999851],"checkbox_events":[8475.20000000298,11213.80000000447,28682.80000000447,29580.39999999851],"key_events":[],"mouse_events":[6778.70000000298,8475.20000000298,11213.80000000447,14880.80000000447,23583.80000000447,26237.20000000298,28298.39999999851,28682.80000000447,29580.39999999851,33779.89999999851,34823.39999999851],"honeypot":0,"survey":"mace","page":5,"trial_type":"survey-mace","trial_index":13,"time_elapsed":426117,"internal_node_id":"0.0-13.0","task_version":"prescreen-v0.3","browser_interactions":0},{"responses":{"01":"No","02":"Yes","02_ages_11":"11","02_ages_12":"12","02_ages_13":"13","03":"No","04":"No","05":"No"},"rt":27300.5,"item_order":[0,1,2,3,4],"radio_events":[8257.70000000298,10669.40000000596,22136.80000000447,24812.70000000298,26076.30000000447],"checkbox_events":[14999.5,16022.80000000447,19042.60000000149],"key_events":[],"mouse_events":[8257.70000000298,10669.40000000596,14999.5,16022.80000000447,19042.60000000149,22136.80000000447,24812.70000000298,26076.30000000447,27296.20000000298],"honeypot":0,"survey":"mace","page":6,"trial_type":"survey-mace","trial_index":14,"time_elapsed":453427,"internal_node_id":"0.0-14.0","task_version":"prescreen-v0.3","browser_interactions":0},{"responses":{"01":"No","02":"No","03":"No","04":"No","05":"No","06":"No","07":"No"},"rt":14864.29999999702,"item_order":[0,1,2,3,4,5,6],"radio_events":[2972.2999999970198,4280.10000000149,6148,7475.39999999851,9104,10394,11532.29999999702],"checkbox_events":[],"key_events":[],"mouse_events":[2972.2999999970198,4280.10000000149,6148,7475.39999999851,9104,10394,11532.29999999702,14859.39999999851],"honeypot":0,"survey":"mace","page":7,"trial_type":"survey-mace","trial_index":15,"time_elapsed":468302,"internal_node_id":"0.0-15.0","task_version":"prescreen-v0.3","browser_interactions":0},{"responses":{"01":"Yes","01_ages_7":"7","01_ages_8":"8","01_ages_9":"9","01_ages_10":"10","01_ages_11":"11","02":"Yes","02_ages_13":"13","02_ages_14":"14","02_ages_15":"15","02_ages_16":"16","02_ages_17":"17","02_ages_18":"18","03":"Yes","03_ages_16":"16","03_ages_17":"17","03_ages_18":"18","04":"No"},"rt":76978.60000000149,"item_order":[0,1,2,3],"radio_events":[9585.80000000447,14378.10000000149,22555.30000000447,68457.10000000149,75656.70000000298],"checkbox_events":[25750.70000000298,27921.80000000447,28978.89999999851,29803.10000000149,30705.5,31898.5,32819.80000000447,36935.39999999851,38055.5,38833.5,42598.20000000298,43305.70000000298,43764.89999999851,44230.5,45036.39999999851,45690.20000000298,53841.5,70957.80000000447,71444.39999999851,71874.89999999851],"key_events":[],"mouse_events":[9585.80000000447,14378.10000000149,21769.70000000298,22555.30000000447,25750.70000000298,27921.80000000447,28978.89999999851,29803.10000000149,30705.5,31898.5,32819.80000000447,36935.39999999851,38055.5,38833.5,42598.20000000298,43305.70000000298,43764.89999999851,44230.5,44695.80000000447,45036.39999999851,45690.20000000298,53841.5,68457.10000000149,70957.80000000447,71444.39999999851,71874.89999999851,75656.70000000298,76975.10000000149],"honeypot":0,"survey":"mace","page":8,"trial_type":"survey-mace","trial_index":16,"time_elapsed":545288,"internal_node_id":"0.0-16.0","task_version":"prescreen-v0.3","browser_interactions":0},{"responses":{"01":"Yes","01_ages_1":"1","01_ages_2":"2","01_ages_3":"3","01_ages_4":"4","01_ages_5":"5","01_ages_6":"6","01_ages_7":"7","01_ages_8":"8","01_ages_9":"9","01_ages_10":"10","01_ages_11":"11","01_ages_12":"12","01_ages_13":"13","01_ages_14":"14","01_ages_15":"15","01_ages_16":"16","01_ages_17":"17","01_ages_18":"18","02":"No","03":"Yes","03_ages_1":"1","03_ages_2":"2","03_ages_3":"3","03_ages_4":"4","03_ages_5":"5","03_ages_6":"6","03_ages_7":"7","03_ages_8":"8","03_ages_9":"9","03_ages_10":"10","03_ages_11":"11","03_ages_12":"12","03_ages_13":"13","03_ages_14":"14","03_ages_15":"15","03_ages_16":"16","03_ages_17":"17","03_ages_18":"18","04":"Yes","04_ages_1":"1","04_ages_2":"2","04_ages_3":"3","04_ages_4":"4","04_ages_5":"5","04_ages_6":"6","04_ages_7":"7","04_ages_8":"8","04_ages_9":"9","04_ages_10":"10","04_ages_11":"11","04_ages_12":"12","04_ages_13":"13","04_ages_14":"14","04_ages_15":"15","04_ages_16":"16","04_ages_17":"17","04_ages_18":"18"},"rt":69879.39999999851,"item_order":[0,1,2,3],"radio_events":[7252,31749.89999999851,33564.89999999851,53131.39999999851],"checkbox_events":[8372.30000000447,9227.20000000298,9901.80000000447,10367.30000000447,10910.30000000447,12134.70000000298,12642.10000000149,13210.89999999851,14123.30000000447,14756.39999999851,15492.39999999851,16076.70000000298,16696.10000000149,17376.39999999851,18517.5,19100.5,19664.30000000447,20151.5,35947.89999999851,37205.70000000298,39097.60000000149,39745.10000000149,40926.60000000149,41629.10000000149,42469.89999999851,43325.60000000149,43798.20000000298,44382.30000000447,44890,45460,46330.20000000298,47664.70000000298,48360.60000000149,49104.60000000149,49688.5,50426.10000000149,54911.70000000298,55654.60000000149,56240.39999999851,56692.60000000149,57283.70000000298,57854,58418.20000000298,61366.89999999851,62041.89999999851,62654.30000000447,63217.10000000149,64157.20000000298,65763.10000000149,66438,66993.89999999851,67620.60000000149,68218.60000000149,68817],"key_events":[],"mouse_events":[6404.20000000298,7252,8372.30000000447,8754.80000000447,9012.80000000447,9227.20000000298,9901.80000000447,10367.30000000447,10910.30000000447,11375.89999999851,11778.80000000447,12134.70000000298,12642.10000000149,13210.89999999851,14123.30000000447,14756.39999999851,15492.39999999851,16076.70000000298,16696.10000000149,17376.39999999851,18517.5,19100.5,19664.30000000447,20151.5,31749.89999999851,33564.89999999851,35947.89999999851,37205.70000000298,39097.60000000149,39745.10000000149,40126.60000000149,40571.39999999851,40926.60000000149,41629.10000000149,42469.89999999851,42936.5,43325.60000000149,43798.20000000298,44382.30000000447,44890,45460,46330.20000000298,47123,47664.70000000298,48360.60000000149,49104.60000000149,49688.5,50426.10000000149,53131.39999999851,54911.70000000298,55654.60000000149,56240.39999999851,56692.60000000149,57283.70000000298,57854,58418.20000000298,58966.89999999851,59592.80000000447,60037.80000000447,60629.5,61366.89999999851,62041.89999999851,62654.30000000447,63217.10000000149,64157.20000000298,64991.10000000149,65763.10000000149,66438,66993.89999999851,67620.60000000149,68218.60000000149,68817,69876.10000000149],"honeypot":0,"survey":"mace","page":9,"trial_type":"survey-mace","trial_index":17,"time_elapsed":615178,"internal_node_id":"0.0-17.0","task_version":"prescreen-v0.3","browser_interactions":0},{"responses":{"01":"No","02":"No","03":"Yes","03_ages_15":"15","03_ages_16":"16","03_ages_17":"17","04":"Yes","04_ages_9":"9","04_ages_10":"10","04_ages_15":"15","04_ages_16":"16","04_ages_17":"17","04_ages_18":"18","05":"Yes","05_ages_15":"15","05_ages_16":"16","05_ages_17":"17","05_ages_18":"18","06":"Yes","06_ages_17":"17","07":"Yes","07_ages_7":"7","07_ages_8":"8","07_ages_9":"9","07_ages_10":"10","07_ages_11":"11","07_ages_12":"12","07_ages_13":"13","07_ages_14":"14","08":"No"},"rt":64941.29999999702,"item_order":[0,1,2,3,4,5,6,7],"radio_events":[3686.7999999970198,7264.39999999851,9348.89999999851,14544.60000000149,28268.89999999851,34004.70000000298,40926.5,63666.29999999702],"checkbox_events":[10385.5,11199.39999999851,11560.5,16186.60000000149,16680.39999999851,21494.20000000298,22564.79999999702,23108.39999999851,23775.70000000298,29758.60000000149,35560,36234.60000000149,36735.5,37279.10000000149,54654.39999999851,55141,55676.60000000149,56601.60000000149,57471.5,58424.29999999702,59196.79999999702,59836.5],"key_events":[],"mouse_events":[3686.7999999970198,5267.5,7264.39999999851,8451.89999999851,8677.39999999851,9348.89999999851,10385.5,10809.5,11199.39999999851,11560.5,14544.60000000149,16186.60000000149,16680.39999999851,17111.60000000149,21494.20000000298,22189.5,22564.79999999702,23108.39999999851,23775.70000000298,28268.89999999851,29758.60000000149,34004.70000000298,35560,36234.60000000149,36735.5,37279.10000000149,40926.5,54654.39999999851,55141,55676.60000000149,56121.89999999851,56601.60000000149,57130.29999999702,57471.5,58424.29999999702,59196.79999999702,59836.5,62949.70000000298,63666.29999999702,64934.39999999851],"honeypot":0,"survey":"mace","page":10,"trial_type":"survey-mace","trial_index":18,"time_elapsed":680130,"internal_node_id":"0.0-18.0","task_version":"prescreen-v0.3","browser_interactions":0,"instructed":0},{"rt":7938.4000000059605,"trial_type":"mental-health-alert","trial_index":19,"time_elapsed":688074,"internal_node_id":"0.0-19.0","task_version":"prescreen-v0.3","interactions":"[]"}]