[{"view_history":[{"page_index":0,"viewing_time":4856.79999999702},{"page_index":1,"viewing_time":3072.3999999910593},{"page_index":2,"viewing_time":8609.60000000894},{"page_index":3,"viewing_time":1182.3999999910593}],"rt":17722.79999999702,"trial_type":"instructions","trial_index":0,"time_elapsed":17739,"internal_node_id":"0.0-0.0","task_version":"prescreen-v0.3"},{"rt":11780.40000000596,"responses":{"age":"22","gender-categorical":"Female","gender-free-response":"","ethnicity":"Not Hispanic or Latino","race":["White"],"education":"Some college"},"trial_type":"survey-demo","trial_index":1,"time_elapsed":29529,"internal_node_id":"0.0-1.0","task_version":"prescreen-v0.3"},{"responses":{"Q02":"0","Q04":"1","Q20":"0","Q14":"1","Q01":"0","Q10":"2","Q13":"1","Q18":"1","Q05":"2","Q08":"1","Q17":"1","Q15":"2","Q12":"3","Q21":"3","Q19":"1","Q07":"1","Q11":"2","Q09":"3","Q03":"0","Q06":"1","Q16":"1"},"rt":208842.80000001192,"item_order":[1,3,19,13,0,9,12,17,4,7,16,14,11,20,18,6,10,8,2,5,15],"radio_events":[7708.20000000298,42023.10000000894,44575.5,53775.70000000298,58532.40000000596,61405.60000000894,88738.70000000298,101708.80000001192,125876,129767.10000000894,133465.30000001192,142243.60000000894,148898.30000001192,159278.40000000596,170887.30000001192,176507.90000000596,186436.80000001192,190454.80000001192,193422.80000001192,194648.70000000298,200408.80000001192,205531.30000001192],"key_events":[],"mouse_events":[7708.20000000298,17865.60000000894,42023.10000000894,44575.5,53775.70000000298,56905.70000000298,58532.40000000596,61405.60000000894,88738.70000000298,101708.80000001192,125876,129767.10000000894,133465.30000001192,142243.60000000894,148898.30000001192,158080.40000000596,159278.40000000596,170887.30000001192,176507.90000000596,186436.80000001192,190454.80000001192,193422.80000001192,194648.70000000298,200408.80000001192,205531.30000001192,208835.20000000298],"straightlining":0.47619047619047616,"zigzagging":0.65,"honeypot":0,"survey":"sns","trial_type":"survey-template","trial_index":2,"time_elapsed":238391,"internal_node_id":"0.0-2.0","task_version":"prescreen-v0.3","browser_interactions":0,"infrequency":0},{"responses":{"Q05":"3","Q09":"2","Q07":"3","Q08":"2","Q06":"2","Q01":"3","Q13":"0","Q04":"3","Q11":"2","Q10":"1","Q12":"1","Q03":"3","Q02":"2"},"rt":94243.90000000596,"item_order":[4,8,6,7,5,0,12,3,10,9,11,2,1],"radio_events":[7685.20000000298,14599.40000000596,16545.90000000596,22986.70000000298,26007.5,30899.5,34052.40000000596,56431.70000000298,61460.60000000894,76671.20000000298,82184.29999999702,88382,93017.79999999702],"key_events":[],"mouse_events":[7685.20000000298,13826.29999999702,14599.40000000596,16545.90000000596,22986.70000000298,26007.5,30899.5,34052.40000000596,56431.70000000298,61460.60000000894,76671.20000000298,82184.29999999702,88382,93017.79999999702,94239.79999999702],"straightlining":0.38461538461538464,"zigzagging":0.75,"honeypot":0,"survey":"bisbas","trial_type":"survey-template","trial_index":3,"time_elapsed":332647,"internal_node_id":"0.0-3.0","task_version":"prescreen-v0.3","browser_interactions":0,"infrequency":0},{"responses":{"Q01":"3","Q02":"2","Q03":"3"},"rt":21115.89999999106,"radio_events":[6462.20000000298,15165.20000000298,20216.89999999106],"key_events":[],"mouse_events":[6462.20000000298,15165.20000000298,20216.89999999106,21114],"survey":"map","page":1,"trial_type":"survey-map","trial_index":4,"time_elapsed":353774,"internal_node_id":"0.0-4.0","task_version":"prescreen-v0.3","browser_interactions":0},{"responses":{"Q04":"3","Q05":"1","Q06":"2"},"rt":17300.59999999404,"radio_events":[6626.5999999940395,11982.89999999106,16529.39999999106],"key_events":[],"mouse_events":[6626.5999999940395,11982.89999999106,16529.39999999106,17298.89999999106],"survey":"map","page":2,"trial_type":"survey-map","trial_index":5,"time_elapsed":371085,"internal_node_id":"0.0-5.0","task_version":"prescreen-v0.3","browser_interactions":0},{"responses":{"Q07":"1","Q08":"4","Q09":"3"},"rt":15569.60000000894,"radio_events":[6541.5,11617.29999999702,14605.70000000298],"key_events":[],"mouse_events":[4703.29999999702,6541.5,10908.29999999702,11617.29999999702,14605.70000000298,15567.70000000298],"survey":"map","page":3,"trial_type":"survey-map","trial_index":6,"time_elapsed":386664,"internal_node_id":"0.0-6.0","task_version":"prescreen-v0.3","browser_interactions":0},{"responses":{"Q10":"3","Q11":"2","Q12":"3","Q13":"4","Q16":"0","Q14":"3","Q15":"1"},"rt":70806.79999999702,"radio_events":[17005,24033,28083.69999998808,48078.89999999106,49578,53603.59999999404,60238.09999999404,68296.39999999106],"key_events":[],"mouse_events":[10334.79999999702,17005,24033,28083.69999998808,48078.89999999106,49578,53603.59999999404,60238.09999999404,68296.39999999106,70803.19999998808],"survey":"map","page":4,"trial_type":"survey-map","trial_index":7,"time_elapsed":457483,"internal_node_id":"0.0-7.0","task_version":"prescreen-v0.3","browser_interactions":0,"infrequency":0},{"view_history":[{"page_index":0,"viewing_time":2120.2000000029802},{"page_index":1,"viewing_time":3441.699999988079}],"rt":5563.20000000298,"trial_type":"instructions","trial_index":8,"time_elapsed":463053,"internal_node_id":"0.0-8.0","task_version":"prescreen-v0.3"},{"responses":{"01":"No","02":"Yes","02_ages_15":"15","02_ages_16":"16","03":"No","04":"No","05":"No","06":"No"},"rt":34489.89999999106,"item_order":[0,1,2,3,4,5],"radio_events":[12079.79999999702,15200.09999999404,29319.79999999702,30974,32087.70000000298,33650.09999999404],"checkbox_events":[21729.70000000298,24972.59999999404],"key_events":[],"mouse_events":[0.09999999403953552,12079.79999999702,15200.09999999404,21729.70000000298,24972.59999999404,29319.79999999702,30974,32087.70000000298,33650.09999999404,34479.89999999106],"honeypot":0,"survey":"mace","page":1,"trial_type":"survey-mace","trial_index":9,"time_elapsed":497556,"internal_node_id":"0.0-9.0","task_version":"prescreen-v0.3","browser_interactions":0},{"responses":{"01":"No","02":"No","03":"Yes","03_ages_3":"3","03_ages_4":"4","03_ages_5":"5","03_ages_6":"6","04":"Yes","04_ages_3":"3","04_ages_4":"4","05":"No","06":"No","07":"No","08":"No"},"rt":30837,"item_order":[0,1,2,3,4,5,6,7],"radio_events":[3168.7000000029802,9522.70000000298,11982.79999999702,20331.40000000596,25875.70000000298,27357.70000000298,28591.40000000596,29912.90000000596],"checkbox_events":[14061.5,14823.09999999404,15439.90000000596,16394.09999999404,21537.5,22114.40000000596],"key_events":[],"mouse_events":[3168.7000000029802,9522.70000000298,11982.79999999702,14061.5,14823.09999999404,15439.90000000596,16394.09999999404,20331.40000000596,21537.5,22114.40000000596,25875.70000000298,27357.70000000298,28591.40000000596,29912.90000000596,30829.5],"honeypot":0,"survey":"mace","page":2,"trial_type":"survey-mace","trial_index":10,"time_elapsed":528402,"internal_node_id":"0.0-10.0","task_version":"prescreen-v0.3","browser_interactions":0},{"responses":{"01":"No","02":"No","03":"No","04":"No"},"rt":11859.90000000596,"item_order":[0,1,2,3],"radio_events":[4189.70000000298,8724.5,9657.800000011921,10948.20000000298],"checkbox_events":[],"key_events":[],"mouse_events":[4189.70000000298,8724.5,9657.800000011921,10948.20000000298,11852.5],"honeypot":0,"survey":"mace","page":3,"trial_type":"survey-mace","trial_index":11,"time_elapsed":540271,"internal_node_id":"0.0-11.0","task_version":"prescreen-v0.3","browser_interactions":0},{"responses":{"01":"No","02":"No"},"rt":7934.5,"item_order":[0,1],"radio_events":[4017.7000000029802,5460],"checkbox_events":[],"key_events":[],"mouse_events":[4017.7000000029802,5460,7930.9000000059605],"honeypot":0,"survey":"mace","page":4,"trial_type":"survey-mace","trial_index":12,"time_elapsed":548215,"internal_node_id":"0.0-12.0","task_version":"prescreen-v0.3","browser_interactions":0},{"responses":{"01":"No","02":"No","03":"No","04":"No","05":"No"},"rt":28537.79999999702,"item_order":[0,1,2,3,4],"radio_events":[14247.59999999404,16110.09999999404,20180.59999999404,22243.89999999106,23990.29999999702],"checkbox_events":[],"key_events":[],"mouse_events":[14247.59999999404,16110.09999999404,20180.59999999404,22243.89999999106,23990.29999999702,28529.20000000298],"honeypot":0,"survey":"mace","page":5,"trial_type":"survey-mace","trial_index":13,"time_elapsed":576763,"internal_node_id":"0.0-13.0","task_version":"prescreen-v0.3","browser_interactions":0},{"responses":{"01":"Yes","01_ages_8":"8","01_ages_9":"9","01_ages_10":"10","02":"Yes","02_ages_8":"8","02_ages_9":"9","02_ages_10":"10","02_ages_11":"11","02_ages_12":"12","02_ages_13":"13","02_ages_14":"14","02_ages_15":"15","02_ages_16":"16","03":"Yes","03_ages_8":"8","03_ages_9":"9","04":"Yes","04_ages_13":"13","04_ages_14":"14","04_ages_15":"15","04_ages_16":"16","04_ages_17":"17","04_ages_18":"18","05":"No"},"rt":47995.70000000298,"item_order":[0,1,2,3,4],"radio_events":[4746.600000008941,15402.90000000596,28443.90000000596,33648,47249.5],"checkbox_events":[6845.9000000059605,7717.9000000059605,8632.90000000596,18447.70000000298,19069.20000000298,19726.40000000596,20327.40000000596,21369.10000000894,21889.40000000596,23287.79999999702,23977.20000000298,24818.5,29974.29999999702,30831.40000000596,37938.79999999702,38731.90000000596,39645,40286,40891,42373.60000000894],"key_events":[],"mouse_events":[4746.600000008941,6845.9000000059605,7717.9000000059605,8632.90000000596,15402.90000000596,18447.70000000298,19069.20000000298,19726.40000000596,20327.40000000596,21369.10000000894,21889.40000000596,22458.29999999702,23287.79999999702,23977.20000000298,24818.5,28443.90000000596,29974.29999999702,30831.40000000596,33648,37938.79999999702,38731.90000000596,39645,40286,40891,41748.29999999702,42373.60000000894,47249.5,47986.90000000596],"honeypot":0,"survey":"mace","page":6,"trial_type":"survey-mace","trial_index":14,"time_elapsed":624768,"internal_node_id":"0.0-14.0","task_version":"prescreen-v0.3","browser_interactions":0},{"responses":{"01":"No","02":"No","03":"No","04":"No","05":"No","06":"No","07":"No"},"rt":19651.79999999702,"item_order":[0,1,2,3,4,5,6],"radio_events":[4954.4000000059605,7243,11808.90000000596,14348.70000000298,15559.29999999702,17108.90000000596,19031.5],"checkbox_events":[],"key_events":[],"mouse_events":[3857.1000000089407,4954.4000000059605,6397.70000000298,7243,11808.90000000596,13427.5,14348.70000000298,15559.29999999702,17108.90000000596,18367.20000000298,19031.5,19641.10000000894],"honeypot":0,"survey":"mace","page":7,"trial_type":"survey-mace","trial_index":15,"time_elapsed":644427,"internal_node_id":"0.0-15.0","task_version":"prescreen-v0.3","browser_interactions":0},{"responses":{"01":"No","02":"No","03":"No","04":"No"},"rt":21743.70000000298,"item_order":[0,1,2,3],"radio_events":[14040,15972.09999999404,17846.90000000596,20935],"checkbox_events":[],"key_events":[],"mouse_events":[14040,15972.09999999404,17846.90000000596,20935,21736.20000000298],"honeypot":0,"survey":"mace","page":8,"trial_type":"survey-mace","trial_index":16,"time_elapsed":666178,"internal_node_id":"0.0-16.0","task_version":"prescreen-v0.3","browser_interactions":0},{"responses":{"01":"Yes","01_ages_1":"1","01_ages_2":"2","01_ages_3":"3","01_ages_4":"4","01_ages_5":"5","01_ages_6":"6","01_ages_7":"7","01_ages_8":"8","01_ages_9":"9","01_ages_10":"10","01_ages_11":"11","01_ages_12":"12","01_ages_13":"13","01_ages_14":"14","01_ages_15":"15","01_ages_16":"16","01_ages_17":"17","01_ages_18":"18","02":"Yes","02_ages_1":"1","02_ages_2":"2","02_ages_3":"3","02_ages_4":"4","02_ages_5":"5","02_ages_6":"6","02_ages_7":"7","02_ages_8":"8","02_ages_9":"9","02_ages_10":"10","02_ages_11":"11","02_ages_12":"12","02_ages_13":"13","02_ages_14":"14","02_ages_15":"15","02_ages_16":"16","02_ages_17":"17","02_ages_18":"18","03":"Yes","03_ages_1":"1","03_ages_2":"2","03_ages_3":"3","03_ages_4":"4","03_ages_5":"5","03_ages_6":"6","03_ages_7":"7","03_ages_8":"8","03_ages_9":"9","03_ages_10":"10","03_ages_11":"11","03_ages_12":"12","03_ages_13":"13","03_ages_14":"14","03_ages_15":"15","03_ages_16":"16","03_ages_17":"17","03_ages_18":"18","04":"Yes","04_ages_1":"1","04_ages_2":"2","04_ages_3":"3","04_ages_4":"4","04_ages_5":"5","04_ages_6":"6","04_ages_7":"7","04_ages_8":"8","04_ages_9":"9","04_ages_10":"10","04_ages_11":"11","04_ages_12":"12","04_ages_13":"13","04_ages_14":"14","04_ages_15":"15","04_ages_16":"16","04_ages_17":"17","04_ages_18":"18"},"rt":87111.60000000894,"item_order":[0,1,2,3],"radio_events":[4975.100000008941,33379.90000000596,57229.10000000894,70970.5],"checkbox_events":[9705.40000000596,10394.29999999702,11627.90000000596,12157,12717.20000000298,13234.20000000298,14171.70000000298,14860.60000000894,15550,15990.10000000894,16615.29999999702,17436.10000000894,18173.29999999702,18837.79999999702,19591.29999999702,20288.20000000298,20841.20000000298,21618,37775.40000000596,38729.29999999702,40463.79999999702,41745.5,42539.20000000298,43536.10000000894,44121.29999999702,45732.29999999702,46653.5,47714.60000000894,48299.70000000298,49021.10000000894,49638.10000000894,50663.60000000894,51208.29999999702,51873.5,52366.10000000894,52887.10000000894,58515.40000000596,59164.79999999702,59973.60000000894,61295.60000000894,61828.29999999702,62421.10000000894,62949.90000000596,63462.79999999702,64055.79999999702,64552.60000000894,65177.5,66327.20000000298,66856.10000000894,67401.10000000894,68001.79999999702,68570.70000000298,69147.79999999702,70077.20000000298,72869,73382.40000000596,73975.10000000894,74455.90000000596,75421.70000000298,76054.70000000298,76759.90000000596,77617,78338.29999999702,79415.60000000894,80513.79999999702,81298.79999999702,82019.90000000596,82653.10000000894,83254.10000000894,83859,84500.10000000894,85894.20000000298],"key_events":[],"mouse_events":[4185.9000000059605,4975.100000008941,9705.40000000596,10394.29999999702,11019,11627.90000000596,12157,12717.20000000298,13234.20000000298,13723.20000000298,14171.70000000298,14860.60000000894,15550,15990.10000000894,16615.29999999702,17436.10000000894,18173.29999999702,18837.79999999702,19591.29999999702,20288.20000000298,20841.20000000298,21618,33379.90000000596,37775.40000000596,38729.29999999702,39814.79999999702,40463.79999999702,41000.29999999702,41745.5,42539.20000000298,43019.70000000298,43536.10000000894,44121.29999999702,45251.10000000894,45732.29999999702,46204.5,46653.5,47714.60000000894,48299.70000000298,49021.10000000894,49638.10000000894,50222.70000000298,50663.60000000894,51208.29999999702,51873.5,52366.10000000894,52887.10000000894,57229.10000000894,58515.40000000596,59164.79999999702,59973.60000000894,60574.70000000298,61295.60000000894,61828.29999999702,62421.10000000894,62949.90000000596,63462.79999999702,64055.79999999702,64552.60000000894,65177.5,65794.60000000894,66327.20000000298,66856.10000000894,67401.10000000894,68001.79999999702,68570.70000000298,69147.79999999702,69547.79999999702,70077.20000000298,70970.5,72869,73382.40000000596,73975.10000000894,74455.90000000596,74956.90000000596,75421.70000000298,76054.70000000298,76759.90000000596,77617,78338.29999999702,79415.60000000894,80513.79999999702,81298.79999999702,82019.90000000596,82653.10000000894,83254.10000000894,83859,84500.10000000894,85036.79999999702,85894.20000000298,87104.20000000298],"honeypot":0,"survey":"mace","page":9,"trial_type":"survey-mace","trial_index":17,"time_elapsed":753300,"internal_node_id":"0.0-17.0","task_version":"prescreen-v0.3","browser_interactions":0},{"responses":{"01":"No","02":"No","03":"No","04":"Yes","04_ages_7":"7","04_ages_8":"8","04_ages_9":"9","04_ages_10":"10","04_ages_11":"11","04_ages_12":"12","04_ages_13":"13","04_ages_14":"14","04_ages_15":"15","04_ages_16":"16","04_ages_17":"17","04_ages_18":"18","05":"No","06":"Yes","06_ages_17":"17","07":"Yes","07_ages_10":"10","07_ages_11":"11","07_ages_12":"12","07_ages_13":"13","07_ages_14":"14","07_ages_15":"15","07_ages_16":"16","07_ages_17":"17","07_ages_18":"18","08":"No"},"rt":44998.90000000596,"item_order":[0,1,2,3,4,5,6,7],"radio_events":[3560.5,4409.4000000059605,5702.5999999940395,8090.0999999940395,23190.40000000596,24287.40000000596,29041.90000000596,42087.29999999702],"checkbox_events":[10722.29999999702,11242.40000000596,11762.90000000596,12267.59999999404,12748,13269.09999999404,13769.70000000298,14274.59999999404,15812.90000000596,17278,18091.70000000298,18621.29999999702,25626,31881,32474,33011.20000000298,33523.90000000596,34532.90000000596,35037.59999999404,36107,36588,37316.90000000596],"key_events":[],"mouse_events":[3560.5,4409.4000000059605,5702.5999999940395,8090.0999999940395,10722.29999999702,11242.40000000596,11762.90000000596,12267.59999999404,12748,13269.09999999404,13769.70000000298,14274.59999999404,15812.90000000596,17278,18091.70000000298,18621.29999999702,21936.5,23190.40000000596,24287.40000000596,25626,29041.90000000596,31881,32474,33011.20000000298,33523.90000000596,34084.5,34532.90000000596,35037.59999999404,35594.20000000298,36107,36588,37316.90000000596,42087.29999999702,44987.5],"honeypot":0,"survey":"mace","page":10,"trial_type":"survey-mace","trial_index":18,"time_elapsed":798311,"internal_node_id":"0.0-18.0","task_version":"prescreen-v0.3","browser_interactions":0,"instructed":0},{"rt":4879.5,"trial_type":"mental-health-alert","trial_index":19,"time_elapsed":803196,"internal_node_id":"0.0-19.0","task_version":"prescreen-v0.3","interactions":"[]"}]