[{"view_history":[{"page_index":0,"viewing_time":4466.5},{"page_index":1,"viewing_time":5167.900000095367},{"page_index":2,"viewing_time":4811.099999904633},{"page_index":3,"viewing_time":1994.4000000953674}],"rt":16443,"trial_type":"instructions","trial_index":0,"time_elapsed":16487,"internal_node_id":"0.0-0.0","task_version":"prescreen-v0.3"},{"rt":16341.600000023842,"responses":{"age":"51","gender-categorical":"Male","gender-free-response":"","ethnicity":"Not Hispanic or Latino","race":["White"],"education":"Bachelor degree","siblings":"2"},"trial_type":"survey-demo","trial_index":1,"time_elapsed":32845,"internal_node_id":"0.0-1.0","task_version":"prescreen-v0.3"},{"responses":{"Q14":"2","Q13":"1","Q05":"2","Q02":"0","Q04":"1","Q06":"2","Q18":"1","Q10":"0","Q19":"1","Q17":"1","Q08":"2","Q20":"0","Q16":"1","Q12":"1","Q03":"0","Q11":"2","Q21":"3","Q09":"2","Q01":"1","Q07":"1","Q15":"2"},"rt":102021.10000002384,"item_order":[13,12,4,1,3,5,17,9,18,16,7,19,15,11,2,10,20,8,0,6,14],"radio_events":[6267.600000023842,10255.300000071526,11506.900000095367,19497.5,23187.300000071526,28959.400000095367,35128.10000002384,41176.10000002384,44947.700000047684,50485.10000002384,53463.40000009537,56128.10000002384,59428.90000009537,65704.90000009537,73551.40000009537,77217.20000004768,81824.20000004768,83482.40000009537,86396.60000002384,89230.80000007153,96230.5,100798.10000002384],"key_events":[],"mouse_events":[6267.600000023842,10255.300000071526,11506.900000095367,19497.5,23187.300000071526,28959.400000095367,35128.10000002384,41176.10000002384,44947.700000047684,50485.10000002384,53463.40000009537,56128.10000002384,59428.90000009537,65704.90000009537,73551.40000009537,77217.20000004768,79581.10000002384,81824.20000004768,83482.40000009537,86396.60000002384,89230.80000007153,96230.5,100798.10000002384,102011.40000009537],"straightlining":0.42857142857142855,"zigzagging":0.7,"honeypot":0,"survey":"sns","trial_type":"survey-template","trial_index":2,"time_elapsed":134882,"internal_node_id":"0.0-2.0","task_version":"prescreen-v0.3","browser_interactions":0,"infrequency":0},{"responses":{"Q07":"3","Q06":"3","Q01":"1","Q02":"2","Q13":"0","Q11":"2","Q03":"3","Q10":"2","Q12":"1","Q04":"2","Q05":"3","Q09":"2","Q08":"2"},"rt":54458.799999952316,"item_order":[6,5,0,1,12,10,2,9,11,3,4,8,7],"radio_events":[4661.899999976158,8786.599999904633,13033.799999952316,15334.5,19258.599999904633,25953,31749.099999904633,35073.39999997616,38764.09999990463,45594.699999928474,48041.299999952316,50883.5,53498.699999928474],"key_events":[],"mouse_events":[4661.899999976158,8786.599999904633,13033.799999952316,15334.5,19258.599999904633,25953,31749.099999904633,35073.39999997616,38764.09999990463,45594.699999928474,48041.299999952316,50883.5,53498.699999928474,54452.299999952316],"straightlining":0.46153846153846156,"zigzagging":0.5833333333333334,"honeypot":0,"survey":"bisbas","trial_type":"survey-template","trial_index":3,"time_elapsed":189354,"internal_node_id":"0.0-3.0","task_version":"prescreen-v0.3","browser_interactions":0,"infrequency":0},{"responses":{"Q01":"3","Q02":"3","Q03":"3"},"rt":18901.399999976158,"radio_events":[8477.599999904633,12731.599999904633,17422.199999928474],"key_events":[],"mouse_events":[8477.599999904633,12731.599999904633,17422.199999928474,18899.399999976158],"survey":"map","page":1,"trial_type":"survey-map","trial_index":4,"time_elapsed":208263,"internal_node_id":"0.0-4.0","task_version":"prescreen-v0.3","browser_interactions":0},{"responses":{"Q04":"3","Q05":"2","Q06":"3"},"rt":19471.399999976158,"radio_events":[10685,13664.5,17257.599999904633,18444.299999952316],"key_events":[],"mouse_events":[10685,13664.5,17257.599999904633,18444.299999952316,19469.599999904633],"survey":"map","page":2,"trial_type":"survey-map","trial_index":5,"time_elapsed":227741,"internal_node_id":"0.0-5.0","task_version":"prescreen-v0.3","browser_interactions":0},{"responses":{"Q07":"3","Q08":"3","Q09":"3"},"rt":14598.5,"radio_events":[6030.800000071526,9770.600000023842,13645.600000023842],"key_events":[],"mouse_events":[6030.800000071526,9770.600000023842,13645.600000023842,14596.899999976158],"survey":"map","page":3,"trial_type":"survey-map","trial_index":6,"time_elapsed":242346,"internal_node_id":"0.0-6.0","task_version":"prescreen-v0.3","browser_interactions":0},{"responses":{"Q10":"3","Q11":"2","Q12":"2","Q13":"3","Q16":"0","Q14":"2","Q15":"1"},"rt":32839.199999928474,"radio_events":[4928.699999928474,7482.699999928474,12060.199999928474,17243.5,23500.399999976158,28239.699999928474,31590.100000023842],"key_events":[],"mouse_events":[4928.699999928474,7482.699999928474,12060.199999928474,17243.5,23500.399999976158,28239.699999928474,31590.100000023842,32834.60000002384],"survey":"map","page":4,"trial_type":"survey-map","trial_index":7,"time_elapsed":275197,"internal_node_id":"0.0-7.0","task_version":"prescreen-v0.3","browser_interactions":0,"infrequency":0},{"view_history":[{"page_index":0,"viewing_time":2620.600000023842},{"page_index":1,"viewing_time":6259.199999928474}],"rt":8880.699999928474,"trial_type":"instructions","trial_index":8,"time_elapsed":284082,"internal_node_id":"0.0-8.0","task_version":"prescreen-v0.3"},{"responses":{"01":"No","02":"No","03":"No","04":"No","05":"No","06":"No"},"rt":25273.5,"item_order":[0,1,2,3,4,5],"radio_events":[9790.300000071526,13584.600000023842,15725.200000047684,18420.800000071526,21442.200000047684,24179.200000047684],"checkbox_events":[],"key_events":[],"mouse_events":[0,9790.300000071526,13584.600000023842,15725.200000047684,18420.800000071526,21442.200000047684,24179.200000047684,25263.200000047684],"honeypot":0,"survey":"mace","page":1,"trial_type":"survey-mace","trial_index":9,"time_elapsed":309371,"internal_node_id":"0.0-9.0","task_version":"prescreen-v0.3","browser_interactions":0},{"responses":{"01":"No","02":"No","03":"Yes","03_ages_5":"5","03_ages_6":"6","03_ages_7":"7","03_ages_8":"8","04":"No","05":"No","06":"No","07":"No","08":"No"},"rt":30980.5,"item_order":[0,1,2,3,4,5,6,7],"radio_events":[3064.600000023842,5896.199999928474,10395.100000023842,22393.299999952316,25112.199999928474,26527.299999952316,28368.100000023842,30136.5],"checkbox_events":[16316.399999976158,17073.100000023842,18718,19599.699999928474],"key_events":[],"mouse_events":[3064.600000023842,5896.199999928474,10395.100000023842,16316.399999976158,17073.100000023842,17848.100000023842,18718,19599.699999928474,22393.299999952316,25112.199999928474,26527.299999952316,28368.100000023842,30136.5,30968],"honeypot":0,"survey":"mace","page":2,"trial_type":"survey-mace","trial_index":10,"time_elapsed":340359,"internal_node_id":"0.0-10.0","task_version":"prescreen-v0.3","browser_interactions":0},{"responses":{"01":"No","02":"No","03":"No","04":"No"},"rt":14151.200000047684,"item_order":[0,1,2,3],"radio_events":[5666.799999952316,9539.600000023842,11213.5,12650.899999976158],"checkbox_events":[],"key_events":[],"mouse_events":[5666.799999952316,9539.600000023842,11213.5,12650.899999976158,14144.700000047684],"honeypot":0,"survey":"mace","page":3,"trial_type":"survey-mace","trial_index":11,"time_elapsed":354515,"internal_node_id":"0.0-11.0","task_version":"prescreen-v0.3","browser_interactions":0},{"responses":{"01":"No","02":"No"},"rt":7816.199999928474,"item_order":[0,1],"radio_events":[5317.299999952316,6819.100000023842],"checkbox_events":[],"key_events":[],"mouse_events":[5317.299999952316,6819.100000023842,7812.199999928474],"honeypot":0,"survey":"mace","page":4,"trial_type":"survey-mace","trial_index":12,"time_elapsed":362337,"internal_node_id":"0.0-12.0","task_version":"prescreen-v0.3","browser_interactions":0},{"responses":{"01":"No","02":"No","03":"No","04":"No","05":"No"},"rt":20255.799999952316,"item_order":[0,1,2,3,4],"radio_events":[4818.799999952316,8710,13376.799999952316,16081.399999976158,19334.600000023842],"checkbox_events":[],"key_events":[],"mouse_events":[4818.799999952316,8710,13376.799999952316,16081.399999976158,19334.600000023842,20247.199999928474],"honeypot":0,"survey":"mace","page":5,"trial_type":"survey-mace","trial_index":13,"time_elapsed":382599,"internal_node_id":"0.0-13.0","task_version":"prescreen-v0.3","browser_interactions":0},{"responses":{"01":"No","02":"Yes","02_ages_12":"12","02_ages_13":"13","02_ages_14":"14","02_ages_15":"15","03":"No","04":"Yes","04_ages_13":"13","04_ages_14":"14","04_ages_15":"15","04_ages_16":"16","04_ages_17":"17","05":"Yes","05_ages_15":"15","05_ages_16":"16","05_ages_17":"17","05_ages_18":"18"},"rt":46671.40000009537,"item_order":[0,1,2,3,4],"radio_events":[11998.700000047684,14679.200000047684,27484.600000023842,29706.800000071526,40557.60000002384],"checkbox_events":[18886,19734.400000095367,20735.100000023842,22083.700000047684,32484.800000071526,32637.900000095367,32823.10000002384,34203.60000002384,34938.700000047684,35761.60000002384,36617.90000009537,42584.200000047684,43351.5,44094.10000002384,45652.10000002384],"key_events":[],"mouse_events":[11998.700000047684,14679.200000047684,18886,19734.400000095367,20735.100000023842,22083.700000047684,27484.600000023842,29706.800000071526,32484.800000071526,32637.900000095367,32823.10000002384,34203.60000002384,34938.700000047684,35761.60000002384,36617.90000009537,40557.60000002384,42584.200000047684,43351.5,44094.10000002384,45652.10000002384,46662.300000071526],"honeypot":0,"survey":"mace","page":6,"trial_type":"survey-mace","trial_index":14,"time_elapsed":429276,"internal_node_id":"0.0-14.0","task_version":"prescreen-v0.3","browser_interactions":0},{"responses":{"01":"No","02":"No","03":"No","04":"No","05":"No","06":"No","07":"No"},"rt":22246.600000023842,"item_order":[0,1,2,3,4,5,6],"radio_events":[3440.100000023842,5450.300000071526,11699.200000047684,12829.600000023842,15758.399999976158,19788.399999976158,20789.700000047684],"checkbox_events":[],"key_events":[],"mouse_events":[3440.100000023842,5450.300000071526,11699.200000047684,12829.600000023842,15758.399999976158,17616.600000023842,19788.399999976158,20789.700000047684,22235.300000071526],"honeypot":0,"survey":"mace","page":7,"trial_type":"survey-mace","trial_index":15,"time_elapsed":451529,"internal_node_id":"0.0-15.0","task_version":"prescreen-v0.3","browser_interactions":0},{"responses":{"01":"No","02":"No","03":"No","04":"No"},"rt":22349.099999904633,"item_order":[0,1,2,3],"radio_events":[12107.5,14820.099999904633,19446.799999952316,21513.399999976158],"checkbox_events":[],"key_events":[],"mouse_events":[12107.5,14820.099999904633,19446.799999952316,21513.399999976158,22342.5],"honeypot":0,"survey":"mace","page":8,"trial_type":"survey-mace","trial_index":16,"time_elapsed":473884,"internal_node_id":"0.0-16.0","task_version":"prescreen-v0.3","browser_interactions":0},{"responses":{"01":"Yes","01_ages_4":"4","01_ages_5":"5","01_ages_6":"6","01_ages_7":"7","01_ages_8":"8","01_ages_9":"9","01_ages_10":"10","01_ages_11":"11","01_ages_12":"12","01_ages_13":"13","01_ages_14":"14","01_ages_15":"15","01_ages_16":"16","01_ages_17":"17","01_ages_18":"18","02":"Yes","02_ages_4":"4","02_ages_5":"5","02_ages_6":"6","02_ages_7":"7","02_ages_8":"8","02_ages_9":"9","02_ages_10":"10","02_ages_11":"11","02_ages_12":"12","02_ages_13":"13","02_ages_14":"14","02_ages_15":"15","02_ages_16":"16","02_ages_17":"17","02_ages_18":"18","03":"Yes","03_ages_4":"4","03_ages_5":"5","03_ages_6":"6","03_ages_7":"7","03_ages_8":"8","03_ages_9":"9","03_ages_10":"10","03_ages_11":"11","03_ages_12":"12","03_ages_13":"13","03_ages_14":"14","03_ages_15":"15","03_ages_16":"16","03_ages_17":"17","03_ages_18":"18","04":"Yes","04_ages_4":"4","04_ages_5":"5","04_ages_6":"6","04_ages_7":"7","04_ages_8":"8","04_ages_9":"9","04_ages_10":"10","04_ages_11":"11","04_ages_12":"12","04_ages_13":"13","04_ages_14":"14","04_ages_15":"15","04_ages_16":"16","04_ages_17":"17","04_ages_18":"18"},"rt":81176.20000004768,"item_order":[0,1,2,3],"radio_events":[3805.9000000953674,25660.800000071526,47063.60000002384,64808],"checkbox_events":[9974.100000023842,11209.5,11984.200000047684,12751.100000023842,13995,15438.400000095367,16344.200000047684,17158.400000095367,18362.5,19242.600000023842,20049.900000095367,21018.800000071526,22076.200000047684,23149.800000071526,24118.900000095367,27816.5,28712.400000095367,30262.900000095367,32071.5,33031.700000047684,34138.10000002384,35106.90000009537,35847.800000071526,36912.90000009537,37917,39434.60000002384,40395.40000009537,41324,42631.700000047684,43447.40000009537,48516.200000047684,49195.200000047684,50180.40000009537,52117.10000002384,53045.10000002384,54305.200000047684,55095.700000047684,56589.5,57535.60000002384,58325.800000071526,59319.200000047684,60134,61077.5,61878.40000009537,62799.5,67295.90000009537,68200.10000002384,69169.20000004768,70323.30000007153,71250.30000007153,72274.70000004768,73156,73921.70000004768,74730.80000007153,75504.80000007153,76561.5,77460,78210.70000004768,79091.20000004768,79979.10000002384],"key_events":[],"mouse_events":[3805.9000000953674,9974.100000023842,11209.5,11984.200000047684,12751.100000023842,13995,15438.400000095367,16344.200000047684,17158.400000095367,18362.5,19242.600000023842,20049.900000095367,21018.800000071526,22076.200000047684,23149.800000071526,24118.900000095367,25660.800000071526,27816.5,28712.400000095367,30262.900000095367,32071.5,33031.700000047684,34138.10000002384,35106.90000009537,35847.800000071526,36912.90000009537,37917,39434.60000002384,40395.40000009537,41324,42631.700000047684,43447.40000009537,45821.200000047684,47063.60000002384,48516.200000047684,49195.200000047684,50180.40000009537,52117.10000002384,53045.10000002384,54305.200000047684,55095.700000047684,56001.10000002384,56589.5,57535.60000002384,58325.800000071526,59319.200000047684,60134,61077.5,61878.40000009537,62799.5,64808,67295.90000009537,68200.10000002384,69169.20000004768,70323.30000007153,71250.30000007153,72274.70000004768,73156,73921.70000004768,74730.80000007153,75504.80000007153,76561.5,77460,78210.70000004768,79091.20000004768,79979.10000002384,81166.5],"honeypot":0,"survey":"mace","page":9,"trial_type":"survey-mace","trial_index":17,"time_elapsed":555070,"internal_node_id":"0.0-17.0","task_version":"prescreen-v0.3","browser_interactions":0},{"responses":{"01":"No","02":"No","03":"No","04":"Yes","04_ages_13":"13","04_ages_14":"14","04_ages_15":"15","05":"No","06":"Yes","06_ages_17":"17","07":"Yes","07_ages_4":"4","07_ages_5":"5","07_ages_6":"6","07_ages_7":"7","07_ages_8":"8","07_ages_9":"9","07_ages_10":"10","07_ages_11":"11","07_ages_12":"12","07_ages_13":"13","07_ages_14":"14","07_ages_15":"15","07_ages_16":"16","07_ages_17":"17","07_ages_18":"18","08":"Yes","08_ages_4":"4","08_ages_5":"5","08_ages_6":"6","08_ages_7":"7","08_ages_8":"8","08_ages_9":"9","08_ages_10":"10","08_ages_11":"11","08_ages_12":"12","08_ages_13":"13","08_ages_14":"14","08_ages_15":"15","08_ages_16":"16","08_ages_17":"17","08_ages_18":"18"},"rt":61080.5,"item_order":[0,1,2,3,4,5,6,7],"radio_events":[5928.799999952316,7567.5,8681.600000023842,12936,20355.5,23455,28630.399999976158,45120.699999928474],"checkbox_events":[15618.100000023842,16423.199999928474,17255,25449,30454.199999928474,31584.5,32198,32860.299999952316,33586.5,34596.10000002384,35717.799999952316,36347.39999997616,36976.89999997616,38270.199999928474,39154.299999952316,39979.39999997616,41294.60000002384,42038.699999928474,42942.799999952316,46258.89999997616,47098.60000002384,48672.39999997616,49576.699999928474,50408.39999997616,51103.799999952316,51782.89999997616,52547.60000002384,53363.199999928474,54194.5,55268.699999928474,56067.5,56923.39999997616,57926.5,59210.60000002384],"key_events":[],"mouse_events":[4628.899999976158,5928.799999952316,6808,7567.5,8681.600000023842,12936,15618.100000023842,16423.199999928474,17255,20355.5,23455,25449,28630.399999976158,30454.199999928474,31584.5,32198,32860.299999952316,33586.5,34596.10000002384,35717.799999952316,36347.39999997616,36976.89999997616,38270.199999928474,39154.299999952316,39979.39999997616,41294.60000002384,42038.699999928474,42942.799999952316,45120.699999928474,46258.89999997616,47098.60000002384,47825.299999952316,48672.39999997616,49576.699999928474,50408.39999997616,51103.799999952316,51782.89999997616,52547.60000002384,53363.199999928474,54194.5,55268.699999928474,56067.5,56923.39999997616,57926.5,59210.60000002384,61067.60000002384],"honeypot":0,"survey":"mace","page":10,"trial_type":"survey-mace","trial_index":18,"time_elapsed":616162,"internal_node_id":"0.0-18.0","task_version":"prescreen-v0.3","browser_interactions":0,"instructed":0},{"rt":2505.7999999523163,"trial_type":"mental-health-alert","trial_index":19,"time_elapsed":618673,"internal_node_id":"0.0-19.0","task_version":"prescreen-v0.3","interactions":"[]"}]