[{"view_history":[{"page_index":0,"viewing_time":4182},{"page_index":1,"viewing_time":1755},{"page_index":2,"viewing_time":1277},{"page_index":3,"viewing_time":903}],"rt":8117,"trial_type":"instructions","trial_index":0,"time_elapsed":8123,"internal_node_id":"0.0-0.0","task_version":"prescreen-v0.3"},{"rt":10048,"responses":{"age":"21","gender-categorical":"Female","gender-free-response":"","ethnicity":"Hispanic or Latino","race":["White"],"education":"Bachelor degree"},"trial_type":"survey-demo","trial_index":1,"time_elapsed":18176,"internal_node_id":"0.0-1.0","task_version":"prescreen-v0.3"},{"responses":{"Q05":"1","Q01":"2","Q18":"2","Q14":"2","Q02":"1","Q04":"1","Q09":"1","Q11":"0","Q03":"1","Q06":"1","Q13":"2","Q10":"0","Q07":"0","Q16":"2","Q15":"2","Q17":"1","Q12":"2","Q21":"3","Q19":"1","Q20":"0","Q08":"2"},"rt":87892,"item_order":[4,0,17,13,1,3,8,10,2,5,12,9,6,15,14,16,11,20,18,19,7],"radio_events":[14026.000000000007,17044,21592,22763,25732,33329,34403,38950,41073,48746,50421,52926,56855,59254,60360,65315,67836,71700,75401,79964,82437,87073],"key_events":[],"mouse_events":[14026.000000000007,17044,20567,21592,22763,24911,25732,28962.000000000007,33329,34403,37827,38950,41073,48746,50421,52926,56855,59254,60360,65315,67836,71700,75401,79964,82437,87073,87879],"straightlining":0.38095238095238093,"zigzagging":0.45,"honeypot":0,"survey":"sns","trial_type":"survey-template","trial_index":2,"time_elapsed":106075,"internal_node_id":"0.0-2.0","task_version":"prescreen-v0.3","browser_interactions":0,"infrequency":0},{"responses":{"Q08":"2","Q01":"3","Q10":"2","Q03":"3","Q12":"2","Q11":"2","Q07":"3","Q05":"3","Q04":"3","Q13":"0","Q06":"2","Q09":"2","Q02":"3"},"rt":36832,"item_order":[7,0,9,2,11,10,6,4,3,12,5,8,1],"radio_events":[7856,8946,10890,13102.000000000015,17031,19837,21456,24628,26426,29467.00000000003,32558,34314,36055],"key_events":[],"mouse_events":[7856,8946,10890,13102.000000000015,17031,19837,21456,24628,26426,27792,29467.00000000003,32558,34314,36055,36827],"straightlining":0.46153846153846156,"zigzagging":0.5833333333333334,"honeypot":0,"survey":"bisbas","trial_type":"survey-template","trial_index":3,"time_elapsed":142911,"internal_node_id":"0.0-3.0","task_version":"prescreen-v0.3","browser_interactions":0,"infrequency":0},{"responses":{"Q01":"2","Q02":"2","Q03":"2"},"rt":15486.99999999997,"radio_events":[6690.999999999971,9391.99999999997,13857.99999999997],"key_events":[],"mouse_events":[6690.999999999971,9391.99999999997,13857.99999999997,15483.99999999997],"survey":"map","page":1,"trial_type":"survey-map","trial_index":4,"time_elapsed":158402,"internal_node_id":"0.0-4.0","task_version":"prescreen-v0.3","browser_interactions":0},{"responses":{"Q04":"1","Q05":"2","Q06":"3"},"rt":11090,"radio_events":[3614,8346,10112],"key_events":[],"mouse_events":[3614,8346,10112,11088],"survey":"map","page":2,"trial_type":"survey-map","trial_index":5,"time_elapsed":169496,"internal_node_id":"0.0-5.0","task_version":"prescreen-v0.3","browser_interactions":0},{"responses":{"Q07":"4","Q08":"4","Q09":"3"},"rt":12604.99999999997,"radio_events":[5827.999999999971,7063.999999999971,10080.99999999997,11837.99999999997],"key_events":[],"mouse_events":[5827.999999999971,7063.999999999971,10080.99999999997,11837.99999999997,12602.99999999997],"survey":"map","page":3,"trial_type":"survey-map","trial_index":6,"time_elapsed":182104,"internal_node_id":"0.0-6.0","task_version":"prescreen-v0.3","browser_interactions":0},{"responses":{"Q10":"0","Q11":"1","Q12":"1","Q13":"2","Q16":"0","Q14":"1","Q15":"1"},"rt":26332.00000000003,"radio_events":[4306,6126,10006,13243,19471,21985,25368],"key_events":[],"mouse_events":[4306,6126,10006,13243,19471,21985,25368,26328],"survey":"map","page":4,"trial_type":"survey-map","trial_index":7,"time_elapsed":208423,"internal_node_id":"0.0-7.0","task_version":"prescreen-v0.3","browser_interactions":0,"infrequency":0},{"view_history":[{"page_index":0,"viewing_time":2279},{"page_index":1,"viewing_time":1399}],"rt":3678,"trial_type":"instructions","trial_index":8,"time_elapsed":212102,"internal_node_id":"0.0-8.0","task_version":"prescreen-v0.3"},{"responses":{"01":"Yes","01_ages_12":"12","01_ages_13":"13","01_ages_14":"14","01_ages_15":"15","01_ages_16":"16","01_ages_17":"17","02":"Yes","02_ages_12":"12","02_ages_13":"13","02_ages_14":"14","02_ages_15":"15","02_ages_16":"16","02_ages_17":"17","02_ages_18":"18","03":"Yes","03_ages_12":"12","03_ages_13":"13","03_ages_14":"14","03_ages_15":"15","03_ages_16":"16","03_ages_17":"17","03_ages_18":"18","04":"Yes","04_ages_10":"10","04_ages_11":"11","04_ages_12":"12","04_ages_13":"13","04_ages_14":"14","04_ages_15":"15","04_ages_16":"16","05":"No","06":"Yes","06_ages_12":"12","06_ages_13":"13","06_ages_14":"14","06_ages_15":"15","06_ages_16":"16","06_ages_17":"17","06_ages_18":"18"},"rt":57364.00000000006,"item_order":[0,1,2,3,4,5],"radio_events":[9700.00000000003,22608,31538,39785,48781,50692],"checkbox_events":[15874,16606,17272,17971,18760,19549,24332,25088,25739,26487,27218.00000000003,27870,28675,32920.00000000003,33693,34466,35101,35848,36581.00000000003,37337.00000000003,41957,42729,43380,44168.99999999997,44828.00000000003,45495,46227.00000000003,52750,53498,54116,54710,55344,55962,56629],"key_events":[],"mouse_events":[0,4838,9700.00000000003,12018,15874,16606,17272,17971,18760,19549,22608,24332,25088,25739,26487,27218.00000000003,27870,28675,31538,32920.00000000003,33693,34466,35101,35848,36581.00000000003,37337.00000000003,38866.00000000003,39785,41957,42729,43380,44168.99999999997,44828.00000000003,45495,46227.00000000003,48781,50692,52750,53498,54116,54710,55344,55962,56629,57354],"honeypot":0,"survey":"mace","page":1,"trial_type":"survey-mace","trial_index":9,"time_elapsed":269469,"internal_node_id":"0.0-9.0","task_version":"prescreen-v0.3","browser_interactions":0},{"responses":{"01":"No","02":"No","03":"Yes","03_ages_12":"12","03_ages_13":"13","03_ages_14":"14","03_ages_15":"15","03_ages_16":"16","04":"No","05":"No","06":"No","07":"No","08":"No"},"rt":21889,"item_order":[0,1,2,3,4,5,6,7],"radio_events":[2709.000000000058,5214,7849,14502,16487,17569,20302,21115],"checkbox_events":[9744,10525,11143,11777,12395],"key_events":[],"mouse_events":[2709.000000000058,5214,7849,9744,10525,11143,11777,12395,14502,16487,17569,19260,20302,21115,21879],"honeypot":0,"survey":"mace","page":2,"trial_type":"survey-mace","trial_index":10,"time_elapsed":291363,"internal_node_id":"0.0-10.0","task_version":"prescreen-v0.3","browser_interactions":0},{"responses":{"01":"No","02":"No","03":"No","04":"No"},"rt":8612,"item_order":[0,1,2,3],"radio_events":[4582,6029,6965,7802],"checkbox_events":[],"key_events":[],"mouse_events":[4582,6029,6965,7802,8608],"honeypot":0,"survey":"mace","page":3,"trial_type":"survey-mace","trial_index":11,"time_elapsed":299979,"internal_node_id":"0.0-11.0","task_version":"prescreen-v0.3","browser_interactions":0},{"responses":{"01":"No","02":"No"},"rt":4663,"item_order":[0,1],"radio_events":[1952,3074],"checkbox_events":[],"key_events":[],"mouse_events":[1952,3074,4660],"honeypot":0,"survey":"mace","page":4,"trial_type":"survey-mace","trial_index":12,"time_elapsed":304644,"internal_node_id":"0.0-12.0","task_version":"prescreen-v0.3","browser_interactions":0},{"responses":{"01":"No","02":"No","03":"No","04":"Yes","04_ages_12":"12","04_ages_13":"13","04_ages_14":"14","04_ages_15":"15","04_ages_16":"16","04_ages_17":"17","04_ages_18":"18","05":"No"},"rt":28634,"item_order":[0,1,2,3,4],"radio_events":[5017,12662,14850,17925,27505],"checkbox_events":[21836,22479,23121,23723,24374,25195.00000000006,25870],"key_events":[],"mouse_events":[5017,12662,14850,17184,17925,21071,21836,22479,23121,23723,24374,25195.00000000006,25870,27505,28628],"honeypot":0,"survey":"mace","page":5,"trial_type":"survey-mace","trial_index":13,"time_elapsed":333283,"internal_node_id":"0.0-13.0","task_version":"prescreen-v0.3","browser_interactions":0},{"responses":{"01":"Yes","01_ages_12":"12","01_ages_13":"13","01_ages_14":"14","01_ages_15":"15","01_ages_16":"16","01_ages_17":"17","01_ages_18":"18","02":"Yes","02_ages_12":"12","02_ages_13":"13","02_ages_14":"14","02_ages_15":"15","02_ages_16":"16","02_ages_17":"17","02_ages_18":"18","03":"Yes","03_ages_12":"12","03_ages_13":"13","03_ages_14":"14","03_ages_15":"15","03_ages_16":"16","03_ages_17":"17","03_ages_18":"18","04":"Yes","04_ages_10":"10","04_ages_11":"11","04_ages_12":"12","04_ages_13":"13","04_ages_14":"14","04_ages_15":"15","04_ages_16":"16","04_ages_17":"17","04_ages_18":"18","05":"No"},"rt":48755,"item_order":[0,1,2,3,4],"radio_events":[8969,21882,30895,37890,48097],"checkbox_events":[10197,11035,11767,12458,13215,13955,14573,15289,16119,22874,23663,24257,25005,25713,26290,27169,32001,32595,33172,33725,34522,35352,36084,39386,40313,40964,41655,42403,43054,43859,44575,45193],"key_events":[],"mouse_events":[8969,10197,11035,11767,12458,13215,13955,14573,15289,16119,21882,22874,23663,24257,25005,25713,26290,27169,30895,32001,32595,33172,33725,34522,35352,36084,37890,39386,40313,40964,41655,42403,43054,43859,44575,45193,48097,48747.00000000006],"honeypot":0,"survey":"mace","page":6,"trial_type":"survey-mace","trial_index":14,"time_elapsed":382043,"internal_node_id":"0.0-14.0","task_version":"prescreen-v0.3","browser_interactions":0},{"responses":{"01":"No","02":"Yes","02_ages_12":"12","02_ages_13":"13","02_ages_14":"14","02_ages_15":"15","02_ages_16":"16","02_ages_17":"17","02_ages_18":"18","03":"No","04":"No","05":"No","06":"No","07":"Yes","07_ages_14":"14","07_ages_15":"15"},"rt":41199,"item_order":[0,1,2,3,4,5,6],"radio_events":[17873,19288,26974,27991,29268,30382,36938],"checkbox_events":[20321.00000000006,21159,21826.00000000006,22672.00000000006,23404,24079,24713.00000000006,38361,39150],"key_events":[],"mouse_events":[17873,19288,20321.00000000006,21159,21826.00000000006,22672.00000000006,23404,24079,24713.00000000006,26974,27991,29268,30382,36938,38361,39150,41192],"honeypot":0,"survey":"mace","page":7,"trial_type":"survey-mace","trial_index":15,"time_elapsed":423248,"internal_node_id":"0.0-15.0","task_version":"prescreen-v0.3","browser_interactions":0},{"responses":{"01":"Yes","01_ages_12":"12","01_ages_13":"13","01_ages_14":"14","01_ages_15":"15","01_ages_16":"16","01_ages_17":"17","01_ages_18":"18","02":"No","03":"Yes","03_ages_10":"10","03_ages_11":"11","03_ages_12":"12","03_ages_13":"13","03_ages_14":"14","03_ages_15":"15","03_ages_16":"16","03_ages_17":"17","03_ages_18":"18","04":"No"},"rt":29804,"item_order":[0,1,2,3],"radio_events":[8114,16329,19387,29018],"checkbox_events":[9578,10229,10872.000000000058,11571,12181,13458,14215,20518,21331.00000000006,21982,22885,23666,24324,24918,25699,26472],"key_events":[],"mouse_events":[8114,9578,10229,10872.000000000058,11571,12181,13458,14215,16329,19387,20518,21331.00000000006,21982,22885,23666,24324,24918,25699,26472,29018,29799],"honeypot":0,"survey":"mace","page":8,"trial_type":"survey-mace","trial_index":16,"time_elapsed":453057,"internal_node_id":"0.0-16.0","task_version":"prescreen-v0.3","browser_interactions":0},{"responses":{"01":"Yes","01_ages_1":"1","01_ages_2":"2","01_ages_3":"3","01_ages_4":"4","01_ages_5":"5","01_ages_6":"6","01_ages_7":"7","01_ages_8":"8","01_ages_9":"9","01_ages_10":"10","01_ages_11":"11","01_ages_12":"12","01_ages_13":"13","01_ages_14":"14","01_ages_15":"15","01_ages_16":"16","01_ages_17":"17","01_ages_18":"18","02":"Yes","02_ages_1":"1","02_ages_2":"2","02_ages_3":"3","02_ages_4":"4","02_ages_5":"5","02_ages_6":"6","02_ages_7":"7","02_ages_8":"8","02_ages_9":"9","02_ages_10":"10","02_ages_11":"11","02_ages_12":"12","02_ages_13":"13","02_ages_14":"14","02_ages_15":"15","02_ages_16":"16","02_ages_17":"17","02_ages_18":"18","03":"Yes","03_ages_1":"1","03_ages_2":"2","03_ages_3":"3","03_ages_4":"4","03_ages_5":"5","03_ages_6":"6","03_ages_7":"7","03_ages_8":"8","03_ages_9":"9","03_ages_10":"10","03_ages_11":"11","03_ages_12":"12","03_ages_13":"13","03_ages_14":"14","03_ages_15":"15","03_ages_16":"16","03_ages_17":"17","03_ages_18":"18","04":"Yes","04_ages_1":"1","04_ages_2":"2","04_ages_3":"3","04_ages_4":"4","04_ages_5":"5","04_ages_6":"6","04_ages_7":"7","04_ages_8":"8","04_ages_9":"9","04_ages_10":"10","04_ages_11":"11","04_ages_12":"12","04_ages_13":"13","04_ages_14":"14","04_ages_15":"15","04_ages_16":"16","04_ages_17":"17","04_ages_18":"18"},"rt":72748,"item_order":[0,1,2,3],"radio_events":[4285.000000000058,25204,40438,57972.00000000006],"checkbox_events":[10840,12044,12768.000000000058,13573,14248,15062,15729,16355,17087,17754,18380,19153,19901,20780.00000000006,21471,22130,22732.00000000006,23350.00000000006,27091,27921,29271,29913,30547.00000000006,31158,32028,32792,33394,34037,34606,35517,36139,36794,37445,38006.00000000006,38697,39413,43845.00000000006,44431,45000,45626,46301,46895,47668,48879,49538,50864,51718,52458.00000000006,53288,53979,54581,55337,55963.00000000006,56605,59582.00000000006,60282,60924.00000000006,61600,62266,62868,63503,64104,64837.00000000006,65926,66763.99999999994,67635.00000000006,68285.00000000006,69074,69887,70636,71449,72076],"key_events":[],"mouse_events":[3439.000000000058,4285.000000000058,10840,12044,12768.000000000058,13573,14248,15062,15729,16355,17087,17754,18380,19153,19901,20780.00000000006,21471,22130,22732.00000000006,23350.00000000006,25204,27091,27921,29271,29913,30547.00000000006,31158,32028,32792,33394,34037,34606,35517,36139,36794,37445,38006.00000000006,38697,39413,40438,43845.00000000006,44431,45000,45626,46301,46895,47668,48245,48879,49538,50172.00000000006,50864,51718,52458.00000000006,53288,53979,54581,55337,55963.00000000006,56605,57972.00000000006,59582.00000000006,60282,60924.00000000006,61600,62266,62868,63503,64104,64837.00000000006,65926,66763.99999999994,67635.00000000006,68285.00000000006,69074,69887,70636,71449,72076,72743],"honeypot":0,"survey":"mace","page":9,"trial_type":"survey-mace","trial_index":17,"time_elapsed":525810,"internal_node_id":"0.0-17.0","task_version":"prescreen-v0.3","browser_interactions":0},{"responses":{"01":"No","02":"No","03":"Yes","03_ages_10":"10","03_ages_11":"11","03_ages_12":"12","03_ages_13":"13","03_ages_14":"14","03_ages_15":"15","03_ages_16":"16","03_ages_17":"17","03_ages_18":"18","04":"Yes","04_ages_8":"8","04_ages_9":"9","04_ages_10":"10","04_ages_11":"11","04_ages_12":"12","04_ages_13":"13","04_ages_14":"14","04_ages_15":"15","04_ages_16":"16","04_ages_17":"17","04_ages_18":"18","05":"No","06":"Yes","06_ages_17":"17","07":"Yes","07_ages_1":"1","07_ages_2":"2","07_ages_3":"3","07_ages_4":"4","07_ages_5":"5","07_ages_6":"6","07_ages_7":"7","07_ages_8":"8","07_ages_9":"9","07_ages_10":"10","07_ages_11":"11","07_ages_12":"12","07_ages_13":"13","07_ages_14":"14","07_ages_15":"15","07_ages_16":"16","07_ages_17":"17","07_ages_18":"18","08":"Yes","08_ages_1":"1","08_ages_2":"2","08_ages_3":"3","08_ages_4":"4","08_ages_5":"5","08_ages_6":"6","08_ages_7":"7","08_ages_8":"8","08_ages_9":"9","08_ages_10":"10","08_ages_11":"11","08_ages_12":"12","08_ages_13":"13","08_ages_14":"14","08_ages_15":"15","08_ages_16":"16","08_ages_17":"17","08_ages_18":"18"},"rt":75559,"item_order":[0,1,2,3,4,5,6,7],"radio_events":[3154,4105,6358,17394,36413,38097,43506,53559],"checkbox_events":[7960,8813,10310,11042,11872.000000000116,12620,13254,15540,16353.000000000116,19988,20639,21298,21932,23315,24055,25153,25959,26560,27138,27910,39569.00000000012,45848.00000000012,46507,47125,47808,48426,48987,49646.00000000012,50264,50907,51525,55551,56299,56885,57600,58357,59113,59739,60381,61073,61894,62569.00000000012,63350,64147,64733,65342,65985,67823,68491,69653,70516,71288,71914,72565,73167,73818,74590],"key_events":[],"mouse_events":[3154,4105,6358,7960,8813,10310,11042,11872.000000000116,12620,13254,15540,16353.000000000116,17394,19988,20639,21298,21932,23315,24055,25153,25959,26560,27138,27910,36413,38097,39569.00000000012,43506,45848.00000000012,46507,47125,47808,48426,48987,49646.00000000012,50264,50907,51525,53559,55551,56299,56885,57600,58357,59113,59739,60381,61073,61894,62569.00000000012,63350,64147,64733,65342,65985,67823,68491,69653,70516,71288,71914,72565,73167,73818,74590,75550.00000000012],"honeypot":0,"survey":"mace","page":10,"trial_type":"survey-mace","trial_index":18,"time_elapsed":601374,"internal_node_id":"0.0-18.0","task_version":"prescreen-v0.3","browser_interactions":0,"instructed":0},{"rt":6711,"trial_type":"mental-health-alert","trial_index":19,"time_elapsed":608088,"internal_node_id":"0.0-19.0","task_version":"prescreen-v0.3","interactions":"[]"}]