[{"view_history":[{"page_index":0,"viewing_time":4553.639999998268},{"page_index":1,"viewing_time":4839.009999996051},{"page_index":2,"viewing_time":3530.7749999919906},{"page_index":3,"viewing_time":1646.840000001248}],"rt":14571.059999987483,"trial_type":"instructions","trial_index":0,"time_elapsed":14585,"internal_node_id":"0.0-0.0","task_version":"prescreen-v0.3"},{"rt":13472.29999996489,"responses":{"age":"22","gender-categorical":"Female","gender-free-response":"","ethnicity":"Not Hispanic or Latino","race":["White"],"education":"Some college"},"trial_type":"survey-demo","trial_index":1,"time_elapsed":28065,"internal_node_id":"0.0-1.0","task_version":"prescreen-v0.3"},{"responses":{"Q12":"3","Q14":"2","Q01":"2","Q13":"2","Q09":"2","Q18":"1","Q21":"3","Q08":"2","Q07":"0","Q06":"0","Q16":"1","Q11":"2","Q20":"0","Q10":"1","Q19":"1","Q04":"2","Q05":"1","Q15":"2","Q02":"1","Q17":"1","Q03":"1"},"rt":113917.5900000264,"item_order":[11,13,0,12,8,17,20,7,6,5,15,10,19,9,18,3,4,14,1,16,2],"radio_events":[10276.989999983925,14898.664999986067,17126.71500002034,19844.29999999702,22890.4099999927,28357.855000009295,32973.185000009835,36863.27000003075,42677.46000003535,45617.99499997869,53613.85500000324,57915.67000001669,59971.52000002097,64761.73500000732,81853.47999999067,85914.35500001535,93238.71499998495,104240.66499999026,107398.84999999776,109709.52500001295,112832.7500000014],"key_events":[],"mouse_events":[10276.989999983925,14898.664999986067,17126.71500002034,19844.29999999702,22890.4099999927,28357.855000009295,32973.185000009835,36863.27000003075,42677.46000003535,45617.99499997869,53613.85500000324,57915.67000001669,59971.52000002097,64761.73500000732,81853.47999999067,85914.35500001535,93238.71499998495,104240.66499999026,107398.84999999776,109709.52500001295,112832.7500000014,113914.92000001017],"straightlining":0.38095238095238093,"zigzagging":0.5,"honeypot":0,"survey":"sns","trial_type":"survey-template","trial_index":2,"time_elapsed":141991,"internal_node_id":"0.0-2.0","task_version":"prescreen-v0.3","browser_interactions":0,"infrequency":0},{"responses":{"Q06":"2","Q12":"1","Q13":"0","Q11":"2","Q08":"3","Q05":"3","Q07":"3","Q03":"3","Q04":"3","Q09":"2","Q01":"3","Q10":"2","Q02":"3"},"rt":69398.35499995388,"item_order":[5,11,12,10,7,4,6,2,3,8,0,9,1],"radio_events":[5778.590000001714,9996.779999986757,13110.48499995377,23054.42999996012,30913.324999972247,33600.08999996353,36309.955000004265,50305.59499998344,53470.570000004955,57455.21499996539,59522.78999995906,64477.674999972805,68807.2449999745],"key_events":[],"mouse_events":[5778.590000001714,9996.779999986757,13110.48499995377,23054.42999996012,30913.324999972247,33600.08999996353,36309.955000004265,50305.59499998344,53470.570000004955,57455.21499996539,59522.78999995906,64477.674999972805,68807.2449999745,69396.75999997417],"straightlining":0.5384615384615384,"zigzagging":0.5833333333333334,"honeypot":0,"survey":"bisbas","trial_type":"survey-template","trial_index":3,"time_elapsed":211393,"internal_node_id":"0.0-3.0","task_version":"prescreen-v0.3","browser_interactions":0,"infrequency":0},{"responses":{"Q01":"2","Q02":"2","Q03":"3"},"rt":24882.79499998316,"radio_events":[7283.750000002328,18737.979999976233,23452.24999997299],"key_events":[],"mouse_events":[7283.750000002328,18737.979999976233,23452.24999997299,24881.984999985434],"survey":"map","page":1,"trial_type":"survey-map","trial_index":4,"time_elapsed":236280,"internal_node_id":"0.0-4.0","task_version":"prescreen-v0.3","browser_interactions":0},{"responses":{"Q04":"2","Q05":"2","Q06":"2"},"rt":18010.934999969322,"radio_events":[5364.559999958146,8596.039999974892,10018.76499998616,15744.19499997748,17014.679999963846],"key_events":[],"mouse_events":[5364.559999958146,8596.039999974892,10018.76499998616,15744.19499997748,17014.679999963846,18010.214999958407],"survey":"map","page":2,"trial_type":"survey-map","trial_index":5,"time_elapsed":254293,"internal_node_id":"0.0-5.0","task_version":"prescreen-v0.3","browser_interactions":0},{"responses":{"Q07":"3","Q08":"1","Q09":"3"},"rt":24991.059999971185,"radio_events":[13220.154999988154,20962.880000006407,23931.67999997968],"key_events":[],"mouse_events":[13220.154999988154,17675.935000006575,20962.880000006407,23931.67999997968,24990.300000004936],"survey":"map","page":3,"trial_type":"survey-map","trial_index":6,"time_elapsed":279286,"internal_node_id":"0.0-6.0","task_version":"prescreen-v0.3","browser_interactions":0},{"responses":{"Q10":"3","Q11":"2","Q12":"2","Q13":"1","Q16":"0","Q14":"3","Q15":"2"},"rt":49611.020000011194,"radio_events":[15009.459999972023,19180.019999970682,28215.499999991152,35146.42000000458,36636.53499999782,40287.68000000855,44346.85999999056,48434.19499997981],"key_events":[],"mouse_events":[15009.459999972023,19180.019999970682,28215.499999991152,35146.42000000458,36636.53499999782,40287.68000000855,44346.85999999056,48434.19499997981,49609.204999986105],"survey":"map","page":4,"trial_type":"survey-map","trial_index":7,"time_elapsed":328901,"internal_node_id":"0.0-7.0","task_version":"prescreen-v0.3","browser_interactions":0,"infrequency":0},{"view_history":[{"page_index":0,"viewing_time":2531.409999995958},{"page_index":1,"viewing_time":3876.784999971278}],"rt":6408.419999992475,"trial_type":"instructions","trial_index":8,"time_elapsed":335312,"internal_node_id":"0.0-8.0","task_version":"prescreen-v0.3"},{"responses":{"01":"No","02":"Yes","02_ages_7":"7","02_ages_8":"8","02_ages_9":"9","02_ages_10":"10","02_ages_11":"11","02_ages_12":"12","02_ages_13":"13","02_ages_14":"14","02_ages_15":"15","02_ages_16":"16","02_ages_17":"17","03":"No","04":"No","05":"No","06":"No"},"rt":63356.02999996627,"item_order":[0,1,2,3,4,5],"radio_events":[26832.360000000335,30034.80500000296,54964.67499999562,57593.01999997115,59257.84500001464,62664.63000001386],"checkbox_events":[36094.204999972135,40459.78500001365,41453.304999973625,41978.999999992084,43622.489999979734,44882.649999985006,45569.78499999968,46037.565000006,47304.934999963734,49564.69999998808,50170.29499995988],"key_events":[],"mouse_events":[0.109999964479357,26832.360000000335,30034.80500000296,36094.204999972135,40459.78500001365,41453.304999973625,41978.999999992084,42944.86499996856,43622.489999979734,44048.145000007935,44882.649999985006,45569.78499999968,46037.565000006,46695.68499998422,47304.934999963734,47738.234999997076,48158.369999960996,48553.78999997629,48997.97500000568,49564.69999998808,50170.29499995988,54964.67499999562,57593.01999997115,59257.84500001464,62664.63000001386,63351.22999997111],"honeypot":0,"survey":"mace","page":1,"trial_type":"survey-mace","trial_index":9,"time_elapsed":398675,"internal_node_id":"0.0-9.0","task_version":"prescreen-v0.3","browser_interactions":0},{"responses":{"01":"No","02":"No","03":"Yes","03_ages_4":"4","03_ages_5":"5","03_ages_6":"6","03_ages_7":"7","03_ages_8":"8","03_ages_9":"9","03_ages_10":"10","03_ages_11":"11","04":"Yes","04_ages_4":"4","04_ages_5":"5","04_ages_6":"6","05":"Yes","05_ages_6":"6","05_ages_7":"7","06":"No","07":"No","08":"No"},"rt":52304.484999971464,"item_order":[0,1,2,3,4,5,6,7],"radio_events":[3977.744999981951,11741.975000011735,13764.985000016168,32270.10500000324,40084.8850000184,47657.46499999659,49066.59000000218,51458.044999977574],"checkbox_events":[15154.135000018869,16523.314999998547,17081.41500002239,18211.29499998642,18776.330000022426,19697.489999991376,20549.119999981485,21275.68500000052,21826.270000019576,22956.209999974817,24894.845000002533,26002.719999989495,34410.42500000913,35040.474999987055,36567.08000000799,43414.0699999989,43987.04999999609],"key_events":[],"mouse_events":[3977.744999981951,11741.975000011735,13764.985000016168,15154.135000018869,15703.42500001425,16523.314999998547,17081.41500002239,18211.29499998642,18776.330000022426,19220.960000006016,19697.489999991376,20549.119999981485,21275.68500000052,21826.270000019576,22956.209999974817,24894.845000002533,26002.719999989495,32270.10500000324,34410.42500000913,35040.474999987055,36567.08000000799,40084.8850000184,43414.0699999989,43987.04999999609,47657.46499999659,49066.59000000218,51458.044999977574,52299.05999999028],"honeypot":0,"survey":"mace","page":2,"trial_type":"survey-mace","trial_index":10,"time_elapsed":450985,"internal_node_id":"0.0-10.0","task_version":"prescreen-v0.3","browser_interactions":0},{"responses":{"01":"No","02":"No","03":"No","04":"No"},"rt":12585.5299999821,"item_order":[0,1,2,3],"radio_events":[6189.914999995381,8152.029999997467,10103.039999958128,11750.759999966249],"checkbox_events":[],"key_events":[],"mouse_events":[6189.914999995381,8152.029999997467,10103.039999958128,11750.759999966249,12583.159999980126],"honeypot":0,"survey":"mace","page":3,"trial_type":"survey-mace","trial_index":11,"time_elapsed":463574,"internal_node_id":"0.0-11.0","task_version":"prescreen-v0.3","browser_interactions":0},{"responses":{"01":"No","02":"No"},"rt":5805.0749999820255,"item_order":[0,1],"radio_events":[2435.1049999822862,4896.290000004228],"checkbox_events":[],"key_events":[],"mouse_events":[2435.1049999822862,4896.290000004228,5803.940000012517],"honeypot":0,"survey":"mace","page":4,"trial_type":"survey-mace","trial_index":12,"time_elapsed":469384,"internal_node_id":"0.0-12.0","task_version":"prescreen-v0.3","browser_interactions":0},{"responses":{"01":"No","02":"No","03":"No","04":"No","05":"No"},"rt":16530.510000011418,"item_order":[0,1,2,3,4],"radio_events":[5605.440000013914,8820.100000011735,10730.470000009518,13226.3549999916,15759.785000002012],"checkbox_events":[],"key_events":[],"mouse_events":[5605.440000013914,8820.100000011735,10730.470000009518,13226.3549999916,15759.785000002012,16527.330000011716],"honeypot":0,"survey":"mace","page":5,"trial_type":"survey-mace","trial_index":13,"time_elapsed":485921,"internal_node_id":"0.0-13.0","task_version":"prescreen-v0.3","browser_interactions":0},{"responses":{"01":"Yes","01_ages_12":"12","01_ages_13":"13","01_ages_14":"14","01_ages_15":"15","02":"Yes","02_ages_10":"10","02_ages_11":"11","02_ages_12":"12","02_ages_13":"13","02_ages_14":"14","02_ages_15":"15","03":"No","04":"Yes","04_ages_8":"8","04_ages_9":"9","04_ages_10":"10","04_ages_11":"11","04_ages_12":"12","05":"No"},"rt":43561.74000003375,"item_order":[0,1,2,3,4],"radio_events":[6779.115000041202,21601.20500001358,33212.72500004852,35651.665000012144,42986.32500000531],"checkbox_events":[13606.795000028796,14495.965000009164,15422.17500001425,18583.635000046343,23692.52000004053,24488.375000015367,24983.705000020564,25449.65000002412,26612.959999998566,27638.695000030566,37674.97500003083,38297.74500004714,38782.18500001822,39509.93500003824,39977.75000002002],"key_events":[],"mouse_events":[6779.115000041202,13606.795000028796,14495.965000009164,15422.17500001425,18583.635000046343,21601.20500001358,23692.52000004053,24488.375000015367,24983.705000020564,25449.65000002412,26152.965000015683,26612.959999998566,27638.695000030566,33212.72500004852,35651.665000012144,36875.92500000028,37674.97500003083,38297.74500004714,38782.18500001822,39509.93500003824,39977.75000002002,42986.32500000531,43559.255000029225],"honeypot":0,"survey":"mace","page":6,"trial_type":"survey-mace","trial_index":14,"time_elapsed":529487,"internal_node_id":"0.0-14.0","task_version":"prescreen-v0.3","browser_interactions":0},{"responses":{"01":"No","02":"No","03":"No","04":"No","05":"No","06":"No","07":"No"},"rt":20110.594999976456,"item_order":[0,1,2,3,4,5,6],"radio_events":[4875.479999987874,7614.099999947939,9936.394999967888,13013.25999997789,16640.304999949876,18115.394999971613,19319.3049999536],"checkbox_events":[],"key_events":[],"mouse_events":[4875.479999987874,7614.099999947939,9936.394999967888,13013.25999997789,16640.304999949876,18115.394999971613,19319.3049999536,20103.9049999672],"honeypot":0,"survey":"mace","page":7,"trial_type":"survey-mace","trial_index":15,"time_elapsed":549604,"internal_node_id":"0.0-15.0","task_version":"prescreen-v0.3","browser_interactions":0},{"responses":{"01":"No","02":"No","03":"No","04":"No"},"rt":23792.114999960177,"item_order":[0,1,2,3],"radio_events":[12266.804999962915,15679.635000007693,19623.199999972712,23162.075000000186],"checkbox_events":[],"key_events":[],"mouse_events":[12266.804999962915,15679.635000007693,19623.199999972712,23162.075000000186,23789.79499998968],"honeypot":0,"survey":"mace","page":8,"trial_type":"survey-mace","trial_index":16,"time_elapsed":573400,"internal_node_id":"0.0-16.0","task_version":"prescreen-v0.3","browser_interactions":0},{"responses":{"01":"Yes","01_ages_1":"1","01_ages_2":"2","01_ages_3":"3","01_ages_4":"4","01_ages_5":"5","01_ages_6":"6","01_ages_7":"7","01_ages_8":"8","01_ages_9":"9","01_ages_10":"10","01_ages_11":"11","01_ages_12":"12","01_ages_13":"13","01_ages_14":"14","01_ages_15":"15","01_ages_16":"16","01_ages_17":"17","02":"Yes","02_ages_1":"1","02_ages_2":"2","02_ages_3":"3","02_ages_4":"4","02_ages_5":"5","02_ages_6":"6","02_ages_7":"7","02_ages_8":"8","02_ages_9":"9","02_ages_10":"10","02_ages_11":"11","02_ages_12":"12","02_ages_13":"13","02_ages_14":"14","02_ages_15":"15","02_ages_16":"16","02_ages_17":"17","03":"Yes","03_ages_1":"1","03_ages_2":"2","03_ages_3":"3","03_ages_4":"4","03_ages_5":"5","03_ages_6":"6","03_ages_7":"7","03_ages_8":"8","03_ages_9":"9","03_ages_10":"10","03_ages_11":"11","03_ages_12":"12","03_ages_13":"13","03_ages_14":"14","03_ages_15":"15","03_ages_16":"16","03_ages_17":"17","04":"Yes","04_ages_1":"1","04_ages_2":"2","04_ages_3":"3","04_ages_4":"4","04_ages_5":"5","04_ages_6":"6","04_ages_7":"7","04_ages_8":"8","04_ages_9":"9","04_ages_10":"10","04_ages_11":"11","04_ages_12":"12","04_ages_13":"13","04_ages_14":"14","04_ages_15":"15","04_ages_16":"16","04_ages_17":"17"},"rt":72902.2550000227,"item_order":[0,1,2,3],"radio_events":[7051.075000024866,24967.690000019502,41001.46499997936,59923.669999989215],"checkbox_events":[8941.26499997219,9830.175000010058,10815.385000023525,12660.970000026282,13476.619999972172,14277.11999998428,15157.245000009425,15811.15000002319,16385.14500000747,17341.72500000568,17867.09499999415,19232.55000001518,19717.639999988023,20153.945000027306,20856.124999991152,21357.30999999214,21995.200000004843,26385.034999984782,27024.68500001123,27486.180000007153,28460.89500002563,29164.82000000542,29624.030000006314,30718.880000000354,31097.859999979846,32228.989999974146,32842.75000001071,34047.06499999156,34850.06999998586,36110.15999998199,36675.86499999743,37556.240000005346,38056.449999974575,38525.65500000492,42318.759999994654,43371.79499998456,43987.770000007,44547.495000006165,45408.43000001041,45892.25999999326,47071.44500000868,47858.36000001291,48406.60500002559,48888.589999987744,50064.78000001516,50750.59000001056,51664.28999998607,52262.114999990445,52756.45500002429,53593.87500002049,54361.63499997929,61074.17500001611,61559.25499997102,62205.870000005234,63061.63499999093,63586.08500001719,64094.77500000503,64972.3000000231,65868.08500002371,66458.58500001486,67217.2750000027,67774.61999998195,68269.41499998793,69070.60999999521,69837.7900000196,70338.63499999279,70839.91500001866,71647.96500001103],"key_events":[],"mouse_events":[7051.075000024866,8941.26499997219,9830.175000010058,10815.385000023525,11380.624999990687,12660.970000026282,13476.619999972172,14277.11999998428,15157.245000009425,15811.15000002319,16385.14500000747,17341.72500000568,17867.09499999415,18658.49000000162,19232.55000001518,19717.639999988023,20153.945000027306,20856.124999991152,21357.30999999214,21995.200000004843,24967.690000019502,26385.034999984782,27024.68500001123,27486.180000007153,28460.89500002563,29164.82000000542,29624.030000006314,30718.880000000354,31097.859999979846,31751.975000021048,32228.989999974146,32842.75000001071,33335.100000025705,34047.06499999156,34850.06999998586,35367.10500001209,36110.15999998199,36675.86499999743,37556.240000005346,38056.449999974575,38525.65500000492,41001.46499997936,42318.759999994654,42820.97000000067,43371.79499998456,43987.770000007,44547.495000006165,45408.43000001041,45892.25999999326,46393.3749999851,47071.44500000868,47858.36000001291,48406.60500002559,48888.589999987744,49398.549999983516,50064.78000001516,50750.59000001056,51664.28999998607,52262.114999990445,52756.45500002429,53593.87500002049,54361.63499997929,59923.669999989215,61074.17500001611,61559.25499997102,62205.870000005234,63061.63499999093,63586.08500001719,64094.77500000503,64972.3000000231,65408.64999999758,65868.08500002371,66458.58500001486,67217.2750000027,67774.61999998195,68269.41499998793,69070.60999999521,69837.7900000196,70338.63499999279,70839.91500001866,71647.96500001103,72896.58000000054],"honeypot":0,"survey":"mace","page":9,"trial_type":"survey-mace","trial_index":17,"time_elapsed":646308,"internal_node_id":"0.0-17.0","task_version":"prescreen-v0.3","browser_interactions":0},{"responses":{"01":"No","02":"No","03":"No","04":"Yes","04_ages_9":"9","04_ages_10":"10","04_ages_11":"11","04_ages_12":"12","04_ages_13":"13","05":"No","06":"Yes","06_ages_17":"17","07":"Yes","07_ages_1":"1","07_ages_2":"2","07_ages_3":"3","07_ages_4":"4","07_ages_5":"5","07_ages_6":"6","07_ages_7":"7","07_ages_8":"8","07_ages_9":"9","07_ages_10":"10","07_ages_11":"11","07_ages_12":"12","07_ages_13":"13","07_ages_14":"14","07_ages_15":"15","07_ages_16":"16","07_ages_17":"17","08":"Yes","08_ages_1":"1","08_ages_2":"2","08_ages_3":"3","08_ages_4":"4","08_ages_5":"5","08_ages_6":"6","08_ages_7":"7","08_ages_8":"8","08_ages_9":"9","08_ages_10":"10","08_ages_11":"11","08_ages_12":"12","08_ages_13":"13","08_ages_14":"14","08_ages_15":"15","08_ages_16":"16","08_ages_17":"17"},"rt":62666.924999968614,"item_order":[0,1,2,3,4,5,6,7],"radio_events":[5939.329999964684,6945.27999998536,8980.55999999633,11782.889999973122,23849.869999976363,25951.0199999786,31780.82499996526,47447.314999997616],"checkbox_events":[14719.694999977946,15426.095000002533,16193.159999966156,16944.994999968912,18906.74000000581,28094.010000000708,33609.379999979865,34793.864999955986,35468.304999987595,36114.4749999512,36769.18999996269,37196.76999998046,37633.299999986775,38690.869999991264,39435.28499995591,39967.09999995073,40852.2149999626,41514.6099999547,42580.11499996064,43421.329999982845,44293.08499995386,44947.025000001304,45406.91999997944,48983.19499997888,49983.405000006314,50760.66999998875,51644.37999995425,52549.66499999864,53147.009999956936,54197.15500000166,54706.054999958724,55230.96999997506,56152.22999994876,57149.3049999699,57892.119999974966,59297.954999958165,59952.44999998249,60461.749999958556,60953.129999979865,61741.83999997331],"key_events":[],"mouse_events":[5939.329999964684,6945.27999998536,8980.55999999633,11782.889999973122,14719.694999977946,15426.095000002533,16193.159999966156,16944.994999968912,18906.74000000581,23849.869999976363,25951.0199999786,27512.415000004694,28094.010000000708,31780.82499996526,33609.379999979865,34067.11499998346,34793.864999955986,35468.304999987595,36114.4749999512,36769.18999996269,37196.76999998046,37633.299999986775,38690.869999991264,39435.28499995591,39967.09999995073,40852.2149999626,41514.6099999547,42079.45499999914,42580.11499996064,43421.329999982845,44293.08499995386,44947.025000001304,45406.91999997944,47447.314999997616,48983.19499997888,49459.06500000274,49983.405000006314,50760.66999998875,51226.86499997508,51644.37999995425,52549.66499999864,53147.009999956936,54197.15500000166,54706.054999958724,55230.96999997506,56152.22999994876,57149.3049999699,57892.119999974966,58610.91499996837,59297.954999958165,59952.44999998249,60461.749999958556,60953.129999979865,61741.83999997331,62662.24999999395],"honeypot":0,"survey":"mace","page":10,"trial_type":"survey-mace","trial_index":18,"time_elapsed":708982,"internal_node_id":"0.0-18.0","task_version":"prescreen-v0.3","browser_interactions":0,"instructed":0},{"rt":7095.114999974612,"trial_type":"mental-health-alert","trial_index":19,"time_elapsed":716079,"internal_node_id":"0.0-19.0","task_version":"prescreen-v0.3","interactions":"[]"}]