[{"view_history":[{"page_index":0,"viewing_time":2874.399999976158},{"page_index":1,"viewing_time":2893.600000023842},{"page_index":2,"viewing_time":2730.199999988079},{"page_index":3,"viewing_time":1459.8999999761581}],"rt":9958.599999964237,"trial_type":"instructions","trial_index":0,"time_elapsed":9970,"internal_node_id":"0.0-0.0","task_version":"prescreen-v0.3"},{"rt":12299.100000023842,"responses":{"age":"39","gender-categorical":"Male","gender-free-response":"","ethnicity":"Not Hispanic or Latino","race":["Asian"],"education":"Bachelor degree","siblings":"1"},"trial_type":"survey-demo","trial_index":1,"time_elapsed":22273,"internal_node_id":"0.0-1.0","task_version":"prescreen-v0.3"},{"responses":{"Q07":"1","Q21":"3","Q12":"2","Q04":"2","Q05":"1","Q11":"2","Q17":"1","Q13":"2","Q06":"2","Q18":"2","Q16":"3","Q19":"2","Q20":"1","Q10":"1","Q15":"2","Q14":"2","Q01":"2","Q08":"3","Q02":"2","Q03":"2","Q09":"2"},"rt":106217.90000003576,"item_order":[6,20,11,3,4,10,16,12,5,17,15,18,19,9,14,13,0,7,1,2,8],"radio_events":[5318.5,16918.5,18254.80000001192,21978.19999998808,31956.5,32908.10000002384,34940.10000002384,36970.19999998808,40150.19999998808,44114.30000001192,48330.30000001192,51248.10000002384,53016,57264.5,88786.10000002384,91246.19999998808,93544,95342,98198.10000002384,101338.10000002384,103242.10000002384],"key_events":[],"mouse_events":[5318.5,10910.300000011921,16918.5,17520.100000023842,18254.80000001192,21978.19999998808,30414.19999998808,31956.5,32908.10000002384,34940.10000002384,36970.19999998808,40150.19999998808,44114.30000001192,48330.30000001192,51248.10000002384,53016,57264.5,87818.40000003576,88372.40000003576,88786.10000002384,91246.19999998808,93544,95342,98198.10000002384,101338.10000002384,103242.10000002384,106216.30000001192],"straightlining":0.6190476190476191,"zigzagging":0.55,"honeypot":0,"survey":"sns","trial_type":"survey-template","trial_index":2,"time_elapsed":128495,"internal_node_id":"0.0-2.0","task_version":"prescreen-v0.3","browser_interactions":2,"infrequency":0},{"responses":{"Q04":"3","Q03":"2","Q02":"2","Q10":"2","Q12":"1","Q01":"2","Q09":"1","Q05":"2","Q08":"2","Q07":"3","Q06":"2","Q11":"1","Q13":"0"},"rt":51236,"item_order":[3,2,1,9,11,0,8,4,7,6,5,10,12],"radio_events":[13775.399999976158,18467.19999998808,18935.19999998808,23811.899999976158,24527.30000001192,25693.100000023842,28385.600000023842,32289,34213.39999997616,36567.19999998808,38107.5,40633.69999998808,42597.19999998808],"key_events":[],"mouse_events":[13775.399999976158,16307.100000023842,17801.399999976158,18209.100000023842,18467.19999998808,18935.19999998808,21283.30000001192,23811.899999976158,24527.30000001192,25693.100000023842,28385.600000023842,32289,34213.39999997616,36567.19999998808,38107.5,40633.69999998808,42597.19999998808,51235.10000002384],"straightlining":0.5384615384615384,"zigzagging":0.75,"honeypot":0,"survey":"bisbas","trial_type":"survey-template","trial_index":3,"time_elapsed":179732,"internal_node_id":"0.0-3.0","task_version":"prescreen-v0.3","browser_interactions":2,"infrequency":0},{"responses":{"Q01":"1","Q02":"1","Q03":"2"},"rt":16755.100000023842,"radio_events":[6738.800000011921,11062.5,14832.600000023842],"key_events":[],"mouse_events":[5848.699999988079,6325,6738.800000011921,11062.5,14832.600000023842,16754.600000023842],"survey":"map","page":1,"trial_type":"survey-map","trial_index":4,"time_elapsed":196490,"internal_node_id":"0.0-4.0","task_version":"prescreen-v0.3","browser_interactions":0},{"responses":{"Q04":"2","Q05":"2","Q06":"2"},"rt":10779.899999976158,"radio_events":[4463.5,7006,9763.5],"key_events":[],"mouse_events":[4463.5,7006,9047.5,9763.5,10779.399999976158],"survey":"map","page":2,"trial_type":"survey-map","trial_index":5,"time_elapsed":207272,"internal_node_id":"0.0-5.0","task_version":"prescreen-v0.3","browser_interactions":0},{"responses":{"Q07":"2","Q08":"2","Q09":"2"},"rt":27371,"radio_events":[21818.399999976158,22633.100000023842,24714.5,26494.5],"key_events":[],"mouse_events":[19948.5,21818.399999976158,22633.100000023842,24198.600000023842,24714.5,26274.600000023842,26494.5,27370.399999976158],"survey":"map","page":3,"trial_type":"survey-map","trial_index":6,"time_elapsed":234645,"internal_node_id":"0.0-6.0","task_version":"prescreen-v0.3","browser_interactions":2},{"responses":{"Q10":"1","Q11":"0","Q12":"1","Q13":"1","Q16":"0","Q14":"2","Q15":"3"},"rt":40233.60000002384,"radio_events":[11676.5,19176.600000023842,20206.5,23504.600000023842,26766.30000001192,32324.30000001192,35124.5,35742.5],"key_events":[],"mouse_events":[11676.5,15100.800000011921,18324.69999998808,19176.600000023842,20206.5,23504.600000023842,26766.30000001192,32324.30000001192,35124.5,35742.5,40232.60000002384],"survey":"map","page":4,"trial_type":"survey-map","trial_index":7,"time_elapsed":274882,"internal_node_id":"0.0-7.0","task_version":"prescreen-v0.3","browser_interactions":4,"infrequency":0},{"view_history":[{"page_index":0,"viewing_time":3432.399999976158},{"page_index":1,"viewing_time":12785.800000011921}],"rt":16218.899999976158,"trial_type":"instructions","trial_index":8,"time_elapsed":291102,"internal_node_id":"0.0-8.0","task_version":"prescreen-v0.3"},{"responses":{"01":"Yes","01_ages_9":"9","01_ages_10":"10","01_ages_11":"11","01_ages_12":"12","02":"No","03":"No","04":"No","05":"No","06":"No"},"rt":57853,"item_order":[0,1,2,3,4,5],"radio_events":[11889.699999988079,49363.69999998808,51365.5,52459.5,54099.60000002384,55595.5],"checkbox_events":[38415.30000001192,38924,39289.60000002384,42127.5],"key_events":[],"mouse_events":[0,11889.699999988079,38415.30000001192,38924,39289.60000002384,40407.5,41031.5,41815.39999997616,42127.5,49363.69999998808,51365.5,52459.5,54099.60000002384,55595.5,57849.89999997616],"honeypot":0,"survey":"mace","page":1,"trial_type":"survey-mace","trial_index":9,"time_elapsed":348961,"internal_node_id":"0.0-9.0","task_version":"prescreen-v0.3","browser_interactions":2},{"responses":{"01":"No","02":"No","03":"Yes","03_ages_6":"6","03_ages_7":"7","03_ages_8":"8","03_ages_9":"9","04":"No","05":"No","06":"No","07":"No","08":"No"},"rt":58304.799999952316,"item_order":[0,1,2,3,4,5,6,7],"radio_events":[3994.5,5250.299999952316,7608.099999964237,17188.299999952316,19060.099999964237,55132.09999996424,56090.299999952316,57065.5],"checkbox_events":[10872.399999976158,13418.399999976158,14264.399999976158,14592.399999976158],"key_events":[],"mouse_events":[3994.5,5250.299999952316,7608.099999964237,10872.399999976158,13418.399999976158,13818.099999964237,14264.399999976158,14592.399999976158,17188.299999952316,19060.099999964237,55132.09999996424,56090.299999952316,57065.5,58301.09999996424],"honeypot":0,"survey":"mace","page":2,"trial_type":"survey-mace","trial_index":10,"time_elapsed":407269,"internal_node_id":"0.0-10.0","task_version":"prescreen-v0.3","browser_interactions":0},{"responses":{"01":"No","02":"No","03":"No","04":"No"},"rt":15131.100000023842,"item_order":[0,1,2,3],"radio_events":[6300.900000035763,6712.900000035763,7415.200000047684,8090.700000047684],"checkbox_events":[],"key_events":[],"mouse_events":[4701,5286.700000047684,6004.900000035763,6300.900000035763,6712.900000035763,7415.200000047684,8090.700000047684,15129],"honeypot":0,"survey":"mace","page":3,"trial_type":"survey-mace","trial_index":11,"time_elapsed":422403,"internal_node_id":"0.0-11.0","task_version":"prescreen-v0.3","browser_interactions":0},{"responses":{"01":"No","02":"No"},"rt":4398.5,"item_order":[0,1],"radio_events":[2667.100000023842,3759.400000035763],"checkbox_events":[],"key_events":[],"mouse_events":[2667.100000023842,3193.100000023842,3759.400000035763,4397.400000035763],"honeypot":0,"survey":"mace","page":4,"trial_type":"survey-mace","trial_index":12,"time_elapsed":426804,"internal_node_id":"0.0-12.0","task_version":"prescreen-v0.3","browser_interactions":0},{"responses":{"01":"No","02":"No","03":"No","04":"No","05":"No"},"rt":91146.80000001192,"item_order":[0,1,2,3,4],"radio_events":[84078.5,85162.09999996424,87254.69999998808,87784.5,88074.5],"checkbox_events":[],"key_events":[],"mouse_events":[84078.5,85162.09999996424,86006.30000001192,86588.09999996424,87254.69999998808,87784.5,88074.5,91144.19999998808],"honeypot":0,"survey":"mace","page":5,"trial_type":"survey-mace","trial_index":13,"time_elapsed":517953,"internal_node_id":"0.0-13.0","task_version":"prescreen-v0.3","browser_interactions":0},{"responses":{"01":"No","02":"No","03":"No","04":"No","05":"No"},"rt":23563.400000035763,"item_order":[0,1,2,3,4],"radio_events":[12690.700000047684,17616.80000001192,18382.900000035763,19530.600000023842,20302.700000047684,20888.600000023842],"checkbox_events":[],"key_events":[],"mouse_events":[12690.700000047684,15460.800000011921,15914.800000011921,16312.5,16686.900000035763,17616.80000001192,18382.900000035763,18888.700000047684,19530.600000023842,20302.700000047684,20888.600000023842,23560.900000035763],"honeypot":0,"survey":"mace","page":6,"trial_type":"survey-mace","trial_index":14,"time_elapsed":541519,"internal_node_id":"0.0-14.0","task_version":"prescreen-v0.3","browser_interactions":0},{"responses":{"01":"No","02":"No","03":"No","04":"No","05":"No","06":"No","07":"No"},"rt":11807.799999952316,"item_order":[0,1,2,3,4,5,6],"radio_events":[3536.199999988079,4122,5152.099999964237,7955.599999964237,9096,9736.199999988079,10647.799999952316],"checkbox_events":[],"key_events":[],"mouse_events":[2126,3536.199999988079,4122,5152.099999964237,5714.199999988079,6526,7244.099999964237,7955.599999964237,8448,9096,9736.199999988079,10188.199999988079,10647.799999952316,11804.099999964237],"honeypot":0,"survey":"mace","page":7,"trial_type":"survey-mace","trial_index":15,"time_elapsed":553331,"internal_node_id":"0.0-15.0","task_version":"prescreen-v0.3","browser_interactions":0},{"responses":{"01":"No","02":"No","03":"No","04":"No"},"rt":29631.099999964237,"item_order":[0,1,2,3],"radio_events":[12259,14441.099999964237,15299.099999964237,27344.899999976158,28292.799999952316],"checkbox_events":[],"key_events":[],"mouse_events":[12259,14441.099999964237,15299.099999964237,26699,27344.899999976158,28292.799999952316,29628.899999976158],"honeypot":0,"survey":"mace","page":8,"trial_type":"survey-mace","trial_index":16,"time_elapsed":582964,"internal_node_id":"0.0-16.0","task_version":"prescreen-v0.3","browser_interactions":4},{"responses":{"01":"Yes","01_ages_1":"1","01_ages_2":"2","01_ages_3":"3","01_ages_4":"4","01_ages_5":"5","01_ages_6":"6","01_ages_7":"7","01_ages_8":"8","01_ages_9":"9","01_ages_10":"10","01_ages_11":"11","01_ages_12":"12","01_ages_13":"13","01_ages_14":"14","01_ages_15":"15","01_ages_16":"16","01_ages_17":"17","01_ages_18":"18","02":"Yes","02_ages_5":"5","02_ages_6":"6","02_ages_7":"7","02_ages_8":"8","02_ages_9":"9","02_ages_10":"10","02_ages_11":"11","02_ages_12":"12","02_ages_13":"13","02_ages_14":"14","02_ages_15":"15","02_ages_16":"16","03":"Yes","03_ages_1":"1","03_ages_2":"2","03_ages_3":"3","03_ages_4":"4","03_ages_5":"5","03_ages_6":"6","03_ages_7":"7","03_ages_8":"8","03_ages_9":"9","03_ages_10":"10","03_ages_11":"11","03_ages_12":"12","03_ages_13":"13","03_ages_14":"14","03_ages_15":"15","03_ages_16":"16","03_ages_17":"17","03_ages_18":"18","04":"Yes","04_ages_1":"1","04_ages_2":"2","04_ages_3":"3","04_ages_4":"4","04_ages_5":"5","04_ages_6":"6","04_ages_7":"7","04_ages_8":"8","04_ages_9":"9","04_ages_10":"10","04_ages_11":"11","04_ages_12":"12","04_ages_13":"13","04_ages_14":"14","04_ages_15":"15","04_ages_16":"16","04_ages_17":"17","04_ages_18":"18"},"rt":62137.10000002384,"item_order":[0,1,2,3],"radio_events":[3618.800000011921,23426.5,35388.60000002384,48922.60000002384],"checkbox_events":[9470.5,9900.700000047684,11424.800000011921,12790.700000047684,13126.200000047684,13400.800000011921,13876.5,14806.700000047684,15158.700000047684,15486.900000035763,15750.700000047684,16782.700000047684,17118.600000023842,18078.400000035763,18678.700000047684,19046.700000047684,19506.400000035763,20490.700000047684,20804.900000035763,21514.700000047684,21896.5,22364.700000047684,25198.200000047684,26362.600000023842,27252.80000001192,27564.600000023842,27978.700000047684,28838.700000047684,29424.700000047684,29946.600000023842,30680.700000047684,31048.700000047684,32533,33484.700000047684,36326.700000047684,36840.700000047684,38982.80000001192,39163.10000002384,39380.700000047684,39942.90000003576,40676.80000001192,41332.700000047684,42090.60000002384,42526.5,43308.700000047684,43644.60000002384,44002.700000047684,44346.80000001192,45556.700000047684,46306.700000047684,47486.60000002384,48156.700000047684,49960.5,52624.700000047684,53554.5,53952.30000001192,54834.5,55302.60000002384,55700.80000001192,56100.60000002384,56614.10000002384,57184.60000002384,57794.90000003576,58222.30000001192,58544.700000047684,58895.10000002384,59426.700000047684,59722.60000002384,60136.700000047684,60760.40000003576],"key_events":[],"mouse_events":[3618.800000011921,9470.5,9900.700000047684,10252.300000011921,11040.700000047684,11424.800000011921,11774.600000023842,12158.600000023842,12790.700000047684,13126.200000047684,13400.800000011921,13876.5,14142.900000035763,14446.5,14806.700000047684,15158.700000047684,15486.900000035763,15750.700000047684,16368.700000047684,16782.700000047684,17118.600000023842,17775,18078.400000035763,18678.700000047684,19046.700000047684,19506.400000035763,19936.80000001192,20226.400000035763,20490.700000047684,20804.900000035763,21514.700000047684,21896.5,22364.700000047684,23426.5,25198.200000047684,25808.400000035763,26362.600000023842,27252.80000001192,27564.600000023842,27978.700000047684,28330.700000047684,28838.700000047684,29424.700000047684,29946.600000023842,30306.600000023842,30680.700000047684,31048.700000047684,31438.600000023842,32258.5,32533,33484.700000047684,35388.60000002384,36326.700000047684,36840.700000047684,37184.700000047684,37468.40000003576,37669.200000047684,37881.200000047684,38091.30000001192,38311,38544.80000001192,38770.80000001192,38982.80000001192,39163.10000002384,39380.700000047684,39942.90000003576,40402.5,40676.80000001192,41332.700000047684,41770.700000047684,42090.60000002384,42526.5,43308.700000047684,43644.60000002384,44002.700000047684,44346.80000001192,44752.60000002384,45018.5,45556.700000047684,45884.5,46306.700000047684,47002.60000002384,47486.60000002384,48156.700000047684,48922.60000002384,49960.5,50250.5,50898.5,51226.60000002384,51506.60000002384,51734.5,51936.5,52148.90000003576,52420.30000001192,52624.700000047684,52821.10000002384,53554.5,53952.30000001192,54834.5,55302.60000002384,55700.80000001192,56100.60000002384,56614.10000002384,57184.60000002384,57794.90000003576,58222.30000001192,58544.700000047684,58895.10000002384,59185,59426.700000047684,59722.60000002384,60136.700000047684,60760.40000003576,62135.10000002384],"honeypot":0,"survey":"mace","page":9,"trial_type":"survey-mace","trial_index":17,"time_elapsed":645105,"internal_node_id":"0.0-17.0","task_version":"prescreen-v0.3","browser_interactions":0},{"responses":{"01":"No","02":"No","03":"No","04":"No","05":"No","06":"Yes","06_ages_17":"17","07":"Yes","07_ages_1":"1","07_ages_2":"2","07_ages_3":"3","07_ages_4":"4","07_ages_5":"5","07_ages_6":"6","07_ages_7":"7","07_ages_8":"8","07_ages_9":"9","07_ages_10":"10","07_ages_11":"11","07_ages_12":"12","07_ages_13":"13","07_ages_14":"14","07_ages_15":"15","07_ages_16":"16","07_ages_17":"17","07_ages_18":"18","08":"Yes","08_ages_12":"12","08_ages_13":"13","08_ages_14":"14","08_ages_15":"15","08_ages_16":"16","08_ages_17":"17"},"rt":42033.90000003576,"item_order":[0,1,2,3,4,5,6,7],"radio_events":[3943.699999988079,5014.100000023842,6519.800000011921,9499.800000011921,11223.699999988079,12583.699999988079,21875.80000001192,22843.600000023842],"checkbox_events":[14141.800000011921,26255.80000001192,26739.80000001192,27559.600000023842,28083.69999998808,28621.900000035763,29393.69999998808,31087.600000023842,31463.69999998808,31923.900000035763,32633.69999998808,32931.80000001192,33353.69999998808,34181.69999998808,34525.60000002384,34931.69999998808,35507.80000001192,35953.80000001192,36321.60000002384,36905.69999998808,38389.80000001192,39109.69999998808,39873.5,40335.5,40685.60000002384],"key_events":[],"mouse_events":[2695.600000023842,3943.699999988079,5014.100000023842,6519.800000011921,9499.800000011921,10459.900000035763,11223.699999988079,12583.699999988079,14141.800000011921,17637.69999998808,21875.80000001192,22843.600000023842,26255.80000001192,26739.80000001192,27107.80000001192,27559.600000023842,28083.69999998808,28621.900000035763,29393.69999998808,31087.600000023842,31463.69999998808,31923.900000035763,32173.80000001192,32633.69999998808,32931.80000001192,33353.69999998808,33821,34181.69999998808,34525.60000002384,34931.69999998808,35507.80000001192,35953.80000001192,36321.60000002384,36905.69999998808,37305.90000003576,37704.60000002384,38389.80000001192,38781.69999998808,39109.69999998808,39585.60000002384,39873.5,40335.5,40685.60000002384,42029.90000003576],"honeypot":0,"survey":"mace","page":10,"trial_type":"survey-mace","trial_index":18,"time_elapsed":687143,"internal_node_id":"0.0-18.0","task_version":"prescreen-v0.3","browser_interactions":0,"instructed":0},{"rt":70971,"trial_type":"mental-health-alert","trial_index":19,"time_elapsed":758115,"internal_node_id":"0.0-19.0","task_version":"prescreen-v0.3","interactions":"[{\"event\":\"blur\",\"trial\":2,\"time\":103096},{\"event\":\"focus\",\"trial\":2,\"time\":109990},{\"event\":\"blur\",\"trial\":3,\"time\":131520},{\"event\":\"focus\",\"trial\":3,\"time\":138683},{\"event\":\"blur\",\"trial\":6,\"time\":210646},{\"event\":\"focus\",\"trial\":6,\"time\":227129},{\"event\":\"blur\",\"trial\":7,\"time\":236610},{\"event\":\"focus\",\"trial\":7,\"time\":236677},{\"event\":\"blur\",\"trial\":7,\"time\":237603},{\"event\":\"focus\",\"trial\":7,\"time\":246227},{\"event\":\"blur\",\"trial\":8,\"time\":275696},{\"event\":\"focus\",\"trial\":8,\"time\":278250},{\"event\":\"blur\",\"trial\":8,\"time\":279833},{\"event\":\"focus\",\"trial\":8,\"time\":291043},{\"event\":\"blur\",\"trial\":9,\"time\":313460},{\"event\":\"focus\",\"trial\":9,\"time\":329416},{\"event\":\"blur\",\"trial\":16,\"time\":554694},{\"event\":\"focus\",\"trial\":16,\"time\":557743},{\"event\":\"blur\",\"trial\":16,\"time\":570349},{\"event\":\"focus\",\"trial\":16,\"time\":574637},{\"event\":\"blur\",\"trial\":19,\"time\":692179},{\"event\":\"focus\",\"trial\":19,\"time\":696179},{\"event\":\"blur\",\"trial\":19,\"time\":696841},{\"event\":\"focus\",\"trial\":19,\"time\":733490}]"}]