[{"view_history":[{"page_index":0,"viewing_time":2471.2999999998137},{"page_index":1,"viewing_time":3521.100000000093},{"page_index":2,"viewing_time":4274.899999999907},{"page_index":3,"viewing_time":5535}],"rt":15802.600000000093,"trial_type":"instructions","trial_index":0,"time_elapsed":15821,"internal_node_id":"0.0-0.0","task_version":"prescreen-v0.3"},{"rt":22840.19999999972,"responses":{"age":"32","gender-categorical":"Male","gender-free-response":"","ethnicity":"Not Hispanic or Latino","race":["Asian"],"education":"Master degree or higher","siblings":"1"},"trial_type":"survey-demo","trial_index":1,"time_elapsed":38672,"internal_node_id":"0.0-1.0","task_version":"prescreen-v0.3"},{"responses":{"Q10":"1","Q12":"1","Q17":"1","Q11":"1","Q19":"1","Q05":"1","Q04":"1","Q03":"1","Q20":"0","Q02":"1","Q01":"1","Q08":"2","Q16":"1","Q15":"1","Q09":"2","Q06":"1","Q07":"1","Q21":"3","Q14":"1","Q18":"1","Q13":"1"},"rt":97884.70000000019,"item_order":[9,11,16,10,18,4,3,2,19,1,0,7,15,14,8,5,6,20,13,17,12],"radio_events":[17734.899999999907,18511.299999999814,24383.799999999814,25823.799999999814,33215.200000000186,38243.60000000009,39068.39999999991,43789.89999999991,45309.89999999991,46287.39999999991,48031,49369.700000000186,50809.700000000186,53926.89999999991,55163.39999999991,56201.39999999991,60935.10000000009,63499.700000000186,69012.8999999999,69518.29999999981,79227.29999999981,82568.3999999999,83682.1000000001,85223.6000000001,97227.3999999999],"key_events":[],"mouse_events":[14945.700000000186,15980.200000000186,16508.799999999814,17734.899999999907,18511.299999999814,24383.799999999814,25823.799999999814,31065.899999999907,33215.200000000186,35228.89999999991,37478.60000000009,38243.60000000009,39068.39999999991,43789.89999999991,45309.89999999991,46287.39999999991,48031,49369.700000000186,50809.700000000186,53926.89999999991,55163.39999999991,56201.39999999991,60023.39999999991,60935.10000000009,63499.700000000186,68562.6000000001,69012.8999999999,69518.29999999981,72938.5,78552.20000000019,79227.29999999981,81938.70000000019,82568.3999999999,83682.1000000001,84537.29999999981,85223.6000000001,96732.20000000019,97227.3999999999,97879.79999999981],"straightlining":0.8095238095238095,"zigzagging":0.3,"honeypot":0,"survey":"sns","trial_type":"survey-template","trial_index":2,"time_elapsed":136563,"internal_node_id":"0.0-2.0","task_version":"prescreen-v0.3","browser_interactions":2,"infrequency":0},{"responses":{"Q07":"2","Q13":"0","Q08":"2","Q06":"2","Q09":"2","Q01":"2","Q03":"2","Q11":"2","Q04":"2","Q10":"2","Q05":"2","Q12":"2","Q02":"2"},"rt":1174426.9999999995,"item_order":[6,12,7,5,8,0,2,10,3,9,4,11,1],"radio_events":[112726.1000000001,367367.2999999998,369662.1999999997,372756,373228.3999999999,375388.3999999999,376288.5,377199.6999999997,1163241.9,1165948.6999999997,1167053.8000000003,1167874.6,1170793.9999999995,1173596.1],"key_events":[],"mouse_events":[111308.6000000001,111792.5,112726.1000000001,366579.6999999997,367367.2999999998,369662.1999999997,371259.6999999997,372306,372756,373228.3999999999,374680.1999999997,375388.3999999999,375849.6999999997,376288.5,376760.8999999999,377199.6999999997,1161186.9,1163241.9,1164158.4,1165296.9999999995,1165948.6999999997,1167053.8000000003,1167874.6,1168868.9,1169856.1,1170793.9999999995,1173596.1,1174425.1],"straightlining":0.9230769230769231,"zigzagging":0,"honeypot":0,"survey":"bisbas","trial_type":"survey-template","trial_index":3,"time_elapsed":1311010,"internal_node_id":"0.0-3.0","task_version":"prescreen-v0.3","browser_interactions":4,"infrequency":0},{"responses":{"Q01":"2","Q02":"2","Q03":"2"},"rt":17724.5,"radio_events":[12859.600000000559,15756.600000000559,16914.700000000186],"key_events":[],"mouse_events":[12859.600000000559,13822.200000000186,14577.5,15756.600000000559,16914.700000000186,17723.400000000373],"survey":"map","page":1,"trial_type":"survey-map","trial_index":4,"time_elapsed":1328742,"internal_node_id":"0.0-4.0","task_version":"prescreen-v0.3","browser_interactions":0},{"responses":{"Q04":"2","Q05":"2","Q06":"2"},"rt":19725.10000000056,"radio_events":[15845.799999999814,17114.200000000186,18134.10000000056],"key_events":[],"mouse_events":[3941.5,15845.799999999814,17114.200000000186,18134.10000000056,19724.299999999814],"survey":"map","page":2,"trial_type":"survey-map","trial_index":5,"time_elapsed":1348470,"internal_node_id":"0.0-5.0","task_version":"prescreen-v0.3","browser_interactions":2},{"responses":{"Q07":"4","Q08":"4","Q09":"4"},"rt":8812.200000000186,"radio_events":[5062.200000000186,6442.5,7799.100000000559],"key_events":[],"mouse_events":[4178.800000000745,5062.200000000186,6442.5,7799.100000000559,8811.600000000559],"survey":"map","page":3,"trial_type":"survey-map","trial_index":6,"time_elapsed":1357285,"internal_node_id":"0.0-6.0","task_version":"prescreen-v0.3","browser_interactions":0},{"responses":{"Q10":"2","Q11":"2","Q12":"2","Q13":"2","Q16":"2","Q14":"2","Q15":"2"},"rt":17976.700000000186,"radio_events":[2556.7000000001863,5663,7541.9000000003725,8977.099999999627,10470.799999999814,12621.799999999814,14404.099999999627,16233.799999999814],"key_events":[],"mouse_events":[1657.5999999996275,2556.7000000001863,4033,5663,6754.5999999996275,7541.9000000003725,8977.099999999627,10470.799999999814,12621.799999999814,14404.099999999627,16233.799999999814,17975.400000000373],"survey":"map","page":4,"trial_type":"survey-map","trial_index":7,"time_elapsed":1375264,"internal_node_id":"0.0-7.0","task_version":"prescreen-v0.3","browser_interactions":0,"infrequency":1},{"view_history":[{"page_index":0,"viewing_time":2412.2000000001863},{"page_index":1,"viewing_time":1331.4000000003725}],"rt":3744.2000000001863,"trial_type":"instructions","trial_index":8,"time_elapsed":1379010,"internal_node_id":"0.0-8.0","task_version":"prescreen-v0.3"},{"responses":{"01":"No","02":"No","03":"No","04":"No","05":"No","06":"No"},"rt":19132.799999999814,"item_order":[0,1,2,3,4,5],"radio_events":[11004.899999999441,11934.5,13187.200000000186,15867.200000000186,16734.200000000186,18123.200000000186],"checkbox_events":[],"key_events":[],"mouse_events":[0.09999999962747097,11004.899999999441,11934.5,13187.200000000186,14414.599999999627,15867.200000000186,16734.200000000186,18123.200000000186,19127.599999999627],"honeypot":0,"survey":"mace","page":1,"trial_type":"survey-mace","trial_index":9,"time_elapsed":1398153,"internal_node_id":"0.0-9.0","task_version":"prescreen-v0.3","browser_interactions":0},{"responses":{"01":"No","02":"No","03":"No","04":"No","05":"No","06":"No","07":"No","08":"No"},"rt":18237.200000000186,"item_order":[0,1,2,3,4,5,6,7],"radio_events":[1786.4000000003725,2918.5999999996275,4266.5999999996275,10317.599999999627,11730.200000000186,13488.299999999814,14579.200000000186,15718.799999999814],"checkbox_events":[],"key_events":[],"mouse_events":[1786.4000000003725,2918.5999999996275,4266.5999999996275,6353.700000000186,6562.0999999996275,7918,10317.599999999627,11730.200000000186,12622,13488.299999999814,14579.200000000186,15718.799999999814,18230.799999999814],"honeypot":0,"survey":"mace","page":2,"trial_type":"survey-mace","trial_index":10,"time_elapsed":1416395,"internal_node_id":"0.0-10.0","task_version":"prescreen-v0.3","browser_interactions":0},{"responses":{"01":"No","02":"No","03":"No","04":"No"},"rt":7930.699999999255,"item_order":[0,1,2,3],"radio_events":[1354.199999999255,3593.5999999996275,4604.399999999441,5671.299999999814],"checkbox_events":[],"key_events":[],"mouse_events":[1354.199999999255,2380.899999999441,3593.5999999996275,4604.399999999441,5671.299999999814,6682.699999999255,7927],"honeypot":0,"survey":"mace","page":3,"trial_type":"survey-mace","trial_index":11,"time_elapsed":1424329,"internal_node_id":"0.0-11.0","task_version":"prescreen-v0.3","browser_interactions":0},{"responses":{"01":"No","02":"No"},"rt":7113.5,"item_order":[0,1],"radio_events":[1800.2000000001863,2464.5999999996275],"checkbox_events":[],"key_events":[],"mouse_events":[1800.2000000001863,2464.5999999996275,7112],"honeypot":0,"survey":"mace","page":4,"trial_type":"survey-mace","trial_index":12,"time_elapsed":1431445,"internal_node_id":"0.0-12.0","task_version":"prescreen-v0.3","browser_interactions":0},{"responses":{"01":"No","02":"No","03":"No","04":"No","05":"No"},"rt":9245.599999999627,"item_order":[0,1,2,3,4],"radio_events":[3334.0999999996275,4313.699999999255,6279.0999999996275,7226.0999999996275,8358.199999999255],"checkbox_events":[],"key_events":[],"mouse_events":[2170.5999999996275,3334.0999999996275,4313.699999999255,5621.799999999814,6279.0999999996275,7226.0999999996275,8358.199999999255,9242.299999999814],"honeypot":0,"survey":"mace","page":5,"trial_type":"survey-mace","trial_index":13,"time_elapsed":1440694,"internal_node_id":"0.0-13.0","task_version":"prescreen-v0.3","browser_interactions":0},{"responses":{"01":"Yes","01_ages_12":"12","01_ages_13":"13","01_ages_14":"14","02":"No","03":"No","04":"No","05":"No"},"rt":27927.099999999627,"item_order":[0,1,2,3,4],"radio_events":[2087,9279.399999999441,21547.700000000186,23723,24991,27279.200000000186],"checkbox_events":[14318.099999999627,15490,17600.099999999627],"key_events":[],"mouse_events":[2087,8443,9279.399999999441,14318.099999999627,15490,17600.099999999627,21547.700000000186,22560.200000000186,23723,24991,25843.099999999627,27279.200000000186,27923.200000000186],"honeypot":0,"survey":"mace","page":6,"trial_type":"survey-mace","trial_index":14,"time_elapsed":1468625,"internal_node_id":"0.0-14.0","task_version":"prescreen-v0.3","browser_interactions":0},{"responses":{"01":"No","02":"No","03":"Yes","03_ages_12":"12","03_ages_13":"13","03_ages_14":"14","04":"No","05":"No","06":"No","07":"No"},"rt":23119.900000000373,"item_order":[0,1,2,3,4,5,6],"radio_events":[2784.2000000001863,3346,6893.5,10064,17353.200000000186,19751.900000000373,20698.800000000745,22160.5],"checkbox_events":[11444.400000000373,12134.700000000186,13474.900000000373],"key_events":[],"mouse_events":[2069.2000000001863,2784.2000000001863,3346,6893.5,9261.800000000745,10064,11444.400000000373,12134.700000000186,13474.900000000373,16388.800000000745,17353.200000000186,18540.10000000056,19751.900000000373,20698.800000000745,22160.5,23115.10000000056],"honeypot":0,"survey":"mace","page":7,"trial_type":"survey-mace","trial_index":15,"time_elapsed":1491748,"internal_node_id":"0.0-15.0","task_version":"prescreen-v0.3","browser_interactions":0},{"responses":{"01":"No","02":"No","03":"No","04":"No"},"rt":11313.799999999814,"item_order":[0,1,2,3],"radio_events":[5048.199999999255,6581,8169.699999999255,10072.199999999255],"checkbox_events":[],"key_events":[],"mouse_events":[1348.2999999998137,5048.199999999255,6581,8169.699999999255,10072.199999999255,11310.099999999627],"honeypot":0,"survey":"mace","page":8,"trial_type":"survey-mace","trial_index":16,"time_elapsed":1503066,"internal_node_id":"0.0-16.0","task_version":"prescreen-v0.3","browser_interactions":0},{"responses":{"01":"Yes","01_ages_1":"1","01_ages_2":"2","01_ages_3":"3","01_ages_4":"4","01_ages_5":"5","01_ages_6":"6","01_ages_7":"7","01_ages_8":"8","01_ages_9":"9","01_ages_10":"10","01_ages_11":"11","01_ages_12":"12","01_ages_13":"13","01_ages_14":"14","01_ages_15":"15","01_ages_16":"16","01_ages_17":"17","01_ages_18":"18","02":"Yes","02_ages_1":"1","02_ages_2":"2","02_ages_3":"3","02_ages_4":"4","02_ages_5":"5","02_ages_6":"6","02_ages_7":"7","02_ages_8":"8","02_ages_9":"9","02_ages_10":"10","02_ages_11":"11","02_ages_12":"12","02_ages_13":"13","02_ages_14":"14","02_ages_15":"15","02_ages_16":"16","02_ages_17":"17","02_ages_18":"18","03":"Yes","03_ages_1":"1","03_ages_2":"2","03_ages_3":"3","03_ages_4":"4","03_ages_5":"5","03_ages_6":"6","03_ages_7":"7","03_ages_8":"8","03_ages_9":"9","03_ages_10":"10","03_ages_11":"11","03_ages_12":"12","03_ages_13":"13","03_ages_14":"14","03_ages_15":"15","03_ages_16":"16","03_ages_17":"17","03_ages_18":"18","04":"Yes","04_ages_1":"1","04_ages_2":"2","04_ages_3":"3","04_ages_4":"4","04_ages_5":"5","04_ages_6":"6","04_ages_7":"7","04_ages_8":"8","04_ages_9":"9","04_ages_10":"10","04_ages_11":"11","04_ages_12":"12","04_ages_13":"13","04_ages_14":"14","04_ages_15":"15","04_ages_16":"16","04_ages_17":"17","04_ages_18":"18"},"rt":117139.09999999963,"item_order":[0,1,2,3],"radio_events":[1388.7000000001863,5979.899999999441,26384.299999999814,87244.39999999944,103523.09999999963],"checkbox_events":[11157.700000000186,12273,12916.899999999441,13493.799999999814,14079.700000000186,15258.399999999441,15893.399999999441,16446.799999999814,17025.099999999627,17604.799999999814,18212.599999999627,18782.39999999944,19432.5,20123.299999999814,21576.89999999944,22595.89999999944,23165.700000000186,23865.099999999627,27437.700000000186,30653.700000000186,31127.099999999627,32131.5,33205.5,34618.200000000186,35301.299999999814,36015.5,36696.59999999963,37597.89999999944,38174.39999999944,81484.5,82092.09999999963,82542.09999999963,83014.59999999963,83453.29999999981,84398.39999999944,84758.39999999944,88189.39999999944,88470.70000000019,88853.20000000019,90327,91047,91665.70000000019,92036.70000000019,93465.79999999981,94275.5,95018.20000000019,95569.29999999981,96131.79999999981,96582,98280.5,98708.09999999963,99202.89999999944,99911.89999999944,100463.20000000019,106211.70000000019,106661.79999999981,107100.39999999944,107629.20000000019,108450.39999999944,108810.59999999963,109271.70000000019,109800.59999999963,110408.09999999963,110857.70000000019,111442.89999999944,111915.5,112388.20000000019,113040.79999999981,113738,114480.79999999981,115999.29999999981,116651.79999999981],"key_events":[],"mouse_events":[1388.7000000001863,4505.5999999996275,5979.899999999441,10305.799999999814,11157.700000000186,11662.899999999441,12273,12916.899999999441,13493.799999999814,14079.700000000186,14666.399999999441,15258.399999999441,15893.399999999441,16446.799999999814,17025.099999999627,17604.799999999814,18212.599999999627,18782.39999999944,19432.5,20123.299999999814,20732.89999999944,21576.89999999944,22138.299999999814,22595.89999999944,23165.700000000186,23865.099999999627,26384.299999999814,27437.700000000186,30653.700000000186,31127.099999999627,31624.39999999944,32131.5,32644.299999999814,33205.5,33688.5,34105.200000000186,34618.200000000186,35301.299999999814,36015.5,36696.59999999963,37597.89999999944,38174.39999999944,41491.09999999963,79583.20000000019,80269.5,80595.79999999981,81484.5,82092.09999999963,82542.09999999963,83014.59999999963,83453.29999999981,83948.29999999981,84398.39999999944,84758.39999999944,87244.39999999944,88189.39999999944,88470.70000000019,88853.20000000019,89258.09999999963,89697,90012,90327,90641.79999999981,91047,91665.70000000019,92036.70000000019,92419.09999999963,92925.59999999963,93465.79999999981,93904.29999999981,94275.5,95018.20000000019,95569.29999999981,96131.79999999981,96582,97493.09999999963,98280.5,98708.09999999963,99202.89999999944,99911.89999999944,100463.20000000019,101228.29999999981,102982.89999999944,103523.09999999963,105503,106211.70000000019,106661.79999999981,107100.39999999944,107629.20000000019,108090.70000000019,108450.39999999944,108810.59999999963,109271.70000000019,109800.59999999963,110408.09999999963,110857.70000000019,111442.89999999944,111915.5,112388.20000000019,113040.79999999981,113738,114480.79999999981,115999.29999999981,116348,116651.79999999981,117135.79999999981],"honeypot":0,"survey":"mace","page":9,"trial_type":"survey-mace","trial_index":17,"time_elapsed":1620209,"internal_node_id":"0.0-17.0","task_version":"prescreen-v0.3","browser_interactions":0},{"responses":{"01":"No","02":"No","03":"No","04":"No","05":"No","06":"Yes","06_ages_17":"17","07":"No","08":"No"},"rt":18324.799999999814,"item_order":[0,1,2,3,4,5,6,7],"radio_events":[3052.699999999255,6146.399999999441,6664.0999999996275,7507.799999999814,9937.699999999255,11344,11838.899999999441,13414,16777.5],"checkbox_events":[14921.599999999627],"key_events":[],"mouse_events":[2344.2999999998137,3052.699999999255,3671.399999999441,5223.899999999441,6146.399999999441,6664.0999999996275,7507.799999999814,9082.699999999255,9937.699999999255,11344,11838.899999999441,13414,14921.599999999627,16777.5,17846.299999999814,18318.89999999944],"honeypot":0,"survey":"mace","page":10,"trial_type":"survey-mace","trial_index":18,"time_elapsed":1638538,"internal_node_id":"0.0-18.0","task_version":"prescreen-v0.3","browser_interactions":0,"instructed":0},{"rt":4153.899999999441,"trial_type":"mental-health-alert","trial_index":19,"time_elapsed":1642694,"internal_node_id":"0.0-19.0","task_version":"prescreen-v0.3","interactions":"[{\"event\":\"blur\",\"trial\":0,\"time\":11155},{\"event\":\"focus\",\"trial\":0,\"time\":15286},{\"event\":\"blur\",\"trial\":2,\"time\":130101},{\"event\":\"focus\",\"trial\":2,\"time\":133546},{\"event\":\"blur\",\"trial\":3,\"time\":829807},{\"event\":\"focus\",\"trial\":3,\"time\":1285698},{\"event\":\"blur\",\"trial\":3,\"time\":1292046},{\"event\":\"focus\",\"trial\":3,\"time\":1294098},{\"event\":\"blur\",\"trial\":5,\"time\":1338447},{\"event\":\"focus\",\"trial\":5,\"time\":1339382}]"}]