[{"view_history":[{"page_index":0,"viewing_time":20052},{"page_index":1,"viewing_time":30185},{"page_index":2,"viewing_time":3754},{"page_index":3,"viewing_time":1223}],"rt":55214,"trial_type":"instructions","trial_index":0,"time_elapsed":55220,"internal_node_id":"0.0-0.0","task_version":"prescreen-v0.3"},{"rt":15747,"responses":{"age":"38","gender-categorical":"Male","gender-free-response":"","ethnicity":"Not Hispanic or Latino","race":["White"],"education":"Master degree or higher"},"trial_type":"survey-demo","trial_index":1,"time_elapsed":71028,"internal_node_id":"0.0-1.0","task_version":"prescreen-v0.3"},{"responses":{"Q08":"2","Q13":"1","Q15":"2","Q09":"1","Q10":"1","Q14":"1","Q20":"0","Q12":"1","Q05":"2","Q04":"1","Q16":"1","Q06":"2","Q03":"1","Q01":"1","Q19":"1","Q02":"1","Q18":"1","Q17":"1","Q21":"2","Q07":"1","Q11":"2"},"rt":162211,"item_order":[7,12,14,8,9,13,19,11,4,3,15,5,2,0,18,1,17,16,20,6,10],"radio_events":[32557,36621,47451,53577,59233,64061,68829,74408,82675,95157,102396,107573,110821,113679,121132,130144,131359,132809,139659,148461,155216],"key_events":[],"mouse_events":[32557,36621,47451,53577,59233,64061,68829,74408,82675,95157,102396,107573,110821,113679,121132,123657,128375,130144,130757,131359,132809,139659,147945,148461,155216,162211],"straightlining":0.6666666666666666,"zigzagging":0.6,"honeypot":0,"survey":"sns","trial_type":"survey-template","trial_index":2,"time_elapsed":233275,"internal_node_id":"0.0-2.0","task_version":"prescreen-v0.3","browser_interactions":6,"infrequency":0.5},{"responses":{"Q11":"3","Q07":"2","Q08":"2","Q01":"2","Q12":"2","Q04":"2","Q13":"0","Q10":"1","Q02":"2","Q05":"2","Q03":"2","Q06":"2","Q09":"3"},"rt":265463,"item_order":[10,6,7,0,11,3,12,9,1,4,2,5,8],"radio_events":[193890,197610,203667,207197,212898,220077,227575,236500,239664,244291,250561,258594,263903],"key_events":[],"mouse_events":[156011,192989,193890,197610,203667,207197,212898,220077,227575,236500,239664,244291,250561,254160,257929,258594,259717,263903,265463],"straightlining":0.6923076923076923,"zigzagging":0.3333333333333333,"honeypot":0,"survey":"bisbas","trial_type":"survey-template","trial_index":3,"time_elapsed":498743,"internal_node_id":"0.0-3.0","task_version":"prescreen-v0.3","browser_interactions":14,"infrequency":0},{"responses":{"Q01":"1","Q02":"1","Q03":"2"},"rt":52857,"radio_events":[19329,25727,27115,35526],"key_events":[],"mouse_events":[19329,25727,26689,27115,35526,52856],"survey":"map","page":1,"trial_type":"survey-map","trial_index":4,"time_elapsed":551604,"internal_node_id":"0.0-4.0","task_version":"prescreen-v0.3","browser_interactions":4},{"responses":{"Q04":"2","Q05":"2","Q06":"2"},"rt":52709,"radio_events":[16132,22176,24173,29358],"key_events":[],"mouse_events":[16132,22176,24173,29358,51149,52709],"survey":"map","page":2,"trial_type":"survey-map","trial_index":5,"time_elapsed":604318,"internal_node_id":"0.0-5.0","task_version":"prescreen-v0.3","browser_interactions":4},{"responses":{"Q07":"0","Q08":"4","Q09":"0"},"rt":44224,"radio_events":[22471,29439,36348],"key_events":[],"mouse_events":[22471,29439,36348,44224],"survey":"map","page":3,"trial_type":"survey-map","trial_index":6,"time_elapsed":648544,"internal_node_id":"0.0-6.0","task_version":"prescreen-v0.3","browser_interactions":4},{"responses":{"Q10":"2","Q11":"3","Q12":"2","Q13":"2","Q16":"1","Q14":"2","Q15":"2"},"rt":59846,"radio_events":[19239,23176,27800,32971,40451,47216,56736],"key_events":[],"mouse_events":[19239,23176,27800,32971,40451,47216,56736,59846],"survey":"map","page":4,"trial_type":"survey-map","trial_index":7,"time_elapsed":708394,"internal_node_id":"0.0-7.0","task_version":"prescreen-v0.3","browser_interactions":6,"infrequency":1},{"view_history":[{"page_index":0,"viewing_time":6943},{"page_index":1,"viewing_time":7184}],"rt":14127,"trial_type":"instructions","trial_index":8,"time_elapsed":722523,"internal_node_id":"0.0-8.0","task_version":"prescreen-v0.3"},{"responses":{"01":"No","02":"No","03":"No","04":"No","05":"No","06":"No"},"rt":83756,"item_order":[0,1,2,3,4,5],"radio_events":[52639,59898,63402,73488,76819,80820],"checkbox_events":[],"key_events":[],"mouse_events":[0,52639,59898,63402,73488,76819,80820,83756],"honeypot":0,"survey":"mace","page":1,"trial_type":"survey-mace","trial_index":9,"time_elapsed":806288,"internal_node_id":"0.0-9.0","task_version":"prescreen-v0.3","browser_interactions":4},{"responses":{"01":"No","02":"No","03":"No","04":"No","05":"No","06":"No","07":"No","08":"No"},"rt":43601,"item_order":[0,1,2,3,4,5,6,7],"radio_events":[7898,14733,15565,18580,21744,26921,32222,40965],"checkbox_events":[],"key_events":[],"mouse_events":[7898,14733,15565,18580,21744,24306,26921,32222,35236,39532,40965,43601],"honeypot":0,"survey":"mace","page":2,"trial_type":"survey-mace","trial_index":10,"time_elapsed":849900,"internal_node_id":"0.0-10.0","task_version":"prescreen-v0.3","browser_interactions":4},{"responses":{"01":"No","02":"No","03":"No","04":"No"},"rt":34584,"item_order":[0,1,2,3],"radio_events":[11038,21829,24624,33462],"checkbox_events":[],"key_events":[],"mouse_events":[11038,19323,21829,24624,27418,33462,34584],"honeypot":0,"survey":"mace","page":3,"trial_type":"survey-mace","trial_index":11,"time_elapsed":884491,"internal_node_id":"0.0-11.0","task_version":"prescreen-v0.3","browser_interactions":4},{"responses":{"01":"No","02":"No"},"rt":7587,"item_order":[0,1],"radio_events":[3408,6983],"checkbox_events":[],"key_events":[],"mouse_events":[3408,6983,7587],"honeypot":0,"survey":"mace","page":4,"trial_type":"survey-mace","trial_index":12,"time_elapsed":892082,"internal_node_id":"0.0-12.0","task_version":"prescreen-v0.3","browser_interactions":0},{"responses":{"01":"No","02":"No","03":"No","04":"No","05":"No"},"rt":33411,"item_order":[0,1,2,3,4],"radio_events":[12720,20730,25329,28564,32763],"checkbox_events":[],"key_events":[],"mouse_events":[12720,20730,25329,27386,28564,29692,32763,33411],"honeypot":0,"survey":"mace","page":5,"trial_type":"survey-mace","trial_index":13,"time_elapsed":925499,"internal_node_id":"0.0-13.0","task_version":"prescreen-v0.3","browser_interactions":4},{"responses":{"01":"No","02":"No","03":"No","04":"No","05":"No"},"rt":30161,"item_order":[0,1,2,3,4],"radio_events":[3117,17620,20764,24678,26896],"checkbox_events":[],"key_events":[],"mouse_events":[3117,17620,19179,20764,24678,26896,30161],"honeypot":0,"survey":"mace","page":6,"trial_type":"survey-mace","trial_index":14,"time_elapsed":955667,"internal_node_id":"0.0-14.0","task_version":"prescreen-v0.3","browser_interactions":4},{"responses":{"01":"No","02":"No","03":"No","04":"No","05":"No","06":"No","07":"No"},"rt":43504,"item_order":[0,1,2,3,4,5,6],"radio_events":[6983,13984,18416,21086,24114,26550,28129,29258],"checkbox_events":[],"key_events":[],"mouse_events":[6983,13984,18416,21086,24114,26550,28129,29258,42624,43504],"honeypot":0,"survey":"mace","page":7,"trial_type":"survey-mace","trial_index":15,"time_elapsed":999181,"internal_node_id":"0.0-15.0","task_version":"prescreen-v0.3","browser_interactions":6},{"responses":{"01":"No","02":"No","03":"No","04":"No"},"rt":101872,"item_order":[0,1,2,3],"radio_events":[71838,72659,73398,74385],"checkbox_events":[],"key_events":[],"mouse_events":[71107,71838,72659,73398,74385,101871],"honeypot":0,"survey":"mace","page":8,"trial_type":"survey-mace","trial_index":16,"time_elapsed":1101057,"internal_node_id":"0.0-16.0","task_version":"prescreen-v0.3","browser_interactions":8},{"responses":{"01":"Yes","01_ages_1":"1","01_ages_5":"5","01_ages_7":"7","01_ages_8":"8","01_ages_9":"9","01_ages_13":"13","01_ages_14":"14","01_ages_15":"15","01_ages_16":"16","01_ages_17":"17","02":"Yes","02_ages_10":"10","02_ages_12":"12","02_ages_14":"14","02_ages_15":"15","02_ages_16":"16","02_ages_17":"17","02_ages_18":"18","03":"Yes","03_ages_13":"13","03_ages_14":"14","03_ages_15":"15","03_ages_16":"16","03_ages_17":"17","03_ages_18":"18","04":"Yes","04_ages_12":"12","04_ages_13":"13","04_ages_14":"14","04_ages_15":"15","04_ages_16":"16","04_ages_17":"17","04_ages_18":"18"},"rt":76971,"item_order":[0,1,2,3],"radio_events":[19561,44629,53169,62196],"checkbox_events":[27097,27547,28671,29079,29619,32636,33316,33751,35150,35792,36238,37001,37582,38758,39197,39826,45781,46447,47169,47831,48290,48701,49354,54453,54877,55230,55666,57140,57559,64527,64932,65394,66340,66719,67188,67665],"key_events":[],"mouse_events":[19561,27097,27547,28671,29079,29619,31056,32636,33316,33751,34806,35150,35792,36238,37001,37582,38758,39197,39826,40362,44629,45781,46447,47169,47831,48290,48701,49354,53169,54453,54877,55230,55666,57140,57559,62196,64527,64932,65394,65754,66340,66719,67188,67665,76971],"honeypot":0,"survey":"mace","page":9,"trial_type":"survey-mace","trial_index":17,"time_elapsed":1178036,"internal_node_id":"0.0-17.0","task_version":"prescreen-v0.3","browser_interactions":6},{"responses":{"01":"No","02":"No","03":"Yes","03_ages_14":"14","03_ages_15":"15","03_ages_16":"16","03_ages_17":"17","03_ages_18":"18","04":"No","05":"No","06":"Yes","06_ages_17":"17","07":"No","08":"Yes","08_ages_16":"16","08_ages_17":"17","08_ages_18":"18"},"rt":58698,"item_order":[0,1,2,3,4,5,6,7],"radio_events":[15085,16493,25181,31755,36263,42544,48481,51566],"checkbox_events":[26729,27082,27450,27847,28718,43781,53961,54415,54816],"key_events":[],"mouse_events":[15085,16493,25181,26729,27082,27450,27847,28718,31755,36263,42544,43781,48481,51566,53961,54415,54816,58698],"honeypot":0,"survey":"mace","page":10,"trial_type":"survey-mace","trial_index":18,"time_elapsed":1236747,"internal_node_id":"0.0-18.0","task_version":"prescreen-v0.3","browser_interactions":4,"instructed":0},{"rt":16014,"trial_type":"mental-health-alert","trial_index":19,"time_elapsed":1252764,"internal_node_id":"0.0-19.0","task_version":"prescreen-v0.3","interactions":"[{\"event\":\"focus\",\"trial\":0,\"time\":17666},{\"event\":\"blur\",\"trial\":0,\"time\":23935},{\"event\":\"focus\",\"trial\":0,\"time\":37518},{\"event\":\"blur\",\"trial\":2,\"time\":79725},{\"event\":\"focus\",\"trial\":2,\"time\":95150},{\"event\":\"blur\",\"trial\":2,\"time\":95724},{\"event\":\"focus\",\"trial\":2,\"time\":97580},{\"event\":\"blur\",\"trial\":2,\"time\":227464},{\"event\":\"focus\",\"trial\":2,\"time\":229377},{\"event\":\"blur\",\"trial\":3,\"time\":237561},{\"event\":\"focus\",\"trial\":3,\"time\":263226},{\"event\":\"blur\",\"trial\":3,\"time\":310056},{\"event\":\"focus\",\"trial\":3,\"time\":313262},{\"event\":\"blur\",\"trial\":3,\"time\":314267},{\"event\":\"focus\",\"trial\":3,\"time\":374290},{\"event\":\"blur\",\"trial\":3,\"time\":376217},{\"event\":\"focus\",\"trial\":3,\"time\":389171},{\"event\":\"blur\",\"trial\":3,\"time\":395188},{\"event\":\"focus\",\"trial\":3,\"time\":416863},{\"event\":\"blur\",\"trial\":3,\"time\":418086},{\"event\":\"focus\",\"trial\":3,\"time\":420313},{\"event\":\"blur\",\"trial\":3,\"time\":494434},{\"event\":\"focus\",\"trial\":3,\"time\":497086},{\"event\":\"blur\",\"trial\":4,\"time\":500621},{\"event\":\"focus\",\"trial\":4,\"time\":517959},{\"event\":\"blur\",\"trial\":4,\"time\":535412},{\"event\":\"focus\",\"trial\":4,\"time\":551472},{\"event\":\"blur\",\"trial\":5,\"time\":558731},{\"event\":\"focus\",\"trial\":5,\"time\":567617},{\"event\":\"blur\",\"trial\":5,\"time\":582091},{\"event\":\"focus\",\"trial\":5,\"time\":602684},{\"event\":\"blur\",\"trial\":6,\"time\":607749},{\"event\":\"focus\",\"trial\":6,\"time\":626684},{\"event\":\"blur\",\"trial\":6,\"time\":646652},{\"event\":\"focus\",\"trial\":6,\"time\":648433},{\"event\":\"blur\",\"trial\":7,\"time\":652440},{\"event\":\"focus\",\"trial\":7,\"time\":656330},{\"event\":\"blur\",\"trial\":7,\"time\":657377},{\"event\":\"focus\",\"trial\":7,\"time\":667665},{\"event\":\"blur\",\"trial\":7,\"time\":706546},{\"event\":\"focus\",\"trial\":7,\"time\":708329},{\"event\":\"blur\",\"trial\":9,\"time\":724856},{\"event\":\"focus\",\"trial\":9,\"time\":764207},{\"event\":\"blur\",\"trial\":9,\"time\":804552},{\"event\":\"focus\",\"trial\":9,\"time\":806188},{\"event\":\"blur\",\"trial\":10,\"time\":808368},{\"event\":\"focus\",\"trial\":10,\"time\":814082},{\"event\":\"blur\",\"trial\":10,\"time\":839829},{\"event\":\"focus\",\"trial\":10,\"time\":841434},{\"event\":\"blur\",\"trial\":11,\"time\":851964},{\"event\":\"focus\",\"trial\":11,\"time\":860821},{\"event\":\"blur\",\"trial\":11,\"time\":875691},{\"event\":\"focus\",\"trial\":11,\"time\":877216},{\"event\":\"blur\",\"trial\":13,\"time\":894655},{\"event\":\"focus\",\"trial\":13,\"time\":904694},{\"event\":\"blur\",\"trial\":13,\"time\":923066},{\"event\":\"focus\",\"trial\":13,\"time\":924756},{\"event\":\"blur\",\"trial\":14,\"time\":931897},{\"event\":\"focus\",\"trial\":14,\"time\":934215},{\"event\":\"blur\",\"trial\":14,\"time\":953628},{\"event\":\"focus\",\"trial\":14,\"time\":955547},{\"event\":\"blur\",\"trial\":15,\"time\":957405},{\"event\":\"focus\",\"trial\":15,\"time\":962539},{\"event\":\"blur\",\"trial\":15,\"time\":986791},{\"event\":\"focus\",\"trial\":15,\"time\":991128},{\"event\":\"blur\",\"trial\":15,\"time\":992569},{\"event\":\"focus\",\"trial\":15,\"time\":998182},{\"event\":\"blur\",\"trial\":16,\"time\":1001260},{\"event\":\"focus\",\"trial\":16,\"time\":1050029},{\"event\":\"blur\",\"trial\":16,\"time\":1051479},{\"event\":\"focus\",\"trial\":16,\"time\":1062285},{\"event\":\"blur\",\"trial\":16,\"time\":1063152},{\"event\":\"focus\",\"trial\":16,\"time\":1067115},{\"event\":\"blur\",\"trial\":16,\"time\":1074366},{\"event\":\"focus\",\"trial\":16,\"time\":1100955},{\"event\":\"blur\",\"trial\":17,\"time\":1103405},{\"event\":\"focus\",\"trial\":17,\"time\":1112100},{\"event\":\"blur\",\"trial\":17,\"time\":1115741},{\"event\":\"focus\",\"trial\":17,\"time\":1120517},{\"event\":\"blur\",\"trial\":17,\"time\":1169839},{\"event\":\"focus\",\"trial\":17,\"time\":1175637},{\"event\":\"blur\",\"trial\":18,\"time\":1180305},{\"event\":\"focus\",\"trial\":18,\"time\":1190383},{\"event\":\"blur\",\"trial\":18,\"time\":1234070},{\"event\":\"focus\",\"trial\":18,\"time\":1235504}]"}]