[{"view_history":[{"page_index":0,"viewing_time":3551.6999999284744},{"page_index":1,"viewing_time":3077.9000000953674},{"page_index":2,"viewing_time":2920.399999976158},{"page_index":3,"viewing_time":1364.5}],"rt":10915.399999976158,"trial_type":"instructions","trial_index":0,"time_elapsed":10920,"internal_node_id":"0.0-0.0","task_version":"prescreen-v0.3"},{"rt":16142.5,"responses":{"age":"36","gender-categorical":"Male","gender-free-response":"","ethnicity":"Not Hispanic or Latino","race":["White"],"education":"Bachelor degree","siblings":"2"},"trial_type":"survey-demo","trial_index":1,"time_elapsed":27067,"internal_node_id":"0.0-1.0","task_version":"prescreen-v0.3"},{"responses":{"Q04":"2","Q15":"3","Q07":"1","Q19":"0","Q10":"0","Q09":"2","Q21":"3","Q08":"1","Q14":"1","Q11":"1","Q20":"2","Q17":"1","Q12":"0","Q01":"2","Q03":"2","Q05":"1","Q06":"1","Q02":"1","Q13":"2","Q18":"2","Q16":"3"},"rt":81421.69999992847,"item_order":[3,14,6,18,9,8,20,7,13,10,19,16,11,0,2,4,5,1,12,17,15],"radio_events":[11007.799999952316,11933.299999952316,17087,22215.799999952316,25749.699999928474,30119.799999952316,33165.199999928474,36133.5,39726.89999997616,41789.699999928474,42770,45089.60000002384,48449.5,51776.799999952316,54031.89999997616,57577.299999952316,62094,68774.39999997616,71709.60000002384,74561.89999997616,77704.10000002384,80854.79999995232],"key_events":[],"mouse_events":[6851,11007.799999952316,11933.299999952316,17087,21237.399999976158,22215.799999952316,25749.699999928474,29723.799999952316,30119.799999952316,32871.39999997616,33165.199999928474,36133.5,39726.89999997616,41789.699999928474,42378.299999952316,42770,45089.60000002384,47823.799999952316,48449.5,51776.799999952316,54031.89999997616,57577.299999952316,62094,68774.39999997616,71709.60000002384,74303.39999997616,74561.89999997616,77704.10000002384,80854.79999995232,81417.89999997616],"straightlining":0.38095238095238093,"zigzagging":0.45,"honeypot":0,"survey":"sns","trial_type":"survey-template","trial_index":2,"time_elapsed":108497,"internal_node_id":"0.0-2.0","task_version":"prescreen-v0.3","browser_interactions":0,"infrequency":0},{"responses":{"Q05":"2","Q09":"1","Q06":"2","Q02":"3","Q07":"2","Q04":"3","Q08":"1","Q12":"1","Q01":"2","Q11":"1","Q10":"1","Q03":"2","Q13":"0"},"rt":41163.800000071526,"item_order":[4,8,5,1,6,3,7,11,0,10,9,2,12],"radio_events":[9373.700000047684,10320,12871.100000023842,14435.300000071526,16783.800000071526,19214.5,21482.700000047684,25433.700000047684,27012.399999976158,30752.100000023842,33281.89999997616,36424.10000002384,38912.300000071526],"key_events":[],"mouse_events":[7604,9373.700000047684,10320,12871.100000023842,14435.300000071526,16783.800000071526,19214.5,21482.700000047684,25433.700000047684,27012.399999976158,30752.100000023842,33281.89999997616,36424.10000002384,38912.300000071526,41161.800000071526],"straightlining":0.38461538461538464,"zigzagging":0.6666666666666666,"honeypot":0,"survey":"bisbas","trial_type":"survey-template","trial_index":3,"time_elapsed":149673,"internal_node_id":"0.0-3.0","task_version":"prescreen-v0.3","browser_interactions":0,"infrequency":0},{"responses":{"Q01":"2","Q02":"2","Q03":"2"},"rt":20137.799999952316,"radio_events":[10722.199999928474,11571.399999976158,14920.099999904633,19376.599999904633],"key_events":[],"mouse_events":[10352.799999952316,10722.199999928474,11232.599999904633,11571.399999976158,14920.099999904633,18539.899999976158,18906.099999904633,19376.599999904633,20136.699999928474],"survey":"map","page":1,"trial_type":"survey-map","trial_index":4,"time_elapsed":169823,"internal_node_id":"0.0-4.0","task_version":"prescreen-v0.3","browser_interactions":0},{"responses":{"Q04":"3","Q05":"2","Q06":"3"},"rt":13519.100000023842,"radio_events":[5242.399999976158,7621.300000071526,8420.700000047684,12770.600000023842],"key_events":[],"mouse_events":[4783.100000023842,5242.399999976158,7621.300000071526,8420.700000047684,12770.600000023842,13518.300000071526],"survey":"map","page":2,"trial_type":"survey-map","trial_index":5,"time_elapsed":183351,"internal_node_id":"0.0-5.0","task_version":"prescreen-v0.3","browser_interactions":0},{"responses":{"Q07":"1","Q08":"4","Q09":"2"},"rt":17447,"radio_events":[9303.899999976158,12901.899999976158,15323.600000023842],"key_events":[],"mouse_events":[9303.899999976158,12901.899999976158,15323.600000023842,16151.600000023842,17446],"survey":"map","page":3,"trial_type":"survey-map","trial_index":6,"time_elapsed":200804,"internal_node_id":"0.0-6.0","task_version":"prescreen-v0.3","browser_interactions":0},{"responses":{"Q10":"1","Q11":"0","Q12":"1","Q13":"2","Q16":"0","Q14":"3","Q15":"2"},"rt":29523.199999928474,"radio_events":[4689.899999976158,7675.199999928474,12477.299999952316,16835.100000023842,22630.199999928474,25521.199999928474,28521.5],"key_events":[],"mouse_events":[4689.899999976158,7208.100000023842,7675.199999928474,12179.799999952316,12477.299999952316,16835.100000023842,22257.299999952316,22630.199999928474,25521.199999928474,28192.899999976158,28521.5,29521.600000023842],"survey":"map","page":4,"trial_type":"survey-map","trial_index":7,"time_elapsed":230337,"internal_node_id":"0.0-7.0","task_version":"prescreen-v0.3","browser_interactions":0,"infrequency":0},{"view_history":[{"page_index":0,"viewing_time":2132.600000023842},{"page_index":1,"viewing_time":3307.1999999284744}],"rt":5441.199999928474,"trial_type":"instructions","trial_index":8,"time_elapsed":235786,"internal_node_id":"0.0-8.0","task_version":"prescreen-v0.3"},{"responses":{"01":"Yes","01_ages_8":"8","01_ages_9":"9","01_ages_10":"10","01_ages_11":"11","01_ages_12":"12","01_ages_13":"13","01_ages_14":"14","02":"Yes","02_ages_10":"10","02_ages_11":"11","02_ages_12":"12","02_ages_13":"13","02_ages_14":"14","02_ages_15":"15","02_ages_16":"16","03":"No","04":"No","05":"No","06":"No"},"rt":42235.89999997616,"item_order":[0,1,2,3,4,5],"radio_events":[6418.199999928474,20328.299999952316,33101.89999997616,36775.299999952316,38207,40458.39999997616],"checkbox_events":[11047.199999928474,11568,12036.899999976158,12803.399999976158,13303.100000023842,13753.399999976158,14404.899999976158,15173,16929.899999976158,22087.399999976158,22529.399999976158,23244.399999976158,23544.799999952316,24032,24695,25156.699999928474,25683.299999952316,27324.699999928474],"key_events":[],"mouse_events":[0.19999992847442627,5207.100000023842,6418.199999928474,11047.199999928474,11568,12036.899999976158,12803.399999976158,13303.100000023842,13753.399999976158,14404.899999976158,15173,16929.899999976158,19891.299999952316,20328.299999952316,22087.399999976158,22529.399999976158,23244.399999976158,23544.799999952316,24032,24695,25156.699999928474,25683.299999952316,27324.699999928474,33101.89999997616,36775.299999952316,38207,40458.39999997616,42231.39999997616],"honeypot":0,"survey":"mace","page":1,"trial_type":"survey-mace","trial_index":9,"time_elapsed":278034,"internal_node_id":"0.0-9.0","task_version":"prescreen-v0.3","browser_interactions":0},{"responses":{"01":"No","02":"No","03":"Yes","03_ages_5":"5","03_ages_6":"6","03_ages_7":"7","03_ages_8":"8","04":"Yes","04_ages_5":"5","04_ages_6":"6","04_ages_7":"7","04_ages_8":"8","05":"No","06":"No","07":"No","08":"No"},"rt":50774.200000047684,"item_order":[0,1,2,3,4,5,6,7],"radio_events":[25728.100000023842,27936.700000047684,29306.300000071526,38116.200000047684,43654.800000071526,46027.300000071526,48110.800000071526,49504.5],"checkbox_events":[31130.300000071526,31596.600000023842,32690.200000047684,33092.300000071526,39022.200000047684,39505.60000002384,40291.200000047684,40867.89999997616],"key_events":[],"mouse_events":[25728.100000023842,27936.700000047684,29306.300000071526,30807,31130.300000071526,31596.600000023842,32367.300000071526,32690.200000047684,33092.300000071526,38116.200000047684,39022.200000047684,39505.60000002384,39887.300000071526,40291.200000047684,40867.89999997616,43654.800000071526,45271.5,46027.300000071526,48110.800000071526,49504.5,50768.200000047684],"honeypot":0,"survey":"mace","page":2,"trial_type":"survey-mace","trial_index":10,"time_elapsed":328821,"internal_node_id":"0.0-10.0","task_version":"prescreen-v0.3","browser_interactions":0},{"responses":{"01":"No","02":"No","03":"No","04":"No"},"rt":11815.100000023842,"item_order":[0,1,2,3],"radio_events":[3367.100000023842,5682.800000071526,10171.600000023842,11322.400000095367],"checkbox_events":[],"key_events":[],"mouse_events":[3367.100000023842,5682.800000071526,10171.600000023842,11322.400000095367,11813.700000047684],"honeypot":0,"survey":"mace","page":3,"trial_type":"survey-mace","trial_index":11,"time_elapsed":340645,"internal_node_id":"0.0-11.0","task_version":"prescreen-v0.3","browser_interactions":0},{"responses":{"01":"No","02":"No"},"rt":9629.900000095367,"item_order":[0,1],"radio_events":[6911.400000095367,8310.900000095367],"checkbox_events":[],"key_events":[],"mouse_events":[6911.400000095367,7761.100000023842,8310.900000095367,9628.200000047684],"honeypot":0,"survey":"mace","page":4,"trial_type":"survey-mace","trial_index":12,"time_elapsed":350280,"internal_node_id":"0.0-12.0","task_version":"prescreen-v0.3","browser_interactions":0},{"responses":{"01":"No","02":"No","03":"No","04":"No","05":"No"},"rt":24949.5,"item_order":[0,1,2,3,4],"radio_events":[8867.399999976158,19567.799999952316,21609.899999976158,23423.199999928474,24181.699999928474],"checkbox_events":[],"key_events":[],"mouse_events":[8867.399999976158,19567.799999952316,21609.899999976158,23423.199999928474,24181.699999928474,24945.699999928474],"honeypot":0,"survey":"mace","page":5,"trial_type":"survey-mace","trial_index":13,"time_elapsed":375242,"internal_node_id":"0.0-13.0","task_version":"prescreen-v0.3","browser_interactions":0},{"responses":{"01":"Yes","01_ages_5":"5","01_ages_6":"6","01_ages_7":"7","01_ages_8":"8","01_ages_9":"9","01_ages_10":"10","01_ages_11":"11","01_ages_12":"12","01_ages_13":"13","01_ages_14":"14","01_ages_15":"15","01_ages_16":"16","02":"Yes","02_ages_8":"8","02_ages_9":"9","02_ages_10":"10","02_ages_11":"11","02_ages_12":"12","02_ages_13":"13","02_ages_14":"14","02_ages_15":"15","03":"Yes","03_ages_10":"10","03_ages_11":"11","03_ages_12":"12","03_ages_13":"13","03_ages_14":"14","03_ages_15":"15","04":"Yes","04_ages_9":"9","04_ages_10":"10","04_ages_11":"11","04_ages_12":"12","04_ages_13":"13","04_ages_14":"14","04_ages_15":"15","05":"No"},"rt":43794.10000002384,"item_order":[0,1,2,3,4],"radio_events":[4547.200000047684,16112.800000071526,24505,35011.10000002384,43220.89999997616],"checkbox_events":[6213.399999976158,6718.300000071526,7127.700000047684,7563.5,8068.700000047684,8987,9735.899999976158,10402.100000023842,10967.300000071526,11462.200000047684,11909.5,12396,18053.200000047684,18489.5,19273.300000071526,19837.300000071526,20574.200000047684,21109.600000023842,21753.800000071526,22281.300000071526,25629.100000023842,26967.100000023842,27410.800000071526,28123.399999976158,28736.5,29879.399999976158,30269.700000047684,31182.100000023842,31822.100000023842,32258,36183.200000047684,36572.39999997616,36989.700000047684,37379.10000002384,37884.89999997616,38327.10000002384,38919.60000002384],"key_events":[],"mouse_events":[4547.200000047684,5840.800000071526,6213.399999976158,6718.300000071526,7127.700000047684,7563.5,8068.700000047684,8670.200000047684,8987,9409,9735.899999976158,10402.100000023842,10967.300000071526,11462.200000047684,11909.5,12396,16112.800000071526,17438,18053.200000047684,18489.5,19273.300000071526,19837.300000071526,20574.200000047684,21109.600000023842,21753.800000071526,22281.300000071526,24505,25629.100000023842,26609.300000071526,26967.100000023842,27410.800000071526,28123.399999976158,28736.5,29879.399999976158,30269.700000047684,31182.100000023842,31822.100000023842,32258,35011.10000002384,36183.200000047684,36572.39999997616,36989.700000047684,37379.10000002384,37884.89999997616,38327.10000002384,38919.60000002384,43220.89999997616,43790],"honeypot":0,"survey":"mace","page":6,"trial_type":"survey-mace","trial_index":14,"time_elapsed":419047,"internal_node_id":"0.0-14.0","task_version":"prescreen-v0.3","browser_interactions":0},{"responses":{"01":"No","02":"No","03":"Yes","03_ages_14":"14","03_ages_15":"15","03_ages_16":"16","04":"Yes","04_ages_14":"14","04_ages_15":"15","04_ages_16":"16","05":"No","06":"No","07":"No"},"rt":25454.799999952316,"item_order":[0,1,2,3,4,5,6],"radio_events":[2649.600000023842,5246.5,7069.199999928474,13719.5,22457.299999952316,23927,24969.299999952316],"checkbox_events":[8440.299999952316,8985.199999928474,9556.799999952316,15124.799999952316,16838.5,17413],"key_events":[],"mouse_events":[2649.600000023842,4743.899999976158,5246.5,7069.199999928474,8440.299999952316,8985.199999928474,9556.799999952316,12650,13192.199999928474,13719.5,15124.799999952316,16838.5,17413,22457.299999952316,23927,24969.299999952316,25452.399999976158],"honeypot":0,"survey":"mace","page":7,"trial_type":"survey-mace","trial_index":15,"time_elapsed":444509,"internal_node_id":"0.0-15.0","task_version":"prescreen-v0.3","browser_interactions":0},{"responses":{"01":"No","02":"No","03":"Yes","03_ages_10":"10","03_ages_11":"11","03_ages_12":"12","03_ages_13":"13","03_ages_14":"14","04":"Yes","04_ages_14":"14","04_ages_15":"15","04_ages_16":"16","04_ages_17":"17","04_ages_18":"18"},"rt":35426,"item_order":[0,1,2,3],"radio_events":[13734.100000023842,15847,20331.600000023842,30797.700000047684],"checkbox_events":[23868.399999976158,24845.799999952316,25627.100000023842,26158,26653.799999952316,32486.600000023842,33140.799999952316,33700.60000002384,34244.89999997616,34767.299999952316],"key_events":[],"mouse_events":[13734.100000023842,15847,20331.600000023842,23485.399999976158,23868.399999976158,24255,24845.799999952316,25627.100000023842,26158,26653.799999952316,30797.700000047684,32486.600000023842,33140.799999952316,33700.60000002384,34244.89999997616,34767.299999952316,35423],"honeypot":0,"survey":"mace","page":8,"trial_type":"survey-mace","trial_index":16,"time_elapsed":479944,"internal_node_id":"0.0-16.0","task_version":"prescreen-v0.3","browser_interactions":0},{"responses":{"01":"No","02":"No","03":"Yes","03_ages_1":"1","03_ages_2":"2","03_ages_3":"3","03_ages_4":"4","03_ages_5":"5","03_ages_6":"6","03_ages_7":"7","03_ages_8":"8","03_ages_9":"9","03_ages_10":"10","03_ages_11":"11","03_ages_12":"12","03_ages_13":"13","03_ages_14":"14","03_ages_15":"15","03_ages_16":"16","04":"Yes","04_ages_1":"1","04_ages_2":"2","04_ages_3":"3","04_ages_4":"4","04_ages_5":"5","04_ages_6":"6","04_ages_7":"7","04_ages_8":"8","04_ages_9":"9","04_ages_10":"10","04_ages_11":"11","04_ages_12":"12","04_ages_13":"13","04_ages_14":"14","04_ages_15":"15","04_ages_16":"16","04_ages_17":"17","04_ages_18":"18"},"rt":42512.60000002384,"item_order":[0,1,2,3],"radio_events":[5412.200000047684,8701.900000095367,11836.900000095367,30921.700000047684],"checkbox_events":[13410.600000023842,14590.800000071526,15747.600000023842,17184.600000023842,17618.600000023842,18308.400000095367,19203.5,19826.5,20451,21020.700000047684,21578.900000095367,22276.600000023842,22837.700000047684,23347.600000023842,23980.900000095367,24649.300000071526,32099.400000095367,32519.200000047684,33163,33642.90000009537,34305.40000009537,34739.200000047684,35311.800000071526,36002.10000002384,36597.40000009537,37266.700000047684,37927.700000047684,38497.700000047684,38989.300000071526,39633.90000009537,40157.200000047684,40605.10000002384,41261.700000047684,41909.800000071526],"key_events":[],"mouse_events":[3672.600000023842,4935.5,5412.200000047684,8701.900000095367,11836.900000095367,13410.600000023842,13861.200000047684,14590.800000071526,15041.400000095367,15747.600000023842,16509.200000047684,17184.600000023842,17618.600000023842,18308.400000095367,18865.5,19203.5,19826.5,20451,21020.700000047684,21578.900000095367,22276.600000023842,22837.700000047684,23347.600000023842,23980.900000095367,24649.300000071526,28775.5,29961.700000047684,30921.700000047684,32099.400000095367,32519.200000047684,33163,33642.90000009537,34305.40000009537,34739.200000047684,35311.800000071526,36002.10000002384,36597.40000009537,37266.700000047684,37927.700000047684,38497.700000047684,38989.300000071526,39633.90000009537,40157.200000047684,40605.10000002384,41261.700000047684,41909.800000071526,42509.40000009537],"honeypot":0,"survey":"mace","page":9,"trial_type":"survey-mace","trial_index":17,"time_elapsed":522467,"internal_node_id":"0.0-17.0","task_version":"prescreen-v0.3","browser_interactions":0},{"responses":{"01":"No","02":"No","03":"Yes","03_ages_14":"14","03_ages_15":"15","03_ages_16":"16","03_ages_17":"17","03_ages_18":"18","04":"Yes","04_ages_10":"10","04_ages_11":"11","04_ages_12":"12","04_ages_13":"13","04_ages_14":"14","04_ages_15":"15","05":"Yes","05_ages_5":"5","05_ages_6":"6","05_ages_7":"7","05_ages_8":"8","05_ages_9":"9","05_ages_10":"10","05_ages_11":"11","05_ages_12":"12","05_ages_13":"13","05_ages_14":"14","06":"Yes","06_ages_17":"17","07":"No","08":"No"},"rt":40042.700000047684,"item_order":[0,1,2,3,4,5,6,7],"radio_events":[2983.2000000476837,5745.600000023842,8074.400000095367,14727.200000047684,22846,33828.800000071526,38254.90000009537,39436],"checkbox_events":[9367.600000023842,9790.100000023842,10623.700000047684,11660.400000095367,12456.600000023842,16081.5,16987.200000047684,17476.100000023842,18108.700000047684,18548.200000047684,19219.900000095367,24195.700000047684,24629.300000071526,25084.900000095367,25535.300000071526,26317.900000095367,26948.800000071526,27357.600000023842,28017.800000071526,28451.200000047684,29410.900000095367,34925.40000009537],"key_events":[],"mouse_events":[2983.2000000476837,5745.600000023842,8074.400000095367,9367.600000023842,9790.100000023842,10210.800000071526,10623.700000047684,11144,11660.400000095367,12456.600000023842,14727.200000047684,16081.5,16477.800000071526,16987.200000047684,17476.100000023842,18108.700000047684,18548.200000047684,19219.900000095367,21664.5,22023.5,22846,24195.700000047684,24629.300000071526,25084.900000095367,25535.300000071526,26031.800000071526,26317.900000095367,26948.800000071526,27357.600000023842,28017.800000071526,28451.200000047684,29410.900000095367,33828.800000071526,34925.40000009537,38254.90000009537,39436,40036.10000002384],"honeypot":0,"survey":"mace","page":10,"trial_type":"survey-mace","trial_index":18,"time_elapsed":562522,"internal_node_id":"0.0-18.0","task_version":"prescreen-v0.3","browser_interactions":0,"instructed":0},{"rt":7740,"trial_type":"mental-health-alert","trial_index":19,"time_elapsed":570271,"internal_node_id":"0.0-19.0","task_version":"prescreen-v0.3","interactions":"[]"}]