[{"view_history":[{"page_index":0,"viewing_time":3260.5},{"page_index":1,"viewing_time":4860.0999999940395},{"page_index":2,"viewing_time":6896.5999999940395},{"page_index":3,"viewing_time":49107.40000000596}],"rt":64124.79999998212,"trial_type":"instructions","trial_index":0,"time_elapsed":64135,"internal_node_id":"0.0-0.0","task_version":"prescreen-v0.3"},{"rt":14741.399999976158,"responses":{"age":"26","gender-categorical":"Female","gender-free-response":"","ethnicity":"Hispanic or Latino","race":["White"],"education":"Bachelor degree"},"trial_type":"survey-demo","trial_index":1,"time_elapsed":78885,"internal_node_id":"0.0-1.0","task_version":"prescreen-v0.3"},{"responses":{"Q09":"1","Q01":"2","Q19":"0","Q06":"0","Q10":"1","Q14":"3","Q02":"0","Q21":"3","Q07":"0","Q18":"2","Q17":"1","Q13":"3","Q11":"0","Q15":"2","Q03":"0","Q08":"0","Q20":"2","Q16":"2","Q04":"0","Q12":"0","Q05":"0"},"rt":114197.59999999404,"item_order":[8,0,18,5,9,13,1,20,6,17,16,12,10,14,2,7,19,15,3,11,4],"radio_events":[19040.30000001192,20176.80000001192,35960.69999998808,37963.40000000596,41102.30000001192,44297.59999999404,47244.80000001192,52937.59999999404,58810.09999999404,65965.40000000596,68890.59999999404,71162.90000000596,76068.19999998808,81580.69999998808,84640.90000000596,86789.69999998808,91852.09999999404,97051.5,101043.80000001192,103969,112192.90000000596],"key_events":[],"mouse_events":[19040.30000001192,20176.80000001192,31404.59999999404,35960.69999998808,37963.40000000596,41102.30000001192,44297.59999999404,47244.80000001192,52937.59999999404,58810.09999999404,65965.40000000596,68890.59999999404,71162.90000000596,76068.19999998808,81580.69999998808,84640.90000000596,86789.69999998808,91852.09999999404,97051.5,101043.80000001192,103969,112192.90000000596,114195.80000001192],"straightlining":0.47619047619047616,"zigzagging":0.35,"honeypot":0,"survey":"sns","trial_type":"survey-template","trial_index":2,"time_elapsed":193093,"internal_node_id":"0.0-2.0","task_version":"prescreen-v0.3","browser_interactions":0,"infrequency":0},{"responses":{"Q06":"2","Q07":"3","Q13":"0","Q03":"2","Q02":"2","Q05":"3","Q11":"3","Q08":"3","Q01":"3","Q12":"2","Q09":"1","Q10":"1","Q04":"3"},"rt":58809.80000001192,"item_order":[5,6,12,2,1,4,10,7,0,11,8,9,3],"radio_events":[15573.800000011921,17598.59999999404,21097.80000001192,27465.40000000596,32179.40000000596,34991.90000000596,38535.69999998808,43823.40000000596,45105.90000000596,49650.90000000596,53183.5,56198.69999998808,57953.80000001192],"key_events":[],"mouse_events":[15573.800000011921,17598.59999999404,21097.80000001192,27465.40000000596,32179.40000000596,34991.90000000596,38535.69999998808,43823.40000000596,45105.90000000596,49650.90000000596,53183.5,56198.69999998808,57953.80000001192,58808.80000001192],"straightlining":0.46153846153846156,"zigzagging":0.4166666666666667,"honeypot":0,"survey":"bisbas","trial_type":"survey-template","trial_index":3,"time_elapsed":251910,"internal_node_id":"0.0-3.0","task_version":"prescreen-v0.3","browser_interactions":0,"infrequency":0},{"responses":{"Q01":"2","Q02":"1","Q03":"4"},"rt":360106.5,"radio_events":[344445.1999999881,353783.1999999881,354536.89999997616,359284.2999999821],"key_events":[],"mouse_events":[344445.1999999881,353783.1999999881,354536.89999997616,358744.1999999881,359284.2999999821,360106],"survey":"map","page":1,"trial_type":"survey-map","trial_index":4,"time_elapsed":612032,"internal_node_id":"0.0-4.0","task_version":"prescreen-v0.3","browser_interactions":0},{"responses":{"Q04":"3","Q05":"2","Q06":"4"},"rt":10503.300000011921,"radio_events":[4281.5,7792.5999999940395,9490],"key_events":[],"mouse_events":[4281.5,7792.5999999940395,9490,10502.700000017881],"survey":"map","page":2,"trial_type":"survey-map","trial_index":5,"time_elapsed":622540,"internal_node_id":"0.0-5.0","task_version":"prescreen-v0.3","browser_interactions":0},{"responses":{"Q07":"4","Q08":"4","Q09":"1"},"rt":12529,"radio_events":[4259.200000017881,8804.40000000596,11404.300000011921],"key_events":[],"mouse_events":[4259.200000017881,8804.40000000596,10964.5,11404.300000011921,12528.40000000596],"survey":"map","page":3,"trial_type":"survey-map","trial_index":6,"time_elapsed":635073,"internal_node_id":"0.0-6.0","task_version":"prescreen-v0.3","browser_interactions":0},{"responses":{"Q10":"3","Q11":"2","Q12":"2","Q13":"2","Q16":"0","Q14":"3","Q15":"3"},"rt":51905,"radio_events":[5620.199999988079,9737.799999982119,14226.299999982119,27378.19999998808,43466.39999997616,46998.79999998212,51195.19999998808],"key_events":[],"mouse_events":[5620.199999988079,9737.799999982119,14226.299999982119,27378.19999998808,43466.39999997616,46998.79999998212,51195.19999998808,51904],"survey":"map","page":4,"trial_type":"survey-map","trial_index":7,"time_elapsed":686984,"internal_node_id":"0.0-7.0","task_version":"prescreen-v0.3","browser_interactions":0,"infrequency":0},{"view_history":[{"page_index":0,"viewing_time":2368.699999988079},{"page_index":1,"viewing_time":3498.9000000059605}],"rt":5868,"trial_type":"instructions","trial_index":8,"time_elapsed":692856,"internal_node_id":"0.0-8.0","task_version":"prescreen-v0.3"},{"responses":{"01":"Yes","01_ages_8":"8","01_ages_9":"9","01_ages_10":"10","01_ages_11":"11","01_ages_12":"12","01_ages_13":"13","01_ages_14":"14","02":"Yes","02_ages_6":"6","02_ages_7":"7","02_ages_8":"8","02_ages_9":"9","02_ages_10":"10","02_ages_11":"11","02_ages_12":"12","02_ages_13":"13","02_ages_14":"14","03":"No","04":"No","05":"No","06":"No"},"rt":58051.09999999404,"item_order":[0,1,2,3,4,5],"radio_events":[10695.59999999404,32116.09999999404,42567.80000001192,52941.30000001192,53762,56091.20000001788],"checkbox_events":[26525.5,26929.80000001192,27301.09999999404,27762.5,28291.40000000596,28651,29202.20000001788,35829.40000000596,36380.09999999404,36931.40000000596,37426.90000000596,37888.40000000596,38292.5,38652.5,39035,39462.59999999404],"key_events":[],"mouse_events":[0.20000001788139343,10695.59999999404,26525.5,26929.80000001192,27301.09999999404,27762.5,28291.40000000596,28651,29202.20000001788,31519.40000000596,32116.09999999404,35829.40000000596,36380.09999999404,36931.40000000596,37426.90000000596,37888.40000000596,38292.5,38652.5,39035,39462.59999999404,42567.80000001192,52941.30000001192,53762,56091.20000001788,58048.59999999404],"honeypot":0,"survey":"mace","page":1,"trial_type":"survey-mace","trial_index":9,"time_elapsed":750914,"internal_node_id":"0.0-9.0","task_version":"prescreen-v0.3","browser_interactions":0},{"responses":{"01":"No","02":"No","03":"Yes","03_ages_3":"3","03_ages_4":"4","03_ages_5":"5","04":"No","05":"No","06":"No","07":"No","08":"No"},"rt":28649.69999998808,"item_order":[0,1,2,3,4,5,6,7],"radio_events":[4131.5999999940395,4918.800000011921,7134.699999988079,18138,19038,26496.80000001192,27341.09999999404,27892],"checkbox_events":[9149.199999988079,9498,10049.699999988079],"key_events":[],"mouse_events":[2264,4131.5999999940395,4918.800000011921,7134.699999988079,9149.199999988079,9498,10049.699999988079,18138,19038,26496.80000001192,27341.09999999404,27892,28646.09999999404],"honeypot":0,"survey":"mace","page":2,"trial_type":"survey-mace","trial_index":10,"time_elapsed":779570,"internal_node_id":"0.0-10.0","task_version":"prescreen-v0.3","browser_interactions":0},{"responses":{"01":"No","02":"No","03":"No","04":"No"},"rt":8924.200000017881,"item_order":[0,1,2,3],"radio_events":[3690.9000000059605,5164.800000011921,7066.200000017881,8461.09999999404],"checkbox_events":[],"key_events":[],"mouse_events":[3690.9000000059605,5164.800000011921,7066.200000017881,8461.09999999404,8922.40000000596],"honeypot":0,"survey":"mace","page":3,"trial_type":"survey-mace","trial_index":11,"time_elapsed":788500,"internal_node_id":"0.0-11.0","task_version":"prescreen-v0.3","browser_interactions":0},{"responses":{"01":"No","02":"No"},"rt":5721.0999999940395,"item_order":[0,1],"radio_events":[2997.5999999940395,4775.199999988079],"checkbox_events":[],"key_events":[],"mouse_events":[2997.5999999940395,4775.199999988079,5720.0999999940395],"honeypot":0,"survey":"mace","page":4,"trial_type":"survey-mace","trial_index":12,"time_elapsed":794226,"internal_node_id":"0.0-12.0","task_version":"prescreen-v0.3","browser_interactions":0},{"responses":{"01":"No","02":"No","03":"No","04":"No","05":"No"},"rt":17040.90000000596,"item_order":[0,1,2,3,4],"radio_events":[8668.40000000596,11188.5,12797.300000011921,14991.200000017881,16026.09999999404],"checkbox_events":[],"key_events":[],"mouse_events":[8668.40000000596,11188.5,12797.300000011921,14991.200000017881,16026.09999999404,17038.70000001788],"honeypot":0,"survey":"mace","page":5,"trial_type":"survey-mace","trial_index":13,"time_elapsed":811272,"internal_node_id":"0.0-13.0","task_version":"prescreen-v0.3","browser_interactions":0},{"responses":{"01":"Yes","01_ages_7":"7","01_ages_8":"8","01_ages_9":"9","01_ages_10":"10","01_ages_11":"11","01_ages_12":"12","01_ages_13":"13","01_ages_14":"14","01_ages_15":"15","02":"Yes","02_ages_7":"7","02_ages_8":"8","02_ages_9":"9","02_ages_10":"10","02_ages_11":"11","02_ages_12":"12","02_ages_13":"13","02_ages_14":"14","02_ages_15":"15","02_ages_16":"16","03":"Yes","03_ages_7":"7","03_ages_8":"8","03_ages_9":"9","03_ages_10":"10","03_ages_11":"11","03_ages_12":"12","03_ages_13":"13","03_ages_14":"14","03_ages_15":"15","03_ages_16":"16","03_ages_17":"17","04":"Yes","04_ages_7":"7","04_ages_8":"8","04_ages_9":"9","04_ages_10":"10","04_ages_11":"11","04_ages_12":"12","04_ages_13":"13","05":"No"},"rt":53378.19999998808,"item_order":[0,1,2,3,4],"radio_events":[5190.799999982119,27691.19999998808,38536.5,45871.59999999404,52554.5],"checkbox_events":[6619.9000000059605,7575.699999988079,8115.799999982119,8644.299999982119,9589.40000000596,10219.5,10771.299999982119,11130.59999999404,11479.5,29874,30369.19999998808,30819.19999998808,31179,31527.59999999404,31887.79999998212,33091.29999998212,33451.90000000596,34227.5,34690.29999998212,39819.5,40168,40674.29999998212,41034.19999998808,41382.90000000596,41765.29999998212,42283.19999998808,42801.5,43149.29999998212,43599.09999999404,44521.59999999404,47256.79999998212,47728.29999998212,48515.5,48943.40000000596,49325.69999998808,49663,50304.29999998212],"key_events":[],"mouse_events":[5190.799999982119,6619.9000000059605,7575.699999988079,8115.799999982119,8644.299999982119,9589.40000000596,10219.5,10771.299999982119,11130.59999999404,11479.5,27691.19999998808,29874,30369.19999998808,30819.19999998808,31179,31527.59999999404,31887.79999998212,32619,33091.29999998212,33451.90000000596,34227.5,34690.29999998212,38536.5,39819.5,40168,40674.29999998212,41034.19999998808,41382.90000000596,41765.29999998212,42283.19999998808,42801.5,43149.29999998212,43599.09999999404,44521.59999999404,45871.59999999404,46929.29999998212,47256.79999998212,47728.29999998212,48515.5,48943.40000000596,49325.69999998808,49663,50304.29999998212,52554.5,53375.90000000596],"honeypot":0,"survey":"mace","page":6,"trial_type":"survey-mace","trial_index":14,"time_elapsed":864657,"internal_node_id":"0.0-14.0","task_version":"prescreen-v0.3","browser_interactions":2},{"responses":{"01":"No","02":"No","03":"No","04":"No","05":"No","06":"No","07":"No"},"rt":12977.199999988079,"item_order":[0,1,2,3,4,5,6],"radio_events":[4097.799999982119,6764,8282.5,9452.899999976158,10668.09999999404,11196.899999976158,12456.799999982119],"checkbox_events":[],"key_events":[],"mouse_events":[4097.799999982119,6764,8282.5,9452.899999976158,10668.09999999404,11196.899999976158,12456.799999982119,12974.199999988079],"honeypot":0,"survey":"mace","page":7,"trial_type":"survey-mace","trial_index":15,"time_elapsed":877641,"internal_node_id":"0.0-15.0","task_version":"prescreen-v0.3","browser_interactions":0},{"responses":{"01":"No","02":"Yes","02_ages_7":"7","02_ages_8":"8","02_ages_9":"9","02_ages_10":"10","02_ages_11":"11","02_ages_12":"12","02_ages_13":"13","02_ages_14":"14","02_ages_15":"15","03":"Yes","03_ages_5":"5","03_ages_6":"6","03_ages_7":"7","03_ages_8":"8","03_ages_9":"9","03_ages_10":"10","03_ages_11":"11","03_ages_12":"12","03_ages_13":"13","03_ages_14":"14","03_ages_15":"15","03_ages_16":"16","04":"Yes","04_ages_5":"5","04_ages_6":"6","04_ages_7":"7","04_ages_8":"8","04_ages_9":"9","04_ages_10":"10","04_ages_11":"11","04_ages_12":"12","04_ages_13":"13","04_ages_14":"14","04_ages_15":"15"},"rt":44421.10000002384,"item_order":[0,1,2,3],"radio_events":[6516.9000000059605,10926.90000000596,23720.5,36476.60000002384],"checkbox_events":[17542.20000001788,18352.600000023842,18814,19151.100000023842,19612.40000000596,19961.30000001192,20312,20861.30000001192,21322.5,25552.70000001788,26125.80000001192,26710.90000000596,27059.600000023842,27881.5,28399.20000001788,28781.600000023842,29164.5,29670.5,30167.70000001788,30525.5,32122.5,37523.20000001788,37941,38333,38738.10000002384,39390.30000001192,39896.70000001788,40290.40000000596,40684.10000002384,41268.90000000596,43216.10000002384,43935.90000000596],"key_events":[],"mouse_events":[6516.9000000059605,10926.90000000596,17092.30000001192,17542.20000001788,17982.90000000596,18352.600000023842,18814,19151.100000023842,19612.40000000596,19961.30000001192,20312,20861.30000001192,21322.5,23720.5,25552.70000001788,26125.80000001192,26710.90000000596,27059.600000023842,27510.40000000596,27881.5,28399.20000001788,28781.600000023842,29164.5,29670.5,30167.70000001788,30525.5,32122.5,36476.60000002384,37523.20000001788,37941,38333,38738.10000002384,39075.60000002384,39390.30000001192,39896.70000001788,40290.40000000596,40684.10000002384,41268.90000000596,43216.10000002384,43575.5,43935.90000000596,44419.30000001192],"honeypot":0,"survey":"mace","page":8,"trial_type":"survey-mace","trial_index":16,"time_elapsed":922068,"internal_node_id":"0.0-16.0","task_version":"prescreen-v0.3","browser_interactions":0},{"responses":{"01":"Yes","01_ages_1":"1","01_ages_2":"2","01_ages_3":"3","01_ages_4":"4","01_ages_5":"5","01_ages_6":"6","01_ages_7":"7","01_ages_8":"8","01_ages_9":"9","01_ages_10":"10","01_ages_11":"11","01_ages_12":"12","01_ages_13":"13","01_ages_14":"14","01_ages_15":"15","01_ages_16":"16","01_ages_17":"17","01_ages_18":"18","02":"Yes","02_ages_1":"1","02_ages_2":"2","02_ages_3":"3","02_ages_4":"4","02_ages_5":"5","02_ages_6":"6","02_ages_7":"7","02_ages_8":"8","02_ages_9":"9","02_ages_10":"10","02_ages_11":"11","02_ages_12":"12","02_ages_13":"13","02_ages_14":"14","02_ages_15":"15","02_ages_16":"16","02_ages_17":"17","02_ages_18":"18","03":"Yes","03_ages_1":"1","03_ages_2":"2","03_ages_3":"3","03_ages_4":"4","03_ages_5":"5","03_ages_6":"6","03_ages_7":"7","03_ages_8":"8","03_ages_9":"9","03_ages_10":"10","03_ages_11":"11","03_ages_12":"12","03_ages_13":"13","03_ages_14":"14","03_ages_15":"15","03_ages_16":"16","03_ages_17":"17","03_ages_18":"18","04":"Yes","04_ages_1":"1","04_ages_2":"2","04_ages_3":"3","04_ages_4":"4","04_ages_5":"5","04_ages_6":"6","04_ages_7":"7","04_ages_8":"8","04_ages_9":"9","04_ages_10":"10","04_ages_11":"11","04_ages_12":"12","04_ages_13":"13","04_ages_14":"14","04_ages_15":"15","04_ages_16":"16","04_ages_17":"17","04_ages_18":"18"},"rt":59094.19999998808,"item_order":[0,1,2,3],"radio_events":[5899.4000000059605,20873.59999999404,23854.80000001192,26971.30000001192],"checkbox_events":[8374.800000011921,9410,9859.5,10399.90000000596,10760.09999999404,11153.5,11513.40000000596,11997,12402.199999988079,12930.90000000596,13561,14236,14944.40000000596,15518.5,16339.59999999404,16700.09999999404,17678.30000001192,18274.69999998808,29525.40000000596,29952.80000001192,30447.69999998808,30863.59999999404,31314.40000000596,31876.5,32731.90000000596,33553.19999998808,34273.09999999404,34689.30000001192,35195.40000000596,36275.30000001192,36759.19999998808,37119.09999999404,37625.30000001192,38064.40000000596,38447,38842.40000000596,39470.59999999404,39965.69999998808,41079.40000000596,41551.90000000596,41900.5,42565.30000001192,43014.30000001192,43768.09999999404,44229.59999999404,44960.59999999404,45365.30000001192,45838,46231.90000000596,46715.5,47131.5,47852,48257.09999999404,49257.69999998808,50765.59999999404,51183.5,51677.09999999404,52117.5,52532.09999999404,53072.5,53466.30000001192,53871.19999998808,54264.5,54670,55333.5,55738.19999998808,56290,56683.5,57213.59999999404,57707.69999998808,58157.59999999404,58652.59999999404],"key_events":[],"mouse_events":[5899.4000000059605,8374.800000011921,9410,9859.5,10399.90000000596,10760.09999999404,11153.5,11513.40000000596,11997,12402.199999988079,12930.90000000596,13561,14236,14944.40000000596,15518.5,16339.59999999404,16700.09999999404,16992.19999998808,17341.30000001192,17678.30000001192,18274.69999998808,20446.19999998808,20873.59999999404,22764.09999999404,23854.80000001192,26971.30000001192,28805.30000001192,29525.40000000596,29952.80000001192,30447.69999998808,30863.59999999404,31314.40000000596,31876.5,32731.90000000596,33170.09999999404,33553.19999998808,33946.40000000596,34273.09999999404,34689.30000001192,35195.40000000596,35915.19999998808,36275.30000001192,36759.19999998808,37119.09999999404,37625.30000001192,38064.40000000596,38447,38842.40000000596,39470.59999999404,39965.69999998808,40426.59999999404,41079.40000000596,41551.90000000596,41900.5,42565.30000001192,43014.30000001192,43768.09999999404,44229.59999999404,44600.59999999404,44960.59999999404,45365.30000001192,45838,46231.90000000596,46715.5,47131.5,47852,48257.09999999404,48650.69999998808,49257.69999998808,50765.59999999404,51183.5,51677.09999999404,52117.5,52532.09999999404,53072.5,53466.30000001192,53871.19999998808,54264.5,54670,55333.5,55738.19999998808,56290,56683.5,57213.59999999404,57707.69999998808,58157.59999999404,58652.59999999404,59092.5],"honeypot":0,"survey":"mace","page":9,"trial_type":"survey-mace","trial_index":17,"time_elapsed":981170,"internal_node_id":"0.0-17.0","task_version":"prescreen-v0.3","browser_interactions":0},{"responses":{"01":"No","02":"No","03":"No","04":"Yes","04_ages_15":"15","04_ages_16":"16","04_ages_17":"17","05":"Yes","05_ages_15":"15","05_ages_16":"16","05_ages_17":"17","06":"Yes","06_ages_17":"17","07":"Yes","07_ages_13":"13","07_ages_14":"14","07_ages_15":"15","07_ages_16":"16","07_ages_17":"17","07_ages_18":"18","08":"Yes","08_ages_14":"14","08_ages_15":"15","08_ages_16":"16","08_ages_17":"17","08_ages_18":"18"},"rt":50992.30000001192,"item_order":[0,1,2,3,4,5,6,7],"radio_events":[5436.300000011921,6900.5,7540.199999988079,8541.300000011921,11173.300000011921,17676.30000001192,25191.59999999404,34427.90000000596,44632.30000001192],"checkbox_events":[13784.300000011921,14110.40000000596,14458.699999988079,19431.69999998808,19757.80000001192,21085.30000001192,30715.5,37578.5,37893.69999998808,39749.69999998808,40177.30000001192,41380.90000000596,41977.30000001192,46534.09999999404,46995.19999998808,47478.59999999404,48052.30000001192,48513.90000000596,48896.40000000596,49863.59999999404],"key_events":[],"mouse_events":[4593.5,5436.300000011921,6900.5,7540.199999988079,8541.300000011921,11173.300000011921,13784.300000011921,14110.40000000596,14458.699999988079,17676.30000001192,19431.69999998808,19757.80000001192,20174,21085.30000001192,25191.59999999404,30715.5,34427.90000000596,37128.5,37578.5,37893.69999998808,38208.59999999404,38861.69999998808,39749.69999998808,40177.30000001192,40683.40000000596,41099.19999998808,41380.90000000596,41977.30000001192,44632.30000001192,46534.09999999404,46995.19999998808,47478.59999999404,48052.30000001192,48513.90000000596,48896.40000000596,49863.59999999404,50651.59999999404,50988.80000001192],"honeypot":0,"survey":"mace","page":10,"trial_type":"survey-mace","trial_index":18,"time_elapsed":1032170,"internal_node_id":"0.0-18.0","task_version":"prescreen-v0.3","browser_interactions":0,"instructed":0},{"rt":1926,"trial_type":"mental-health-alert","trial_index":19,"time_elapsed":1034100,"internal_node_id":"0.0-19.0","task_version":"prescreen-v0.3","interactions":"[{\"event\":\"blur\",\"trial\":0,\"time\":16964},{\"event\":\"focus\",\"trial\":0,\"time\":62850},{\"event\":\"blur\",\"trial\":14,\"time\":827426},{\"event\":\"focus\",\"trial\":14,\"time\":835755}]"}]