[{"view_history":[{"page_index":0,"viewing_time":5310},{"page_index":1,"viewing_time":3640},{"page_index":2,"viewing_time":6784},{"page_index":3,"viewing_time":26376}],"rt":42110,"trial_type":"instructions","trial_index":0,"time_elapsed":42114,"internal_node_id":"0.0-0.0","task_version":"prescreen-v0.3"},{"rt":21155,"responses":{"age":"60","gender-categorical":"Male","gender-free-response":"","ethnicity":"Not Hispanic or Latino","race":["White"],"education":"Some college","siblings":"4"},"trial_type":"survey-demo","trial_index":1,"time_elapsed":63277,"internal_node_id":"0.0-1.0","task_version":"prescreen-v0.3"},{"responses":{"Q16":"1","Q18":"1","Q04":"1","Q09":"2","Q03":"2","Q07":"1","Q20":"1","Q12":"1","Q02":"1","Q05":"1","Q01":"2","Q14":"1","Q17":"2","Q15":"2","Q06":"1","Q13":"1","Q10":"1","Q11":"2","Q19":"1","Q21":"3","Q08":"2"},"rt":140291,"item_order":[15,17,3,8,2,6,19,11,1,4,0,13,16,14,5,12,9,10,18,20,7],"radio_events":[16536,21464,26544,30281,37897,44928,48081,56616,71121,73369,75624,79807,92736,97664,104056,108152,113088,115688,129136,135768,139209],"key_events":[],"mouse_events":[16536,21464,26544,30281,37897,44928,48081,56616,59304,71121,73369,74457,75624,79807,83200,92736,97664,104056,108152,113088,115688,129136,135768,139209,140291],"straightlining":0.6190476190476191,"zigzagging":0.45,"honeypot":0,"survey":"sns","trial_type":"survey-template","trial_index":2,"time_elapsed":203574,"internal_node_id":"0.0-2.0","task_version":"prescreen-v0.3","browser_interactions":0,"infrequency":0},{"responses":{"Q08":"2","Q05":"2","Q09":"1","Q04":"2","Q11":"1","Q02":"2","Q10":"1","Q06":"2","Q07":"2","Q13":"0","Q03":"2","Q01":"2","Q12":"1"},"rt":71176,"item_order":[7,4,8,3,10,1,9,5,6,12,2,0,11],"radio_events":[14798,17471,22374,32415,33342,36246,38710,45295,47367,51278,61686,65893,66759],"key_events":[],"mouse_events":[14798,17471,22374,26182,32415,33342,36246,38710,45295,47367,51278,61686,63294,65893,66759,71176],"straightlining":0.6153846153846154,"zigzagging":0.5833333333333334,"honeypot":0,"survey":"bisbas","trial_type":"survey-template","trial_index":3,"time_elapsed":274756,"internal_node_id":"0.0-3.0","task_version":"prescreen-v0.3","browser_interactions":0,"infrequency":0},{"responses":{"Q01":"2","Q02":"3","Q03":"3"},"rt":21746,"radio_events":[11833,15338,20465],"key_events":[],"mouse_events":[11833,15338,20465,21746],"survey":"map","page":1,"trial_type":"survey-map","trial_index":4,"time_elapsed":296506,"internal_node_id":"0.0-4.0","task_version":"prescreen-v0.3","browser_interactions":0},{"responses":{"Q04":"3","Q05":"3","Q06":"3"},"rt":14141,"radio_events":[7812,11301,13173],"key_events":[],"mouse_events":[7812,11301,13173,14141],"survey":"map","page":2,"trial_type":"survey-map","trial_index":5,"time_elapsed":310650,"internal_node_id":"0.0-5.0","task_version":"prescreen-v0.3","browser_interactions":0},{"responses":{"Q07":"3","Q08":"2","Q09":"1"},"rt":23606,"radio_events":[9286,12989,17237],"key_events":[],"mouse_events":[9286,12989,16654,17237,23606],"survey":"map","page":3,"trial_type":"survey-map","trial_index":6,"time_elapsed":334257,"internal_node_id":"0.0-6.0","task_version":"prescreen-v0.3","browser_interactions":0},{"responses":{"Q10":"1","Q11":"1","Q12":"3","Q13":"2","Q16":"0","Q14":"3","Q15":"3"},"rt":57783,"radio_events":[5557,8020,17990,22621,27830,48973,55917],"key_events":[],"mouse_events":[5557,8020,17990,22621,27830,48973,55917,57782],"survey":"map","page":4,"trial_type":"survey-map","trial_index":7,"time_elapsed":392042,"internal_node_id":"0.0-7.0","task_version":"prescreen-v0.3","browser_interactions":0,"infrequency":0},{"view_history":[{"page_index":0,"viewing_time":4541},{"page_index":1,"viewing_time":5504}],"rt":10045,"trial_type":"instructions","trial_index":8,"time_elapsed":402088,"internal_node_id":"0.0-8.0","task_version":"prescreen-v0.3"},{"responses":{"01":"Yes","01_ages_8":"8","01_ages_9":"9","01_ages_10":"10","01_ages_11":"11","02":"Yes","02_ages_11":"11","02_ages_12":"12","02_ages_13":"13","03":"Yes","03_ages_13":"13","03_ages_14":"14","04":"No","05":"No","06":"No"},"rt":69412,"item_order":[0,1,2,3,4,5],"radio_events":[13833,37890,52650,63369,65649,68473],"checkbox_events":[27913,28762,29465,31913,45169,46010,46665,59514,60186],"key_events":[],"mouse_events":[0,13833,27913,28762,29465,31913,37890,45169,46010,46665,52650,59514,60186,63369,65649,68473,69412],"honeypot":0,"survey":"mace","page":1,"trial_type":"survey-mace","trial_index":9,"time_elapsed":471508,"internal_node_id":"0.0-9.0","task_version":"prescreen-v0.3","browser_interactions":0},{"responses":{"01":"No","02":"No","03":"Yes","03_ages_6":"6","03_ages_7":"7","03_ages_8":"8","04":"No","05":"No","06":"No","07":"No","08":"No"},"rt":32210,"item_order":[0,1,2,3,4,5,6,7],"radio_events":[7224,9776,15584,23088,25296,27439,29144,30983],"checkbox_events":[18055,18864,19536],"key_events":[],"mouse_events":[7224,9776,15584,18055,18864,19536,23088,25296,27439,29144,30983,32210],"honeypot":0,"survey":"mace","page":2,"trial_type":"survey-mace","trial_index":10,"time_elapsed":503723,"internal_node_id":"0.0-10.0","task_version":"prescreen-v0.3","browser_interactions":0},{"responses":{"01":"No","02":"No","03":"No","04":"No"},"rt":24739,"item_order":[0,1,2,3],"radio_events":[7831,13792,15097,23841],"checkbox_events":[],"key_events":[],"mouse_events":[7831,12224,13792,15097,17361,23841,24738],"honeypot":0,"survey":"mace","page":3,"trial_type":"survey-mace","trial_index":11,"time_elapsed":528467,"internal_node_id":"0.0-11.0","task_version":"prescreen-v0.3","browser_interactions":0},{"responses":{"01":"No","02":"No"},"rt":8500,"item_order":[0,1],"radio_events":[3179,5539],"checkbox_events":[],"key_events":[],"mouse_events":[3179,5539,8500],"honeypot":0,"survey":"mace","page":4,"trial_type":"survey-mace","trial_index":12,"time_elapsed":536970,"internal_node_id":"0.0-12.0","task_version":"prescreen-v0.3","browser_interactions":0},{"responses":{"01":"No","02":"No","03":"No","04":"Yes","04_ages_10":"10","04_ages_11":"11","04_ages_12":"12","05":"No"},"rt":46564,"item_order":[0,1,2,3,4],"radio_events":[18378,27899,29939,34658,45594],"checkbox_events":[39882,40708,41347],"key_events":[],"mouse_events":[18378,22803,27899,29939,34658,39882,40708,41347,45594,46564],"honeypot":0,"survey":"mace","page":5,"trial_type":"survey-mace","trial_index":13,"time_elapsed":583538,"internal_node_id":"0.0-13.0","task_version":"prescreen-v0.3","browser_interactions":0},{"responses":{"01":"Yes","01_ages_9":"9","01_ages_10":"10","01_ages_11":"11","01_ages_12":"12","02":"Yes","02_ages_10":"10","02_ages_11":"11","02_ages_12":"12","02_ages_13":"13","02_ages_14":"14","02_ages_15":"15","02_ages_16":"16","03":"No","04":"No","05":"No"},"rt":49883,"item_order":[0,1,2,3,4],"radio_events":[11762,24593,41161,45682,48977],"checkbox_events":[16257,18114,18802,19377,27058,28474,28978,29537,30809,31457,32114],"key_events":[],"mouse_events":[11762,16257,18114,18802,19377,24593,27058,27634,28474,28978,29537,30809,31457,32114,41161,45682,48977,49883],"honeypot":0,"survey":"mace","page":6,"trial_type":"survey-mace","trial_index":14,"time_elapsed":633427,"internal_node_id":"0.0-14.0","task_version":"prescreen-v0.3","browser_interactions":0},{"responses":{"01":"No","02":"No","03":"Yes","03_ages_13":"13","03_ages_14":"14","03_ages_15":"15","04":"No","05":"No","06":"No","07":"No"},"rt":48379,"item_order":[0,1,2,3,4,5,6],"radio_events":[19345,22856,28929,38561,40985,42905,45144],"checkbox_events":[32985,34905,35632],"key_events":[],"mouse_events":[19345,22856,28929,32985,34905,35632,38561,40985,42905,45144,48379],"honeypot":0,"survey":"mace","page":7,"trial_type":"survey-mace","trial_index":15,"time_elapsed":681811,"internal_node_id":"0.0-15.0","task_version":"prescreen-v0.3","browser_interactions":0},{"responses":{"01":"No","02":"No","03":"Yes","03_ages_9":"9","03_ages_10":"10","03_ages_11":"11","03_ages_12":"12","03_ages_13":"13","04":"Yes","04_ages_9":"9","04_ages_10":"10","04_ages_11":"11","04_ages_12":"12","04_ages_13":"13"},"rt":37787,"item_order":[0,1,2,3],"radio_events":[12337,15641,19024,21848,33369],"checkbox_events":[23944,24688,25225,25808,26689,34545,35073,35696,36232,36873],"key_events":[],"mouse_events":[12337,15641,19024,21848,23944,24688,25225,25808,26689,33369,34545,35073,35696,36232,36873,37787],"honeypot":0,"survey":"mace","page":8,"trial_type":"survey-mace","trial_index":16,"time_elapsed":719601,"internal_node_id":"0.0-16.0","task_version":"prescreen-v0.3","browser_interactions":0},{"responses":{"01":"Yes","01_ages_5":"5","01_ages_6":"6","01_ages_7":"7","01_ages_8":"8","01_ages_9":"9","01_ages_10":"10","01_ages_11":"11","01_ages_12":"12","01_ages_13":"13","01_ages_14":"14","01_ages_15":"15","01_ages_16":"16","01_ages_17":"17","01_ages_18":"18","02":"Yes","02_ages_5":"5","02_ages_6":"6","02_ages_7":"7","02_ages_8":"8","02_ages_9":"9","02_ages_10":"10","02_ages_11":"11","02_ages_12":"12","02_ages_13":"13","02_ages_14":"14","02_ages_15":"15","02_ages_16":"16","02_ages_17":"17","02_ages_18":"18","03":"Yes","03_ages_1":"1","03_ages_2":"2","03_ages_3":"3","03_ages_4":"4","03_ages_5":"5","03_ages_6":"6","03_ages_7":"7","03_ages_8":"8","03_ages_9":"9","03_ages_10":"10","03_ages_11":"11","03_ages_12":"12","03_ages_13":"13","03_ages_14":"14","03_ages_15":"15","03_ages_16":"16","03_ages_17":"17","03_ages_18":"18","04":"Yes","04_ages_1":"1","04_ages_2":"2","04_ages_3":"3","04_ages_4":"4","04_ages_5":"5","04_ages_6":"6","04_ages_7":"7","04_ages_8":"8","04_ages_9":"9","04_ages_10":"10","04_ages_11":"11","04_ages_12":"12","04_ages_13":"13","04_ages_14":"14","04_ages_15":"15","04_ages_16":"16","04_ages_17":"17","04_ages_18":"18"},"rt":76068,"item_order":[0,1,2,3],"radio_events":[6507,24291,39706,61546],"checkbox_events":[11698,12274,13563,14195,14723,15203,15698,16178,16603,17019,17427,17962,18363,18786,25619,26018,26459,26890,27307,28554,28954,29339,30787,31163,31658,32539,32938,33491,40947,41459,42811,43194,43706,44139,44538,44914,45290,46242,46595,47106,48042,48779,49570,50315,51298,51715,62915,63747,64291,64827,65314,65803,66627,67234,69154,69603,70059,70483,70914,71931,72419,73266,74163,75075],"key_events":[],"mouse_events":[6507,11698,12274,12891,13563,14195,14723,15203,15698,16178,16603,17019,17427,17962,18363,18786,24291,25619,26018,26459,26890,27307,27722,28554,28954,29339,30787,31163,31658,32148,32539,32938,33491,39706,40947,41459,42811,43194,43706,44139,44538,44914,45290,45722,46242,46595,47106,48042,48410,48779,49154,49570,49946,50315,50859,51298,51715,61546,62915,63747,64291,64827,65314,65803,66219,66627,67234,67738,69154,69603,70059,70483,70914,71466,71931,72419,73266,73763,74163,74604,75075,76068],"honeypot":0,"survey":"mace","page":9,"trial_type":"survey-mace","trial_index":17,"time_elapsed":795674,"internal_node_id":"0.0-17.0","task_version":"prescreen-v0.3","browser_interactions":0},{"responses":{"01":"No","02":"No","03":"No","04":"No","05":"No","06":"Yes","06_ages_17":"17","07":"Yes","07_ages_1":"1","07_ages_2":"2","07_ages_3":"3","07_ages_4":"4","07_ages_5":"5","07_ages_6":"6","07_ages_7":"7","07_ages_8":"8","07_ages_9":"9","07_ages_10":"10","07_ages_11":"11","07_ages_12":"12","07_ages_13":"13","07_ages_14":"14","07_ages_15":"15","07_ages_16":"16","07_ages_17":"17","08":"Yes","08_ages_1":"1","08_ages_2":"2","08_ages_3":"3","08_ages_4":"4","08_ages_5":"5","08_ages_6":"6","08_ages_7":"7","08_ages_8":"8","08_ages_9":"9","08_ages_10":"10","08_ages_11":"11","08_ages_12":"12","08_ages_13":"13","08_ages_14":"14","08_ages_15":"15","08_ages_16":"16","08_ages_17":"17","08_ages_18":"18"},"rt":57058,"item_order":[0,1,2,3,4,5,6,7],"radio_events":[8153,10048,11985,15792,18521,21137,27625,42640],"checkbox_events":[22945,31096,31600,32072,32585,33040,33472,33937,34400,34832,35280,35728,36192,37241,37641,38161,38720,39425,43865,44353,44762,45280,46202,46585,47049,47560,48152,48904,49704,50153,50712,52497,52992,53577,54633,55217],"key_events":[],"mouse_events":[8153,10048,11985,15792,18521,21137,22945,27625,31096,31600,32072,32585,33040,33472,33937,34400,34832,35280,35728,36192,36641,37241,37641,38161,38720,39425,40025,42640,43865,44353,44762,45280,45672,46202,46585,47049,47560,48152,48904,49353,49704,50153,50712,51353,52497,52992,53577,54633,55217,57058],"honeypot":0,"survey":"mace","page":10,"trial_type":"survey-mace","trial_index":18,"time_elapsed":852737,"internal_node_id":"0.0-18.0","task_version":"prescreen-v0.3","browser_interactions":0,"instructed":0},{"rt":7493,"trial_type":"mental-health-alert","trial_index":19,"time_elapsed":860231,"internal_node_id":"0.0-19.0","task_version":"prescreen-v0.3","interactions":"[{\"event\":\"focus\",\"trial\":0,\"time\":1}]"}]