[{"view_history":[{"page_index":0,"viewing_time":2112.899999976158},{"page_index":1,"viewing_time":1144.4000000357628},{"page_index":2,"viewing_time":711.8999999761581},{"page_index":3,"viewing_time":965.8999999761581}],"rt":4935.899999976158,"trial_type":"instructions","trial_index":0,"time_elapsed":4955,"internal_node_id":"0.0-0.0","task_version":"prescreen-v0.3"},{"rt":14929.399999976158,"responses":{"age":"20","gender-categorical":"Female","gender-free-response":"","ethnicity":"Not Hispanic or Latino","race":["White"],"education":"Some college"},"trial_type":"survey-demo","trial_index":1,"time_elapsed":19891,"internal_node_id":"0.0-1.0","task_version":"prescreen-v0.3"},{"responses":{"Q11":"2","Q14":"1","Q21":"3","Q09":"1","Q17":"1","Q06":"0","Q01":"2","Q19":"1","Q08":"0","Q07":"1","Q12":"2","Q15":"2","Q03":"1","Q05":"0","Q20":"0","Q02":"0","Q13":"1","Q10":"0","Q04":"2","Q16":"2","Q18":"2"},"rt":78921.39999997616,"item_order":[10,13,20,8,16,5,0,18,7,6,11,14,2,4,19,1,12,9,3,15,17],"radio_events":[3224.199999988079,6897.899999976158,9587.699999988079,13831.699999988079,16156.099999964237,20159.69999998808,22008.599999964237,27196.5,29937.19999998808,35750.89999997616,40302.39999997616,44210.19999998808,46314.19999998808,50569,52278.59999996424,56753.5,61162.799999952316,65392.299999952316,68473.09999996424,74112.29999995232,78318.19999998808],"key_events":[],"mouse_events":[3224.199999988079,6897.899999976158,9587.699999988079,13831.699999988079,16156.099999964237,20159.69999998808,22008.599999964237,27196.5,29937.19999998808,35750.89999997616,40302.39999997616,44210.19999998808,46314.19999998808,50569,52278.59999996424,56753.5,61162.799999952316,65392.299999952316,68473.09999996424,74112.29999995232,78318.19999998808,78915.79999995232],"straightlining":0.3333333333333333,"zigzagging":0.5,"honeypot":0,"survey":"sns","trial_type":"survey-template","trial_index":2,"time_elapsed":98820,"internal_node_id":"0.0-2.0","task_version":"prescreen-v0.3","browser_interactions":0,"infrequency":0},{"responses":{"Q06":"2","Q05":"2","Q09":"1","Q04":"2","Q01":"2","Q03":"2","Q07":"2","Q13":"0","Q02":"3","Q12":"0","Q11":"1","Q10":"1","Q08":"2"},"rt":58830.80000001192,"item_order":[5,4,8,3,0,2,6,12,1,11,10,9,7],"radio_events":[15003.800000011921,17224.399999976158,20658.5,23718.899999976158,25820.599999964237,28112.099999964237,29265.80000001192,30312.80000001192,32693.30000001192,35132.30000001192,38929.59999996424,46016.80000001192,51183.19999998808,53220.89999997616,58270.30000001192],"key_events":[],"mouse_events":[15003.800000011921,17224.399999976158,20658.5,23718.899999976158,25820.599999964237,28112.099999964237,29265.80000001192,30312.80000001192,32693.30000001192,35132.30000001192,38471.69999998808,38929.59999996424,46016.80000001192,51183.19999998808,53220.89999997616,57811.5,58270.30000001192,58827.80000001192],"straightlining":0.5384615384615384,"zigzagging":0.5,"honeypot":0,"survey":"bisbas","trial_type":"survey-template","trial_index":3,"time_elapsed":157658,"internal_node_id":"0.0-3.0","task_version":"prescreen-v0.3","browser_interactions":0,"infrequency":0},{"responses":{"Q01":"3","Q02":"2","Q03":"3"},"rt":14998.199999988079,"radio_events":[5860.5,8970.899999976158,14457.800000011921],"key_events":[],"mouse_events":[5860.5,8970.899999976158,14457.800000011921,14997.300000011921],"survey":"map","page":1,"trial_type":"survey-map","trial_index":4,"time_elapsed":172661,"internal_node_id":"0.0-4.0","task_version":"prescreen-v0.3","browser_interactions":0},{"responses":{"Q04":"3","Q05":"2","Q06":"3"},"rt":12949.300000011921,"radio_events":[6090.199999988079,9796.800000011921,12416.100000023842],"key_events":[],"mouse_events":[6090.199999988079,9796.800000011921,12416.100000023842,12948],"survey":"map","page":2,"trial_type":"survey-map","trial_index":5,"time_elapsed":185613,"internal_node_id":"0.0-5.0","task_version":"prescreen-v0.3","browser_interactions":0},{"responses":{"Q07":"2","Q08":"1","Q09":"2"},"rt":15456.400000035763,"radio_events":[6121.800000011921,10133.100000023842,12272.700000047684,14903.800000011921],"key_events":[],"mouse_events":[6121.800000011921,10133.100000023842,12272.700000047684,14903.800000011921,15455.5],"survey":"map","page":3,"trial_type":"survey-map","trial_index":6,"time_elapsed":201074,"internal_node_id":"0.0-6.0","task_version":"prescreen-v0.3","browser_interactions":0},{"responses":{"Q10":"2","Q11":"2","Q12":"2","Q13":"1","Q16":"0","Q14":"3","Q15":"3"},"rt":32642.700000047684,"radio_events":[3603.300000011921,5845,8054.800000011921,12022.700000047684,15377.100000023842,18051.5,30300.200000047684,32107.900000035763],"key_events":[],"mouse_events":[3603.300000011921,5845,8054.800000011921,12022.700000047684,15377.100000023842,18051.5,30300.200000047684,32107.900000035763,32640.100000023842],"survey":"map","page":4,"trial_type":"survey-map","trial_index":7,"time_elapsed":233722,"internal_node_id":"0.0-7.0","task_version":"prescreen-v0.3","browser_interactions":0,"infrequency":0},{"view_history":[{"page_index":0,"viewing_time":6987.100000023842},{"page_index":1,"viewing_time":2320.600000023842}],"rt":9308.600000023842,"trial_type":"instructions","trial_index":8,"time_elapsed":243032,"internal_node_id":"0.0-8.0","task_version":"prescreen-v0.3"},{"responses":{"01":"Yes","01_ages_14":"14","01_ages_15":"15","01_ages_16":"16","01_ages_17":"17","01_ages_18":"18","02":"Yes","02_ages_12":"12","02_ages_13":"13","02_ages_14":"14","02_ages_15":"15","02_ages_16":"16","02_ages_17":"17","02_ages_18":"18","03":"Yes","03_ages_15":"15","04":"No","05":"No","06":"Yes","06_ages_14":"14","06_ages_15":"15","06_ages_16":"16"},"rt":41172.10000002384,"item_order":[0,1,2,3,4,5],"radio_events":[3265.5,12827.800000011921,28322.69999998808,31435.899999976158,34201.80000001192,37099.30000001192],"checkbox_events":[8117.600000023842,8836.600000023842,9352.300000011921,9842.899999976158,10931.300000011921,15094.899999976158,15977.699999988079,16528.399999976158,16993.399999976158,17481.600000023842,17966.5,18817.600000023842,29512.5,38090,39464.89999997616,40062.19999998808],"key_events":[],"mouse_events":[0.10000002384185791,3265.5,8117.600000023842,8836.600000023842,9352.300000011921,9842.899999976158,10333.899999976158,10931.300000011921,12827.800000011921,15094.899999976158,15977.699999988079,16528.399999976158,16993.399999976158,17481.600000023842,17966.5,18817.600000023842,28322.69999998808,29512.5,31435.899999976158,33489.89999997616,34201.80000001192,37099.30000001192,38090,39464.89999997616,40062.19999998808,41167.19999998808],"honeypot":0,"survey":"mace","page":1,"trial_type":"survey-mace","trial_index":9,"time_elapsed":284217,"internal_node_id":"0.0-9.0","task_version":"prescreen-v0.3","browser_interactions":0},{"responses":{"01":"No","02":"No","03":"Yes","03_ages_3":"3","03_ages_4":"4","03_ages_5":"5","03_ages_6":"6","04":"No","05":"Yes","05_ages_3":"3","05_ages_4":"4","05_ages_5":"5","05_ages_6":"6","06":"No","07":"No","08":"No"},"rt":35525.5,"item_order":[0,1,2,3,4,5,6,7],"radio_events":[8668.099999964237,10152.899999976158,12858.799999952316,24605,27104.5,31423.19999998808,32924,34994.59999996424],"checkbox_events":[14676.899999976158,15404.599999964237,16026.699999988079,16844.899999976158,18031.399999976158,18415.599999964237,27945.799999952316,28399.19999998808,29395.899999976158,29870.899999976158],"key_events":[],"mouse_events":[8668.099999964237,10152.899999976158,12858.799999952316,14676.899999976158,15404.599999964237,16026.699999988079,16844.899999976158,18031.399999976158,18415.599999964237,24605,27104.5,27945.799999952316,28399.19999998808,28870.799999952316,29395.899999976158,29870.899999976158,31423.19999998808,32924,34994.59999996424,35518.39999997616],"honeypot":0,"survey":"mace","page":2,"trial_type":"survey-mace","trial_index":10,"time_elapsed":319748,"internal_node_id":"0.0-10.0","task_version":"prescreen-v0.3","browser_interactions":0},{"responses":{"01":"No","02":"No","03":"No","04":"No"},"rt":12286.5,"item_order":[0,1,2,3],"radio_events":[8119.699999988079,9534.899999976158,11138.600000023842,11826],"checkbox_events":[],"key_events":[],"mouse_events":[8119.699999988079,9534.899999976158,11138.600000023842,11826,12282],"honeypot":0,"survey":"mace","page":3,"trial_type":"survey-mace","trial_index":11,"time_elapsed":332038,"internal_node_id":"0.0-11.0","task_version":"prescreen-v0.3","browser_interactions":0},{"responses":{"01":"No","02":"No"},"rt":6336,"item_order":[0,1],"radio_events":[1602.7999999523163,5164.099999964237],"checkbox_events":[],"key_events":[],"mouse_events":[1602.7999999523163,5164.099999964237,6333.399999976158],"honeypot":0,"survey":"mace","page":4,"trial_type":"survey-mace","trial_index":12,"time_elapsed":338378,"internal_node_id":"0.0-12.0","task_version":"prescreen-v0.3","browser_interactions":0},{"responses":{"01":"No","02":"No","03":"No","04":"Yes","04_ages_14":"14","04_ages_15":"15","04_ages_16":"16","04_ages_17":"17","04_ages_18":"18","05":"No"},"rt":127110.19999998808,"item_order":[0,1,2,3,4],"radio_events":[109470.69999998808,111697.40000003576,114545.19999998808,117208.90000003576,126624],"checkbox_events":[119129.90000003576,120521.69999998808,121052,121633.80000001192,122312.69999998808,122754.90000003576,123204.40000003576],"key_events":[],"mouse_events":[109470.69999998808,111697.40000003576,114545.19999998808,117208.90000003576,119129.90000003576,119612.60000002384,120038,120521.69999998808,121052,121633.80000001192,122312.69999998808,122754.90000003576,123204.40000003576,126624,127105],"honeypot":0,"survey":"mace","page":5,"trial_type":"survey-mace","trial_index":13,"time_elapsed":465495,"internal_node_id":"0.0-13.0","task_version":"prescreen-v0.3","browser_interactions":0},{"responses":{"01":"No","02":"Yes","02_ages_12":"12","02_ages_13":"13","02_ages_14":"14","02_ages_15":"15","02_ages_16":"16","03":"Yes","03_ages_12":"12","03_ages_13":"13","03_ages_14":"14","03_ages_15":"15","04":"Yes","04_ages_10":"10","04_ages_11":"11","04_ages_12":"12","04_ages_13":"13","04_ages_14":"14","04_ages_15":"15","05":"No"},"rt":38918.39999997616,"item_order":[0,1,2,3,4],"radio_events":[10028.399999976158,19668.100000023842,27532.600000023842,32302.5,38454.80000001192],"checkbox_events":[21732.100000023842,21991.100000023842,22907.399999976158,23389.80000001192,23881.19999998808,24878.30000001192,25402.69999998808,28773.69999998808,29256.899999976158,29780.600000023842,30429.600000023842,33316.5,33832.60000002384,34348.30000001192,34835.10000002384,35352.60000002384,35935.10000002384],"key_events":[],"mouse_events":[10028.399999976158,19668.100000023842,21732.100000023842,21991.100000023842,22907.399999976158,23389.80000001192,23881.19999998808,24878.30000001192,25402.69999998808,27532.600000023842,28773.69999998808,29256.899999976158,29780.600000023842,30429.600000023842,32302.5,33316.5,33832.60000002384,34348.30000001192,34835.10000002384,35352.60000002384,35935.10000002384,38454.80000001192,38913.60000002384],"honeypot":0,"survey":"mace","page":6,"trial_type":"survey-mace","trial_index":14,"time_elapsed":504418,"internal_node_id":"0.0-14.0","task_version":"prescreen-v0.3","browser_interactions":0},{"responses":{"01":"No","02":"No","03":"No","04":"No","05":"No","06":"No","07":"No"},"rt":10970.300000011921,"item_order":[0,1,2,3,4,5,6],"radio_events":[3751,4984.5,6187.899999976158,7234.600000023842,8405.5,9189.5,10537.800000011921],"checkbox_events":[],"key_events":[],"mouse_events":[3751,4984.5,6187.899999976158,7234.600000023842,8405.5,9189.5,10537.800000011921,10964.5],"honeypot":0,"survey":"mace","page":7,"trial_type":"survey-mace","trial_index":15,"time_elapsed":515393,"internal_node_id":"0.0-15.0","task_version":"prescreen-v0.3","browser_interactions":0},{"responses":{"01":"No","02":"No","03":"Yes","03_ages_11":"11","03_ages_12":"12","03_ages_13":"13","03_ages_14":"14","03_ages_15":"15","03_ages_16":"16","03_ages_17":"17","03_ages_18":"18","04":"No"},"rt":31073.399999976158,"item_order":[0,1,2,3],"radio_events":[9164.100000023842,19641.69999998808,22101.100000023842,30570.899999976158],"checkbox_events":[23545.600000023842,24060.80000001192,24535.899999976158,25018.80000001192,25493.30000001192,25968.19999998808,26638.600000023842,27113.100000023842],"key_events":[],"mouse_events":[9164.100000023842,19641.69999998808,22101.100000023842,23545.600000023842,24060.80000001192,24535.899999976158,25018.80000001192,25493.30000001192,25968.19999998808,26638.600000023842,27113.100000023842,30570.899999976158,31069.5],"honeypot":0,"survey":"mace","page":8,"trial_type":"survey-mace","trial_index":16,"time_elapsed":546471,"internal_node_id":"0.0-16.0","task_version":"prescreen-v0.3","browser_interactions":0},{"responses":{"01":"Yes","01_ages_1":"1","01_ages_2":"2","01_ages_3":"3","01_ages_4":"4","01_ages_5":"5","01_ages_6":"6","01_ages_7":"7","01_ages_8":"8","01_ages_9":"9","01_ages_10":"10","01_ages_11":"11","01_ages_12":"12","01_ages_13":"13","01_ages_14":"14","01_ages_17":"17","01_ages_18":"18","02":"Yes","02_ages_1":"1","02_ages_2":"2","02_ages_3":"3","02_ages_4":"4","02_ages_5":"5","02_ages_6":"6","02_ages_7":"7","02_ages_8":"8","02_ages_9":"9","02_ages_10":"10","02_ages_11":"11","02_ages_12":"12","02_ages_13":"13","02_ages_14":"14","02_ages_15":"15","02_ages_16":"16","02_ages_17":"17","02_ages_18":"18","03":"Yes","03_ages_1":"1","03_ages_2":"2","03_ages_3":"3","03_ages_4":"4","03_ages_5":"5","03_ages_6":"6","03_ages_7":"7","03_ages_8":"8","03_ages_9":"9","03_ages_10":"10","03_ages_11":"11","03_ages_12":"12","03_ages_13":"13","03_ages_14":"14","03_ages_15":"15","03_ages_16":"16","03_ages_17":"17","03_ages_18":"18","04":"Yes","04_ages_1":"1","04_ages_2":"2","04_ages_3":"3","04_ages_4":"4","04_ages_5":"5","04_ages_6":"6","04_ages_7":"7","04_ages_8":"8","04_ages_9":"9","04_ages_10":"10","04_ages_11":"11","04_ages_12":"12","04_ages_13":"13","04_ages_14":"14","04_ages_15":"15","04_ages_16":"16","04_ages_17":"17","04_ages_18":"18"},"rt":55302.80000001192,"item_order":[0,1,2,3],"radio_events":[3968,19087.19999998808,31180.100000023842,44957.5],"checkbox_events":[5734.300000011921,6235.100000023842,6685,7159.300000011921,7658,8141.199999988079,8614.100000023842,9090.600000023842,9989.800000011921,10472.800000011921,10980,11978,14054.399999976158,14609.399999976158,15692.300000011921,16444.399999976158,20296.69999998808,20715.899999976158,21125.19999998808,21558.899999976158,21981.30000001192,22409.69999998808,22834.69999998808,23342.19999998808,23873.899999976158,24413.5,24831.19999998808,25273,26123.80000001192,26549.19999998808,27016,27465.600000023842,27948.600000023842,28415.19999998808,31939.899999976158,32370.100000023842,32872.30000001192,33324,34281.60000002384,34731.39999997616,35304,35745.80000001192,36196,36667,37169.39999997616,37620,38101.30000001192,38651.30000001192,39158.19999998808,39617,40116.10000002384,40566.39999997616,45816.69999998808,46242.5,46676.30000001192,47551.89999997616,48018.19999998808,48493.19999998808,48951.10000002384,49401.69999998808,49947.39999997616,50433,50906.69999998808,51390.5,51881.69999998808,52356.19999998808,52904.19999998808,53428.10000002384,53919.10000002384,54417.39999997616],"key_events":[],"mouse_events":[3968,5734.300000011921,6235.100000023842,6685,7159.300000011921,7658,8141.199999988079,8614.100000023842,9090.600000023842,9564.399999976158,9989.800000011921,10472.800000011921,10980,11978,12803.800000011921,14054.399999976158,14609.399999976158,15692.300000011921,16444.399999976158,19087.19999998808,20296.69999998808,20715.899999976158,21125.19999998808,21558.899999976158,21981.30000001192,22409.69999998808,22834.69999998808,23342.19999998808,23873.899999976158,24413.5,24831.19999998808,25273,25706.69999998808,26123.80000001192,26549.19999998808,27016,27465.600000023842,27948.600000023842,28415.19999998808,30726.5,31180.100000023842,31939.899999976158,32370.100000023842,32872.30000001192,33324,33757.5,34281.60000002384,34731.39999997616,35304,35745.80000001192,36196,36667,37169.39999997616,37620,38101.30000001192,38651.30000001192,39158.19999998808,39617,40116.10000002384,40566.39999997616,44957.5,45816.69999998808,46242.5,46676.30000001192,47134.19999998808,47551.89999997616,48018.19999998808,48493.19999998808,48951.10000002384,49401.69999998808,49947.39999997616,50433,50906.69999998808,51390.5,51881.69999998808,52356.19999998808,52904.19999998808,53428.10000002384,53919.10000002384,54417.39999997616,55300.19999998808],"honeypot":0,"survey":"mace","page":9,"trial_type":"survey-mace","trial_index":17,"time_elapsed":601779,"internal_node_id":"0.0-17.0","task_version":"prescreen-v0.3","browser_interactions":0},{"responses":{"01":"No","02":"No","03":"No","04":"Yes","04_ages_17":"17","04_ages_18":"18","05":"No","06":"Yes","06_ages_17":"17","07":"Yes","07_ages_1":"1","07_ages_2":"2","07_ages_3":"3","07_ages_4":"4","07_ages_5":"5","07_ages_6":"6","07_ages_7":"7","07_ages_8":"8","07_ages_9":"9","07_ages_10":"10","07_ages_11":"11","07_ages_12":"12","07_ages_13":"13","07_ages_14":"14","07_ages_15":"15","07_ages_16":"16","07_ages_17":"17","07_ages_18":"18","08":"No"},"rt":32064.30000001192,"item_order":[0,1,2,3,4,5,6,7],"radio_events":[2980.300000011921,3913.2000000476837,5009.400000035763,7005.100000023842,12846.700000047684,15292.900000035763,19462.30000001192,30974.100000023842],"checkbox_events":[9100.800000011921,9574.5,16397.30000001192,20806.900000035763,21279,21772.100000023842,22213.600000023842,22949.900000035763,23465.400000035763,23923.600000023842,24398.200000047684,24838.900000035763,25322,25796.100000023842,26278.5,26754.400000035763,27221,27693.400000035763,28580.100000023842,29218,29660.100000023842],"key_events":[],"mouse_events":[2980.300000011921,3913.2000000476837,5009.400000035763,7005.100000023842,9100.800000011921,9574.5,12846.700000047684,15292.900000035763,16397.30000001192,19462.30000001192,20806.900000035763,21279,21772.100000023842,22213.600000023842,22949.900000035763,23465.400000035763,23923.600000023842,24398.200000047684,24838.900000035763,25322,25796.100000023842,26278.5,26754.400000035763,27221,27693.400000035763,28580.100000023842,29218,29660.100000023842,30974.100000023842,32057.700000047684],"honeypot":0,"survey":"mace","page":10,"trial_type":"survey-mace","trial_index":18,"time_elapsed":633849,"internal_node_id":"0.0-18.0","task_version":"prescreen-v0.3","browser_interactions":0,"instructed":0},{"rt":2900.399999976158,"trial_type":"mental-health-alert","trial_index":19,"time_elapsed":636751,"internal_node_id":"0.0-19.0","task_version":"prescreen-v0.3","interactions":"[]"}]