[{"view_history":[{"page_index":0,"viewing_time":6635.699999988079},{"page_index":1,"viewing_time":6047.4000000059605},{"page_index":2,"viewing_time":8009},{"page_index":3,"viewing_time":2533.0999999940395}],"rt":23226.29999998212,"trial_type":"instructions","trial_index":0,"time_elapsed":23235,"internal_node_id":"0.0-0.0","task_version":"prescreen-v0.3"},{"rt":14961.799999982119,"responses":{"age":"37","gender-categorical":"Female","gender-free-response":"","ethnicity":"Not Hispanic or Latino","race":["Black or African American"],"education":"Associate degree"},"trial_type":"survey-demo","trial_index":1,"time_elapsed":38202,"internal_node_id":"0.0-1.0","task_version":"prescreen-v0.3"},{"responses":{"Q04":"1","Q08":"3","Q03":"1","Q10":"2","Q01":"2","Q18":"2","Q15":"2","Q20":"1","Q11":"2","Q09":"1","Q21":"2","Q12":"2","Q05":"1","Q06":"1","Q14":"2","Q19":"1","Q07":"0","Q17":"1","Q16":"1","Q13":"2","Q02":"1"},"rt":151745.30000001192,"item_order":[3,7,2,9,0,17,14,19,10,8,20,11,4,5,13,18,6,16,15,12,1],"radio_events":[8312.700000017881,11900.40000000596,14999.600000023842,22155.90000000596,25544.600000023842,32152.20000001788,39606,54654.30000001192,57493.30000001192,70728.5,74526.90000000596,82826.90000000596,93138.10000002384,100560.5,111866.30000001192,116500.20000001788,122290.70000001788,130173.20000001788,141265.70000001788,144816.40000000596,150553.90000000596],"key_events":[],"mouse_events":[8312.700000017881,11900.40000000596,14999.600000023842,22155.90000000596,25544.600000023842,32152.20000001788,39606,54654.30000001192,57493.30000001192,70728.5,74526.90000000596,82826.90000000596,93138.10000002384,100560.5,111866.30000001192,116500.20000001788,122290.70000001788,130173.20000001788,141265.70000001788,144816.40000000596,150553.90000000596,151743.10000002384],"straightlining":0.47619047619047616,"zigzagging":0.6,"honeypot":0,"survey":"sns","trial_type":"survey-template","trial_index":2,"time_elapsed":189958,"internal_node_id":"0.0-2.0","task_version":"prescreen-v0.3","browser_interactions":0,"infrequency":0.5},{"responses":{"Q06":"3","Q08":"3","Q09":"2","Q11":"2","Q02":"3","Q10":"1","Q13":"0","Q05":"3","Q04":"3","Q07":"2","Q03":"2","Q01":"3","Q12":"1"},"rt":88782.59999999404,"item_order":[5,7,8,10,1,9,12,4,3,6,2,0,11],"radio_events":[8256.199999988079,16804.5,21996.09999999404,37098.69999998808,40932.80000001192,42029.19999998808,46761,55593.80000001192,63619.69999998808,68434.69999998808,71641.09999999404,77376.90000000596,79552.09999999404,87048.90000000596],"key_events":[],"mouse_events":[8256.199999988079,16804.5,21996.09999999404,29604.30000001192,37098.69999998808,40932.80000001192,42029.19999998808,46761,55593.80000001192,63619.69999998808,68434.69999998808,71641.09999999404,77376.90000000596,79552.09999999404,87048.90000000596,88781.5],"straightlining":0.46153846153846156,"zigzagging":0.5,"honeypot":0,"survey":"bisbas","trial_type":"survey-template","trial_index":3,"time_elapsed":278748,"internal_node_id":"0.0-3.0","task_version":"prescreen-v0.3","browser_interactions":0,"infrequency":0},{"responses":{"Q01":"2","Q02":"2","Q03":"3"},"rt":36569.59999999404,"radio_events":[14603.199999988079,23409.40000000596,32284],"key_events":[],"mouse_events":[14603.199999988079,23409.40000000596,32284,36569],"survey":"map","page":1,"trial_type":"survey-map","trial_index":4,"time_elapsed":315324,"internal_node_id":"0.0-4.0","task_version":"prescreen-v0.3","browser_interactions":0},{"responses":{"Q04":"3","Q05":"2","Q06":"2"},"rt":30147.19999998808,"radio_events":[8792.199999988079,10787.800000011921,19051,28942.90000000596],"key_events":[],"mouse_events":[8792.199999988079,10787.800000011921,19051,28942.90000000596,30146.69999998808],"survey":"map","page":2,"trial_type":"survey-map","trial_index":5,"time_elapsed":345476,"internal_node_id":"0.0-5.0","task_version":"prescreen-v0.3","browser_interactions":0},{"responses":{"Q07":"3","Q08":"3","Q09":"3"},"rt":17116.899999976158,"radio_events":[5784.5,11431.5,15994.09999999404],"key_events":[],"mouse_events":[5784.5,11431.5,15994.09999999404,17116.29999998212],"survey":"map","page":3,"trial_type":"survey-map","trial_index":6,"time_elapsed":362598,"internal_node_id":"0.0-6.0","task_version":"prescreen-v0.3","browser_interactions":0},{"responses":{"Q10":"0","Q11":"2","Q12":"1","Q13":"2","Q16":"0","Q14":"2","Q15":"1"},"rt":81308,"radio_events":[12029.100000023842,16373.40000000596,23909.40000000596,49839.5,63069.60000002384,74085.90000000596,79466.80000001192],"key_events":[],"mouse_events":[12029.100000023842,16373.40000000596,23909.40000000596,49839.5,63069.60000002384,74085.90000000596,79466.80000001192,81306.90000000596],"survey":"map","page":4,"trial_type":"survey-map","trial_index":7,"time_elapsed":443913,"internal_node_id":"0.0-7.0","task_version":"prescreen-v0.3","browser_interactions":0,"infrequency":0},{"view_history":[{"page_index":0,"viewing_time":53839.69999998808},{"page_index":1,"viewing_time":7628.0999999940395}],"rt":61468.29999998212,"trial_type":"instructions","trial_index":8,"time_elapsed":505387,"internal_node_id":"0.0-8.0","task_version":"prescreen-v0.3"},{"responses":{"01":"No","02":"Yes","02_ages_8":"8","02_ages_9":"9","02_ages_10":"10","02_ages_11":"11","03":"Yes","03_ages_10":"10","03_ages_11":"11","03_ages_12":"12","04":"No","05":"No","06":"No"},"rt":69972.5,"item_order":[0,1,2,3,4,5],"radio_events":[15147.699999988079,25249.59999999404,30693.90000000596,51920.59999999404,62242.09999999404,65929.19999998808,68740.5],"checkbox_events":[48796.80000001192,49414.59999999404,50032.80000001192,54681.40000000596,55300.40000000596,55869.09999999404,57146.19999998808],"key_events":[],"mouse_events":[0.19999998807907104,15147.699999988079,25249.59999999404,30693.90000000596,48796.80000001192,49414.59999999404,50032.80000001192,51920.59999999404,54681.40000000596,55300.40000000596,55869.09999999404,57146.19999998808,62242.09999999404,65929.19999998808,68740.5,69969.80000001192],"honeypot":0,"survey":"mace","page":1,"trial_type":"survey-mace","trial_index":9,"time_elapsed":575366,"internal_node_id":"0.0-9.0","task_version":"prescreen-v0.3","browser_interactions":0},{"responses":{"01":"No","02":"No","03":"Yes","03_ages_7":"7","03_ages_8":"8","03_ages_9":"9","03_ages_10":"10","03_ages_11":"11","03_ages_12":"12","04":"No","05":"Yes","05_ages_7":"7","05_ages_8":"8","05_ages_9":"9","05_ages_10":"10","05_ages_11":"11","05_ages_12":"12","06":"No","07":"No","08":"No"},"rt":41777.80000001192,"item_order":[0,1,2,3,4,5,6,7],"radio_events":[3937.7000000178814,10891.700000017881,13166.5,24319.40000000596,26528.59999999404,34236.30000001192,36503.20000001788,37483.80000001192],"checkbox_events":[17370.20000001788,18526.30000001192,19126,19678.70000001788,21187.30000001192,21871.59999999404,27558.70000001788,28194.09999999404,28820.70000001788,29438.30000001192,30090.30000001192,30790.09999999404],"key_events":[],"mouse_events":[3937.7000000178814,10891.700000017881,13166.5,17370.20000001788,18526.30000001192,19126,19678.70000001788,21187.30000001192,21871.59999999404,24319.40000000596,26528.59999999404,27558.70000001788,28194.09999999404,28820.70000001788,29438.30000001192,30090.30000001192,30790.09999999404,34236.30000001192,36503.20000001788,37483.80000001192,41774.40000000596],"honeypot":0,"survey":"mace","page":2,"trial_type":"survey-mace","trial_index":10,"time_elapsed":617153,"internal_node_id":"0.0-10.0","task_version":"prescreen-v0.3","browser_interactions":0},{"responses":{"01":"No","02":"No","03":"No","04":"No"},"rt":34727.30000001192,"item_order":[0,1,2,3],"radio_events":[12836.09999999404,19097.19999998808,32219,33686.5],"checkbox_events":[],"key_events":[],"mouse_events":[12836.09999999404,19097.19999998808,32219,33686.5,34725.30000001192],"honeypot":0,"survey":"mace","page":3,"trial_type":"survey-mace","trial_index":11,"time_elapsed":651886,"internal_node_id":"0.0-11.0","task_version":"prescreen-v0.3","browser_interactions":0},{"responses":{"01":"No","02":"No"},"rt":12239.399999976158,"item_order":[0,1],"radio_events":[4344.5999999940395,5737.5999999940395],"checkbox_events":[],"key_events":[],"mouse_events":[4344.5999999940395,5737.5999999940395,12238.5],"honeypot":0,"survey":"mace","page":4,"trial_type":"survey-mace","trial_index":12,"time_elapsed":664131,"internal_node_id":"0.0-12.0","task_version":"prescreen-v0.3","browser_interactions":0},{"responses":{"01":"Yes","01_ages_6":"6","01_ages_7":"7","01_ages_8":"8","01_ages_9":"9","02":"Yes","02_ages_6":"6","02_ages_7":"7","02_ages_8":"8","02_ages_9":"9","03":"Yes","03_ages_6":"6","03_ages_7":"7","03_ages_8":"8","03_ages_9":"9","04":"No","05":"No"},"rt":68268.30000001192,"item_order":[0,1,2,3,4],"radio_events":[30015.09999999404,43044.30000001192,56314.19999998808,64441.09999999404,67292.40000000596],"checkbox_events":[34730,35315.59999999404,36181.30000001192,44139.90000000596,44684.69999998808,45286.59999999404,46085.19999998808,47244.19999998808,57879.80000001192,58432.5,59009.40000000596,59610.80000001192],"key_events":[],"mouse_events":[30015.09999999404,34730,35315.59999999404,36181.30000001192,43044.30000001192,44139.90000000596,44684.69999998808,45286.59999999404,46085.19999998808,47244.19999998808,56314.19999998808,57879.80000001192,58432.5,59009.40000000596,59610.80000001192,64441.09999999404,67292.40000000596,68266],"honeypot":0,"survey":"mace","page":5,"trial_type":"survey-mace","trial_index":13,"time_elapsed":732407,"internal_node_id":"0.0-13.0","task_version":"prescreen-v0.3","browser_interactions":0},{"responses":{"01":"No","02":"No","03":"No","04":"No","05":"No"},"rt":29042.30000001192,"item_order":[0,1,2,3,4],"radio_events":[10434.5,15494.5,21612.30000001192,23227.80000001192,28022.59999999404],"checkbox_events":[],"key_events":[],"mouse_events":[10434.5,15494.5,21612.30000001192,23227.80000001192,28022.59999999404,29040.19999998808],"honeypot":0,"survey":"mace","page":6,"trial_type":"survey-mace","trial_index":14,"time_elapsed":761456,"internal_node_id":"0.0-14.0","task_version":"prescreen-v0.3","browser_interactions":0},{"responses":{"01":"No","02":"No","03":"No","04":"No","05":"No","06":"No","07":"No"},"rt":33409.29999998212,"item_order":[0,1,2,3,4,5,6],"radio_events":[6710.4000000059605,10604.299999982119,18277.5,20579.79999998212,25217,28374.29999998212,32483.19999998808],"checkbox_events":[],"key_events":[],"mouse_events":[6710.4000000059605,10604.299999982119,18277.5,20579.79999998212,25217,28374.29999998212,32483.19999998808,33406.40000000596],"honeypot":0,"survey":"mace","page":7,"trial_type":"survey-mace","trial_index":15,"time_elapsed":794874,"internal_node_id":"0.0-15.0","task_version":"prescreen-v0.3","browser_interactions":0},{"responses":{"01":"Yes","01_ages_8":"8","01_ages_9":"9","01_ages_10":"10","01_ages_11":"11","02":"No","03":"Yes","03_ages_8":"8","03_ages_9":"9","03_ages_10":"10","03_ages_11":"11","04":"Yes","04_ages_8":"8","04_ages_9":"9","04_ages_10":"10","04_ages_11":"11"},"rt":48903.90000000596,"item_order":[0,1,2,3],"radio_events":[15904.100000023842,31120,34780.5,41942.80000001192],"checkbox_events":[18121.90000000596,18846.100000023842,19398.5,20091.30000001192,35844.30000001192,36552.80000001192,37906.30000001192,38530.80000001192,43451.40000000596,44069.80000001192,44688.70000001788,45232.5],"key_events":[],"mouse_events":[15904.100000023842,18121.90000000596,18846.100000023842,19398.5,20091.30000001192,31120,34780.5,35844.30000001192,36552.80000001192,37906.30000001192,38530.80000001192,41942.80000001192,43451.40000000596,44069.80000001192,44688.70000001788,45232.5,48902],"honeypot":0,"survey":"mace","page":8,"trial_type":"survey-mace","trial_index":16,"time_elapsed":843785,"internal_node_id":"0.0-16.0","task_version":"prescreen-v0.3","browser_interactions":0},{"responses":{"01":"Yes","01_ages_6":"6","01_ages_7":"7","01_ages_8":"8","01_ages_9":"9","01_ages_10":"10","01_ages_11":"11","01_ages_12":"12","01_ages_13":"13","01_ages_14":"14","01_ages_15":"15","01_ages_16":"16","01_ages_17":"17","01_ages_18":"18","02":"Yes","02_ages_12":"12","02_ages_13":"13","02_ages_14":"14","02_ages_15":"15","02_ages_16":"16","02_ages_17":"17","02_ages_18":"18","03":"Yes","03_ages_12":"12","03_ages_13":"13","03_ages_14":"14","03_ages_15":"15","03_ages_16":"16","03_ages_17":"17","03_ages_18":"18","04":"Yes","04_ages_12":"12","04_ages_13":"13","04_ages_14":"14","04_ages_15":"15","04_ages_16":"16","04_ages_17":"17","04_ages_18":"18"},"rt":76086.5,"item_order":[0,1,2,3],"radio_events":[14395,39778.79999998212,57801.39999997616,68689.89999997616],"checkbox_events":[21671.79999998212,22256.29999998212,22940.59999999404,23517.19999998808,24069.399999976158,24613.69999998808,25249.19999998808,26460.69999998808,27602,28130.09999999404,28850.29999998212,29403.09999999404,29930.899999976158,42466,43116.19999998808,44402.19999998808,45053.19999998808,46376.5,47205.19999998808,47807.09999999404,58873.09999999404,60184.19999998808,60835.39999997616,61461.5,62014.19999998808,62558.39999997616,63127,69935.89999997616,70545.5,71172.59999999404,71757.39999997616,72277.09999999404,72968.79999998212,73850.59999999404],"key_events":[],"mouse_events":[14395,21671.79999998212,22256.29999998212,22940.59999999404,23517.19999998808,24069.399999976158,24613.69999998808,25249.19999998808,25825.19999998808,26460.69999998808,27037.79999998212,27602,28130.09999999404,28850.29999998212,29403.09999999404,29930.899999976158,39778.79999998212,42466,43116.19999998808,43784.39999997616,44402.19999998808,45053.19999998808,45721,46376.5,47205.19999998808,47807.09999999404,57801.39999997616,58873.09999999404,59508.5,60184.19999998808,60835.39999997616,61461.5,62014.19999998808,62558.39999997616,63127,68689.89999997616,69935.89999997616,70545.5,71172.59999999404,71757.39999997616,72277.09999999404,72968.79999998212,73850.59999999404,76084.79999998212],"honeypot":0,"survey":"mace","page":9,"trial_type":"survey-mace","trial_index":17,"time_elapsed":919880,"internal_node_id":"0.0-17.0","task_version":"prescreen-v0.3","browser_interactions":0},{"responses":{"01":"No","02":"No","03":"No","04":"Yes","04_ages_15":"15","04_ages_16":"16","04_ages_17":"17","05":"Yes","05_ages_15":"15","06":"Yes","06_ages_17":"17","07":"Yes","07_ages_12":"12","07_ages_13":"13","07_ages_14":"14","07_ages_15":"15","08":"Yes","08_ages_12":"12","08_ages_13":"13","08_ages_14":"14","08_ages_15":"15","08_ages_16":"16","08_ages_17":"17","08_ages_18":"18"},"rt":69115.30000001192,"item_order":[0,1,2,3,4,5,6,7],"radio_events":[5434.200000017881,7407.5,10399.300000011921,13564.5,34624.80000001192,40756.30000001192,45199.60000002384,55197.5],"checkbox_events":[18254.80000001192,18963.40000000596,19622,37270.70000001788,42117,50500,51043.90000000596,51612.10000002384,52230.90000000596,60290.20000001788,60942.5,61485.70000001788,62112.40000000596,62722.10000002384,63397.5,64858.10000002384],"key_events":[],"mouse_events":[5434.200000017881,7407.5,10399.300000011921,13564.5,18254.80000001192,18963.40000000596,19622,34624.80000001192,37270.70000001788,40756.30000001192,42117,45199.60000002384,50500,51043.90000000596,51612.10000002384,52230.90000000596,55197.5,60290.20000001788,60942.5,61485.70000001788,62112.40000000596,62722.10000002384,63397.5,64116.10000002384,64858.10000002384,69111.40000000596],"honeypot":0,"survey":"mace","page":10,"trial_type":"survey-mace","trial_index":18,"time_elapsed":989004,"internal_node_id":"0.0-18.0","task_version":"prescreen-v0.3","browser_interactions":0,"instructed":0},{"rt":10069.699999988079,"trial_type":"mental-health-alert","trial_index":19,"time_elapsed":999078,"internal_node_id":"0.0-19.0","task_version":"prescreen-v0.3","interactions":"[{\"event\":\"blur\",\"trial\":8,\"time\":448546},{\"event\":\"focus\",\"trial\":8,\"time\":495904}]"}]