[{"view_history":[{"page_index":0,"viewing_time":2404.099999964237},{"page_index":1,"viewing_time":1088.7000000476837},{"page_index":2,"viewing_time":1305.7999999523163},{"page_index":3,"viewing_time":810.3000000119209}],"rt":5610.099999964237,"trial_type":"instructions","trial_index":0,"time_elapsed":5626,"internal_node_id":"0.0-0.0","task_version":"prescreen-v0.3"},{"rt":14329.399999976158,"responses":{"age":"22","gender-categorical":"Male","gender-free-response":"","ethnicity":"Not Hispanic or Latino","race":["White"],"education":"Bachelor degree","siblings":"2"},"trial_type":"survey-demo","trial_index":1,"time_elapsed":19965,"internal_node_id":"0.0-1.0","task_version":"prescreen-v0.3"},{"responses":{"Q06":"2","Q21":"3","Q11":"2","Q09":"2","Q03":"1","Q20":"1","Q15":"2","Q10":"0","Q19":"2","Q17":"2","Q01":"1","Q12":"1","Q08":"2","Q18":"2","Q16":"0","Q05":"0","Q02":"1","Q13":"1","Q04":"1","Q07":"0","Q14":"0"},"rt":88506.39999997616,"item_order":[5,20,10,8,2,19,14,9,18,16,0,11,7,17,15,4,1,12,3,6,13],"radio_events":[7617.5,10652.199999988079,13726.099999964237,17904.19999998808,21510.099999964237,26228.19999998808,30914.299999952316,35402,39917.19999998808,40743.89999997616,43178.19999998808,47902.299999952316,49192.299999952316,53424.09999996424,57052.19999998808,59384.19999998808,61985.89999997616,64139.59999996424,67969.79999995232,71367.19999998808,84858.29999995232,86788.09999996424],"key_events":[],"mouse_events":[7617.5,10652.199999988079,13726.099999964237,17904.19999998808,21510.099999964237,23154.399999976158,26228.19999998808,30914.299999952316,35402,38806.19999998808,39917.19999998808,40743.89999997616,43178.19999998808,46111.89999997616,46675.69999998808,47902.299999952316,48374.19999998808,49192.299999952316,53424.09999996424,57052.19999998808,59384.19999998808,61985.89999997616,64139.59999996424,67969.79999995232,70256.09999996424,71367.19999998808,72512.39999997616,79683.79999995232,84858.29999995232,86194.5,86788.09999996424,88502],"straightlining":0.38095238095238093,"zigzagging":0.4,"honeypot":0,"survey":"sns","trial_type":"survey-template","trial_index":2,"time_elapsed":108480,"internal_node_id":"0.0-2.0","task_version":"prescreen-v0.3","browser_interactions":0,"infrequency":0},{"responses":{"Q05":"2","Q07":"2","Q09":"2","Q10":"2","Q01":"2","Q04":"2","Q13":"0","Q12":"1","Q08":"2","Q02":"2","Q03":"2","Q06":"2","Q11":"2"},"rt":40271.59999996424,"item_order":[4,6,8,9,0,3,12,11,7,1,2,5,10],"radio_events":[3699.099999964237,6509.099999964237,8053.399999976158,10161.099999964237,12501.5,15953.199999988079,20725.399999976158,22914,24627.599999964237,26393.5,27813.19999998808,30169.099999964237,39197.5],"key_events":[],"mouse_events":[3699.099999964237,6509.099999964237,8053.399999976158,10161.099999964237,11156.699999988079,12501.5,15389.199999988079,15953.199999988079,19397.599999964237,20725.399999976158,22914,24627.599999964237,26393.5,27813.19999998808,29313.5,30169.099999964237,32015.5,34069.19999998808,38679.09999996424,39197.5,40269.39999997616],"straightlining":0.8461538461538461,"zigzagging":0.16666666666666666,"honeypot":0,"survey":"bisbas","trial_type":"survey-template","trial_index":3,"time_elapsed":148756,"internal_node_id":"0.0-3.0","task_version":"prescreen-v0.3","browser_interactions":0,"infrequency":0},{"responses":{"Q01":"2","Q02":"2","Q03":"2"},"rt":10866.399999976158,"radio_events":[4279.300000011921,7353.100000023842,9637.100000023842],"key_events":[],"mouse_events":[4279.300000011921,7353.100000023842,9637.100000023842,10865.399999976158],"survey":"map","page":1,"trial_type":"survey-map","trial_index":4,"time_elapsed":159627,"internal_node_id":"0.0-4.0","task_version":"prescreen-v0.3","browser_interactions":0},{"responses":{"Q04":"3","Q05":"3","Q06":"3"},"rt":9887.899999976158,"radio_events":[4032.099999964237,7268.899999976158,9176.599999964237],"key_events":[],"mouse_events":[4032.099999964237,6682.599999964237,7268.899999976158,9176.599999964237,9886.800000011921],"survey":"map","page":2,"trial_type":"survey-map","trial_index":5,"time_elapsed":169518,"internal_node_id":"0.0-5.0","task_version":"prescreen-v0.3","browser_interactions":0},{"responses":{"Q07":"4","Q08":"3","Q09":"4"},"rt":8458.799999952316,"radio_events":[3933.5,6287.299999952316,7901.5],"key_events":[],"mouse_events":[3933.5,5539.299999952316,6287.299999952316,7901.5,8457.699999988079],"survey":"map","page":3,"trial_type":"survey-map","trial_index":6,"time_elapsed":177980,"internal_node_id":"0.0-6.0","task_version":"prescreen-v0.3","browser_interactions":0},{"responses":{"Q10":"2","Q11":"1","Q12":"2","Q13":"2","Q16":"0","Q14":"3","Q15":"2"},"rt":21876.600000023842,"radio_events":[3490.900000035763,6155,6834.900000035763,8610.700000047684,11366.800000011921,14316.800000011921,19142.80000001192,20894.600000023842],"key_events":[],"mouse_events":[3490.900000035763,6155,6834.900000035763,8610.700000047684,11366.800000011921,14316.800000011921,19142.80000001192,20894.600000023842,21874.600000023842],"survey":"map","page":4,"trial_type":"survey-map","trial_index":7,"time_elapsed":199861,"internal_node_id":"0.0-7.0","task_version":"prescreen-v0.3","browser_interactions":0,"infrequency":0},{"view_history":[{"page_index":0,"viewing_time":2039.699999988079},{"page_index":1,"viewing_time":1684.800000011921}],"rt":3725.5,"trial_type":"instructions","trial_index":8,"time_elapsed":203589,"internal_node_id":"0.0-8.0","task_version":"prescreen-v0.3"},{"responses":{"01":"No","02":"No","03":"No","04":"No","05":"No","06":"No"},"rt":19014.30000001192,"item_order":[0,1,2,3,4,5],"radio_events":[8647,11457.399999976158,14461.100000023842,15587.399999976158,17973.19999998808,18437],"checkbox_events":[],"key_events":[],"mouse_events":[0.19999998807907104,8647,11457.399999976158,14461.100000023842,15587.399999976158,16544.899999976158,17332.69999998808,17973.19999998808,18437,19009.399999976158],"honeypot":0,"survey":"mace","page":1,"trial_type":"survey-mace","trial_index":9,"time_elapsed":222613,"internal_node_id":"0.0-9.0","task_version":"prescreen-v0.3","browser_interactions":0},{"responses":{"01":"No","02":"No","03":"Yes","03_ages_5":"5","03_ages_6":"6","03_ages_7":"7","03_ages_8":"8","04":"No","05":"No","06":"No","07":"No","08":"No"},"rt":21584.600000023842,"item_order":[0,1,2,3,4,5,6,7],"radio_events":[2021.199999988079,3063.100000023842,4275,7076.699999988079,15306.699999988079,16573.30000001192,17762.900000035763,18680.900000035763,20378.80000001192],"checkbox_events":[10721.300000011921,11363.400000035763,11779.5,12528.5],"key_events":[],"mouse_events":[2021.199999988079,3063.100000023842,4275,7076.699999988079,10721.300000011921,11363.400000035763,11779.5,12528.5,15306.699999988079,16573.30000001192,17762.900000035763,18680.900000035763,20378.80000001192,21577.19999998808],"honeypot":0,"survey":"mace","page":2,"trial_type":"survey-mace","trial_index":10,"time_elapsed":244203,"internal_node_id":"0.0-10.0","task_version":"prescreen-v0.3","browser_interactions":0},{"responses":{"01":"No","02":"No","03":"No","04":"No"},"rt":8563.300000011921,"item_order":[0,1,2,3],"radio_events":[4617.300000011921,5915.199999988079,7011.699999988079,7923.400000035763],"checkbox_events":[],"key_events":[],"mouse_events":[4617.300000011921,5915.199999988079,7011.699999988079,7923.400000035763,8555.300000011921],"honeypot":0,"survey":"mace","page":3,"trial_type":"survey-mace","trial_index":11,"time_elapsed":252773,"internal_node_id":"0.0-11.0","task_version":"prescreen-v0.3","browser_interactions":0},{"responses":{"01":"No","02":"No"},"rt":3399.300000011921,"item_order":[0,1],"radio_events":[1491.300000011921,2447.399999976158],"checkbox_events":[],"key_events":[],"mouse_events":[1491.300000011921,2447.399999976158,3397.300000011921],"honeypot":0,"survey":"mace","page":4,"trial_type":"survey-mace","trial_index":12,"time_elapsed":256177,"internal_node_id":"0.0-12.0","task_version":"prescreen-v0.3","browser_interactions":0},{"responses":{"01":"No","02":"No","03":"No","04":"No","05":"No"},"rt":7403.300000011921,"item_order":[0,1,2,3,4],"radio_events":[1570.300000011921,2488.300000011921,4372.199999988079,5106.300000011921,6930],"checkbox_events":[],"key_events":[],"mouse_events":[1570.300000011921,2488.300000011921,4372.199999988079,5106.300000011921,5853.800000011921,6930,7398.300000011921],"honeypot":0,"survey":"mace","page":5,"trial_type":"survey-mace","trial_index":13,"time_elapsed":263585,"internal_node_id":"0.0-13.0","task_version":"prescreen-v0.3","browser_interactions":0},{"responses":{"01":"No","02":"No","03":"No","04":"No","05":"No"},"rt":11635.899999976158,"item_order":[0,1,2,3,4],"radio_events":[2458.599999964237,4768.299999952316,5538.399999976158,6442.299999952316,9962.5],"checkbox_events":[],"key_events":[],"mouse_events":[1686.199999988079,2458.599999964237,3262.599999964237,4150.5,4768.299999952316,5538.399999976158,6442.299999952316,7231.099999964237,7600.399999976158,9962.5,11630.5],"honeypot":0,"survey":"mace","page":6,"trial_type":"survey-mace","trial_index":14,"time_elapsed":275228,"internal_node_id":"0.0-14.0","task_version":"prescreen-v0.3","browser_interactions":0},{"responses":{"01":"No","02":"No","03":"No","04":"No","05":"No","06":"No","07":"No"},"rt":8893.699999988079,"item_order":[0,1,2,3,4,5,6],"radio_events":[1808.699999988079,2920.5,3800.699999988079,5298.800000011921,6310.399999976158,7182.800000011921,8116.5],"checkbox_events":[],"key_events":[],"mouse_events":[1808.699999988079,2920.5,3800.699999988079,5298.800000011921,6310.399999976158,7182.800000011921,8116.5,8888.5],"honeypot":0,"survey":"mace","page":7,"trial_type":"survey-mace","trial_index":15,"time_elapsed":284128,"internal_node_id":"0.0-15.0","task_version":"prescreen-v0.3","browser_interactions":0},{"responses":{"01":"No","02":"No","03":"No","04":"No"},"rt":13745.5,"item_order":[0,1,2,3],"radio_events":[7327.599999964237,8432,11101.800000011921,13209.599999964237],"checkbox_events":[],"key_events":[],"mouse_events":[7327.599999964237,8432,11101.800000011921,12569.599999964237,13209.599999964237,13741.5],"honeypot":0,"survey":"mace","page":8,"trial_type":"survey-mace","trial_index":16,"time_elapsed":297877,"internal_node_id":"0.0-16.0","task_version":"prescreen-v0.3","browser_interactions":0},{"responses":{"01":"Yes","01_ages_3":"3","01_ages_4":"4","01_ages_5":"5","01_ages_6":"6","01_ages_7":"7","01_ages_8":"8","01_ages_9":"9","01_ages_10":"10","01_ages_11":"11","01_ages_12":"12","01_ages_13":"13","01_ages_14":"14","01_ages_15":"15","01_ages_16":"16","01_ages_17":"17","01_ages_18":"18","02":"Yes","02_ages_3":"3","02_ages_4":"4","02_ages_5":"5","02_ages_6":"6","02_ages_7":"7","02_ages_8":"8","02_ages_9":"9","02_ages_10":"10","02_ages_11":"11","02_ages_12":"12","02_ages_13":"13","02_ages_14":"14","02_ages_15":"15","02_ages_16":"16","02_ages_17":"17","02_ages_18":"18","03":"Yes","03_ages_3":"3","03_ages_4":"4","03_ages_5":"5","03_ages_6":"6","03_ages_7":"7","03_ages_8":"8","03_ages_9":"9","03_ages_10":"10","03_ages_11":"11","03_ages_12":"12","03_ages_13":"13","03_ages_14":"14","03_ages_15":"15","03_ages_16":"16","03_ages_17":"17","03_ages_18":"18","04":"Yes","04_ages_1":"1","04_ages_2":"2","04_ages_3":"3","04_ages_4":"4","04_ages_5":"5","04_ages_6":"6","04_ages_7":"7","04_ages_8":"8","04_ages_9":"9","04_ages_10":"10","04_ages_11":"11","04_ages_12":"12","04_ages_13":"13","04_ages_14":"14","04_ages_15":"15","04_ages_16":"16","04_ages_17":"17","04_ages_18":"18"},"rt":60855.40000003576,"item_order":[0,1,2,3],"radio_events":[3257.100000023842,15253.400000035763,24940.900000035763,40772.90000003576],"checkbox_events":[5643.100000023842,6307.600000023842,7867,8893,9935.100000023842,10491.300000011921,10946.300000011921,11425.100000023842,11865.300000011921,12373.400000035763,13037.100000023842,14241.200000047684,16249.200000047684,16695.5,17097,17591.700000047684,18471.400000035763,18919.100000023842,19367.5,19853,20286.200000047684,20827.200000047684,21313.30000001192,21907.200000047684,26191.30000001192,27195.400000035763,27975.700000047684,28383.80000001192,28776.900000035763,29187.5,29635.100000023842,30351.30000001192,31595.200000047684,32259.30000001192,32945.5,33571.200000047684,33981,34675.80000001192,35131.60000002384,36597,37245.200000047684,40217.30000001192,41359,41846.40000003576,42810.90000003576,43807.10000002384,44201,44771,45227.10000002384,45691.30000001192,46740.90000003576,47235.200000047684,48663.10000002384,49141.40000003576,49821.30000001192,50469.10000002384,51217,51896.40000003576,52977,53665.10000002384,54221.10000002384,55022.200000047684,55533.10000002384,56089,56975,57509,58094.90000003576,58635.40000003576,59909,60440.90000003576],"key_events":[],"mouse_events":[2563.300000011921,3257.100000023842,5643.100000023842,6307.600000023842,7867,8313,8893,9935.100000023842,10491.300000011921,10946.300000011921,11425.100000023842,11865.300000011921,12373.400000035763,13037.100000023842,14241.200000047684,15253.400000035763,16249.200000047684,16695.5,17097,17591.700000047684,18471.400000035763,18919.100000023842,19367.5,19853,20286.200000047684,20827.200000047684,21313.30000001192,21907.200000047684,23728.80000001192,24423.100000023842,24940.900000035763,26191.30000001192,26601.100000023842,27195.400000035763,27975.700000047684,28383.80000001192,28776.900000035763,29187.5,29635.100000023842,30351.30000001192,30953.5,31263,31595.200000047684,32259.30000001192,32945.5,33571.200000047684,33981,34675.80000001192,35131.60000002384,36597,37245.200000047684,39153.200000047684,40217.30000001192,40772.90000003576,41359,41846.40000003576,42425.30000001192,42810.90000003576,43475.10000002384,43807.10000002384,44201,44771,45227.10000002384,45691.30000001192,46740.90000003576,47235.200000047684,48323.60000002384,48663.10000002384,49141.40000003576,49821.30000001192,50469.10000002384,51217,51896.40000003576,52977,53665.10000002384,54221.10000002384,55022.200000047684,55533.10000002384,56089,56975,57509,58094.90000003576,58635.40000003576,59161,59909,60440.90000003576,60851.700000047684],"honeypot":0,"survey":"mace","page":9,"trial_type":"survey-mace","trial_index":17,"time_elapsed":358738,"internal_node_id":"0.0-17.0","task_version":"prescreen-v0.3","browser_interactions":0},{"responses":{"01":"No","02":"No","03":"No","04":"No","05":"No","06":"Yes","06_ages_17":"17","07":"Yes","07_ages_9":"9","07_ages_10":"10","07_ages_11":"11","07_ages_12":"12","07_ages_13":"13","07_ages_14":"14","07_ages_15":"15","07_ages_16":"16","07_ages_17":"17","07_ages_18":"18","08":"Yes","08_ages_9":"9","08_ages_10":"10","08_ages_11":"11","08_ages_12":"12","08_ages_13":"13","08_ages_14":"14","08_ages_15":"15","08_ages_16":"16","08_ages_17":"17","08_ages_18":"18"},"rt":31821.100000023842,"item_order":[0,1,2,3,4,5,6,7],"radio_events":[3009.600000023842,3479.800000011921,4661.5,5657.699999988079,8057.5,9615.5,15867.5,17241.100000023842],"checkbox_events":[11213.300000011921,18391.600000023842,18769.5,19187.5,19627.399999976158,21311.80000001192,21719.399999976158,22135.5,23199.399999976158,23733.5,24111.30000001192,25237.19999998808,26573.30000001192,27221.19999998808,27669.399999976158,28441.899999976158,28935.399999976158,29605.899999976158,30069.30000001192,30679.399999976158,31235.600000023842],"key_events":[],"mouse_events":[2213.899999976158,3009.600000023842,3479.800000011921,4661.5,5657.699999988079,8057.5,9013.600000023842,9615.5,11213.300000011921,15035.600000023842,15867.5,17241.100000023842,18391.600000023842,18769.5,19187.5,19627.399999976158,20051.399999976158,20877.5,21311.80000001192,21719.399999976158,22135.5,22921.69999998808,23199.399999976158,23733.5,24111.30000001192,25237.19999998808,25669.69999998808,26241.80000001192,26573.30000001192,27221.19999998808,27669.399999976158,28441.899999976158,28935.399999976158,29605.899999976158,30069.30000001192,30679.399999976158,31235.600000023842,31813.600000023842],"honeypot":0,"survey":"mace","page":10,"trial_type":"survey-mace","trial_index":18,"time_elapsed":390564,"internal_node_id":"0.0-18.0","task_version":"prescreen-v0.3","browser_interactions":0,"instructed":0},{"rt":6009.699999988079,"trial_type":"mental-health-alert","trial_index":19,"time_elapsed":396576,"internal_node_id":"0.0-19.0","task_version":"prescreen-v0.3","interactions":"[]"}]