[{"view_history":[{"page_index":0,"viewing_time":5863.684999989346},{"page_index":1,"viewing_time":4640.299999970011},{"page_index":2,"viewing_time":6721.200000029057},{"page_index":3,"viewing_time":1217.769999988377}],"rt":18444.359999964945,"trial_type":"instructions","trial_index":0,"time_elapsed":18476,"internal_node_id":"0.0-0.0","task_version":"prescreen-v0.3"},{"rt":36612.425000057556,"responses":{"age":"25","gender-categorical":"Female","gender-free-response":"","ethnicity":"Not Hispanic or Latino","race":["Asian"],"education":"Bachelor degree"},"trial_type":"survey-demo","trial_index":1,"time_elapsed":55106,"internal_node_id":"0.0-1.0","task_version":"prescreen-v0.3"},{"responses":{"Q13":"3","Q02":"1","Q07":"1","Q18":"2","Q05":"1","Q09":"1","Q03":"2","Q01":"2","Q06":"2","Q04":"2","Q12":"1","Q08":"1","Q10":"1","Q21":"3","Q16":"2","Q11":"1","Q17":"1","Q14":"2","Q15":"2","Q19":"1","Q20":"2"},"rt":169407.00499992818,"item_order":[12,1,6,17,4,8,2,0,5,3,11,7,9,20,15,10,16,13,14,18,19],"radio_events":[19428.899999940768,25712.2049999889,42664.70500000287,52826.814999920316,68682.39999993239,80887.229999993,82433.59000002965,95213.44999992289,98956.9500000216,101014.18499997817,108561.32500001695,113962.61499996763,123310.88000000454,128020.57499997318,140484.28999993484,145545.62500002794,147986.28499999177,151371.05999991763,154963.47499999683,162854.1049999185,167593.86499994434],"key_events":[],"mouse_events":[19428.899999940768,25712.2049999889,42664.70500000287,52826.814999920316,68682.39999993239,80887.229999993,82433.59000002965,95213.44999992289,98956.9500000216,101014.18499997817,108561.32500001695,113962.61499996763,123310.88000000454,126473.28499995638,128020.57499997318,140484.28999993484,145545.62500002794,147986.28499999177,151371.05999991763,154963.47499999683,162854.1049999185,166743.77499998081,167593.86499994434,169403.64499995485],"straightlining":0.47619047619047616,"zigzagging":0.45,"honeypot":0,"survey":"sns","trial_type":"survey-template","trial_index":2,"time_elapsed":224531,"internal_node_id":"0.0-2.0","task_version":"prescreen-v0.3","browser_interactions":0,"infrequency":0},{"responses":{"Q06":"2","Q01":"3","Q12":"1","Q02":"2","Q04":"2","Q08":"3","Q11":"2","Q13":"0","Q07":"2","Q03":"2","Q09":"2","Q05":"2","Q10":"1"},"rt":97933.10000002384,"item_order":[5,0,11,1,3,7,10,12,6,2,8,4,9],"radio_events":[18166.42500006128,20520.870000007562,31441.040000063367,37352.14500001166,40712.40000007674,48983.77500008792,57774.77500005625,66158.92499999609,71111.61500005983,76524.83000000939,84083.85500009172,87315.81500009634,93647.25500007626],"key_events":[],"mouse_events":[16362.7400000114,18166.42500006128,20520.870000007562,31441.040000063367,37352.14500001166,40712.40000007674,48983.77500008792,57774.77500005625,66158.92499999609,71111.61500005983,76524.83000000939,84083.85500009172,87315.81500009634,93647.25500007626,97930.78000005335],"straightlining":0.6153846153846154,"zigzagging":0.4166666666666667,"honeypot":0,"survey":"bisbas","trial_type":"survey-template","trial_index":3,"time_elapsed":322477,"internal_node_id":"0.0-3.0","task_version":"prescreen-v0.3","browser_interactions":0,"infrequency":0},{"responses":{"Q01":"3","Q02":"2","Q03":"3"},"rt":24740.764999995008,"radio_events":[8451.05999999214,13298.519999952987,22946.499999961816],"key_events":[],"mouse_events":[8451.05999999214,13298.519999952987,22946.499999961816,24739.750000066124],"survey":"map","page":1,"trial_type":"survey-map","trial_index":4,"time_elapsed":347228,"internal_node_id":"0.0-4.0","task_version":"prescreen-v0.3","browser_interactions":0},{"responses":{"Q04":"2","Q05":"2","Q06":"3"},"rt":23726.434999960475,"radio_events":[5749.294999986887,7462.159999995492,13142.985000042245,20026.870000059716],"key_events":[],"mouse_events":[5749.294999986887,7462.159999995492,13142.985000042245,20026.870000059716,23725.28500005137],"survey":"map","page":2,"trial_type":"survey-map","trial_index":5,"time_elapsed":370964,"internal_node_id":"0.0-5.0","task_version":"prescreen-v0.3","browser_interactions":0},{"responses":{"Q07":"4","Q08":"1","Q09":"3"},"rt":19754.079999984242,"radio_events":[8710.414999979548,17163.219999987632,18581.435000058264],"key_events":[],"mouse_events":[8710.414999979548,17163.219999987632,18581.435000058264,19752.695000031963],"survey":"map","page":3,"trial_type":"survey-map","trial_index":6,"time_elapsed":390727,"internal_node_id":"0.0-6.0","task_version":"prescreen-v0.3","browser_interactions":0},{"responses":{"Q10":"2","Q11":"1","Q12":"2","Q13":"1","Q16":"0","Q14":"2","Q15":"2"},"rt":92224.65999994893,"radio_events":[8145.1249999227,12657.134999986738,22423.12499997206,27094.77500000503,42234.58499996923,55774.18499998748,82669.5550000295,89716.23499994166],"key_events":[],"mouse_events":[8145.1249999227,12657.134999986738,22423.12499997206,27094.77500000503,42234.58499996923,55774.18499998748,58655.414999928325,82669.5550000295,89716.23499994166,90841.80499997456,92222.60500001721],"survey":"map","page":4,"trial_type":"survey-map","trial_index":7,"time_elapsed":482964,"internal_node_id":"0.0-7.0","task_version":"prescreen-v0.3","browser_interactions":2,"infrequency":0},{"view_history":[{"page_index":0,"viewing_time":2776.509999996051},{"page_index":1,"viewing_time":6697.245000046678}],"rt":9474.32999999728,"trial_type":"instructions","trial_index":8,"time_elapsed":492444,"internal_node_id":"0.0-8.0","task_version":"prescreen-v0.3"},{"responses":{"01":"No","02":"Yes","02_ages_9":"9","02_ages_11":"11","02_ages_14":"14","02_ages_15":"15","03":"No","04":"No","04_ages_5":"5","04_ages_11":"11","05":"No","05_ages_14":"14","06":"Yes","06_ages_8":"8","06_ages_10":"10","06_ages_13":"13"},"rt":182384.42999997642,"item_order":[0,1,2,3,4,5],"radio_events":[18865.274999989197,24367.025000043213,63370.82499999087,71676.02999997325,73351.77499998827,100032.14000002481,124497.6050000405,136572.84999999683,170687.23000003956],"checkbox_events":[36210.4850000469,42482.84499999136,43597.27000002749,51726.53500002343,77413.59000001103,86460.82499995828,111855.2099999506,149740.11499993503,156128.75499995425,180293.16000000108],"key_events":[],"mouse_events":[0.09999994654208422,18865.274999989197,24367.025000043213,36210.4850000469,42482.84499999136,43597.27000002749,51726.53500002343,63370.82499999087,71676.02999997325,73351.77499998827,77413.59000001103,86460.82499995828,93258.35000001825,100032.14000002481,111855.2099999506,124497.6050000405,136572.84999999683,149740.11499993503,156128.75499995425,157508.0799999414,170687.23000003956,179358.81000000518,180293.16000000108,182379.84499998856],"honeypot":0,"survey":"mace","page":1,"trial_type":"survey-mace","trial_index":9,"time_elapsed":674846,"internal_node_id":"0.0-9.0","task_version":"prescreen-v0.3","browser_interactions":0},{"responses":{"01":"No","02":"No","03":"No","04":"No","05":"No","06":"No","07":"No","08":"No"},"rt":45948.22000002023,"item_order":[0,1,2,3,4,5,6,7],"radio_events":[13041.785000008531,14492.560000042431,29509.15499997791,30583.950000000186,36435.03000005148,38782.254999969155,42660.950000048615,45026.50000003632],"checkbox_events":[],"key_events":[],"mouse_events":[13041.785000008531,14492.560000042431,28788.1800000323,29509.15499997791,30583.950000000186,36435.03000005148,37870.895000058226,38782.254999969155,40932.77499999385,42660.950000048615,44474.225000012666,45026.50000003632,45941.8800000567],"honeypot":0,"survey":"mace","page":2,"trial_type":"survey-mace","trial_index":10,"time_elapsed":720809,"internal_node_id":"0.0-10.0","task_version":"prescreen-v0.3","browser_interactions":0},{"responses":{"01":"Yes","01_ages_13":"13","02":"No","03":"No","04":"No"},"rt":42210.800000000745,"item_order":[0,1,2,3],"radio_events":[11429.355000029318,14209.969999967143,15018.870000028983,18689.884999999776],"checkbox_events":[25431.925000040792],"key_events":[],"mouse_events":[11429.355000029318,14209.969999967143,15018.870000028983,18689.884999999776,25431.925000040792,42206.48000005167],"honeypot":0,"survey":"mace","page":3,"trial_type":"survey-mace","trial_index":11,"time_elapsed":763030,"internal_node_id":"0.0-11.0","task_version":"prescreen-v0.3","browser_interactions":0},{"responses":{"01":"No","02":"No"},"rt":8412.840000004508,"item_order":[0,1],"radio_events":[3224.625000031665,7095.160000026226],"checkbox_events":[],"key_events":[],"mouse_events":[3224.625000031665,6398.66000006441,7095.160000026226,8410.990000003949],"honeypot":0,"survey":"mace","page":4,"trial_type":"survey-mace","trial_index":12,"time_elapsed":771450,"internal_node_id":"0.0-12.0","task_version":"prescreen-v0.3","browser_interactions":0},{"responses":{"01":"No","02":"No","03":"No","04":"No","05":"No"},"rt":66359.25500001758,"item_order":[0,1,2,3,4],"radio_events":[9576.555000036024,15750.210000085644,20376.045000040904,33149.57000000868,34480.15499999747],"checkbox_events":[],"key_events":[],"mouse_events":[9576.555000036024,15750.210000085644,19549.75500004366,20376.045000040904,33149.57000000868,34480.15499999747,66354.97500002384],"honeypot":0,"survey":"mace","page":5,"trial_type":"survey-mace","trial_index":13,"time_elapsed":837822,"internal_node_id":"0.0-13.0","task_version":"prescreen-v0.3","browser_interactions":0},{"responses":{"01":"No","02":"Yes","02_ages_9":"9","02_ages_10":"10","02_ages_14":"14","02_ages_15":"15","03":"No","04":"No","05":"No"},"rt":56179.890000028536,"item_order":[0,1,2,3,4],"radio_events":[16991.039999993518,20917.730000102893,22376.945000025444,25405.800000065938,28811.10000004992],"checkbox_events":[39642.835000064224,40500.65500009805,51140.50500001758,52448.065000004135],"key_events":[],"mouse_events":[16991.039999993518,20917.730000102893,22376.945000025444,25405.800000065938,28811.10000004992,39642.835000064224,40500.65500009805,51140.50500001758,52448.065000004135,56175.31500000041],"honeypot":0,"survey":"mace","page":6,"trial_type":"survey-mace","trial_index":14,"time_elapsed":894014,"internal_node_id":"0.0-14.0","task_version":"prescreen-v0.3","browser_interactions":0},{"responses":{"01":"No","02":"No","03":"No","04":"No","05":"No","06":"No","07":"No"},"rt":18684.82500000391,"item_order":[0,1,2,3,4,5,6],"radio_events":[6136.085000005551,8266.51500002481,10825.654999935068,12778.344999998808,14215.149999945424,16785.900000017136,17821.159999934025],"checkbox_events":[],"key_events":[],"mouse_events":[6136.085000005551,8266.51500002481,10056.32999993395,10825.654999935068,11912.624999997206,12778.344999998808,14215.149999945424,15523.04500003811,16785.900000017136,17821.159999934025,18679.2350000469],"honeypot":0,"survey":"mace","page":7,"trial_type":"survey-mace","trial_index":15,"time_elapsed":912710,"internal_node_id":"0.0-15.0","task_version":"prescreen-v0.3","browser_interactions":0},{"responses":{"01":"Yes","01_ages_10":"10","01_ages_11":"11","01_ages_12":"12","01_ages_13":"13","01_ages_14":"14","02":"No","03":"Yes","03_ages_16":"16","03_ages_17":"17","03_ages_18":"18","04":"No"},"rt":91352.71999996621,"item_order":[0,1,2,3],"radio_events":[25774.03999993112,31293.02500002086,33816.87999994028,35789.9149999721],"checkbox_events":[55444.58000001032,56583.959999959916,57790.68999993615,58721.45499999169,59596.44999995362,71032.0650000358,71810.41499995627,72741.12999998033,74585.2700000396,75232.63500002213],"key_events":[],"mouse_events":[25774.03999993112,31293.02500002086,33816.87999994028,35789.9149999721,55444.58000001032,56583.959999959916,57790.68999993615,58721.45499999169,59596.44999995362,61910.2150000399,71032.0650000358,71810.41499995627,72741.12999998033,74004.51999995857,74585.2700000396,75232.63500002213,91348.93999993801],"honeypot":0,"survey":"mace","page":8,"trial_type":"survey-mace","trial_index":16,"time_elapsed":1004076,"internal_node_id":"0.0-16.0","task_version":"prescreen-v0.3","browser_interactions":2},{"responses":{"01":"Yes","01_ages_4":"4","01_ages_5":"5","01_ages_6":"6","01_ages_7":"7","01_ages_8":"8","01_ages_9":"9","01_ages_10":"10","01_ages_11":"11","01_ages_12":"12","01_ages_13":"13","01_ages_14":"14","01_ages_15":"15","01_ages_16":"16","01_ages_17":"17","01_ages_18":"18","02":"Yes","02_ages_4":"4","02_ages_5":"5","02_ages_6":"6","02_ages_7":"7","02_ages_8":"8","02_ages_9":"9","02_ages_10":"10","02_ages_11":"11","02_ages_12":"12","02_ages_13":"13","02_ages_14":"14","02_ages_15":"15","02_ages_16":"16","02_ages_17":"17","02_ages_18":"18","03":"Yes","03_ages_4":"4","03_ages_5":"5","03_ages_6":"6","03_ages_7":"7","03_ages_8":"8","03_ages_9":"9","03_ages_10":"10","03_ages_11":"11","03_ages_12":"12","03_ages_13":"13","03_ages_14":"14","03_ages_15":"15","03_ages_16":"16","03_ages_17":"17","03_ages_18":"18","04":"Yes","04_ages_4":"4","04_ages_5":"5","04_ages_6":"6","04_ages_7":"7","04_ages_8":"8","04_ages_9":"9","04_ages_10":"10","04_ages_11":"11","04_ages_12":"12","04_ages_13":"13","04_ages_14":"14","04_ages_15":"15","04_ages_16":"16","04_ages_17":"17","04_ages_18":"18"},"rt":87979.04000000563,"item_order":[0,1,2,3],"radio_events":[10974.089999916032,35364.804999902844,54483.06999995839,59063.29999992158],"checkbox_events":[21884.619999909773,22518.144999979995,23303.78999991808,24831.550000002608,25906.719999969937,26572.06999999471,27221.885000006296,27867.57999996189,28485.839999979362,29512.779999990016,30057.77999991551,30660.359999979846,31882.4499999173,32460.059999953955,33631.359999999404,39146.92499989178,39725.14999995474,40290.559999994,40820.194999920204,41365.76499999501,41911.42499994021,42505.03499992192,43058.264999999665,44362.464999896474,44972.59999997914,45542.124999919906,46135.58999996167,46697.11999990977,47258.94999993034,48794.60999998264,62893.43499997631,65692.89999990724,66884.20499989297,67429.26499992609,67990.98000000231,68552.78499994893,69098.22499996517,69626.93999998737,70734.43999991287,72117.95999994501,72647.52499992028,73201.57999999356,73730.9649999952,74292.27499989793,75242.84500000067,76285.47499992419,77480.55499990005,78018.07999995071,79137.14000000618,79715.42499994393,80268.28999991994,80853.82999991998,81423.68999996688,81969.4399998989,83108.67499990854,83665.90499994345,84243.87499992736,84861.48999992292,85519.9249999132,86449.45999991614],"key_events":[],"mouse_events":[10974.089999916032,21884.619999909773,22518.144999979995,23303.78999991808,24021.959999925457,24831.550000002608,25906.719999969937,26572.06999999471,27221.885000006296,27867.57999996189,28485.839999979362,29512.779999990016,30057.77999991551,30660.359999979846,31244.554999982938,31882.4499999173,32460.059999953955,33045.71499989834,33631.359999999404,35364.804999902844,39146.92499989178,39725.14999995474,40290.559999994,40820.194999920204,41365.76499999501,41911.42499994021,42505.03499992192,43058.264999999665,43676.63499992341,44362.464999896474,44972.59999997914,45542.124999919906,46135.58999996167,46697.11999990977,47258.94999993034,47932.84499994479,48794.60999998264,54483.06999995839,59063.29999992158,62893.43499997631,65692.89999990724,66884.20499989297,67429.26499992609,67990.98000000231,68552.78499994893,69098.22499996517,69626.93999998737,70140.84999996703,70734.43999991287,71605.18999991473,72117.95999994501,72647.52499992028,73201.57999999356,73730.9649999952,74292.27499989793,75242.84500000067,76285.47499992419,76895.45499999076,77480.55499990005,78018.07999995071,78563.70999990031,79137.14000000618,79715.42499994393,80268.28999991994,80853.82999991998,81423.68999996688,81969.4399998989,82514.77499993052,83108.67499990854,83665.90499994345,84243.87499992736,84861.48999992292,85519.9249999132,86449.45999991614,87973.88499998488],"honeypot":0,"survey":"mace","page":9,"trial_type":"survey-mace","trial_index":17,"time_elapsed":1092068,"internal_node_id":"0.0-17.0","task_version":"prescreen-v0.3","browser_interactions":0},{"responses":{"01":"No","02":"No","03":"Yes","03_ages_10":"10","03_ages_11":"11","03_ages_12":"12","03_ages_13":"13","03_ages_14":"14","03_ages_15":"15","03_ages_16":"16","03_ages_17":"17","03_ages_18":"18","04":"Yes","04_ages_7":"7","04_ages_8":"8","04_ages_9":"9","04_ages_10":"10","04_ages_11":"11","05":"No","06":"Yes","06_ages_17":"17","07":"Yes","07_ages_1":"1","07_ages_2":"2","07_ages_3":"3","07_ages_4":"4","07_ages_5":"5","07_ages_6":"6","07_ages_7":"7","07_ages_8":"8","07_ages_9":"9","07_ages_10":"10","07_ages_11":"11","07_ages_12":"12","07_ages_13":"13","07_ages_14":"14","07_ages_15":"15","07_ages_16":"16","07_ages_17":"17","07_ages_18":"18","08":"Yes","08_ages_1":"1","08_ages_2":"2","08_ages_3":"3","08_ages_4":"4","08_ages_5":"5","08_ages_6":"6","08_ages_7":"7","08_ages_8":"8","08_ages_9":"9","08_ages_10":"10","08_ages_11":"11","08_ages_12":"12","08_ages_13":"13","08_ages_14":"14","08_ages_15":"15","08_ages_16":"16","08_ages_17":"17","08_ages_18":"18"},"rt":133974.9699999811,"item_order":[0,1,2,3,4,5,6,7],"radio_events":[15642.909999936819,17059.699999983422,18892.814999911934,22085.86499991361,29354.049999965355,31178.894999902695,42611.29999998957,44315.30999997631],"checkbox_events":[32855.08499993011,55670.2449999284,56259.77999996394,56885.149999987334,57526.72999992501,58874.6149999788,59829.22499999404,60443.310000002384,61020.569999935105,62023.99499993771,68133.8799999794,68706.56999992207,69452.81499996781,71362.7850000048,74832.2549998993,93846.13499999978,94439.14999999106,95021.09999989625,95615.49999995623,96200.66999993287,96754.84999991022,97925.60499999672,98512.34999997541,99060.90499996208,100449.05999989714,101588.16499996465,102198.15499999095,102779.67499999795,104906.80999995675,105452.02999992762,106094.15499994066,106687.30999995023,108224.11999991164,116925.02999992575,117526.58999990672,118072.39999994636,118617.67499998678,119203.00499990117,120664.24999991432,121807.14999989141,123187.2699999949,123765.01999993343,124381.98499998543,125012.80999998562,125639.02999996208,126248.13500000164,126858.24999993201,127460.69499989972,128094.29499995895,130817.75499996729,132623.12000000384],"key_events":[],"mouse_events":[15642.909999936819,17059.699999983422,18892.814999911934,22085.86499991361,29354.049999965355,31178.894999902695,32855.08499993011,42611.29999998957,44315.30999997631,55670.2449999284,56259.77999996394,56885.149999987334,57526.72999992501,58193.05499992333,58874.6149999788,59829.22499999404,60443.310000002384,61020.569999935105,62023.99499993771,68133.8799999794,68706.56999992207,69452.81499996781,71362.7850000048,74832.2549998993,93846.13499999978,94439.14999999106,95021.09999989625,95615.49999995623,96200.66999993287,96754.84999991022,97332.56999996956,97925.60499999672,98512.34999997541,99060.90499996208,99863.72999998275,100449.05999989714,101043.76499995124,101588.16499996465,102198.15499999095,102779.67499999795,103463.00999994855,104906.80999995675,105452.02999992762,106094.15499994066,106687.30999995023,108224.11999991164,116925.02999992575,117526.58999990672,118072.39999994636,118617.67499998678,119203.00499990117,119861.83499998879,120664.24999991432,121807.14999989141,122522.26999995764,123187.2699999949,123765.01999993343,124381.98499998543,125012.80999998562,125639.02999996208,126248.13500000164,126858.24999993201,127460.69499989972,128094.29499995895,130817.75499996729,132623.12000000384,133968.27999991365],"honeypot":0,"survey":"mace","page":10,"trial_type":"survey-mace","trial_index":18,"time_elapsed":1226061,"internal_node_id":"0.0-18.0","task_version":"prescreen-v0.3","browser_interactions":0,"instructed":0},{"rt":9013.649999978952,"trial_type":"mental-health-alert","trial_index":19,"time_elapsed":1235082,"internal_node_id":"0.0-19.0","task_version":"prescreen-v0.3","interactions":"[{\"event\":\"blur\",\"trial\":7,\"time\":452502},{\"event\":\"focus\",\"trial\":7,\"time\":467113},{\"event\":\"blur\",\"trial\":16,\"time\":928823},{\"event\":\"focus\",\"trial\":16,\"time\":937148}]"}]