[{"view_history":[{"page_index":0,"viewing_time":3282.2000000476837},{"page_index":1,"viewing_time":4286},{"page_index":2,"viewing_time":2696},{"page_index":3,"viewing_time":2472.2999999523163}],"rt":12737.100000023842,"trial_type":"instructions","trial_index":0,"time_elapsed":12742,"internal_node_id":"0.0-0.0","task_version":"prescreen-v0.3"},{"rt":11608.800000011921,"responses":{"age":"29","gender-categorical":"Male","gender-free-response":"","ethnicity":"Not Hispanic or Latino","race":["White"],"education":"Bachelor degree"},"trial_type":"survey-demo","trial_index":1,"time_elapsed":24355,"internal_node_id":"0.0-1.0","task_version":"prescreen-v0.3"},{"responses":{"Q11":"2","Q18":"1","Q07":"2","Q05":"1","Q12":"1","Q17":"1","Q19":"1","Q15":"1","Q16":"1","Q13":"1","Q06":"1","Q09":"1","Q02":"1","Q03":"0","Q10":"1","Q01":"1","Q20":"1","Q14":"1","Q08":"1","Q04":"1","Q21":"2"},"rt":113271.19999998808,"item_order":[10,17,6,4,11,16,18,14,15,12,5,8,1,2,9,0,19,13,7,3,20],"radio_events":[4556.899999976158,9188.399999976158,49655.80000001192,56205.80000001192,60815.80000001192,64326.5,68945.5,75955.39999997616,80187.69999998808,86887.39999997616,91559.5,92313.60000002384,92953.69999998808,94573.30000001192,96021.60000002384,100722.5,102415.5,104527.69999998808,105532.39999997616,106285.5,106957.69999998808,112119.5],"key_events":[],"mouse_events":[4556.899999976158,9188.399999976158,49655.80000001192,56205.80000001192,60815.80000001192,63579.89999997616,64326.5,68945.5,75955.39999997616,80187.69999998808,81864.69999998808,86887.39999997616,89087.60000002384,90927.5,91559.5,92313.60000002384,92953.69999998808,94573.30000001192,95454.39999997616,96021.60000002384,100722.5,102415.5,104527.69999998808,105532.39999997616,106285.5,106957.69999998808,107543.5,112119.5,113269.39999997616],"straightlining":0.8095238095238095,"zigzagging":0.3,"honeypot":0,"survey":"sns","trial_type":"survey-template","trial_index":2,"time_elapsed":137632,"internal_node_id":"0.0-2.0","task_version":"prescreen-v0.3","browser_interactions":0,"infrequency":0.5},{"responses":{"Q10":"2","Q05":"2","Q13":"0","Q08":"2","Q03":"1","Q01":"1","Q06":"2","Q02":"1","Q11":"2","Q09":"2","Q07":"2","Q12":"1","Q04":"1"},"rt":44232.19999998808,"item_order":[9,4,12,7,2,0,5,1,10,8,6,11,3],"radio_events":[6254.099999964237,9574.099999964237,11846.899999976158,16516.099999964237,19091.099999964237,21420.19999998808,25475.19999998808,27410.30000001192,30591.19999998808,33366.5,36156.5,41983.09999996424,43511.09999996424],"key_events":[],"mouse_events":[6254.099999964237,9574.099999964237,10744.099999964237,11846.899999976158,16516.099999964237,18329.19999998808,19091.099999964237,21420.19999998808,25475.19999998808,27410.30000001192,30591.19999998808,31602.5,33366.5,35452.30000001192,36156.5,40185.19999998808,41983.09999996424,42967.5,43511.09999996424,44231.09999996424],"straightlining":0.5384615384615384,"zigzagging":0.4166666666666667,"honeypot":0,"survey":"bisbas","trial_type":"survey-template","trial_index":3,"time_elapsed":181868,"internal_node_id":"0.0-3.0","task_version":"prescreen-v0.3","browser_interactions":0,"infrequency":0},{"responses":{"Q01":"3","Q02":"3","Q03":"3"},"rt":17397.5,"radio_events":[8674.600000023842,14310.699999988079,15715.899999976158],"key_events":[],"mouse_events":[8674.600000023842,13593.5,14310.699999988079,15715.899999976158,17396.5],"survey":"map","page":1,"trial_type":"survey-map","trial_index":4,"time_elapsed":199270,"internal_node_id":"0.0-4.0","task_version":"prescreen-v0.3","browser_interactions":0},{"responses":{"Q04":"3","Q05":"3","Q06":"3"},"rt":9358.199999988079,"radio_events":[6884.699999988079,8037.800000011921,8737.699999988079],"key_events":[],"mouse_events":[6884.699999988079,7647.699999988079,8037.800000011921,8737.699999988079,9357.699999988079],"survey":"map","page":2,"trial_type":"survey-map","trial_index":5,"time_elapsed":208631,"internal_node_id":"0.0-5.0","task_version":"prescreen-v0.3","browser_interactions":0},{"responses":{"Q07":"3","Q08":"3","Q09":"3"},"rt":10080.5,"radio_events":[4952,6713.399999976158,9070.799999952316],"key_events":[],"mouse_events":[4952,6713.399999976158,7675.899999976158,9070.799999952316,10079.699999988079],"survey":"map","page":3,"trial_type":"survey-map","trial_index":6,"time_elapsed":218714,"internal_node_id":"0.0-6.0","task_version":"prescreen-v0.3","browser_interactions":0},{"responses":{"Q10":"3","Q11":"3","Q12":"2","Q13":"2","Q16":"0","Q14":"3","Q15":"2"},"rt":26720,"radio_events":[9789.600000023842,10518.300000011921,11741.300000011921,14686.300000011921,19199.900000035763,22796.69999998808,25685.30000001192],"key_events":[],"mouse_events":[9387.300000011921,9789.600000023842,10518.300000011921,11741.300000011921,14686.300000011921,18498.100000023842,19199.900000035763,22796.69999998808,25346.600000023842,25685.30000001192,26718.19999998808],"survey":"map","page":4,"trial_type":"survey-map","trial_index":7,"time_elapsed":245438,"internal_node_id":"0.0-7.0","task_version":"prescreen-v0.3","browser_interactions":0,"infrequency":0},{"view_history":[{"page_index":0,"viewing_time":3679.099999964237},{"page_index":1,"viewing_time":4818.900000035763}],"rt":8498.800000011921,"trial_type":"instructions","trial_index":8,"time_elapsed":253940,"internal_node_id":"0.0-8.0","task_version":"prescreen-v0.3"},{"responses":{"01":"Yes","01_ages_13":"13","01_ages_14":"14","01_ages_15":"15","01_ages_16":"16","01_ages_17":"17","01_ages_18":"18","02":"Yes","02_ages_13":"13","02_ages_14":"14","02_ages_15":"15","02_ages_16":"16","02_ages_17":"17","02_ages_18":"18","03":"No","04":"No","05":"No","06":"No"},"rt":35826.80000001192,"item_order":[0,1,2,3,4,5],"radio_events":[9994.100000023842,21480.100000023842,28789.400000035763,31147.100000023842,32698.100000023842,35152.90000003576],"checkbox_events":[16101.200000047684,16447.100000023842,16799.30000001192,17419.80000001192,17787.200000047684,18372.100000023842,22636.200000047684,23175.100000023842,23545.700000047684,23943,24242.80000001192,24609.100000023842],"key_events":[],"mouse_events":[19.600000023841858,9347.400000035763,9994.100000023842,16101.200000047684,16447.100000023842,16799.30000001192,17151.5,17419.80000001192,17787.200000047684,18372.100000023842,20851.200000047684,21480.100000023842,22636.200000047684,23175.100000023842,23545.700000047684,23943,24242.80000001192,24609.100000023842,28789.400000035763,31147.100000023842,32698.100000023842,35152.90000003576,35824.40000003576],"honeypot":0,"survey":"mace","page":1,"trial_type":"survey-mace","trial_index":9,"time_elapsed":289774,"internal_node_id":"0.0-9.0","task_version":"prescreen-v0.3","browser_interactions":0},{"responses":{"01":"No","02":"No","03":"Yes","03_ages_5":"5","03_ages_6":"6","03_ages_7":"7","03_ages_8":"8","03_ages_9":"9","03_ages_10":"10","03_ages_11":"11","03_ages_12":"12","03_ages_13":"13","03_ages_14":"14","03_ages_15":"15","04":"Yes","04_ages_5":"5","04_ages_6":"6","04_ages_7":"7","04_ages_8":"8","04_ages_9":"9","04_ages_10":"10","04_ages_11":"11","04_ages_12":"12","04_ages_13":"13","04_ages_14":"14","04_ages_15":"15","05":"Yes","05_ages_5":"5","05_ages_6":"6","05_ages_7":"7","05_ages_8":"8","05_ages_9":"9","05_ages_10":"10","05_ages_11":"11","05_ages_12":"12","05_ages_13":"13","05_ages_14":"14","05_ages_15":"15","06":"No","07":"No","08":"No"},"rt":37323,"item_order":[0,1,2,3,4,5,6,7],"radio_events":[2953.199999988079,4655.899999976158,6312,18423.899999976158,26117.899999976158,34017.799999952316,35322.799999952316,36845.799999952316],"checkbox_events":[8513.899999976158,9583.899999976158,10921.5,11401.899999976158,12102.699999988079,12595.899999976158,13605.899999976158,14061.599999964237,14527.699999988079,14893.899999976158,15299.199999988079,19476.399999976158,19749.69999998808,20184.799999952316,20888.599999964237,21232.399999976158,21852.899999976158,22231.799999952316,22611.599999964237,23291.19999998808,23699.799999952316,24232,27124.5,27908.799999952316,28363.799999952316,28732.899999976158,29141.899999976158,29566,30041.799999952316,30450.69999998808,30856.19999998808,31289,31712.5],"key_events":[],"mouse_events":[2953.199999988079,4290.899999976158,4655.899999976158,6312,8513.899999976158,8808.899999976158,9236.5,9583.899999976158,10213.5,10590.299999952316,10921.5,11401.899999976158,12102.699999988079,12374.599999964237,12595.899999976158,12993.799999952316,13202,13605.899999976158,14061.599999964237,14527.699999988079,14893.899999976158,15299.199999988079,18423.899999976158,19476.399999976158,19749.69999998808,20184.799999952316,20544.899999976158,20888.599999964237,21232.399999976158,21852.899999976158,22231.799999952316,22611.599999964237,22999.799999952316,23291.19999998808,23699.799999952316,24232,26117.899999976158,27124.5,27534.799999952316,27908.799999952316,28363.799999952316,28732.899999976158,29141.899999976158,29566,30041.799999952316,30450.69999998808,30856.19999998808,31289,31712.5,34017.799999952316,34700.89999997616,35322.799999952316,36484.09999996424,36845.799999952316,37320.09999996424],"honeypot":0,"survey":"mace","page":2,"trial_type":"survey-mace","trial_index":10,"time_elapsed":327103,"internal_node_id":"0.0-10.0","task_version":"prescreen-v0.3","browser_interactions":0},{"responses":{"01":"No","02":"No","03":"No","04":"No"},"rt":12133,"item_order":[0,1,2,3],"radio_events":[3054.800000011921,5618.5,9524.699999988079,10879.599999964237,11583.800000011921],"checkbox_events":[],"key_events":[],"mouse_events":[3054.800000011921,5618.5,8868.5,9524.699999988079,10879.599999964237,11583.800000011921,12131.399999976158],"honeypot":0,"survey":"mace","page":3,"trial_type":"survey-mace","trial_index":11,"time_elapsed":339241,"internal_node_id":"0.0-11.0","task_version":"prescreen-v0.3","browser_interactions":0},{"responses":{"01":"No","02":"No"},"rt":4783.400000035763,"item_order":[0,1],"radio_events":[3033,4280],"checkbox_events":[],"key_events":[],"mouse_events":[3033,3739.900000035763,4053.300000011921,4280,4782.699999988079],"honeypot":0,"survey":"mace","page":4,"trial_type":"survey-mace","trial_index":12,"time_elapsed":344028,"internal_node_id":"0.0-12.0","task_version":"prescreen-v0.3","browser_interactions":0},{"responses":{"01":"No","02":"No","03":"No","04":"No","05":"No"},"rt":10308.5,"item_order":[0,1,2,3,4],"radio_events":[3617.600000023842,4609.899999976158,5925.5,7085.399999976158,9428.699999988079],"checkbox_events":[],"key_events":[],"mouse_events":[3617.600000023842,4112.5,4609.899999976158,5525.600000023842,5925.5,6688.100000023842,7085.399999976158,8026.399999976158,9428.699999988079,10306.5],"honeypot":0,"survey":"mace","page":5,"trial_type":"survey-mace","trial_index":13,"time_elapsed":354342,"internal_node_id":"0.0-13.0","task_version":"prescreen-v0.3","browser_interactions":0},{"responses":{"01":"No","02":"No","03":"No","04":"No","05":"No"},"rt":13344.600000023842,"item_order":[0,1,2,3,4],"radio_events":[5624.5,6966.700000047684,9712.700000047684,10745.700000047684,11583.5],"checkbox_events":[],"key_events":[],"mouse_events":[5624.5,6966.700000047684,7664.100000023842,8290.5,9017.400000035763,9712.700000047684,10745.700000047684,11583.5,13342.600000023842],"honeypot":0,"survey":"mace","page":6,"trial_type":"survey-mace","trial_index":14,"time_elapsed":367692,"internal_node_id":"0.0-14.0","task_version":"prescreen-v0.3","browser_interactions":0},{"responses":{"01":"No","02":"No","03":"No","04":"No","05":"No","06":"No","07":"No"},"rt":12574.700000047684,"item_order":[0,1,2,3,4,5,6],"radio_events":[3559.800000011921,5512.700000047684,6197.5,7992.600000023842,9596.5,11144.5,11671.600000023842],"checkbox_events":[],"key_events":[],"mouse_events":[3559.800000011921,4912.100000023842,5512.700000047684,6197.5,7992.600000023842,9596.5,10310.600000023842,11144.5,11671.600000023842,12571.900000035763],"honeypot":0,"survey":"mace","page":7,"trial_type":"survey-mace","trial_index":15,"time_elapsed":380274,"internal_node_id":"0.0-15.0","task_version":"prescreen-v0.3","browser_interactions":0},{"responses":{"01":"No","02":"No","03":"No","04":"No"},"rt":40555.60000002384,"item_order":[0,1,2,3],"radio_events":[32045.399999976158,35232.69999998808,36960.30000001192,39700.5],"checkbox_events":[],"key_events":[],"mouse_events":[31143.30000001192,32045.399999976158,32914.5,33379.39999997616,34253.80000001192,35232.69999998808,35953.30000001192,36455.30000001192,36960.30000001192,38039.39999997616,38495.69999998808,39700.5,40219.60000002384,40554.10000002384],"honeypot":0,"survey":"mace","page":8,"trial_type":"survey-mace","trial_index":16,"time_elapsed":420834,"internal_node_id":"0.0-16.0","task_version":"prescreen-v0.3","browser_interactions":0},{"responses":{"01":"Yes","01_ages_1":"1","01_ages_2":"2","01_ages_3":"3","01_ages_4":"4","01_ages_5":"5","01_ages_6":"6","01_ages_7":"7","01_ages_8":"8","01_ages_9":"9","01_ages_10":"10","01_ages_11":"11","01_ages_12":"12","01_ages_13":"13","01_ages_14":"14","01_ages_15":"15","01_ages_16":"16","01_ages_17":"17","01_ages_18":"18","02":"Yes","02_ages_1":"1","02_ages_2":"2","02_ages_3":"3","02_ages_4":"4","02_ages_5":"5","02_ages_6":"6","02_ages_7":"7","02_ages_8":"8","02_ages_9":"9","02_ages_10":"10","02_ages_11":"11","02_ages_12":"12","02_ages_13":"13","02_ages_14":"14","02_ages_15":"15","02_ages_16":"16","02_ages_17":"17","02_ages_18":"18","03":"Yes","03_ages_1":"1","03_ages_2":"2","03_ages_3":"3","03_ages_4":"4","03_ages_5":"5","03_ages_6":"6","03_ages_7":"7","03_ages_8":"8","03_ages_9":"9","03_ages_10":"10","03_ages_11":"11","03_ages_12":"12","03_ages_13":"13","03_ages_14":"14","03_ages_15":"15","03_ages_16":"16","03_ages_17":"17","03_ages_18":"18","04":"Yes","04_ages_1":"1","04_ages_2":"2","04_ages_3":"3","04_ages_4":"4","04_ages_5":"5","04_ages_6":"6","04_ages_7":"7","04_ages_8":"8","04_ages_9":"9","04_ages_10":"10","04_ages_11":"11","04_ages_12":"12","04_ages_13":"13","04_ages_14":"14","04_ages_15":"15","04_ages_16":"16","04_ages_17":"17","04_ages_18":"18"},"rt":61320,"item_order":[0,1,2,3],"radio_events":[5649,23904.299999952316,36176.799999952316,49051.39999997616],"checkbox_events":[9911.399999976158,10454.399999976158,10936.399999976158,11577.299999952316,11966.199999988079,12347.399999976158,13319,13754.399999976158,14310.399999976158,14754.299999952316,15137.099999964237,15504.399999976158,16396.19999998808,18005.19999998808,18736.299999952316,19382.19999998808,20139.19999998808,20628.099999964237,24895.19999998808,25518.399999976158,25983.19999998808,26360.399999976158,26808.299999952316,27283.299999952316,28565.599999964237,28948,29516.399999976158,30089.299999952316,30496.799999952316,30977.19999998808,31348.399999976158,31792.19999998808,32183.19999998808,32667.299999952316,33099.299999952316,33590.69999998808,33833.89999997616,34774.09999996424,37231.09999996424,37676.59999996424,38038.19999998808,38412.19999998808,38817.799999952316,39173.19999998808,39564.5,40681.5,41198.19999998808,41712.299999952316,43231.299999952316,43790.39999997616,44258.69999998808,44752.09999996424,45187.19999998808,45964.5,46397.69999998808,47244.19999998808,50364.19999998808,51614.19999998808,52360.299999952316,52817.89999997616,53242.19999998808,53622.19999998808,54079.19999998808,54892.39999997616,55427.59999996424,55839,56298.19999998808,56819.299999952316,57713.299999952316,58327.5,58759.39999997616,59419.39999997616,59877.5,60638.19999998808],"key_events":[],"mouse_events":[5649,9911.399999976158,10454.399999976158,10936.399999976158,11291,11577.299999952316,11966.199999988079,12347.399999976158,12800.399999976158,13319,13754.399999976158,14310.399999976158,14754.299999952316,15137.099999964237,15504.399999976158,15981.299999952316,16396.19999998808,16801.399999976158,17817.19999998808,18005.19999998808,18736.299999952316,19382.19999998808,20139.19999998808,20628.099999964237,23545.5,23904.299999952316,24895.19999998808,25518.399999976158,25983.19999998808,26360.399999976158,26808.299999952316,27283.299999952316,27628.299999952316,28081.19999998808,28565.599999964237,28948,29516.399999976158,30089.299999952316,30496.799999952316,30977.19999998808,31348.399999976158,31792.19999998808,32183.19999998808,32667.299999952316,33099.299999952316,33590.69999998808,33833.89999997616,34774.09999996424,36176.799999952316,37231.09999996424,37676.59999996424,38038.19999998808,38412.19999998808,38817.799999952316,39173.19999998808,39564.5,39926.5,40299.5,40681.5,41198.19999998808,41712.299999952316,42235,42668.5,43231.299999952316,43790.39999997616,44258.69999998808,44752.09999996424,45187.19999998808,45581.09999996424,45964.5,46397.69999998808,46927.39999997616,47244.19999998808,49051.39999997616,50364.19999998808,50835.299999952316,51614.19999998808,52054.19999998808,52360.299999952316,52817.89999997616,53242.19999998808,53622.19999998808,54079.19999998808,54456.39999997616,54892.39999997616,55427.59999996424,55839,56298.19999998808,56589.5,56819.299999952316,57294.19999998808,57713.299999952316,58327.5,58759.39999997616,59419.39999997616,59877.5,60398.09999996424,60638.19999998808,61318.39999997616],"honeypot":0,"survey":"mace","page":9,"trial_type":"survey-mace","trial_index":17,"time_elapsed":482159,"internal_node_id":"0.0-17.0","task_version":"prescreen-v0.3","browser_interactions":0},{"responses":{"01":"No","02":"No","03":"No","04":"No","05":"No","06":"Yes","06_ages_17":"17","07":"Yes","07_ages_1":"1","07_ages_2":"2","07_ages_3":"3","07_ages_4":"4","07_ages_5":"5","07_ages_6":"6","07_ages_7":"7","07_ages_8":"8","07_ages_9":"9","07_ages_10":"10","07_ages_11":"11","07_ages_12":"12","07_ages_13":"13","07_ages_14":"14","07_ages_15":"15","07_ages_16":"16","07_ages_17":"17","07_ages_18":"18","08":"Yes","08_ages_1":"1","08_ages_2":"2","08_ages_3":"3","08_ages_4":"4","08_ages_5":"5","08_ages_6":"6","08_ages_7":"7","08_ages_8":"8","08_ages_9":"9","08_ages_10":"10","08_ages_11":"11","08_ages_12":"12","08_ages_13":"13","08_ages_14":"14","08_ages_15":"15","08_ages_16":"16","08_ages_17":"17","08_ages_18":"18"},"rt":44583.30000001192,"item_order":[0,1,2,3,4,5,6,7],"radio_events":[6183.399999976158,7132.099999964237,8245,10142.300000011921,10818.099999964237,11877.099999964237,14687.899999976158,20669.69999998808,32712.899999976158],"checkbox_events":[16129.599999964237,22753.099999964237,23373,23793.69999998808,24153.099999964237,25181,25705.19999998808,26314.69999998808,26724,27086.099999964237,27472.19999998808,27804.099999964237,28241.099999964237,28602,29014.899999976158,29429.099999964237,29804.399999976158,30278.899999976158,31020.899999976158,34190.09999996424,35068.09999996424,35557.19999998808,36415.09999996424,37057.30000001192,38335.30000001192,38817,39224.09999996424,39614.19999998808,40083.09999996424,40509.80000001192,40997,41731.09999996424,42140,42509.30000001192,42876,43323.09999996424,44090.69999998808],"key_events":[],"mouse_events":[4755.899999976158,6183.399999976158,7132.099999964237,8245,8777.300000011921,10142.300000011921,10818.099999964237,11877.099999964237,14687.899999976158,16129.599999964237,19727.899999976158,20669.69999998808,22469.399999976158,22753.099999964237,23373,23793.69999998808,24153.099999964237,24477.19999998808,24913.899999976158,25181,25705.19999998808,26314.69999998808,26724,27086.099999964237,27472.19999998808,27804.099999964237,28241.099999964237,28602,29014.899999976158,29429.099999964237,29804.399999976158,30278.899999976158,31020.899999976158,32712.899999976158,34190.09999996424,34663.19999998808,35068.09999996424,35557.19999998808,36101.19999998808,36415.09999996424,37057.30000001192,38335.30000001192,38817,39224.09999996424,39614.19999998808,40083.09999996424,40509.80000001192,40997,41371.09999996424,41731.09999996424,42140,42509.30000001192,42876,43323.09999996424,43839.80000001192,44090.69999998808,44579.69999998808],"honeypot":0,"survey":"mace","page":10,"trial_type":"survey-mace","trial_index":18,"time_elapsed":526751,"internal_node_id":"0.0-18.0","task_version":"prescreen-v0.3","browser_interactions":0,"instructed":0},{"rt":4211.799999952316,"trial_type":"mental-health-alert","trial_index":19,"time_elapsed":530966,"internal_node_id":"0.0-19.0","task_version":"prescreen-v0.3","interactions":"[]"}]