[{"view_history":[{"page_index":0,"viewing_time":2394.0999999940395},{"page_index":1,"viewing_time":1638.7000000029802},{"page_index":2,"viewing_time":2687.7000000029802},{"page_index":3,"viewing_time":904.2999999970198}],"rt":7626.29999999702,"trial_type":"instructions","trial_index":0,"time_elapsed":7638,"internal_node_id":"0.0-0.0","task_version":"prescreen-v0.3"},{"rt":10305.29999999702,"responses":{"age":"23","gender-categorical":"Male","gender-free-response":"","ethnicity":"Not Hispanic or Latino","race":["White"],"education":"Bachelor degree","siblings":"2"},"trial_type":"survey-demo","trial_index":1,"time_elapsed":17953,"internal_node_id":"0.0-1.0","task_version":"prescreen-v0.3"},{"responses":{"Q17":"3","Q21":"3","Q13":"1","Q16":"1","Q18":"1","Q15":"2","Q05":"1","Q04":"0","Q09":"2","Q07":"1","Q02":"1","Q10":"2","Q14":"2","Q06":"1","Q03":"1","Q19":"1","Q08":"2","Q11":"2","Q01":"0","Q12":"1","Q20":"0"},"rt":166363.5,"item_order":[16,20,12,15,17,14,4,3,8,6,1,9,13,5,2,18,7,10,0,11,19],"radio_events":[8850.800000011921,11689.5,13920.300000011921,18868.40000000596,22577.40000000596,26604.80000001192,33159,128840.10000000894,132091.90000000596,135835.40000000596,139123.5,141801.90000000596,146112.80000001192,148244.10000000894,150251.90000000596,152821.10000000894,155596.40000000596,157251.80000001192,158907.10000000894,159753.70000000298,162821.10000000894,165316],"key_events":[],"mouse_events":[8850.800000011921,11689.5,13920.300000011921,18868.40000000596,22577.40000000596,26604.80000001192,33159,128840.10000000894,132091.90000000596,135835.40000000596,139123.5,141801.90000000596,146112.80000001192,148244.10000000894,150251.90000000596,152821.10000000894,155596.40000000596,157251.80000001192,158907.10000000894,159292.40000000596,159753.70000000298,162821.10000000894,165316,166356.60000000894],"straightlining":0.47619047619047616,"zigzagging":0.45,"honeypot":0,"survey":"sns","trial_type":"survey-template","trial_index":2,"time_elapsed":184322,"internal_node_id":"0.0-2.0","task_version":"prescreen-v0.3","browser_interactions":0,"infrequency":0},{"responses":{"Q08":"2","Q05":"2","Q04":"3","Q06":"2","Q02":"2","Q09":"2","Q07":"3","Q13":"0","Q03":"1","Q11":"2","Q10":"1","Q12":"1","Q01":"2"},"rt":85415.30000001192,"item_order":[7,4,3,5,1,8,6,12,2,10,9,11,0],"radio_events":[51845.5,54492,57268.60000000894,58399,60739.90000000596,63121.20000000298,66535.20000000298,69101.30000001192,71401.40000000596,75364.30000001192,78269.5,81013,83692.40000000596,84819.60000000894],"key_events":[],"mouse_events":[51845.5,54492,57268.60000000894,58399,60739.90000000596,61885.60000000894,63121.20000000298,66535.20000000298,69101.30000001192,71401.40000000596,75364.30000001192,78269.5,81013,83692.40000000596,84819.60000000894,85411.30000001192],"straightlining":0.5384615384615384,"zigzagging":0.6666666666666666,"honeypot":0,"survey":"bisbas","trial_type":"survey-template","trial_index":3,"time_elapsed":269742,"internal_node_id":"0.0-3.0","task_version":"prescreen-v0.3","browser_interactions":0,"infrequency":0},{"responses":{"Q01":"2","Q02":"2","Q03":"2"},"rt":38042.70000000298,"radio_events":[29450.89999999106,34061.29999999702,37087.39999999106],"key_events":[],"mouse_events":[29450.89999999106,33544.59999999404,34061.29999999702,36708.09999999404,37087.39999999106,37676.70000000298,38040.59999999404],"survey":"map","page":1,"trial_type":"survey-map","trial_index":4,"time_elapsed":307789,"internal_node_id":"0.0-4.0","task_version":"prescreen-v0.3","browser_interactions":0},{"responses":{"Q04":"1","Q05":"2","Q06":"1"},"rt":11956.59999999404,"radio_events":[5828.5999999940395,8912.59999999404,9711,11326],"key_events":[],"mouse_events":[5828.5999999940395,8912.59999999404,9711,11326,11954.70000000298],"survey":"map","page":2,"trial_type":"survey-map","trial_index":5,"time_elapsed":319750,"internal_node_id":"0.0-5.0","task_version":"prescreen-v0.3","browser_interactions":0},{"responses":{"Q07":"3","Q08":"3","Q09":"3"},"rt":42325.20000000298,"radio_events":[36146.90000000596,38739.20000000298,40257,41581.20000000298],"key_events":[],"mouse_events":[36146.90000000596,38739.20000000298,39675.29999999702,40257,40950.79999999702,41581.20000000298,42323.29999999702],"survey":"map","page":3,"trial_type":"survey-map","trial_index":6,"time_elapsed":362079,"internal_node_id":"0.0-6.0","task_version":"prescreen-v0.3","browser_interactions":0},{"responses":{"Q10":"2","Q11":"2","Q12":"1","Q13":"1","Q16":"0","Q14":"2","Q15":"2"},"rt":26825.19999998808,"radio_events":[2624.5999999940395,6004.79999999702,9103.89999999106,15395.89999999106,18680.19999998808,24182.79999999702,26183.5],"key_events":[],"mouse_events":[2624.5999999940395,6004.79999999702,9103.89999999106,15395.89999999106,18680.19999998808,24182.79999999702,26183.5,26821.69999998808],"survey":"map","page":4,"trial_type":"survey-map","trial_index":7,"time_elapsed":388908,"internal_node_id":"0.0-7.0","task_version":"prescreen-v0.3","browser_interactions":0,"infrequency":0},{"view_history":[{"page_index":0,"viewing_time":2277.1000000089407},{"page_index":1,"viewing_time":3065.7999999970198}],"rt":5344.100000008941,"trial_type":"instructions","trial_index":8,"time_elapsed":394254,"internal_node_id":"0.0-8.0","task_version":"prescreen-v0.3"},{"responses":{"01":"No","02":"Yes","02_ages_12":"12","02_ages_13":"13","02_ages_14":"14","03":"No","04":"No","05":"No","06":"No"},"rt":25735.20000000298,"item_order":[0,1,2,3,4,5],"radio_events":[7806.29999999702,12012.09999999404,20946.29999999702,22221.59999999404,23561.40000000596,24776.20000000298],"checkbox_events":[17006.09999999404,17805.40000000596,18345],"key_events":[],"mouse_events":[0.09999999403953552,7806.29999999702,12012.09999999404,16108.09999999404,16594.29999999702,17006.09999999404,17409.70000000298,17805.40000000596,18345,20946.29999999702,22221.59999999404,23561.40000000596,24776.20000000298,25296.09999999404,25725.29999999702],"honeypot":0,"survey":"mace","page":1,"trial_type":"survey-mace","trial_index":9,"time_elapsed":420000,"internal_node_id":"0.0-9.0","task_version":"prescreen-v0.3","browser_interactions":0},{"responses":{"01":"No","02":"No","03":"Yes","03_ages_5":"5","03_ages_6":"6","03_ages_7":"7","03_ages_8":"8","03_ages_9":"9","04":"No","05":"No","06":"No","07":"No","08":"No"},"rt":15984.59999999404,"item_order":[0,1,2,3,4,5,6,7],"radio_events":[2090.3999999910593,3245.2000000029802,4810,10532.29999999702,12332.70000000298,13865.59999999404,14728.89999999106,15504.79999999702],"checkbox_events":[5762.5,6117.70000000298,6528.899999991059,6908.0999999940395,7352.5999999940395],"key_events":[],"mouse_events":[2090.3999999910593,3245.2000000029802,4810,5762.5,6117.70000000298,6528.899999991059,6908.0999999940395,7352.5999999940395,10532.29999999702,12332.70000000298,13865.59999999404,14728.89999999106,15504.79999999702,15972.70000000298],"honeypot":0,"survey":"mace","page":2,"trial_type":"survey-mace","trial_index":10,"time_elapsed":435990,"internal_node_id":"0.0-10.0","task_version":"prescreen-v0.3","browser_interactions":0},{"responses":{"01":"No","02":"No","03":"No","04":"No"},"rt":44069.69999998808,"item_order":[0,1,2,3],"radio_events":[4252.29999999702,5479.199999988079,7430,8546.199999988079],"checkbox_events":[],"key_events":[],"mouse_events":[4252.29999999702,5479.199999988079,7430,8546.199999988079,44063.19999998808],"honeypot":0,"survey":"mace","page":3,"trial_type":"survey-mace","trial_index":11,"time_elapsed":480063,"internal_node_id":"0.0-11.0","task_version":"prescreen-v0.3","browser_interactions":0},{"responses":{"01":"No","02":"No"},"rt":5646.5,"item_order":[0,1],"radio_events":[1703.4000000059605,4480.100000008941],"checkbox_events":[],"key_events":[],"mouse_events":[1703.4000000059605,2494.4000000059605,4480.100000008941,5642.800000011921],"honeypot":0,"survey":"mace","page":4,"trial_type":"survey-mace","trial_index":12,"time_elapsed":485714,"internal_node_id":"0.0-12.0","task_version":"prescreen-v0.3","browser_interactions":0},{"responses":{"01":"No","02":"No","03":"No","04":"No","05":"No"},"rt":53260.70000000298,"item_order":[0,1,2,3,4],"radio_events":[47839.90000000596,49058.60000000894,50228.40000000596,52077.10000000894,52585.60000000894],"checkbox_events":[],"key_events":[],"mouse_events":[47839.90000000596,49058.60000000894,50228.40000000596,50995,52077.10000000894,52585.60000000894,53252.5],"honeypot":0,"survey":"mace","page":5,"trial_type":"survey-mace","trial_index":13,"time_elapsed":538979,"internal_node_id":"0.0-13.0","task_version":"prescreen-v0.3","browser_interactions":0},{"responses":{"01":"Yes","01_ages_7":"7","01_ages_8":"8","01_ages_9":"9","01_ages_10":"10","01_ages_11":"11","01_ages_12":"12","01_ages_13":"13","02":"Yes","02_ages_9":"9","02_ages_10":"10","02_ages_11":"11","02_ages_12":"12","03":"Yes","03_ages_11":"11","03_ages_12":"12","03_ages_13":"13","03_ages_14":"14","03_ages_15":"15","03_ages_16":"16","03_ages_17":"17","04":"Yes","04_ages_13":"13","04_ages_14":"14","04_ages_15":"15","04_ages_16":"16","04_ages_17":"17","04_ages_18":"18","05":"No"},"rt":54854,"item_order":[0,1,2,3,4],"radio_events":[4711.29999999702,11702.40000000596,39608.40000000596,46323.09999999404,53916.70000000298],"checkbox_events":[6213,6681.5,7044.0999999940395,7456.0999999940395,7900.4000000059605,8343.90000000596,8772.20000000298,12751.29999999702,13179.20000000298,13606.79999999702,14035.20000000298,40924.40000000596,41319.40000000596,41722.79999999702,42602.79999999702,43005.90000000596,44030.70000000298,44499.79999999702,47549.70000000298,48348.59999999404,48808,49405.59999999404,51494.09999999404,52117.29999999702],"key_events":[],"mouse_events":[4711.29999999702,6213,6681.5,7044.0999999940395,7456.0999999940395,7900.4000000059605,8343.90000000596,8772.20000000298,11702.40000000596,12751.29999999702,13179.20000000298,13606.79999999702,14035.20000000298,39608.40000000596,40924.40000000596,41319.40000000596,41722.79999999702,42198.90000000596,42602.79999999702,43005.90000000596,43635.20000000298,44030.70000000298,44499.79999999702,46323.09999999404,47549.70000000298,48348.59999999404,48808,49405.59999999404,51494.09999999404,52117.29999999702,53916.70000000298,54845.79999999702],"honeypot":0,"survey":"mace","page":6,"trial_type":"survey-mace","trial_index":14,"time_elapsed":593836,"internal_node_id":"0.0-14.0","task_version":"prescreen-v0.3","browser_interactions":0},{"responses":{"01":"No","02":"No","03":"No","04":"No","05":"No","06":"No","07":"No"},"rt":33811.10000000894,"item_order":[0,1,2,3,4,5,6],"radio_events":[2334.300000011921,3375.300000011921,4521.70000000298,5658.9000000059605,6473.600000008941,8967.90000000596,9912.300000011921],"checkbox_events":[],"key_events":[],"mouse_events":[2334.300000011921,3375.300000011921,4521.70000000298,5658.9000000059605,6473.600000008941,7990.800000011921,8967.90000000596,9912.300000011921,33800.30000001192],"honeypot":0,"survey":"mace","page":7,"trial_type":"survey-mace","trial_index":15,"time_elapsed":627652,"internal_node_id":"0.0-15.0","task_version":"prescreen-v0.3","browser_interactions":0},{"responses":{"01":"No","02":"No","03":"Yes","03_ages_8":"8","03_ages_9":"9","03_ages_10":"10","03_ages_11":"11","03_ages_12":"12","04":"No"},"rt":152407,"item_order":[0,1,2,3],"radio_events":[42565.5,89893,95075.20000000298,151874.79999999702],"checkbox_events":[91487.79999999702,91951.70000000298,92290.60000000894,93154,93572.20000000298],"key_events":[],"mouse_events":[42565.5,89893,91487.79999999702,91951.70000000298,92290.60000000894,93154,93572.20000000298,95075.20000000298,151874.79999999702,152399.79999999702],"honeypot":0,"survey":"mace","page":8,"trial_type":"survey-mace","trial_index":16,"time_elapsed":780116,"internal_node_id":"0.0-16.0","task_version":"prescreen-v0.3","browser_interactions":0},{"responses":{"01":"Yes","01_ages_1":"1","01_ages_2":"2","01_ages_3":"3","01_ages_4":"4","01_ages_5":"5","01_ages_6":"6","01_ages_7":"7","01_ages_8":"8","01_ages_9":"9","01_ages_10":"10","01_ages_11":"11","01_ages_12":"12","01_ages_13":"13","01_ages_14":"14","01_ages_15":"15","01_ages_16":"16","01_ages_17":"17","01_ages_18":"18","02":"Yes","02_ages_1":"1","02_ages_2":"2","02_ages_3":"3","02_ages_4":"4","02_ages_5":"5","02_ages_6":"6","02_ages_7":"7","02_ages_8":"8","02_ages_9":"9","02_ages_10":"10","02_ages_11":"11","02_ages_12":"12","02_ages_13":"13","03":"Yes","03_ages_1":"1","03_ages_2":"2","03_ages_3":"3","03_ages_4":"4","03_ages_5":"5","03_ages_6":"6","03_ages_7":"7","03_ages_8":"8","03_ages_9":"9","03_ages_10":"10","03_ages_11":"11","03_ages_12":"12","03_ages_13":"13","03_ages_14":"14","03_ages_15":"15","03_ages_16":"16","03_ages_17":"17","03_ages_18":"18","04":"Yes","04_ages_1":"1","04_ages_2":"2","04_ages_3":"3","04_ages_4":"4","04_ages_5":"5","04_ages_6":"6","04_ages_7":"7","04_ages_8":"8","04_ages_9":"9","04_ages_10":"10","04_ages_11":"11","04_ages_12":"12","04_ages_13":"13","04_ages_14":"14","04_ages_15":"15","04_ages_16":"16","04_ages_17":"17","04_ages_18":"18"},"rt":56928.19999998808,"item_order":[0,1,2,3],"radio_events":[3225.3999999910593,18738.69999998808,29940.89999999106,33257.5],"checkbox_events":[5098.0999999940395,5509.5999999940395,5873.29999999702,6317.5,6801.29999999702,7156.399999991059,7608.5999999940395,8666,9965.89999999106,11597.09999999404,12040.79999999702,12993.5,14107.699999988079,14632.79999999702,15601,16125.09999999404,16657.5,17150.09999999404,19626.5,20022,21660.29999999702,22298.79999999702,22919.39999999106,23347.89999999106,23985.09999999404,24881.5,25324.59999999404,25751.89999999106,26728.59999999404,27366.29999999702,27769.69999998808,34331,34936.19999998808,35380,36219.5,36583.19999998808,37010.29999999702,37672.19999998808,38689,39213.39999999106,40012.69999998808,40480.69999998808,41481.39999999106,41925.5,42514.39999999106,43128.19999998808,43531.59999999404,44032.19999998808,44629.5,45953.29999999702,46494.09999999404,46986.19999998808,47467.39999999106,48060.59999999404,48592.19999998808,49181.19999998808,49576.89999999106,50182.69999998808,50771.39999999106,51329.09999999404,51700.39999999106,52247.69999998808,52789.29999999702,53733.79999999702,54183.59999999404,54968.29999999702,55428.19999998808],"key_events":[],"mouse_events":[2532.2999999970198,3225.3999999910593,5098.0999999940395,5509.5999999940395,5873.29999999702,6317.5,6801.29999999702,7156.399999991059,7608.5999999940395,8053.5,8666,9495.39999999106,9965.89999999106,10336.59999999404,11597.09999999404,12040.79999999702,12589.79999999702,12993.5,13550.199999988079,14107.699999988079,14632.79999999702,15601,16125.09999999404,16657.5,17150.09999999404,18143.5,18738.69999998808,19626.5,20022,20651.69999998808,21660.29999999702,22298.79999999702,22919.39999999106,23347.89999999106,23985.09999999404,24881.5,25324.59999999404,25751.89999999106,26261.09999999404,26728.59999999404,27366.29999999702,27769.69999998808,29940.89999999106,33257.5,34331,34936.19999998808,35380,36219.5,36583.19999998808,37010.29999999702,37672.19999998808,38139.89999999106,38689,39213.39999999106,40012.69999998808,40480.69999998808,40997.39999999106,41481.39999999106,41925.5,42514.39999999106,43128.19999998808,43531.59999999404,44032.19999998808,44629.5,45953.29999999702,46494.09999999404,46986.19999998808,47467.39999999106,48060.59999999404,48592.19999998808,49181.19999998808,49576.89999999106,50182.69999998808,50771.39999999106,51329.09999999404,51700.39999999106,52247.69999998808,52789.29999999702,53160.09999999404,53733.79999999702,54183.59999999404,54573.09999999404,54968.29999999702,55428.19999998808,56921.19999998808],"honeypot":0,"survey":"mace","page":9,"trial_type":"survey-mace","trial_index":17,"time_elapsed":837048,"internal_node_id":"0.0-17.0","task_version":"prescreen-v0.3","browser_interactions":0},{"responses":{"01":"No","02":"No","03":"Yes","03_ages_9":"9","03_ages_10":"10","03_ages_11":"11","03_ages_12":"12","03_ages_13":"13","03_ages_14":"14","03_ages_15":"15","04":"Yes","04_ages_7":"7","04_ages_8":"8","04_ages_9":"9","05":"No","06":"Yes","06_ages_17":"17","07":"Yes","07_ages_7":"7","07_ages_8":"8","07_ages_9":"9","07_ages_10":"10","07_ages_11":"11","07_ages_12":"12","07_ages_13":"13","07_ages_14":"14","07_ages_15":"15","07_ages_16":"16","08":"Yes","08_ages_4":"4","08_ages_5":"5","08_ages_6":"6","08_ages_7":"7","08_ages_8":"8","08_ages_9":"9","08_ages_10":"10","08_ages_11":"11","08_ages_12":"12","08_ages_13":"13","08_ages_14":"14","08_ages_15":"15","08_ages_16":"16","08_ages_17":"17","08_ages_18":"18"},"rt":42464.90000000596,"item_order":[0,1,2,3,4,5,6,7],"radio_events":[3887,6646.5,7783.100000008941,15369.5,19525.60000000894,20784.30000001192,24350.10000000894,32412.90000000596],"checkbox_events":[9366.300000011921,10447.10000000894,10875,11940.70000000298,12327.5,12771.300000011921,14555.5,16298.40000000596,16652.40000000596,17596,22414.10000000894,25908.5,26432.70000000298,26860.5,27295.80000001192,27990,28401.60000000894,28893.80000001192,29475.40000000596,29935.20000000298,31234.40000000596,33365.30000001192,33946.10000000894,34301.70000000298,34914.80000001192,35463.90000000596,35851.30000001192,36230.30000001192,37271.5,37755.90000000596,38538.70000000298,39466.70000000298,39899.80000001192,40434.90000000596,40830.20000000298,41992.70000000298],"key_events":[],"mouse_events":[3887,6646.5,7783.100000008941,9366.300000011921,9883.5,10447.10000000894,10875,11472,11940.70000000298,12327.5,12771.300000011921,14555.5,15369.5,16298.40000000596,16652.40000000596,17056,17596,19525.60000000894,20784.30000001192,22414.10000000894,24350.10000000894,25908.5,26432.70000000298,26860.5,27295.80000001192,27990,28401.60000000894,28893.80000001192,29475.40000000596,29935.20000000298,30580.90000000596,31234.40000000596,32412.90000000596,33365.30000001192,33946.10000000894,34301.70000000298,34914.80000001192,35463.90000000596,35851.30000001192,36230.30000001192,36771.10000000894,37271.5,37755.90000000596,38538.70000000298,39047,39466.70000000298,39899.80000001192,40434.90000000596,40830.20000000298,41992.70000000298,42452.90000000596],"honeypot":0,"survey":"mace","page":10,"trial_type":"survey-mace","trial_index":18,"time_elapsed":879518,"internal_node_id":"0.0-18.0","task_version":"prescreen-v0.3","browser_interactions":0,"instructed":0},{"rt":2291.4000000059605,"trial_type":"mental-health-alert","trial_index":19,"time_elapsed":881812,"internal_node_id":"0.0-19.0","task_version":"prescreen-v0.3","interactions":"[]"}]