[{"view_history":[{"page_index":0,"viewing_time":2970.4000000003725},{"page_index":1,"viewing_time":3305.5},{"page_index":2,"viewing_time":3350.2000000011176},{"page_index":3,"viewing_time":857.2999999988824}],"rt":10484.400000000373,"trial_type":"instructions","trial_index":0,"time_elapsed":10505,"internal_node_id":"0.0-0.0","task_version":"prescreen-v0.3"},{"rt":18955.400000000373,"responses":{"age":"35","gender-categorical":"Male","gender-free-response":"","ethnicity":"Not Hispanic or Latino","race":["White"],"education":"High school","siblings":"1"},"trial_type":"survey-demo","trial_index":1,"time_elapsed":29466,"internal_node_id":"0.0-1.0","task_version":"prescreen-v0.3"},{"responses":{"Q04":"2","Q12":"1","Q18":"1","Q08":"2","Q11":"2","Q14":"1","Q21":"3","Q10":"0","Q01":"2","Q17":"2","Q07":"0","Q03":"2","Q02":"2","Q13":"1","Q06":"1","Q09":"1","Q16":"1","Q15":"1","Q19":"1","Q20":"0","Q05":"1"},"rt":96887,"item_order":[3,11,17,7,10,13,20,9,0,16,6,2,1,12,5,8,15,14,18,19,4],"radio_events":[9102.699999999255,14321.199999999255,17666,21168,23333.199999999255,26022.199999999255,31401.099999999627,34971.09999999963,37292,42246,43702.79999999888,44775.79999999888,46977,48248.79999999888,52631.699999999255,60058.699999999255,62740.699999999255,65485.59999999963,68847.5,72592.39999999851,75134.5,79324.39999999851,84482.19999999925,87088.29999999888,93275.19999999925,93583.19999999925,95928],"key_events":[],"mouse_events":[9102.699999999255,12696.199999999255,13696.299999998882,14321.199999999255,17666,20656.5,21168,23333.199999999255,24754.39999999851,25290.099999999627,25661.89999999851,26022.199999999255,31401.099999999627,34971.09999999963,37292,40746,42246,43702.79999999888,44775.79999999888,46481.09999999963,46977,48248.79999999888,52310.89999999851,52631.699999999255,59358.79999999888,59726.59999999963,60058.699999999255,62740.699999999255,65485.59999999963,68847.5,71572.5,72224.79999999888,72592.39999999851,75134.5,78243.89999999851,78615.29999999888,78980.39999999851,79324.39999999851,84482.19999999925,87088.29999999888,92618.29999999888,93275.19999999925,93583.19999999925,95928,96885],"straightlining":0.47619047619047616,"zigzagging":0.35,"honeypot":0,"survey":"sns","trial_type":"survey-template","trial_index":2,"time_elapsed":126358,"internal_node_id":"0.0-2.0","task_version":"prescreen-v0.3","browser_interactions":0,"infrequency":0},{"responses":{"Q07":"3","Q05":"3","Q04":"2","Q12":"2","Q08":"2","Q02":"2","Q09":"2","Q13":"0","Q06":"2","Q10":"2","Q03":"2","Q11":"2","Q01":"3"},"rt":41162.79999999888,"item_order":[6,4,3,11,7,1,8,12,5,9,2,10,0],"radio_events":[5052,6725,9974.900000000373,13343.799999998882,16049.799999998882,18050.699999999255,19878.599999999627,23440.799999998882,29163.699999999255,31152.599999999627,33689.59999999963,36503.59999999963,40793.199999999255],"key_events":[],"mouse_events":[4103.699999999255,5052,6725,9974.900000000373,13343.799999998882,16049.799999998882,18050.699999999255,19878.599999999627,22480.799999998882,23440.799999998882,29163.699999999255,31152.599999999627,33689.59999999963,35882.699999999255,36503.59999999963,40793.199999999255,41161.5],"straightlining":0.6923076923076923,"zigzagging":0.16666666666666666,"honeypot":0,"survey":"bisbas","trial_type":"survey-template","trial_index":3,"time_elapsed":167524,"internal_node_id":"0.0-3.0","task_version":"prescreen-v0.3","browser_interactions":0,"infrequency":0},{"responses":{"Q01":"2","Q02":"1","Q03":"2"},"rt":43881.5,"radio_events":[34044.199999999255,36953,43244],"key_events":[],"mouse_events":[34044.199999999255,36953,42127.90000000037,42467.90000000037,42887.90000000037,43244,43880.79999999888],"survey":"map","page":1,"trial_type":"survey-map","trial_index":4,"time_elapsed":211410,"internal_node_id":"0.0-4.0","task_version":"prescreen-v0.3","browser_interactions":2},{"responses":{"Q04":"2","Q05":"2","Q06":"2"},"rt":6520,"radio_events":[3189.699999999255,4534.699999999255,5410.799999998882],"key_events":[],"mouse_events":[2809.89999999851,3189.699999999255,3874.7999999988824,4534.699999999255,5410.799999998882,6519.39999999851],"survey":"map","page":2,"trial_type":"survey-map","trial_index":5,"time_elapsed":217932,"internal_node_id":"0.0-5.0","task_version":"prescreen-v0.3","browser_interactions":0},{"responses":{"Q07":"3","Q08":"4","Q09":"1"},"rt":8933.900000000373,"radio_events":[3651.5999999996275,5676.9000000003725,8293.599999999627],"key_events":[],"mouse_events":[3651.5999999996275,5676.9000000003725,7609.0999999996275,8293.599999999627,8933.5],"survey":"map","page":3,"trial_type":"survey-map","trial_index":6,"time_elapsed":226868,"internal_node_id":"0.0-6.0","task_version":"prescreen-v0.3","browser_interactions":0},{"responses":{"Q10":"1","Q11":"0","Q12":"1","Q13":"2","Q16":"0","Q14":"2","Q15":"1"},"rt":27895.299999998882,"radio_events":[2426.89999999851,5411.89999999851,8837.699999999255,14704.599999999627,18029.799999998882,22308.599999999627,27002.5],"key_events":[],"mouse_events":[2426.89999999851,4038.7999999988824,5171.699999999255,5411.89999999851,8269.39999999851,8837.699999999255,14208.599999999627,14704.599999999627,17225.599999999627,17509.39999999851,18029.799999998882,20395.5,22308.599999999627,26177.39999999851,26582.5,27002.5,27894.199999999255],"survey":"map","page":4,"trial_type":"survey-map","trial_index":7,"time_elapsed":254766,"internal_node_id":"0.0-7.0","task_version":"prescreen-v0.3","browser_interactions":0,"infrequency":0},{"view_history":[{"page_index":0,"viewing_time":2289.7999999988824},{"page_index":1,"viewing_time":3470}],"rt":5760.699999999255,"trial_type":"instructions","trial_index":8,"time_elapsed":260528,"internal_node_id":"0.0-8.0","task_version":"prescreen-v0.3"},{"responses":{"01":"No","02":"No","03":"No","04":"No","05":"No","06":"No"},"rt":14556,"item_order":[0,1,2,3,4,5],"radio_events":[2995.5,5768.4000000003725,7677.299999998882,9298.400000000373,11578.900000000373,14064.099999999627],"checkbox_events":[],"key_events":[],"mouse_events":[0.2999999988824129,2995.5,5768.4000000003725,7677.299999998882,9298.400000000373,10578.299999998882,11578.900000000373,14064.099999999627,14553.299999998882],"honeypot":0,"survey":"mace","page":1,"trial_type":"survey-mace","trial_index":9,"time_elapsed":275092,"internal_node_id":"0.0-9.0","task_version":"prescreen-v0.3","browser_interactions":0},{"responses":{"01":"No","02":"No","03":"Yes","03_ages_2":"2","03_ages_3":"3","03_ages_4":"4","03_ages_5":"5","03_ages_6":"6","03_ages_7":"7","03_ages_8":"8","03_ages_9":"9","04":"No","05":"Yes","05_ages_5":"5","05_ages_6":"6","05_ages_7":"7","05_ages_8":"8","05_ages_9":"9","06":"No","07":"No","08":"No"},"rt":38313.59999999963,"item_order":[0,1,2,3,4,5,6,7],"radio_events":[2197.5,4414,5766.0999999996275,7831.4000000003725,23203.200000001118,26645.200000001118,34420.70000000112,36690,37809.90000000037],"checkbox_events":[17124.700000001118,17660,18048.099999999627,18425.200000001118,18781.300000000745,19165.300000000745,19633.200000001118,20914.099999999627,28706.400000000373,29030,30315.300000000745,30815,31487],"key_events":[],"mouse_events":[2197.5,4414,5766.0999999996275,7831.4000000003725,17124.700000001118,17660,18048.099999999627,18425.200000001118,18781.300000000745,19165.300000000745,19633.200000001118,20914.099999999627,21442.099999999627,23203.200000001118,26645.200000001118,28706.400000000373,29030,29573.900000000373,30315.300000000745,30815,31487,32115.099999999627,34420.70000000112,35701.20000000112,36377.90000000037,36690,37809.90000000037,38310],"honeypot":0,"survey":"mace","page":2,"trial_type":"survey-mace","trial_index":10,"time_elapsed":313410,"internal_node_id":"0.0-10.0","task_version":"prescreen-v0.3","browser_interactions":0},{"responses":{"01":"No","02":"No","03":"No","04":"No"},"rt":8743.300000000745,"item_order":[0,1,2,3],"radio_events":[3414.5,4887.5,7496.300000000745,8125.300000000745],"checkbox_events":[],"key_events":[],"mouse_events":[2834.5999999996275,3414.5,4887.5,7496.300000000745,8125.300000000745,8741.5],"honeypot":0,"survey":"mace","page":3,"trial_type":"survey-mace","trial_index":11,"time_elapsed":322156,"internal_node_id":"0.0-11.0","task_version":"prescreen-v0.3","browser_interactions":0},{"responses":{"01":"No","02":"No"},"rt":4570,"item_order":[0,1],"radio_events":[2160,3736.7999999988824],"checkbox_events":[],"key_events":[],"mouse_events":[2160,3736.7999999988824,4320.5999999996275,4569],"honeypot":0,"survey":"mace","page":4,"trial_type":"survey-mace","trial_index":12,"time_elapsed":326729,"internal_node_id":"0.0-12.0","task_version":"prescreen-v0.3","browser_interactions":0},{"responses":{"01":"No","02":"No","03":"No","04":"No","05":"No"},"rt":20351,"item_order":[0,1,2,3,4],"radio_events":[7734.9000000003725,10491.400000000373,13589.800000000745,14577.699999999255,17155.599999999627],"checkbox_events":[],"key_events":[],"mouse_events":[7734.9000000003725,10491.400000000373,13589.800000000745,14577.699999999255,16662.599999999627,17155.599999999627,20348.699999999255],"honeypot":0,"survey":"mace","page":5,"trial_type":"survey-mace","trial_index":13,"time_elapsed":347084,"internal_node_id":"0.0-13.0","task_version":"prescreen-v0.3","browser_interactions":0},{"responses":{"01":"No","02":"No","03":"No","04":"No","05":"No"},"rt":10161.599999999627,"item_order":[0,1,2,3,4],"radio_events":[2291.199999999255,3532.0999999996275,4777,6005.0999999996275,6626],"checkbox_events":[],"key_events":[],"mouse_events":[2291.199999999255,3532.0999999996275,4777,6005.0999999996275,6626,10159.099999999627],"honeypot":0,"survey":"mace","page":6,"trial_type":"survey-mace","trial_index":14,"time_elapsed":357249,"internal_node_id":"0.0-14.0","task_version":"prescreen-v0.3","browser_interactions":0},{"responses":{"01":"No","02":"No","03":"No","04":"No","05":"No","06":"No","07":"No"},"rt":15719.400000000373,"item_order":[0,1,2,3,4,5,6],"radio_events":[2029.5,6884.300000000745,8373.700000001118,10570,12234.800000000745,13683.200000001118,15000],"checkbox_events":[],"key_events":[],"mouse_events":[2029.5,6884.300000000745,8373.700000001118,10570,12234.800000000745,13683.200000001118,15000,15716.099999999627],"honeypot":0,"survey":"mace","page":7,"trial_type":"survey-mace","trial_index":15,"time_elapsed":372974,"internal_node_id":"0.0-15.0","task_version":"prescreen-v0.3","browser_interactions":0},{"responses":{"01":"No","02":"No","03":"No","04":"No"},"rt":29365.599999999627,"item_order":[0,1,2,3],"radio_events":[23624.900000000373,25033.800000000745,26925.800000000745,27750.800000000745],"checkbox_events":[],"key_events":[],"mouse_events":[23624.900000000373,25033.800000000745,26925.800000000745,27750.800000000745,29363.700000001118],"honeypot":0,"survey":"mace","page":8,"trial_type":"survey-mace","trial_index":16,"time_elapsed":402343,"internal_node_id":"0.0-16.0","task_version":"prescreen-v0.3","browser_interactions":0},{"responses":{"01":"Yes","01_ages_1":"1","01_ages_2":"2","01_ages_3":"3","01_ages_4":"4","01_ages_5":"5","01_ages_6":"6","01_ages_7":"7","01_ages_8":"8","01_ages_9":"9","01_ages_10":"10","01_ages_11":"11","01_ages_12":"12","01_ages_13":"13","01_ages_14":"14","01_ages_15":"15","01_ages_16":"16","01_ages_17":"17","01_ages_18":"18","02":"Yes","02_ages_1":"1","02_ages_2":"2","02_ages_3":"3","02_ages_4":"4","02_ages_5":"5","02_ages_6":"6","02_ages_7":"7","02_ages_8":"8","02_ages_9":"9","02_ages_10":"10","02_ages_11":"11","02_ages_12":"12","02_ages_13":"13","02_ages_14":"14","02_ages_15":"15","02_ages_16":"16","02_ages_17":"17","02_ages_18":"18","03":"Yes","03_ages_1":"1","03_ages_2":"2","03_ages_3":"3","03_ages_4":"4","03_ages_5":"5","03_ages_6":"6","03_ages_7":"7","03_ages_8":"8","03_ages_9":"9","03_ages_10":"10","03_ages_11":"11","03_ages_12":"12","03_ages_13":"13","03_ages_14":"14","03_ages_15":"15","03_ages_16":"16","03_ages_17":"17","03_ages_18":"18","04":"Yes","04_ages_1":"1","04_ages_2":"2","04_ages_3":"3","04_ages_4":"4","04_ages_5":"5","04_ages_6":"6","04_ages_7":"7","04_ages_8":"8","04_ages_9":"9","04_ages_10":"10","04_ages_11":"11","04_ages_12":"12","04_ages_13":"13","04_ages_14":"14","04_ages_15":"15","04_ages_16":"16","04_ages_17":"17","04_ages_18":"18"},"rt":55059.10000000149,"item_order":[0,1,2,3],"radio_events":[3219.60000000149,18075.10000000149,31906.300000000745,42047],"checkbox_events":[6489.60000000149,7121.4000000003725,7481.5,9626.700000001118,10047.60000000149,10907.700000001118,11319.700000001118,11671.60000000149,12048.5,12480.300000000745,14005.10000000149,14445.60000000149,14925.60000000149,15314.300000000745,15653.5,16230.400000000373,16694.400000000373,17202.5,19079.400000000373,20148.5,20524.400000000373,20952.400000000373,21596.400000000373,22085.5,22477.400000000373,23189.900000000373,24010.400000000373,24398.300000000745,25090.300000000745,25614.400000000373,26247.5,26615.300000000745,27499.300000000745,27896.5,28565.10000000149,29196.5,33114.20000000112,33526.10000000149,34047.20000000112,34491.20000000112,34971.300000000745,35627.20000000112,35972.20000000112,36292.300000000745,36620.20000000112,37020.20000000112,37496.20000000112,37844.20000000112,38201.300000000745,38557.10000000149,38985.10000000149,39341.20000000112,40502.10000000149,41162.10000000149,43595.20000000112,44600.70000000112,45324,47281,47677,48006.10000000149,48386,48758,48965.90000000037,49554,49979,50418.90000000037,50831.20000000112,51194.90000000037,51527,52180,52816,53479.90000000037,54060.70000000112,54604.90000000037],"key_events":[],"mouse_events":[3219.60000000149,6489.60000000149,7121.4000000003725,7481.5,7866.4000000003725,8714.60000000149,9626.700000001118,10047.60000000149,10647.400000000373,10907.700000001118,11319.700000001118,11671.60000000149,12048.5,12480.300000000745,12972.400000000373,13404.5,14005.10000000149,14445.60000000149,14925.60000000149,15314.300000000745,15653.5,16230.400000000373,16694.400000000373,17202.5,18075.10000000149,19079.400000000373,19535.300000000745,20148.5,20524.400000000373,20952.400000000373,21596.400000000373,22085.5,22477.400000000373,22881.5,23189.900000000373,24010.400000000373,24398.300000000745,24833.900000000373,25090.300000000745,25614.400000000373,25967.200000001118,26247.5,26615.300000000745,26935.10000000149,27499.300000000745,27896.5,28264.300000000745,28565.10000000149,29196.5,29700.200000001118,31906.300000000745,32857.800000000745,33114.20000000112,33526.10000000149,34047.20000000112,34491.20000000112,34971.300000000745,35323.10000000149,35627.20000000112,35972.20000000112,36292.300000000745,36620.20000000112,37020.20000000112,37496.20000000112,37844.20000000112,38201.300000000745,38557.10000000149,38985.10000000149,39341.20000000112,39721.10000000149,39986.10000000149,40210.10000000149,40502.10000000149,40894.20000000112,41162.10000000149,42047,43335,43595.20000000112,44107.800000000745,44600.70000000112,45324,47012.60000000149,47281,47677,48006.10000000149,48386,48758,48965.90000000037,49554,49979,50418.90000000037,50831.20000000112,51194.90000000037,51527,52180,52816,53479.90000000037,54060.70000000112,54604.90000000037,55057.300000000745],"honeypot":0,"survey":"mace","page":9,"trial_type":"survey-mace","trial_index":17,"time_elapsed":457405,"internal_node_id":"0.0-17.0","task_version":"prescreen-v0.3","browser_interactions":0},{"responses":{"01":"No","02":"No","03":"No","04":"No","05":"No","06":"Yes","06_ages_17":"17","07":"Yes","07_ages_1":"1","07_ages_2":"2","07_ages_3":"3","07_ages_4":"4","07_ages_5":"5","07_ages_6":"6","07_ages_7":"7","07_ages_8":"8","07_ages_9":"9","07_ages_10":"10","07_ages_11":"11","07_ages_12":"12","07_ages_13":"13","07_ages_14":"14","07_ages_15":"15","07_ages_16":"16","07_ages_17":"17","07_ages_18":"18","08":"Yes","08_ages_1":"1","08_ages_2":"2","08_ages_3":"3","08_ages_4":"4","08_ages_5":"5","08_ages_6":"6","08_ages_7":"7","08_ages_8":"8","08_ages_9":"9","08_ages_10":"10","08_ages_11":"11","08_ages_12":"12","08_ages_13":"13","08_ages_14":"14","08_ages_15":"15","08_ages_16":"16","08_ages_17":"17","08_ages_18":"18"},"rt":48904.40000000037,"item_order":[0,1,2,3,4,5,6,7],"radio_events":[2202.2999999988824,4128,4771.299999998882,5696.199999999255,7429.0999999996275,8757.199999999255,11066.900000000373,14524,29911.900000000373],"checkbox_events":[12643.099999999627,15641.099999999627,18382,18753.900000000373,20851,21220.199999999255,21723.900000000373,22115.699999999255,23112.900000000373,23753,24249,24797,25341.900000000373,25846.099999999627,26305.900000000373,26753.699999999255,27419,27986.699999999255,28554.900000000373,31580.699999999255,32864.79999999888,33693.699999999255,34345.699999999255,34797.699999999255,35406.59999999963,35850.79999999888,37203.79999999888,37863.699999999255,39059.79999999888,39800.199999999255,40516.699999999255,41132.699999999255,41633.5,42289.40000000037,42801.699999999255,43754.59999999963,44278.59999999963],"key_events":[],"mouse_events":[2202.2999999988824,3019.199999999255,4128,4771.299999998882,5696.199999999255,7429.0999999996275,8113.0999999996275,8757.199999999255,10598.099999999627,11066.900000000373,12247.099999999627,12643.099999999627,14524,15641.099999999627,16097.400000000373,18382,18753.900000000373,19198.900000000373,20046.599999999627,20303.099999999627,20851,21220.199999999255,21723.900000000373,22115.699999999255,22436,22752.099999999627,23112.900000000373,23753,24249,24797,25341.900000000373,25846.099999999627,26305.900000000373,26753.699999999255,27419,27986.699999999255,28554.900000000373,29911.900000000373,31580.699999999255,32172.900000000373,32864.79999999888,33333.79999999888,33693.699999999255,34345.699999999255,34797.699999999255,35406.59999999963,35850.79999999888,36454.90000000037,37203.79999999888,37863.699999999255,38419.79999999888,39059.79999999888,39800.199999999255,40516.699999999255,41132.699999999255,41633.5,42289.40000000037,42801.699999999255,43754.59999999963,44278.59999999963,48900.79999999888],"honeypot":0,"survey":"mace","page":10,"trial_type":"survey-mace","trial_index":18,"time_elapsed":506315,"internal_node_id":"0.0-18.0","task_version":"prescreen-v0.3","browser_interactions":0,"instructed":0},{"rt":15929.099999999627,"trial_type":"mental-health-alert","trial_index":19,"time_elapsed":522246,"internal_node_id":"0.0-19.0","task_version":"prescreen-v0.3","interactions":"[{\"event\":\"blur\",\"trial\":4,\"time\":169688},{\"event\":\"focus\",\"trial\":4,\"time\":197204}]"}]