[{"view_history":[{"page_index":0,"viewing_time":2520},{"page_index":1,"viewing_time":5168},{"page_index":2,"viewing_time":3448},{"page_index":3,"viewing_time":1768}],"rt":12904,"trial_type":"instructions","trial_index":0,"time_elapsed":12906,"internal_node_id":"0.0-0.0","task_version":"prescreen-v0.3"},{"rt":26996,"responses":{"age":"25","gender-categorical":"Male","gender-free-response":"","ethnicity":"Not Hispanic or Latino","race":["Black or African American"],"education":"High school","siblings":"1"},"trial_type":"survey-demo","trial_index":1,"time_elapsed":39908,"internal_node_id":"0.0-1.0","task_version":"prescreen-v0.3"},{"responses":{"Q12":"3","Q10":"3","Q17":"3","Q11":"3","Q07":"3","Q21":"3","Q03":"3","Q01":"3","Q14":"3","Q06":"3","Q20":"3","Q04":"3","Q02":"3","Q18":"3","Q15":"3","Q05":"2","Q19":"3","Q09":"3","Q08":"3","Q13":"3","Q16":"3"},"rt":107573,"item_order":[11,9,16,10,6,20,2,0,13,5,19,3,1,17,14,4,18,8,7,12,15],"radio_events":[10690,14467,16354,18875,19931,27171,31218,35114,60706,61859,65562,72594,73690,76194,81395,85595,87466,91106,92307,95850,96314,98546,99850,102122,106186],"key_events":[],"mouse_events":[3162,3595,5307,5538,5730,6306,8514,10690,13979,14467,16354,17955,18875,19931,25387,26123,26666,27171,31218,34035,34778,35114,58171,60354,60706,61395,61859,64826,65235,65562,68651,72594,73690,75578,76194,81395,85130,85595,87466,91106,92307,95850,96314,98546,99850,102122,105419,106186,107572],"straightlining":0.9523809523809523,"zigzagging":0.1,"honeypot":0,"survey":"sns","trial_type":"survey-template","trial_index":2,"time_elapsed":147484,"internal_node_id":"0.0-2.0","task_version":"prescreen-v0.3","browser_interactions":0,"infrequency":0},{"responses":{"Q12":"0","Q03":"3","Q04":"3","Q01":"3","Q09":"0","Q11":"0","Q06":"3","Q10":"0","Q08":"0","Q02":"3","Q13":"0","Q07":"2","Q05":"2"},"rt":57995,"item_order":[11,2,3,0,8,10,5,9,7,1,12,6,4],"radio_events":[7595,12787,15346,19890,21011,24779,30250,32946,35537,37731,42778,47466,53666,55890,57403],"key_events":[],"mouse_events":[7595,11090,12787,14387,15346,16858,18698,19570,19890,20226,21011,23058,24779,30250,32946,35537,37731,41706,42778,44314,47466,47882,50314,53186,53666,55890,57403,57995],"straightlining":0.46153846153846156,"zigzagging":0.5,"honeypot":0,"survey":"bisbas","trial_type":"survey-template","trial_index":3,"time_elapsed":205482,"internal_node_id":"0.0-3.0","task_version":"prescreen-v0.3","browser_interactions":0,"infrequency":0},{"responses":{"Q01":"0","Q02":"0","Q03":"0"},"rt":18469,"radio_events":[11036,12812,16916],"key_events":[],"mouse_events":[8940,11036,12572,12812,16372,16916,18469],"survey":"map","page":1,"trial_type":"survey-map","trial_index":4,"time_elapsed":223954,"internal_node_id":"0.0-4.0","task_version":"prescreen-v0.3","browser_interactions":0},{"responses":{"Q04":"1","Q05":"1","Q06":"1"},"rt":14134,"radio_events":[7453,7966,8541,9797,12989],"key_events":[],"mouse_events":[7453,7966,8541,9797,11493,11885,12989,14134],"survey":"map","page":2,"trial_type":"survey-map","trial_index":5,"time_elapsed":238090,"internal_node_id":"0.0-5.0","task_version":"prescreen-v0.3","browser_interactions":0},{"responses":{"Q07":"0","Q08":"0","Q09":"0"},"rt":91677,"radio_events":[82925,86189,90284],"key_events":[],"mouse_events":[81085,81484,82925,85021,86189,89844,90284,91677],"survey":"map","page":3,"trial_type":"survey-map","trial_index":6,"time_elapsed":329769,"internal_node_id":"0.0-6.0","task_version":"prescreen-v0.3","browser_interactions":0},{"responses":{"Q10":"0","Q11":"0","Q12":"0","Q13":"0","Q16":"0","Q14":"1","Q15":"1"},"rt":42534,"radio_events":[3894,7485,16150,24502,27685,31237,40734],"key_events":[],"mouse_events":[3894,5774,7485,13341,13653,14014,14190,14349,14677,16150,16806,24502,27685,31237,35294,39238,39533,40493,40734,42534],"survey":"map","page":4,"trial_type":"survey-map","trial_index":7,"time_elapsed":372305,"internal_node_id":"0.0-7.0","task_version":"prescreen-v0.3","browser_interactions":0,"infrequency":0},{"view_history":[{"page_index":0,"viewing_time":2709},{"page_index":1,"viewing_time":2656}],"rt":5365,"trial_type":"instructions","trial_index":8,"time_elapsed":377672,"internal_node_id":"0.0-8.0","task_version":"prescreen-v0.3"},{"responses":{"01":"Yes","01_ages_13":"13","01_ages_14":"14","01_ages_15":"15","01_ages_16":"16","01_ages_17":"17","01_ages_18":"18","02":"Yes","02_ages_13":"13","02_ages_14":"14","02_ages_15":"15","02_ages_16":"16","02_ages_17":"17","02_ages_18":"18","03":"Yes","03_ages_7":"7","03_ages_8":"8","03_ages_9":"9","03_ages_10":"10","03_ages_11":"11","04":"No","05":"No","06":"No"},"rt":67650,"item_order":[0,1,2,3,4,5],"radio_events":[16296,34768,44473,53129,57688,60240,60856],"checkbox_events":[25256,27049,27809,30056,30720,31121,35912,37056,38361,38673,39145,40000,47872,49193,49728,50128,50696],"key_events":[],"mouse_events":[0,2064,5272,12633,14824,16296,25256,27049,27809,28577,29168,29625,30056,30720,31121,34768,35912,36296,36656,37056,38024,38361,38673,39145,39473,40000,44473,47872,48233,49193,49728,50128,50696,53129,55311,57312,57688,59089,59817,60240,60856,67650],"honeypot":0,"survey":"mace","page":1,"trial_type":"survey-mace","trial_index":9,"time_elapsed":445331,"internal_node_id":"0.0-9.0","task_version":"prescreen-v0.3","browser_interactions":0},{"responses":{"01":"No","02":"No","03":"No","04":"No","05":"No","06":"No","07":"No","08":"No"},"rt":17674,"item_order":[0,1,2,3,4,5,6,7],"radio_events":[2783,6423,8384,9888,11871,13255,15254,16159],"checkbox_events":[],"key_events":[],"mouse_events":[2783,5046,6423,8384,9888,11871,12671,13255,15254,16159,17674],"honeypot":0,"survey":"mace","page":2,"trial_type":"survey-mace","trial_index":10,"time_elapsed":463012,"internal_node_id":"0.0-10.0","task_version":"prescreen-v0.3","browser_interactions":0},{"responses":{"01":"No","02":"No","03":"No","04":"No"},"rt":12513,"item_order":[0,1,2,3],"radio_events":[5136,6688,8480,11169,11528],"checkbox_events":[],"key_events":[],"mouse_events":[1928,2993,5136,6688,8480,9344,9993,10736,11169,11528,12513],"honeypot":0,"survey":"mace","page":3,"trial_type":"survey-mace","trial_index":11,"time_elapsed":475529,"internal_node_id":"0.0-11.0","task_version":"prescreen-v0.3","browser_interactions":0},{"responses":{"01":"No","02":"No"},"rt":11157,"item_order":[0,1],"radio_events":[8332,9692],"checkbox_events":[],"key_events":[],"mouse_events":[4148,8332,9044,9692,11157],"honeypot":0,"survey":"mace","page":4,"trial_type":"survey-mace","trial_index":12,"time_elapsed":486688,"internal_node_id":"0.0-12.0","task_version":"prescreen-v0.3","browser_interactions":0},{"responses":{"01":"No","02":"No","03":"No","04":"No","05":"No"},"rt":25483,"item_order":[0,1,2,3,4],"radio_events":[20041,21106,22066,23546,24514],"checkbox_events":[],"key_events":[],"mouse_events":[2298,2514,2722,6161,6522,16794,17154,20041,20730,21106,21714,22066,22666,22994,23546,24258,24514,25483],"honeypot":0,"survey":"mace","page":5,"trial_type":"survey-mace","trial_index":13,"time_elapsed":512178,"internal_node_id":"0.0-13.0","task_version":"prescreen-v0.3","browser_interactions":0},{"responses":{"01":"Yes","01_ages_7":"7","01_ages_8":"8","01_ages_9":"9","01_ages_10":"10","01_ages_11":"11","01_ages_12":"12","01_ages_13":"13","01_ages_14":"14","01_ages_15":"15","01_ages_16":"16","01_ages_17":"17","01_ages_18":"18","02":"Yes","02_ages_7":"7","02_ages_8":"8","02_ages_9":"9","02_ages_10":"10","02_ages_11":"11","02_ages_12":"12","02_ages_13":"13","02_ages_14":"14","02_ages_15":"15","02_ages_16":"16","02_ages_17":"17","02_ages_18":"18","03":"Yes","03_ages_9":"9","03_ages_10":"10","03_ages_11":"11","03_ages_12":"12","03_ages_13":"13","04":"No","05":"Yes","05_ages_7":"7","05_ages_8":"8","05_ages_9":"9","05_ages_10":"10"},"rt":56043,"item_order":[0,1,2,3,4],"radio_events":[7082,23042,36490,48426,54002],"checkbox_events":[8722,9258,10242,10946,11410,11882,12882,15498,16170,17529,18529,19322,24098,24450,24762,25362,26714,27378,28121,29233,30034,30514,32250,32625,39466,39826,40234,41850,42306,49577,50146,51442,52385],"key_events":[],"mouse_events":[3424,3906,7082,8722,9258,9665,10242,10946,11410,11882,12481,12882,13482,14402,15498,16170,17202,17529,18082,18529,18985,19322,22026,22377,22770,23042,24098,24450,24762,25362,25778,26170,26714,27378,27722,28121,28594,28906,29233,29674,30034,30514,31018,31378,31937,32250,32625,36490,39466,39826,40234,40650,41089,41521,41850,42306,48097,48426,49577,50146,51098,51442,51930,52385,54002,56043],"honeypot":0,"survey":"mace","page":6,"trial_type":"survey-mace","trial_index":14,"time_elapsed":568227,"internal_node_id":"0.0-14.0","task_version":"prescreen-v0.3","browser_interactions":0},{"responses":{"01":"No","02":"Yes","02_ages_7":"7","02_ages_8":"8","02_ages_9":"9","02_ages_10":"10","02_ages_11":"11","03":"Yes","03_ages_7":"7","03_ages_8":"8","03_ages_9":"9","03_ages_10":"10","03_ages_11":"11","03_ages_12":"12","04":"No","05":"No","06":"No","07":"No"},"rt":34471,"item_order":[0,1,2,3,4,5,6],"radio_events":[7046,13022,15957,20933,28229,28846,32982,33669],"checkbox_events":[8077,8477,9502,9902,10390,16941,17310,17685,18093,18501,18973],"key_events":[],"mouse_events":[3125,7046,8077,8477,8893,9502,9902,10390,12574,13022,15957,16941,17310,17685,18093,18501,18973,20933,24014,24462,28229,28846,31686,32982,33669,34471],"honeypot":0,"survey":"mace","page":7,"trial_type":"survey-mace","trial_index":15,"time_elapsed":602707,"internal_node_id":"0.0-15.0","task_version":"prescreen-v0.3","browser_interactions":0},{"responses":{"01":"Yes","01_ages_7":"7","01_ages_8":"8","01_ages_9":"9","01_ages_10":"10","01_ages_11":"11","01_ages_12":"12","01_ages_13":"13","01_ages_14":"14","01_ages_15":"15","01_ages_16":"16","01_ages_17":"17","01_ages_18":"18","02":"Yes","02_ages_7":"7","02_ages_8":"8","02_ages_9":"9","02_ages_10":"10","02_ages_11":"11","02_ages_12":"12","02_ages_13":"13","02_ages_14":"14","02_ages_15":"15","02_ages_16":"16","02_ages_17":"17","02_ages_18":"18","03":"Yes","03_ages_7":"7","03_ages_8":"8","03_ages_9":"9","03_ages_10":"10","03_ages_11":"11","03_ages_12":"12","03_ages_13":"13","03_ages_14":"14","03_ages_15":"15","03_ages_16":"16","03_ages_17":"17","03_ages_18":"18","04":"Yes","04_ages_7":"7","04_ages_8":"8","04_ages_9":"9","04_ages_10":"10","04_ages_11":"11","04_ages_12":"12","04_ages_13":"13","04_ages_14":"14","04_ages_15":"15","04_ages_16":"16","04_ages_17":"17","04_ages_18":"18"},"rt":72593,"item_order":[0,1,2,3],"radio_events":[17256,33304,44521,57064],"checkbox_events":[20089,20497,20880,22401,22713,23057,23424,24184,24376,26121,26521,27145,28480,28936,29256,30360,34840,35160,35480,36976,37593,37960,38392,38784,39096,40185,40616,41072,42768,43513,45616,46673,47016,47417,49184,49464,50193,50921,51456,51993,52584,53736,54296,54857,58360,60480,60960,61736,62360,63144,64400,65856,66880,67440,68032,68617],"key_events":[],"mouse_events":[2720,3424,16872,17256,20089,20497,20880,21336,21720,22104,22401,22713,23057,23424,23752,24184,24376,24713,25016,25504,25809,26121,26521,26889,27145,27528,28160,28480,28936,29256,30360,33304,34840,35160,35480,35848,36193,36664,36976,37305,37593,37960,38392,38784,39096,39593,40185,40616,41072,42768,43513,44521,45616,46377,46673,47016,47417,47840,48249,48512,48873,49184,49464,49800,50193,50657,50921,51456,51993,52584,53736,54296,54857,57064,58360,58824,59672,60145,60480,60960,61424,61736,62016,62360,63144,63504,63776,64129,64400,64832,65536,65856,66880,67440,68032,68617,72593],"honeypot":0,"survey":"mace","page":8,"trial_type":"survey-mace","trial_index":16,"time_elapsed":675305,"internal_node_id":"0.0-16.0","task_version":"prescreen-v0.3","browser_interactions":0},{"responses":{"01":"No","02":"No","03":"Yes","03_ages_14":"14","04":"Yes","04_ages_14":"14"},"rt":33731,"item_order":[0,1,2,3],"radio_events":[10985,13985,23866,30177],"checkbox_events":[27705,31561],"key_events":[],"mouse_events":[2825,3089,7833,10985,13985,17346,23393,23866,27705,30177,31081,31561,33731],"honeypot":0,"survey":"mace","page":9,"trial_type":"survey-mace","trial_index":17,"time_elapsed":709041,"internal_node_id":"0.0-17.0","task_version":"prescreen-v0.3","browser_interactions":0},{"responses":{"01":"No","02":"No","03":"No","04":"Yes","04_ages_7":"7","04_ages_8":"8","04_ages_9":"9","04_ages_10":"10","04_ages_11":"11","04_ages_12":"12","04_ages_13":"13","04_ages_14":"14","04_ages_15":"15","04_ages_16":"16","04_ages_17":"17","04_ages_18":"18","05":"No","06":"Yes","06_ages_17":"17","07":"No","08":"No"},"rt":38145,"item_order":[0,1,2,3,4,5,6,7],"radio_events":[3528,5024,7495,12655,23535,28896,33511,36966],"checkbox_events":[13919,14223,14927,15295,15687,16550,16879,17591,17911,18351,18695,19159,25135],"key_events":[],"mouse_events":[3528,5024,7495,11216,11759,12095,12655,13919,14223,14559,14927,15295,15687,16087,16550,16879,17303,17591,17911,18351,18695,19159,23535,25135,28111,28896,32015,33216,33511,34112,36966,38145],"honeypot":0,"survey":"mace","page":10,"trial_type":"survey-mace","trial_index":18,"time_elapsed":747194,"internal_node_id":"0.0-18.0","task_version":"prescreen-v0.3","browser_interactions":0,"instructed":0},{"rt":3762,"trial_type":"mental-health-alert","trial_index":19,"time_elapsed":750960,"internal_node_id":"0.0-19.0","task_version":"prescreen-v0.3","interactions":"[{\"event\":\"focus\",\"trial\":0,\"time\":1}]"}]