[{"view_history":[{"page_index":0,"viewing_time":3062},{"page_index":1,"viewing_time":1993},{"page_index":2,"viewing_time":2694},{"page_index":3,"viewing_time":915}],"rt":8664,"trial_type":"instructions","trial_index":0,"time_elapsed":8670,"internal_node_id":"0.0-0.0","task_version":"prescreen-v0.3"},{"rt":16142,"responses":{"age":"28","gender-categorical":"Male","gender-free-response":"","ethnicity":"Not Hispanic or Latino","race":["Asian"],"education":"Bachelor degree"},"trial_type":"survey-demo","trial_index":1,"time_elapsed":24839,"internal_node_id":"0.0-1.0","task_version":"prescreen-v0.3"},{"responses":{"Q11":"2","Q08":"2","Q03":"0","Q01":"0","Q05":"1","Q21":"2","Q06":"1","Q13":"0","Q09":"1","Q14":"1","Q20":"1","Q07":"0","Q17":"0","Q12":"2","Q18":"0","Q04":"0","Q16":"0","Q10":"2","Q02":"0","Q19":"1","Q15":"1"},"rt":124065,"item_order":[10,7,2,0,4,20,5,12,8,13,19,6,16,11,17,3,15,9,1,18,14],"radio_events":[7504,15625,18506,21266,61669,63633,67127,72367,77720,81494,88608,88656,92148,97569,98571,98604,98633,101064,106616,106660,107239,107283,112423,112466,115162,120503,120568,123090],"key_events":[],"mouse_events":[7504,15625,17963,18506,20141,21266,59990,61669,62347,63633,66794,67127,70446,71403,72367,77720,81494,86702,87565,88608,88656,91647,92148,94697,97569,98571,98604,98633,101064,103626,104521,104585,106616,106660,107239,107283,112423,112466,114453,115162,120503,120568,123090,124065],"straightlining":0.42857142857142855,"zigzagging":0.35,"honeypot":0,"survey":"sns","trial_type":"survey-template","trial_index":2,"time_elapsed":148909,"internal_node_id":"0.0-2.0","task_version":"prescreen-v0.3","browser_interactions":0,"infrequency":0.5},{"responses":{"Q05":"2","Q04":"2","Q08":"3","Q06":"2","Q10":"2","Q03":"2","Q12":"1","Q01":"2","Q02":"1","Q09":"2","Q07":"3","Q13":"0","Q11":"2"},"rt":57454,"item_order":[4,3,7,5,9,2,11,0,1,8,6,12,10],"radio_events":[15642,22523,25808,30047,31661,31707,35428,38739,43040,43086,43867,43912,47747,48674,50852,50899,56766],"key_events":[],"mouse_events":[15642,22047,22523,25808,27911,30047,31661,31707,35428,38739,41622,42654,42706,43040,43086,43867,43912,46660,46736,47747,48674,50852,50899,56766,57454],"straightlining":0.6153846153846154,"zigzagging":0.6666666666666666,"honeypot":0,"survey":"bisbas","trial_type":"survey-template","trial_index":3,"time_elapsed":206367,"internal_node_id":"0.0-3.0","task_version":"prescreen-v0.3","browser_interactions":0,"infrequency":0},{"responses":{"Q01":"4","Q02":"4","Q03":"4"},"rt":15473,"radio_events":[5331,9564,14733],"key_events":[],"mouse_events":[62,5331,9053,9117,9564,14733,15473],"survey":"map","page":1,"trial_type":"survey-map","trial_index":4,"time_elapsed":221843,"internal_node_id":"0.0-4.0","task_version":"prescreen-v0.3","browser_interactions":0},{"responses":{"Q04":"3","Q05":"3","Q06":"2"},"rt":15773,"radio_events":[9226,13017,15228],"key_events":[],"mouse_events":[9226,13017,14672,15228,15773],"survey":"map","page":2,"trial_type":"survey-map","trial_index":5,"time_elapsed":237619,"internal_node_id":"0.0-5.0","task_version":"prescreen-v0.3","browser_interactions":0},{"responses":{"Q07":"2","Q08":"1","Q09":"3"},"rt":10820,"radio_events":[5682,8034,10208],"key_events":[],"mouse_events":[51,5682,8034,10208,10820],"survey":"map","page":3,"trial_type":"survey-map","trial_index":6,"time_elapsed":248443,"internal_node_id":"0.0-6.0","task_version":"prescreen-v0.3","browser_interactions":0},{"responses":{"Q10":"2","Q11":"3","Q12":"1","Q13":"2","Q16":"0","Q14":"3","Q15":"2"},"rt":30016,"radio_events":[4250,8965,13421,18261,18326,20986,26687,29253],"key_events":[],"mouse_events":[41,4250,8965,12352,13421,18261,18326,20986,26687,29253,30016],"survey":"map","page":4,"trial_type":"survey-map","trial_index":7,"time_elapsed":278462,"internal_node_id":"0.0-7.0","task_version":"prescreen-v0.3","browser_interactions":0,"infrequency":0},{"view_history":[{"page_index":0,"viewing_time":2227},{"page_index":1,"viewing_time":3432}],"rt":5660,"trial_type":"instructions","trial_index":8,"time_elapsed":284122,"internal_node_id":"0.0-8.0","task_version":"prescreen-v0.3"},{"responses":{"01":"Yes","01_ages_16":"16","01_ages_17":"17","01_ages_18":"18","02":"No","03":"No","04":"No","05":"No","06":"Yes","06_ages_7":"7","06_ages_8":"8","06_ages_9":"9","06_ages_10":"10","06_ages_11":"11","06_ages_12":"12","06_ages_13":"13","06_ages_14":"14","06_ages_15":"15","06_ages_16":"16"},"rt":53880,"item_order":[0,1,2,3,4,5],"radio_events":[10873,10910,24435,28188,28248,30565,31818,38342],"checkbox_events":[18879,19641,21281,41388,41413,41438,41763,43772,43832,44393,44795,45907,46597,47752,47794,48522,48554,49044,49093,49689,50520,51555,51997,52037,53155],"key_events":[],"mouse_events":[8,46,10873,10910,18879,19256,19322,19641,20021,20479,21281,24435,28188,28248,30565,31818,38342,41388,41413,41438,41763,43772,43832,44393,44795,45907,46597,46932,47752,47794,48148,48522,48554,49044,49093,49689,50520,51555,51997,52037,52804,53155,53879],"honeypot":0,"survey":"mace","page":1,"trial_type":"survey-mace","trial_index":9,"time_elapsed":338018,"internal_node_id":"0.0-9.0","task_version":"prescreen-v0.3","browser_interactions":0},{"responses":{"01":"Yes","01_ages_8":"8","01_ages_9":"9","01_ages_10":"10","01_ages_11":"11","01_ages_12":"12","01_ages_13":"13","01_ages_14":"14","01_ages_15":"15","01_ages_16":"16","02":"No","03":"Yes","03_ages_9":"9","03_ages_10":"10","03_ages_11":"11","03_ages_12":"12","03_ages_13":"13","03_ages_14":"14","03_ages_15":"15","03_ages_16":"16","04":"No","05":"No","06":"No","07":"No","08":"No"},"rt":45594,"item_order":[0,1,2,3,4,5,6,7],"radio_events":[3370,16884,23335,26868,31429,32393,34577,35240],"checkbox_events":[6931,8307,8825,9405,9840,10841,12176,12722,12769,13535,14111,39706,40082,40583,40623,40930,41403,41995,42693,43706,44152],"key_events":[],"mouse_events":[23,3370,6931,7714,8307,8825,9405,9840,10277,10841,11280,12176,12722,12769,13535,14111,16884,23335,26868,31429,32393,33815,34577,35240,39373,39706,40082,40583,40623,40930,41403,41995,42693,43053,43706,44152,45594],"honeypot":0,"survey":"mace","page":2,"trial_type":"survey-mace","trial_index":10,"time_elapsed":383626,"internal_node_id":"0.0-10.0","task_version":"prescreen-v0.3","browser_interactions":0},{"responses":{"01":"No","02":"No","03":"No","04":"No"},"rt":9127,"item_order":[0,1,2,3],"radio_events":[4445,5530,5569,7577,8487],"checkbox_events":[],"key_events":[],"mouse_events":[4445,5530,5569,7577,8487,9127],"honeypot":0,"survey":"mace","page":3,"trial_type":"survey-mace","trial_index":11,"time_elapsed":392763,"internal_node_id":"0.0-11.0","task_version":"prescreen-v0.3","browser_interactions":0},{"responses":{"01":"No","02":"No"},"rt":5169,"item_order":[0,1],"radio_events":[3602,4420],"checkbox_events":[],"key_events":[],"mouse_events":[3602,4420,5169],"honeypot":0,"survey":"mace","page":4,"trial_type":"survey-mace","trial_index":12,"time_elapsed":397937,"internal_node_id":"0.0-12.0","task_version":"prescreen-v0.3","browser_interactions":0},{"responses":{"01":"Yes","01_ages_8":"8","01_ages_9":"9","01_ages_10":"10","01_ages_11":"11","01_ages_12":"12","01_ages_13":"13","01_ages_14":"14","01_ages_15":"15","01_ages_16":"16","02":"No","03":"No","04":"No","05":"No"},"rt":44600,"item_order":[0,1,2,3,4],"radio_events":[14114,35372,37381,42374,43945],"checkbox_events":[18814,20007,20034,20630,21057,22219,22838,22886,23380,23429,24171,24628,25502,25945,26351,26399,27161,27685,28403,28456,29043,29492,30298],"key_events":[],"mouse_events":[14114,18814,19203,20007,20034,20630,21057,21910,22219,22838,22886,23380,23429,24171,24628,25208,25502,25945,26351,26399,27161,27685,28403,28456,29043,29492,30298,35372,37381,38788,38852,42374,43945,44600],"honeypot":0,"survey":"mace","page":5,"trial_type":"survey-mace","trial_index":13,"time_elapsed":442547,"internal_node_id":"0.0-13.0","task_version":"prescreen-v0.3","browser_interactions":0},{"responses":{"01":"Yes","01_ages_6":"6","01_ages_7":"7","01_ages_8":"8","01_ages_9":"9","01_ages_10":"10","01_ages_11":"11","01_ages_12":"12","01_ages_13":"13","01_ages_14":"14","01_ages_15":"15","01_ages_16":"16","02":"Yes","02_ages_6":"6","02_ages_7":"7","02_ages_8":"8","02_ages_9":"9","02_ages_10":"10","02_ages_11":"11","02_ages_12":"12","02_ages_13":"13","02_ages_14":"14","02_ages_15":"15","02_ages_16":"16","03":"Yes","03_ages_10":"10","03_ages_11":"11","03_ages_12":"12","03_ages_13":"13","03_ages_14":"14","03_ages_15":"15","03_ages_16":"16","04":"Yes","04_ages_8":"8","04_ages_9":"9","04_ages_10":"10","04_ages_11":"11","04_ages_12":"12","05":"No"},"rt":136265,"item_order":[0,1,2,3,4],"radio_events":[13927,13970,35072,58928,58974,119824,135701],"checkbox_events":[20097,21301,21828,22310,22760,23525,23569,24444,24880,25356,25402,26814,27433,27485,28338,28788,28834,29211,29272,29893,29947,30963,31944,36510,37223,37802,38199,38259,38825,38869,39335,40119,40154,40953,41921,42420,43277,43758,44362,44418,45822,45869,47009,47636,60235,60855,60904,61515,62355,63109,63585,64792,65520,123448,123513,124121,125086,125147,126662,126695,127336,128074,129419,129455,130412,130470,131289,131917],"key_events":[],"mouse_events":[42,13927,13970,19137,19556,20097,20437,20493,21301,21828,22310,22760,23525,23569,24444,24880,25356,25402,26188,26814,27433,27485,28338,28788,28834,29211,29272,29893,29947,30963,31573,31944,35072,36510,37223,37802,38199,38259,38825,38869,39335,39792,40119,40154,40953,41408,41459,41921,42420,42906,43277,43758,44362,44418,44964,45033,45490,45822,45869,46376,46438,47009,47636,58928,58974,60235,60855,60904,61515,61996,62355,63109,63585,64792,65520,119824,123448,123513,124121,125086,125147,125771,126662,126695,127336,128074,129419,129455,130412,130470,131289,131917,135701,136264],"honeypot":0,"survey":"mace","page":6,"trial_type":"survey-mace","trial_index":14,"time_elapsed":578825,"internal_node_id":"0.0-14.0","task_version":"prescreen-v0.3","browser_interactions":0},{"responses":{"01":"Yes","01_ages_10":"10","01_ages_11":"11","01_ages_12":"12","02":"No","03":"Yes","03_ages_12":"12","03_ages_13":"13","03_ages_14":"14","03_ages_15":"15","04":"No","05":"No","06":"No","07":"No"},"rt":24108,"item_order":[0,1,2,3,4,5,6],"radio_events":[6443,13408,14377,19174,20976,22227,23404],"checkbox_events":[8072,9037,9401,9460,10001,10060,11162,15691,16094,16532,17458],"key_events":[],"mouse_events":[6443,8072,8606,9037,9401,9460,10001,10060,11162,13408,14377,15691,16094,16532,17458,19174,20976,22227,23404,24107],"honeypot":0,"survey":"mace","page":7,"trial_type":"survey-mace","trial_index":15,"time_elapsed":602950,"internal_node_id":"0.0-15.0","task_version":"prescreen-v0.3","browser_interactions":0},{"responses":{"01":"No","02":"No","03":"Yes","03_ages_8":"8","03_ages_9":"9","03_ages_10":"10","03_ages_11":"11","03_ages_12":"12","03_ages_13":"13","03_ages_14":"14","03_ages_15":"15","03_ages_16":"16","03_ages_17":"17","03_ages_18":"18","04":"No"},"rt":29076,"item_order":[0,1,2,3],"radio_events":[10846,10904,12722,17451,28410],"checkbox_events":[18681,19363,19413,21425,21829,22209,22604,23194,23589,23999,24394,24789,25341],"key_events":[],"mouse_events":[10846,10904,12722,17451,18681,19363,19413,21148,21425,21829,22209,22604,23194,23589,23999,24394,24789,25341,28410,29076],"honeypot":0,"survey":"mace","page":8,"trial_type":"survey-mace","trial_index":16,"time_elapsed":632034,"internal_node_id":"0.0-16.0","task_version":"prescreen-v0.3","browser_interactions":0},{"responses":{"01":"Yes","01_ages_1":"1","01_ages_2":"2","01_ages_3":"3","01_ages_4":"4","01_ages_5":"5","01_ages_6":"6","01_ages_7":"7","01_ages_8":"8","01_ages_9":"9","01_ages_10":"10","01_ages_11":"11","01_ages_12":"12","01_ages_13":"13","01_ages_14":"14","01_ages_15":"15","01_ages_16":"16","01_ages_17":"17","01_ages_18":"18","02":"Yes","02_ages_1":"1","02_ages_2":"2","02_ages_3":"3","02_ages_4":"4","02_ages_5":"5","02_ages_6":"6","02_ages_7":"7","02_ages_8":"8","02_ages_9":"9","02_ages_10":"10","02_ages_11":"11","02_ages_12":"12","02_ages_13":"13","02_ages_14":"14","02_ages_15":"15","02_ages_16":"16","02_ages_17":"17","02_ages_18":"18","03":"Yes","03_ages_1":"1","03_ages_2":"2","03_ages_3":"3","03_ages_4":"4","03_ages_5":"5","03_ages_6":"6","03_ages_7":"7","03_ages_8":"8","03_ages_9":"9","03_ages_10":"10","03_ages_11":"11","03_ages_12":"12","03_ages_13":"13","03_ages_14":"14","03_ages_15":"15","03_ages_16":"16","03_ages_17":"17","03_ages_18":"18","04":"Yes","04_ages_1":"1","04_ages_2":"2","04_ages_3":"3","04_ages_4":"4","04_ages_5":"5","04_ages_6":"6","04_ages_7":"7","04_ages_8":"8","04_ages_9":"9","04_ages_10":"10","04_ages_11":"11","04_ages_12":"12","04_ages_13":"13","04_ages_14":"14","04_ages_15":"15","04_ages_16":"16","04_ages_17":"17","04_ages_18":"18"},"rt":101097,"item_order":[0,1,2,3],"radio_events":[5072,21827,69938,85455],"checkbox_events":[7272,7298,7328,7669,8878,8923,9331,10222,11017,11056,11483,11858,12201,12518,12848,13753,14440,15024,15419,16016,16481,16529,17118,17725,18359,19122,22530,22872,23253,23878,24442,24489,24861,25729,25775,26704,27254,27996,28493,28539,29077,29123,29614,29662,30513,31302,32498,33129,33171,34247,34303,35620,35681,36424,37217,37783,37840,38918,39853,40776,41405,42047,71850,72837,73547,73897,74255,75054,75709,76148,76849,77252,78118,78743,79297,79797,80374,80796,81135,81593,87122,87752,88111,88464,88869,89205,90850,91730,92980,93307,94307,95731,96395,96433,96461,96895,97659,98264,98326,99237,99921,100417],"key_events":[],"mouse_events":[5072,7272,7298,7328,7669,8027,8073,8473,8878,8923,9331,9739,10222,11017,11056,11483,11858,12201,12518,12848,13336,13753,14135,14440,15024,15419,16016,16481,16529,17118,17725,18359,19122,21827,22530,22872,23253,23878,24442,24489,24861,25729,25775,26704,27254,27996,28493,28539,29077,29123,29614,29662,30513,31302,32498,33129,33171,33920,34247,34303,35620,35681,36424,37217,37783,37840,38918,39494,39853,40776,41405,42047,69938,71850,72247,72837,73547,73897,74255,74621,75054,75709,76148,76470,76520,76849,77252,78118,78743,79297,79797,80374,80796,81135,81593,85455,86823,87122,87461,87752,88111,88464,88869,89205,89529,89870,90454,90850,91224,91730,92980,93307,93640,94307,94798,94850,95302,95731,96395,96433,96461,96895,97659,98264,98326,99237,99921,100417,101097],"honeypot":0,"survey":"mace","page":9,"trial_type":"survey-mace","trial_index":17,"time_elapsed":733143,"internal_node_id":"0.0-17.0","task_version":"prescreen-v0.3","browser_interactions":0},{"responses":{"01":"No","02":"No","03":"No","04":"Yes","04_ages_10":"10","04_ages_11":"11","04_ages_12":"12","04_ages_13":"13","04_ages_14":"14","04_ages_15":"15","04_ages_16":"16","04_ages_17":"17","04_ages_18":"18","05":"No","06":"Yes","06_ages_17":"17","07":"Yes","07_ages_7":"7","07_ages_8":"8","07_ages_9":"9","07_ages_10":"10","07_ages_11":"11","07_ages_12":"12","07_ages_13":"13","07_ages_14":"14","07_ages_15":"15","07_ages_16":"16","07_ages_17":"17","07_ages_18":"18","08":"Yes","08_ages_15":"15","08_ages_16":"16"},"rt":56822,"item_order":[0,1,2,3,4,5,6,7],"radio_events":[5577,8231,8280,9124,9170,11522,26669,26719,28351,35739,51792,51851],"checkbox_events":[15231,15981,16393,16761,17451,18471,19510,19881,19931,20490,20546,21041,21463,30749,38534,40429,40863,41506,41920,43164,43511,43816,43883,44326,44398,45097,45147,45745,46163,46866,47252,47302,47849,47892,48451,49598,54713,55948,56414,56460],"key_events":[],"mouse_events":[5577,6684,8231,8280,9124,9170,11522,15231,15623,15981,16393,16761,17451,17860,18471,19180,19510,19881,19931,20490,20546,21041,21463,26669,26719,28351,29576,29645,30749,35739,38534,39016,39820,40109,40429,40863,41224,41506,41920,42298,42346,42647,43164,43511,43816,43883,44326,44398,44766,44818,45097,45147,45745,46163,46574,46866,47252,47302,47849,47892,48451,49598,51792,51851,54713,55155,55526,55948,56414,56460,56822],"honeypot":0,"survey":"mace","page":10,"trial_type":"survey-mace","trial_index":18,"time_elapsed":789984,"internal_node_id":"0.0-18.0","task_version":"prescreen-v0.3","browser_interactions":0,"instructed":0},{"rt":10169,"trial_type":"mental-health-alert","trial_index":19,"time_elapsed":800158,"internal_node_id":"0.0-19.0","task_version":"prescreen-v0.3","interactions":"[{\"event\":\"focus\",\"trial\":0,\"time\":3}]"}]