[{"view_history":[{"page_index":0,"viewing_time":5078},{"page_index":1,"viewing_time":4350},{"page_index":2,"viewing_time":6321},{"page_index":3,"viewing_time":3149}],"rt":18899,"trial_type":"instructions","trial_index":0,"time_elapsed":18903,"internal_node_id":"0.0-0.0","task_version":"prescreen-v0.3"},{"rt":19623,"responses":{"age":"49","gender-categorical":"Male","gender-free-response":"","ethnicity":"Not Hispanic or Latino","race":["White"],"education":"Bachelor degree"},"trial_type":"survey-demo","trial_index":1,"time_elapsed":38538,"internal_node_id":"0.0-1.0","task_version":"prescreen-v0.3"},{"responses":{"Q19":"2","Q16":"1","Q02":"0","Q10":"1","Q11":"2","Q06":"2","Q17":"2","Q12":"0","Q03":"2","Q13":"1","Q01":"2","Q14":"2","Q21":"0","Q18":"1","Q09":"1","Q07":"2","Q05":"3","Q08":"2","Q20":"0","Q04":"3","Q15":"2"},"rt":160527,"item_order":[18,15,1,9,10,5,16,11,2,12,0,13,20,17,8,6,4,7,19,3,14],"radio_events":[10147,25450,28477,41846,48687,57251,62799,73479,82786,90123,96196,100150,105678,113721,118378,129224,137076,142268,145414,153686,159003],"key_events":[],"mouse_events":[10147,20443,25450,28477,41846,48687,57251,62799,73479,82786,90123,96196,100150,105678,113721,118378,129224,137076,142268,145414,153686,159003,160527],"straightlining":0.47619047619047616,"zigzagging":0.6,"honeypot":0,"survey":"sns","trial_type":"survey-template","trial_index":2,"time_elapsed":199077,"internal_node_id":"0.0-2.0","task_version":"prescreen-v0.3","browser_interactions":0,"infrequency":1},{"responses":{"Q06":"2","Q11":"3","Q10":"2","Q08":"2","Q07":"3","Q04":"0","Q01":"1","Q02":"2","Q09":"3","Q05":"3","Q12":"1","Q13":"0","Q03":"3"},"rt":96231,"item_order":[5,10,9,7,6,3,0,1,8,4,11,12,2],"radio_events":[21330,27402,36253,40380,42843,50592,53067,58386,63738,71309,76473,80103,90796,94987],"key_events":[],"mouse_events":[21330,27402,36253,40380,42843,50592,53067,58386,63738,71309,75526,76473,80103,88171,90796,94987,96230],"straightlining":0.38461538461538464,"zigzagging":0.75,"honeypot":0,"survey":"bisbas","trial_type":"survey-template","trial_index":3,"time_elapsed":295320,"internal_node_id":"0.0-3.0","task_version":"prescreen-v0.3","browser_interactions":0,"infrequency":0},{"responses":{"Q01":"1","Q02":"1","Q03":"1"},"rt":46866,"radio_events":[19364,34079,43386],"key_events":[],"mouse_events":[19364,34079,43386,46866],"survey":"map","page":1,"trial_type":"survey-map","trial_index":4,"time_elapsed":342196,"internal_node_id":"0.0-4.0","task_version":"prescreen-v0.3","browser_interactions":0},{"responses":{"Q04":"2","Q05":"2","Q06":"3"},"rt":24155,"radio_events":[9691,18122,22330],"key_events":[],"mouse_events":[9691,18122,22330,24155],"survey":"map","page":2,"trial_type":"survey-map","trial_index":5,"time_elapsed":366358,"internal_node_id":"0.0-5.0","task_version":"prescreen-v0.3","browser_interactions":0},{"responses":{"Q07":"4","Q08":"3","Q09":"1"},"rt":42866,"radio_events":[17062,27178,38025],"key_events":[],"mouse_events":[17062,27178,38025,42866],"survey":"map","page":3,"trial_type":"survey-map","trial_index":6,"time_elapsed":409230,"internal_node_id":"0.0-6.0","task_version":"prescreen-v0.3","browser_interactions":0},{"responses":{"Q10":"1","Q11":"4","Q12":"1","Q13":"4","Q16":"0","Q14":"2","Q15":"2"},"rt":65672,"radio_events":[7620,18251,36234,40960,50164,55508,63757],"key_events":[],"mouse_events":[7620,18251,36234,40960,50164,55508,63757,65672],"survey":"map","page":4,"trial_type":"survey-map","trial_index":7,"time_elapsed":474909,"internal_node_id":"0.0-7.0","task_version":"prescreen-v0.3","browser_interactions":0,"infrequency":0},{"view_history":[{"page_index":0,"viewing_time":3223},{"page_index":1,"viewing_time":5422}],"rt":8645,"trial_type":"instructions","trial_index":8,"time_elapsed":483557,"internal_node_id":"0.0-8.0","task_version":"prescreen-v0.3"},{"responses":{"01":"Yes","01_ages_10":"10","01_ages_12":"12","01_ages_14":"14","01_ages_15":"15","01_ages_16":"16","02":"Yes","02_ages_9":"9","02_ages_10":"10","02_ages_11":"11","02_ages_14":"14","02_ages_15":"15","02_ages_16":"16","03":"Yes","03_ages_7":"7","03_ages_8":"8","03_ages_9":"9","03_ages_10":"10","03_ages_11":"11","03_ages_12":"12","03_ages_13":"13","03_ages_14":"14","03_ages_18":"18","04":"No","05":"No","06":"No"},"rt":288159,"item_order":[0,1,2,3,4,5],"radio_events":[18318,91799,171106,220617,224014,274599],"checkbox_events":[32217,46184,49639,50447,67000,69948,109161,117341,121763,123464,136027,140644,145236,148499,150109,183068,190445,192863,194424,195088,202150,203141,204142,207088,214566,218897],"key_events":[],"mouse_events":[0,18318,32217,46184,49639,50447,67000,69948,91799,109161,117341,121763,123464,136027,140644,145236,148499,150109,171106,183068,190445,192863,194424,195088,202150,203141,204142,207088,214566,218897,220617,224014,274599,288159],"honeypot":0,"survey":"mace","page":1,"trial_type":"survey-mace","trial_index":9,"time_elapsed":771726,"internal_node_id":"0.0-9.0","task_version":"prescreen-v0.3","browser_interactions":0},{"responses":{"01":"No","02":"No","03":"Yes","03_ages_5":"5","03_ages_6":"6","03_ages_7":"7","03_ages_8":"8","03_ages_10":"10","03_ages_11":"11","04":"Yes","04_ages_7":"7","04_ages_8":"8","04_ages_10":"10","04_ages_11":"11","05":"Yes","05_ages_7":"7","05_ages_8":"8","05_ages_10":"10","05_ages_11":"11","06":"No","07":"No","08":"No"},"rt":143465,"item_order":[0,1,2,3,4,5,6,7],"radio_events":[15280,20241,27925,78608,110671,135739,138249,141119],"checkbox_events":[40491,45620,46678,50099,59910,80486,101457,105598,120088,120910,122935,125578,127942,131789],"key_events":[],"mouse_events":[15280,20241,27925,40491,45620,46678,50099,59910,78608,80486,101457,105598,110671,120088,120910,122935,125578,127942,131789,135739,138249,141119,143465],"honeypot":0,"survey":"mace","page":2,"trial_type":"survey-mace","trial_index":10,"time_elapsed":915208,"internal_node_id":"0.0-10.0","task_version":"prescreen-v0.3","browser_interactions":0},{"responses":{"01":"Yes","01_ages_16":"16","01_ages_17":"17","02":"Yes","02_ages_16":"16","02_ages_17":"17","03":"No","04":"No"},"rt":82022,"item_order":[0,1,2,3],"radio_events":[15215,61302,68132,78652,81014],"checkbox_events":[25690,28255,41882,44672,70134,77683],"key_events":[],"mouse_events":[15215,25690,28255,41882,44672,61302,68132,70134,77683,78652,81014,82022],"honeypot":0,"survey":"mace","page":3,"trial_type":"survey-mace","trial_index":11,"time_elapsed":997240,"internal_node_id":"0.0-11.0","task_version":"prescreen-v0.3","browser_interactions":0},{"responses":{"01":"No","02":"No"},"rt":22053,"item_order":[0,1],"radio_events":[18167,20642],"checkbox_events":[],"key_events":[],"mouse_events":[18167,20642,22053],"honeypot":0,"survey":"mace","page":4,"trial_type":"survey-mace","trial_index":12,"time_elapsed":1019301,"internal_node_id":"0.0-12.0","task_version":"prescreen-v0.3","browser_interactions":0},{"responses":{"01":"No","02":"No","03":"No","04":"No","05":"No"},"rt":37629,"item_order":[0,1,2,3,4],"radio_events":[17561,21588,26136,32412,35529],"checkbox_events":[],"key_events":[],"mouse_events":[17561,21588,26136,32412,35529,37629],"honeypot":0,"survey":"mace","page":5,"trial_type":"survey-mace","trial_index":13,"time_elapsed":1056940,"internal_node_id":"0.0-13.0","task_version":"prescreen-v0.3","browser_interactions":0},{"responses":{"01":"Yes","01_ages_5":"5","01_ages_6":"6","01_ages_7":"7","01_ages_10":"10","02":"Yes","02_ages_5":"5","02_ages_6":"6","02_ages_8":"8","02_ages_9":"9","03":"No","04":"Yes","04_ages_8":"8","04_ages_9":"9","04_ages_11":"11","05":"Yes","05_ages_5":"5","05_ages_6":"6","05_ages_10":"10","05_ages_11":"11"},"rt":149784,"item_order":[0,1,2,3,4],"radio_events":[13962,43777,82057,87436,116295],"checkbox_events":[19568,20591,24686,33181,54402,55032,58080,58902,72921,76779,95120,95841,103974,120806,122438,129581,133464],"key_events":[],"mouse_events":[13962,19568,20591,24686,33181,43777,54402,55032,58080,58902,72921,76779,82057,87436,95120,95841,103974,116295,120806,122438,129581,133464,149783],"honeypot":0,"survey":"mace","page":6,"trial_type":"survey-mace","trial_index":14,"time_elapsed":1206741,"internal_node_id":"0.0-14.0","task_version":"prescreen-v0.3","browser_interactions":0},{"responses":{"01":"Yes","01_ages_5":"5","01_ages_6":"6","02":"No","03":"Yes","03_ages_5":"5","03_ages_6":"6","03_ages_10":"10","03_ages_11":"11","04":"No","05":"No","06":"Yes","06_ages_8":"8","06_ages_9":"9","07":"Yes","07_ages_8":"8","07_ages_9":"9"},"rt":61525,"item_order":[0,1,2,3,4,5,6],"radio_events":[8052,18832,20722,32366,35145,38576,53855],"checkbox_events":[9211,10089,22365,24265,24951,26796,42502,43358,58547,59357],"key_events":[],"mouse_events":[8052,9211,10089,18832,20722,22365,24265,24951,26796,32366,35145,38576,42502,43358,53855,58547,59357,61525],"honeypot":0,"survey":"mace","page":7,"trial_type":"survey-mace","trial_index":15,"time_elapsed":1268286,"internal_node_id":"0.0-15.0","task_version":"prescreen-v0.3","browser_interactions":0},{"responses":{"01":"No","02":"Yes","02_ages_11":"11","02_ages_12":"12","02_ages_13":"13","02_ages_14":"14","02_ages_15":"15","02_ages_16":"16","02_ages_17":"17","02_ages_18":"18","03":"Yes","03_ages_7":"7","03_ages_8":"8","03_ages_9":"9","03_ages_10":"10","03_ages_11":"11","03_ages_12":"12","03_ages_13":"13","03_ages_14":"14","03_ages_15":"15","03_ages_16":"16","03_ages_17":"17","03_ages_18":"18","04":"No"},"rt":81419,"item_order":[0,1,2,3],"radio_events":[10173,19061,61444,80109],"checkbox_events":[30403,31415,32282,41676,45940,46581,50924,53219,53917,54502,55246,56538,57135,57776,66596,67183,68195,68712,69488,70096,70704,71771,72582,73213,74451,75204],"key_events":[],"mouse_events":[10173,19061,30403,31415,32282,41676,45940,46581,50924,53219,53917,54502,55246,56538,57135,57776,61444,66596,67183,67667,68195,68712,69488,70096,70704,71771,72582,73213,73944,74451,75204,80109,81419],"honeypot":0,"survey":"mace","page":8,"trial_type":"survey-mace","trial_index":16,"time_elapsed":1349715,"internal_node_id":"0.0-16.0","task_version":"prescreen-v0.3","browser_interactions":0},{"responses":{"01":"Yes","01_ages_1":"1","01_ages_2":"2","01_ages_3":"3","01_ages_4":"4","01_ages_5":"5","01_ages_6":"6","01_ages_7":"7","01_ages_8":"8","01_ages_9":"9","01_ages_10":"10","01_ages_11":"11","01_ages_12":"12","01_ages_13":"13","01_ages_14":"14","01_ages_15":"15","01_ages_16":"16","01_ages_17":"17","01_ages_18":"18","02":"Yes","02_ages_1":"1","02_ages_2":"2","02_ages_3":"3","02_ages_4":"4","02_ages_5":"5","02_ages_6":"6","02_ages_7":"7","02_ages_8":"8","02_ages_9":"9","02_ages_10":"10","02_ages_11":"11","02_ages_12":"12","02_ages_13":"13","02_ages_14":"14","02_ages_15":"15","02_ages_16":"16","02_ages_17":"17","02_ages_18":"18","03":"Yes","03_ages_1":"1","03_ages_2":"2","03_ages_3":"3","03_ages_4":"4","03_ages_5":"5","03_ages_6":"6","03_ages_7":"7","03_ages_8":"8","03_ages_9":"9","03_ages_11":"11","03_ages_12":"12","03_ages_13":"13","03_ages_14":"14","04":"Yes","04_ages_1":"1","04_ages_2":"2","04_ages_3":"3","04_ages_4":"4","04_ages_5":"5","04_ages_6":"6","04_ages_7":"7","04_ages_8":"8","04_ages_9":"9","04_ages_10":"10","04_ages_11":"11","04_ages_12":"12","04_ages_13":"13","04_ages_14":"14","04_ages_15":"15","04_ages_16":"16"},"rt":114109,"item_order":[0,1,2,3],"radio_events":[4915,30589,55050,80047],"checkbox_events":[8537,10316,10889,11598,12768,13882,14556,15332,16435,17033,17718,18518,19406,20418,21407,22276,23231,24434,25234,26472,32211,34427,36070,37025,37544,38184,38994,39512,40727,43315,43584,44001,44956,46082,46690,47555,48108,48771,49345,50381,56727,57402,58098,58987,59583,60631,61384,61968,62587,66411,67422,70682,73851,81430,82081,82735,83318,83891,84465,85072,87073,87726,88591,89266,89898,90750,92155,93628,108649],"key_events":[],"mouse_events":[4915,8537,9077,10316,10889,11598,12768,13882,14556,15332,16435,17033,17718,18518,19406,20418,21407,22276,23231,24434,25234,25943,26472,30589,32211,32750,33133,34066,34427,34655,36070,36540,37025,37544,38184,38994,39512,40727,42010,43315,43584,44001,44956,46082,46690,47555,48108,48771,49345,50381,55050,56186,56727,57402,58098,58987,59583,60631,61384,61968,62587,66411,67422,70682,73851,80047,81430,82081,82735,83318,83891,84465,85072,87073,87726,88591,89266,89898,90750,92155,92728,93628,108649,114108],"honeypot":0,"survey":"mace","page":9,"trial_type":"survey-mace","trial_index":17,"time_elapsed":1463834,"internal_node_id":"0.0-17.0","task_version":"prescreen-v0.3","browser_interactions":0},{"responses":{"01":"No","02":"No","03":"Yes","03_ages_10":"10","03_ages_15":"15","03_ages_16":"16","03_ages_17":"17","03_ages_18":"18","04":"No","05":"Yes","05_ages_12":"12","05_ages_13":"13","05_ages_14":"14","05_ages_15":"15","05_ages_16":"16","05_ages_17":"17","05_ages_18":"18","06":"Yes","06_ages_17":"17","07":"Yes","07_ages_1":"1","07_ages_2":"2","07_ages_3":"3","07_ages_4":"4","07_ages_5":"5","07_ages_6":"6","07_ages_7":"7","07_ages_8":"8","07_ages_9":"9","07_ages_10":"10","07_ages_11":"11","07_ages_12":"12","07_ages_13":"13","07_ages_14":"14","07_ages_15":"15","07_ages_16":"16","07_ages_17":"17","07_ages_18":"18","08":"Yes","08_ages_1":"1","08_ages_2":"2","08_ages_3":"3","08_ages_4":"4","08_ages_5":"5","08_ages_6":"6","08_ages_7":"7","08_ages_8":"8","08_ages_9":"9","08_ages_11":"11","08_ages_12":"12","08_ages_13":"13","08_ages_14":"14","08_ages_17":"17","08_ages_18":"18"},"rt":147986,"item_order":[0,1,2,3,4,5,6,7],"radio_events":[13056,14664,18026,32162,37245,68677,74177,95581],"checkbox_events":[22501,25830,26662,27933,28551,51965,52651,53494,54169,54709,55396,55968,57938,62155,69971,77922,78430,79441,79957,80486,81049,81567,82163,82646,83175,84907,85458,86021,86605,87203,88259,88821,89676,103453,104128,104805,105737,106671,114421,116018,117052,121057,122417,125690,130268,134498,138120,139143,140324,141078,146241,146881],"key_events":[],"mouse_events":[13056,14664,18026,22501,25830,26662,27371,27933,28551,32162,37245,51965,52651,53494,54169,54709,55396,55968,57938,62155,68677,69971,74177,77922,78430,78945,79441,79957,80486,81049,81567,82163,82646,83175,83895,84389,84907,85458,86021,86605,87203,88259,88821,89676,95581,103453,104128,104805,105737,106671,114421,116018,117052,121057,122417,125690,130268,134498,138120,139143,140324,141078,146241,146881,147986],"honeypot":0,"survey":"mace","page":10,"trial_type":"survey-mace","trial_index":18,"time_elapsed":1611836,"internal_node_id":"0.0-18.0","task_version":"prescreen-v0.3","browser_interactions":0,"instructed":0},{"rt":11616,"trial_type":"mental-health-alert","trial_index":19,"time_elapsed":1623454,"internal_node_id":"0.0-19.0","task_version":"prescreen-v0.3","interactions":"[]"}]