[{"view_history":[{"page_index":0,"viewing_time":3402.399999976158},{"page_index":1,"viewing_time":2900.399999976158},{"page_index":2,"viewing_time":4878.200000047684},{"page_index":3,"viewing_time":923.0999999046326}],"rt":12104.799999952316,"trial_type":"instructions","trial_index":0,"time_elapsed":12109,"internal_node_id":"0.0-0.0","task_version":"prescreen-v0.3"},{"rt":7632,"responses":{"age":"23","gender-categorical":"Male","gender-free-response":"","ethnicity":"Not Hispanic or Latino","race":["Asian"],"education":"Master degree or higher"},"trial_type":"survey-demo","trial_index":1,"time_elapsed":19745,"internal_node_id":"0.0-1.0","task_version":"prescreen-v0.3"},{"responses":{"Q10":"0","Q04":"1","Q13":"1","Q08":"1","Q03":"2","Q09":"2","Q02":"1","Q19":"1","Q06":"2","Q17":"1","Q11":"1","Q01":"2","Q15":"1","Q21":"3","Q20":"2","Q16":"0","Q18":"0","Q05":"2","Q12":"1","Q14":"0","Q07":"1"},"rt":104009.30000007153,"item_order":[9,3,12,7,2,8,1,18,5,16,10,0,14,20,19,15,17,4,11,13,6],"radio_events":[15201.5,15997.600000023842,18517.5,21191.600000023842,23832.700000047684,29379.700000047684,36930.60000002384,40190.40000009537,51333.40000009537,51597.5,51957.5,53100.300000071526,55484.700000047684,59406.5,60371.60000002384,63756.700000047684,64080.10000002384,68491.5,70957.60000002384,71364.60000002384,76049.40000009537,76782.40000009537,82355.60000002384,90294.60000002384,93750.60000002384,96272,103410.40000009537],"key_events":[],"mouse_events":[11086.900000095367,11471.5,13952.600000023842,14663,14944.600000023842,15201.5,15997.600000023842,18105.800000071526,18517.5,20745.5,21191.600000023842,23832.700000047684,29379.700000047684,36930.60000002384,39848,40190.40000009537,40592.700000047684,48609,49063.5,49524.60000002384,51333.40000009537,51597.5,51957.5,53100.300000071526,55484.700000047684,58464.700000047684,58781,58994.300000071526,59406.5,60163.60000002384,60371.60000002384,63145.5,63756.700000047684,64080.10000002384,67947.70000004768,68218.20000004768,68491.5,70957.60000002384,71364.60000002384,76049.40000009537,76782.40000009537,79836.70000004768,81594.60000002384,81950.30000007153,82355.60000002384,90294.60000002384,93750.60000002384,96272,100092.70000004768,103164.60000002384,103410.40000009537,104007.60000002384],"straightlining":0.47619047619047616,"zigzagging":0.55,"honeypot":0,"survey":"sns","trial_type":"survey-template","trial_index":2,"time_elapsed":123759,"internal_node_id":"0.0-2.0","task_version":"prescreen-v0.3","browser_interactions":0,"infrequency":0},{"responses":{"Q08":"2","Q01":"0","Q11":"1","Q03":"2","Q06":"2","Q05":"2","Q10":"2","Q09":"2","Q04":"2","Q02":"1","Q13":"0","Q07":"2","Q12":"2"},"rt":60103,"item_order":[7,0,10,2,5,4,9,8,3,1,12,6,11],"radio_events":[5396.799999952316,9079.899999976158,22357.600000023842,27575.799999952316,30392.799999952316,36612.199999928474,37232.799999952316,39233.60000002384,42823.39999997616,44986.60000002384,47536.60000002384,51099.799999952316,54428.699999928474,59321],"key_events":[],"mouse_events":[4974.799999952316,5396.799999952316,8717.5,9079.899999976158,20745.899999976158,21151.699999928474,21920.699999928474,22357.600000023842,25996.399999976158,26319.100000023842,26612.5,27575.799999952316,30392.799999952316,35635,35922.89999997616,36413.199999928474,36612.199999928474,37232.799999952316,38923.60000002384,39233.60000002384,42423.60000002384,42823.39999997616,44986.60000002384,47536.60000002384,50633.89999997616,51099.799999952316,53548.799999952316,53918.5,54105.799999952316,54428.699999928474,59321,60102],"straightlining":0.6923076923076923,"zigzagging":0.3333333333333333,"honeypot":0,"survey":"bisbas","trial_type":"survey-template","trial_index":3,"time_elapsed":183866,"internal_node_id":"0.0-3.0","task_version":"prescreen-v0.3","browser_interactions":0,"infrequency":0},{"responses":{"Q01":"2","Q02":"2","Q03":"2"},"rt":15053.899999976158,"radio_events":[7034.800000071526,11083,14546.800000071526],"key_events":[],"mouse_events":[7034.800000071526,10045.700000047684,10740.700000047684,11083,13674,14053.300000071526,14311,14546.800000071526,15053.399999976158],"survey":"map","page":1,"trial_type":"survey-map","trial_index":4,"time_elapsed":198922,"internal_node_id":"0.0-4.0","task_version":"prescreen-v0.3","browser_interactions":0},{"responses":{"Q04":"3","Q05":"3","Q06":"3"},"rt":10350.200000047684,"radio_events":[3521.2000000476837,6778.600000023842,8624.600000023842],"key_events":[],"mouse_events":[3521.2000000476837,5889.600000023842,6448.900000095367,6778.600000023842,8624.600000023842,10349.600000023842],"survey":"map","page":2,"trial_type":"survey-map","trial_index":5,"time_elapsed":209274,"internal_node_id":"0.0-5.0","task_version":"prescreen-v0.3","browser_interactions":0},{"responses":{"Q07":"1","Q08":"0","Q09":"2"},"rt":15339.199999928474,"radio_events":[4693.5,10650.699999928474,13998.099999904633],"key_events":[],"mouse_events":[4387.799999952316,4693.5,10040.199999928474,10421.299999952316,10650.699999928474,13566.699999928474,13998.099999904633,15338.699999928474],"survey":"map","page":3,"trial_type":"survey-map","trial_index":6,"time_elapsed":224615,"internal_node_id":"0.0-6.0","task_version":"prescreen-v0.3","browser_interactions":0},{"responses":{"Q10":"1","Q11":"1","Q12":"3","Q13":"2","Q16":"0","Q14":"3","Q15":"3"},"rt":31876.299999952316,"radio_events":[5654.199999928474,8328.199999928474,13141.5,20511.299999952316,21897.399999976158,24929.699999928474,27876.099999904633,28740.699999928474,31243.599999904633,31478.699999928474],"key_events":[],"mouse_events":[5654.199999928474,7466.599999904633,8032.699999928474,8328.199999928474,12765.699999928474,13141.5,20511.299999952316,21493.599999904633,21897.399999976158,24595.799999952316,24929.699999928474,27876.099999904633,28378.299999952316,28740.699999928474,30791.599999904633,31243.599999904633,31478.699999928474,31875.399999976158],"survey":"map","page":4,"trial_type":"survey-map","trial_index":7,"time_elapsed":256493,"internal_node_id":"0.0-7.0","task_version":"prescreen-v0.3","browser_interactions":0,"infrequency":0},{"view_history":[{"page_index":0,"viewing_time":2548.399999976158},{"page_index":1,"viewing_time":121.89999997615814}],"rt":2670.5999999046326,"trial_type":"instructions","trial_index":8,"time_elapsed":259165,"internal_node_id":"0.0-8.0","task_version":"prescreen-v0.3"},{"responses":{"01":"Yes","01_ages_7":"7","01_ages_8":"8","01_ages_9":"9","01_ages_10":"10","01_ages_11":"11","01_ages_12":"12","01_ages_13":"13","01_ages_14":"14","01_ages_15":"15","01_ages_16":"16","01_ages_17":"17","01_ages_18":"18","02":"Yes","02_ages_7":"7","02_ages_8":"8","02_ages_9":"9","02_ages_10":"10","02_ages_11":"11","02_ages_12":"12","02_ages_13":"13","02_ages_14":"14","02_ages_15":"15","02_ages_16":"16","02_ages_17":"17","02_ages_18":"18","03":"Yes","03_ages_8":"8","03_ages_9":"9","03_ages_10":"10","03_ages_11":"11","03_ages_12":"12","03_ages_13":"13","04":"No","05":"No","06":"No"},"rt":44051.10000002384,"item_order":[0,1,2,3,4,5],"radio_events":[8682.700000047684,20782.5,31407.399999976158,40456.200000047684,42149.299999952316,42509,43712],"checkbox_events":[12902.899999976158,13725.100000023842,14014,14438.399999976158,14838.5,15295.299999952316,15770.5,16068.399999976158,16949.600000023842,17220.100000023842,17558.899999976158,17909.700000047684,22540.5,23448.5,23797.299999952316,24556.200000047684,24975.5,25487,25803.299999952316,26053.399999976158,26459.299999952316,27325,27650.600000023842,28287.799999952316,28604.200000047684,29008.399999976158,32707.100000023842,33836,34175.60000002384,35040.299999952316,35448.299999952316,36784.700000047684,37563.60000002384,38126.5],"key_events":[],"mouse_events":[0.8999999761581421,3996.899999976158,4273.399999976158,7137.399999976158,8381.299999952316,8682.700000047684,12902.899999976158,13177.200000047684,13428.5,13725.100000023842,14014,14438.399999976158,14838.5,15295.299999952316,15770.5,16068.399999976158,16337.5,16638.700000047684,16949.600000023842,17220.100000023842,17558.899999976158,17909.700000047684,20782.5,22540.5,22805.299999952316,23080.100000023842,23448.5,23797.299999952316,24229.200000047684,24556.200000047684,24975.5,25487,25803.299999952316,26053.399999976158,26459.299999952316,26799.5,27325,27650.600000023842,28010.299999952316,28287.799999952316,28604.200000047684,29008.399999976158,30272.399999976158,31407.399999976158,32707.100000023842,33240.299999952316,33836,34175.60000002384,34723,35040.299999952316,35448.299999952316,36784.700000047684,37563.60000002384,38126.5,40456.200000047684,41690.299999952316,42149.299999952316,42509,43185.299999952316,43712,44048.700000047684],"honeypot":0,"survey":"mace","page":1,"trial_type":"survey-mace","trial_index":9,"time_elapsed":303222,"internal_node_id":"0.0-9.0","task_version":"prescreen-v0.3","browser_interactions":0},{"responses":{"01":"No","02":"No","03":"Yes","03_ages_4":"4","03_ages_5":"5","03_ages_6":"6","03_ages_7":"7","03_ages_8":"8","03_ages_9":"9","03_ages_10":"10","03_ages_11":"11","03_ages_12":"12","04":"No","05":"Yes","05_ages_4":"4","05_ages_5":"5","05_ages_6":"6","05_ages_7":"7","05_ages_8":"8","05_ages_9":"9","05_ages_10":"10","05_ages_11":"11","05_ages_12":"12","06":"No","07":"No","08":"No"},"rt":34640.699999928474,"item_order":[0,1,2,3,4,5,6,7],"radio_events":[2711.2999999523163,4636.899999976158,7981.199999928474,18709.199999928474,22205,30629.399999976158,32410.299999952316,34167.799999952316],"checkbox_events":[9373.099999904633,9892.599999904633,10606.199999928474,11405.899999976158,12098.299999952316,12420.799999952316,12703.799999952316,13389.099999904633,13695.799999952316,14440.399999976158,15121.399999976158,23200.899999976158,23731.799999952316,24026.299999952316,24348.299999952316,24650.099999904633,24964.199999928474,25317.799999952316,25710,26131.299999952316],"key_events":[],"mouse_events":[2711.2999999523163,4636.899999976158,7620.299999952316,7981.199999928474,9373.099999904633,9892.599999904633,10294,10606.199999928474,11100.099999904633,11405.899999976158,11691,12098.299999952316,12420.799999952316,12703.799999952316,13023.299999952316,13389.099999904633,13695.799999952316,14090.699999928474,14440.399999976158,15121.399999976158,18709.199999928474,21756.099999904633,22205,23200.899999976158,23731.799999952316,24026.299999952316,24348.299999952316,24650.099999904633,24964.199999928474,25317.799999952316,25710,26131.299999952316,30629.399999976158,31955.5,32410.299999952316,33733.299999952316,34167.799999952316,34638.09999990463],"honeypot":0,"survey":"mace","page":2,"trial_type":"survey-mace","trial_index":10,"time_elapsed":337867,"internal_node_id":"0.0-10.0","task_version":"prescreen-v0.3","browser_interactions":0},{"responses":{"01":"No","02":"No","03":"No","04":"No"},"rt":10918,"item_order":[0,1,2,3],"radio_events":[3874.600000023842,5133,6006.399999976158,6372.300000071526,9379.399999976158],"checkbox_events":[],"key_events":[],"mouse_events":[3686.3000000715256,3874.600000023842,4706.700000047684,5133,6006.399999976158,6372.300000071526,7558.300000071526,9379.399999976158,10916.399999976158],"honeypot":0,"survey":"mace","page":3,"trial_type":"survey-mace","trial_index":11,"time_elapsed":348787,"internal_node_id":"0.0-11.0","task_version":"prescreen-v0.3","browser_interactions":0},{"responses":{"01":"No","02":"No"},"rt":10996.199999928474,"item_order":[0,1],"radio_events":[1977,10608.199999928474],"checkbox_events":[],"key_events":[],"mouse_events":[1977,9794,10366.199999928474,10608.199999928474,10995.399999976158],"honeypot":0,"survey":"mace","page":4,"trial_type":"survey-mace","trial_index":12,"time_elapsed":359785,"internal_node_id":"0.0-12.0","task_version":"prescreen-v0.3","browser_interactions":0},{"responses":{"01":"No","02":"No","03":"No","04":"No","05":"No"},"rt":23467.899999976158,"item_order":[0,1,2,3,4],"radio_events":[12236.799999952316,14049.699999928474,17052.799999952316,17859.699999928474,19166.299999952316],"checkbox_events":[],"key_events":[],"mouse_events":[12236.799999952316,13584.699999928474,14049.699999928474,15071.399999976158,17052.799999952316,17859.699999928474,19166.299999952316,23465.799999952316],"honeypot":0,"survey":"mace","page":5,"trial_type":"survey-mace","trial_index":13,"time_elapsed":383256,"internal_node_id":"0.0-13.0","task_version":"prescreen-v0.3","browser_interactions":0},{"responses":{"01":"Yes","01_ages_6":"6","01_ages_7":"7","01_ages_8":"8","01_ages_9":"9","01_ages_10":"10","01_ages_11":"11","01_ages_12":"12","01_ages_13":"13","02":"Yes","02_ages_6":"6","02_ages_7":"7","02_ages_8":"8","02_ages_9":"9","02_ages_10":"10","02_ages_11":"11","02_ages_12":"12","02_ages_13":"13","03":"Yes","03_ages_6":"6","03_ages_7":"7","03_ages_8":"8","03_ages_9":"9","03_ages_10":"10","03_ages_11":"11","03_ages_12":"12","03_ages_13":"13","04":"Yes","04_ages_6":"6","04_ages_7":"7","04_ages_8":"8","04_ages_9":"9","04_ages_10":"10","04_ages_11":"11","04_ages_12":"12","04_ages_13":"13","05":"Yes","05_ages_6":"6","05_ages_7":"7","05_ages_8":"8","05_ages_9":"9","05_ages_10":"10","05_ages_11":"11"},"rt":53312.10000002384,"item_order":[0,1,2,3,4],"radio_events":[4829.200000047684,17623.899999976158,29295.899999976158,39930.89999997616,47258.800000071526],"checkbox_events":[6643.600000023842,6889.100000023842,7319,7688.100000023842,8320.200000047684,8664,8959.399999976158,9267.200000047684,9557.800000071526,10241.899999976158,10646.899999976158,10921.600000023842,11347.600000023842,11950.100000023842,19062,19951.5,20814,21118.200000047684,21532.100000023842,23135.100000023842,23410.800000071526,23772.800000071526,24125.800000071526,24939.399999976158,25451.100000023842,26375.100000023842,30153.100000023842,30818.899999976158,31187.399999976158,31891.600000023842,32252.5,32789.700000047684,33158.60000002384,34576.89999997616,34852,35259.60000002384,35544.10000002384,36388.60000002384,41328,41606.200000047684,41999.89999997616,42322,43096.10000002384,43360.300000071526,44285.60000002384,44607.700000047684,47992.10000002384,48324.89999997616,48624,49315.5,50528.200000047684,50800.89999997616,51642.10000002384,52253.60000002384],"key_events":[],"mouse_events":[3020.8000000715256,4829.200000047684,6251.800000071526,6643.600000023842,6889.100000023842,7319,7688.100000023842,7971.899999976158,8320.200000047684,8664,8959.399999976158,9267.200000047684,9557.800000071526,9876.700000047684,10241.899999976158,10646.899999976158,10921.600000023842,11347.600000023842,11609.300000071526,11950.100000023842,12461,17190,17623.899999976158,19062,19951.5,20369.800000071526,20814,21118.200000047684,21532.100000023842,22063.100000023842,22430,22776.5,23135.100000023842,23410.800000071526,23772.800000071526,24125.800000071526,24939.399999976158,25451.100000023842,26020,26375.100000023842,28435.100000023842,29295.899999976158,30153.100000023842,30515.200000047684,30818.899999976158,31187.399999976158,31542.800000071526,31891.600000023842,32252.5,32789.700000047684,33158.60000002384,33551,34576.89999997616,34852,35259.60000002384,35544.10000002384,36388.60000002384,39930.89999997616,40854.800000071526,41328,41606.200000047684,41999.89999997616,42322,42718.89999997616,43096.10000002384,43360.300000071526,43674.60000002384,44013.89999997616,44285.60000002384,44607.700000047684,47258.800000071526,47992.10000002384,48324.89999997616,48624,49071.700000047684,49315.5,49670.60000002384,49914.10000002384,50237,50528.200000047684,50800.89999997616,51292.89999997616,51642.10000002384,52253.60000002384,53310.300000071526],"honeypot":0,"survey":"mace","page":6,"trial_type":"survey-mace","trial_index":14,"time_elapsed":436571,"internal_node_id":"0.0-14.0","task_version":"prescreen-v0.3","browser_interactions":0},{"responses":{"01":"Yes","01_ages_6":"6","01_ages_7":"7","01_ages_8":"8","01_ages_9":"9","01_ages_10":"10","01_ages_11":"11","02":"Yes","02_ages_6":"6","02_ages_7":"7","02_ages_8":"8","02_ages_9":"9","02_ages_10":"10","02_ages_11":"11","03":"Yes","03_ages_6":"6","03_ages_7":"7","03_ages_8":"8","03_ages_9":"9","03_ages_10":"10","03_ages_11":"11","04":"Yes","04_ages_6":"6","04_ages_7":"7","04_ages_8":"8","04_ages_9":"9","04_ages_10":"10","04_ages_11":"11","05":"Yes","05_ages_11":"11","05_ages_12":"12","06":"No","07":"No"},"rt":34688.10000002384,"item_order":[0,1,2,3,4,5,6],"radio_events":[3971,4246.300000071526,9154.5,12776.100000023842,18913.900000095367,23783.300000071526,33401.10000002384,33858.90000009537],"checkbox_events":[5253.200000047684,5553.300000071526,5844,6207.200000047684,7099.5,7443.300000071526,9819.200000047684,10156.300000071526,10453.300000071526,10841.800000071526,11233.700000047684,11556.300000071526,13945.200000047684,14653.800000071526,15000.900000095367,15371,15681.200000047684,16408,19488.800000071526,19764,20060.700000047684,20381.900000095367,20707.800000071526,21014.100000023842,24485.900000095367,24899.700000047684,25173.800000071526,25519.700000047684,26107.800000071526,26402.600000023842,27013.700000047684,28466.300000071526,30242.600000023842,30687.100000023842,31084.100000023842,31921],"key_events":[],"mouse_events":[3971,4246.300000071526,5044.100000023842,5253.200000047684,5553.300000071526,5844,6207.200000047684,6515.100000023842,6808.200000047684,7099.5,7443.300000071526,9154.5,9819.200000047684,10156.300000071526,10453.300000071526,10841.800000071526,11233.700000047684,11556.300000071526,12776.100000023842,13603.200000047684,13945.200000047684,14304.100000023842,14653.800000071526,15000.900000095367,15371,15681.200000047684,16055.200000047684,16408,18490.800000071526,18913.900000095367,19488.800000071526,19764,20060.700000047684,20381.900000095367,20707.800000071526,21014.100000023842,22203.100000023842,23783.300000071526,24485.900000095367,24899.700000047684,25173.800000071526,25519.700000047684,26107.800000071526,26402.600000023842,26757.5,27013.700000047684,27293.400000095367,27905.100000023842,28466.300000071526,30242.600000023842,30687.100000023842,31084.100000023842,31589.900000095367,31921,33189.700000047684,33401.10000002384,33858.90000009537,34685.40000009537],"honeypot":0,"survey":"mace","page":7,"trial_type":"survey-mace","trial_index":15,"time_elapsed":471262,"internal_node_id":"0.0-15.0","task_version":"prescreen-v0.3","browser_interactions":0},{"responses":{"01":"Yes","01_ages_5":"5","01_ages_6":"6","01_ages_7":"7","01_ages_8":"8","01_ages_9":"9","01_ages_10":"10","01_ages_11":"11","01_ages_12":"12","02":"Yes","02_ages_5":"5","02_ages_6":"6","02_ages_7":"7","02_ages_8":"8","02_ages_9":"9","02_ages_10":"10","02_ages_11":"11","02_ages_12":"12","03":"Yes","03_ages_4":"4","03_ages_5":"5","03_ages_6":"6","03_ages_7":"7","03_ages_8":"8","03_ages_9":"9","03_ages_10":"10","03_ages_11":"11","03_ages_12":"12","03_ages_13":"13","03_ages_14":"14","03_ages_15":"15","03_ages_16":"16","03_ages_17":"17","03_ages_18":"18","04":"Yes","04_ages_4":"4","04_ages_5":"5","04_ages_6":"6","04_ages_7":"7","04_ages_8":"8","04_ages_9":"9","04_ages_10":"10","04_ages_11":"11","04_ages_12":"12","04_ages_13":"13","04_ages_14":"14","04_ages_15":"15","04_ages_16":"16","04_ages_17":"17","04_ages_18":"18"},"rt":48335.200000047684,"item_order":[0,1,2,3],"radio_events":[9723.600000023842,13565.600000023842,17676.600000023842,18529.600000023842,31591.399999976158,41682.200000047684],"checkbox_events":[19354.899999976158,19663.600000023842,19715.399999976158,20253.899999976158,21409,21762,22038.300000071526,22369,22640.899999976158,23257.5,25397.5,25673.200000047684,26317.300000071526,26629.5,26915.200000047684,27251.600000023842,27614.100000023842,28144,33029.5,33407.5,33719.60000002384,34523.800000071526,35099.700000047684,35675.5,36205.60000002384,36502.300000071526,36807,37107.60000002384,37392.700000047684,37714.200000047684,38092.200000047684,38372.300000071526,38851.300000071526,42530.10000002384,42820.5,43107.39999997616,43395,43746.60000002384,44041.39999997616,44392.60000002384,44683.300000071526,44976.300000071526,45924.5,46314.5,46657.39999997616,47239.5,47527.300000071526,47900.5],"key_events":[],"mouse_events":[9058.300000071526,9388.899999976158,9723.600000023842,13565.600000023842,17676.600000023842,18529.600000023842,19354.899999976158,19663.600000023842,19715.399999976158,19970.300000071526,20253.899999976158,20547.300000071526,21409,21762,22038.300000071526,22369,22640.899999976158,22957.399999976158,23257.5,25397.5,25673.200000047684,25969.600000023842,26317.300000071526,26629.5,26915.200000047684,27251.600000023842,27614.100000023842,28144,31591.399999976158,33029.5,33407.5,33719.60000002384,33997.10000002384,34272.60000002384,34523.800000071526,34806.89999997616,35099.700000047684,35675.5,36205.60000002384,36502.300000071526,36807,37107.60000002384,37392.700000047684,37714.200000047684,38092.200000047684,38372.300000071526,38851.300000071526,40123.300000071526,41682.200000047684,42530.10000002384,42820.5,43107.39999997616,43395,43746.60000002384,44041.39999997616,44392.60000002384,44683.300000071526,44976.300000071526,45305.60000002384,45613.300000071526,45924.5,46314.5,46657.39999997616,46959.60000002384,47239.5,47527.300000071526,47900.5,48333.60000002384],"honeypot":0,"survey":"mace","page":8,"trial_type":"survey-mace","trial_index":16,"time_elapsed":519601,"internal_node_id":"0.0-16.0","task_version":"prescreen-v0.3","browser_interactions":0},{"responses":{"01":"Yes","01_ages_4":"4","01_ages_5":"5","01_ages_6":"6","01_ages_7":"7","01_ages_8":"8","01_ages_9":"9","01_ages_10":"10","01_ages_11":"11","01_ages_12":"12","01_ages_13":"13","01_ages_14":"14","01_ages_15":"15","01_ages_16":"16","01_ages_17":"17","01_ages_18":"18","02":"Yes","02_ages_4":"4","02_ages_5":"5","02_ages_6":"6","02_ages_7":"7","02_ages_8":"8","02_ages_9":"9","02_ages_10":"10","02_ages_11":"11","02_ages_12":"12","02_ages_13":"13","02_ages_14":"14","02_ages_15":"15","02_ages_16":"16","02_ages_17":"17","02_ages_18":"18","03":"Yes","03_ages_4":"4","03_ages_5":"5","03_ages_6":"6","03_ages_7":"7","03_ages_8":"8","03_ages_9":"9","03_ages_10":"10","03_ages_11":"11","03_ages_12":"12","03_ages_13":"13","03_ages_14":"14","03_ages_15":"15","03_ages_16":"16","03_ages_17":"17","03_ages_18":"18","04":"Yes","04_ages_4":"4","04_ages_5":"5","04_ages_6":"6","04_ages_7":"7","04_ages_8":"8","04_ages_9":"9","04_ages_10":"10","04_ages_11":"11","04_ages_12":"12","04_ages_13":"13","04_ages_14":"14","04_ages_15":"15","04_ages_16":"16","04_ages_17":"17","04_ages_18":"18"},"rt":44047.60000002384,"item_order":[0,1,2,3],"radio_events":[4589.399999976158,17078.799999952316,27431.100000023842,36822.89999997616],"checkbox_events":[5669.600000023842,6057.799999952316,6405.299999952316,6692.899999976158,7015.899999976158,7355.199999928474,9087.799999952316,9284.5,9329.699999928474,9910.299999952316,10156.399999976158,10214.899999976158,10523.799999952316,10896.899999976158,11240.600000023842,12374.399999976158,12680.899999976158,13022.600000023842,14130.600000023842,18693.899999976158,19023,19785.899999976158,20117.799999952316,20712.299999952316,21019.600000023842,21329.600000023842,21628.699999928474,21935.899999976158,22271.5,22990.399999976158,23697.299999952316,23966.899999976158,24284.899999976158,24743.699999928474,29084.199999928474,29352,29770.899999976158,30071.899999976158,30367.899999976158,30828.899999976158,31146.299999952316,31428.899999976158,31816.5,32112.799999952316,32382.600000023842,32672.799999952316,33013.199999928474,33310.39999997616,33619.699999928474,37957.60000002384,38716.60000002384,39026,39354.39999997616,39662.799999952316,39981.799999952316,40301.89999997616,40641.89999997616,41337.89999997616,41640.89999997616,41944.799999952316,42274.89999997616,42597.799999952316,42936.89999997616,43274.799999952316],"key_events":[],"mouse_events":[4589.399999976158,5669.600000023842,6057.799999952316,6405.299999952316,6692.899999976158,7015.899999976158,7355.199999928474,7652.899999976158,7950.600000023842,8177.5,8225.5,9087.799999952316,9284.5,9329.699999928474,9910.299999952316,10156.399999976158,10214.899999976158,10523.799999952316,10896.899999976158,11240.600000023842,12374.399999976158,12680.899999976158,13022.600000023842,14130.600000023842,17078.799999952316,18693.899999976158,19023,19331.799999952316,19785.899999976158,20117.799999952316,20470.699999928474,20712.299999952316,21019.600000023842,21329.600000023842,21628.699999928474,21935.899999976158,22271.5,22583.100000023842,22990.399999976158,23431.899999976158,23697.299999952316,23966.899999976158,24284.899999976158,24743.699999928474,27431.100000023842,28537.5,28800.799999952316,29084.199999928474,29352,29770.899999976158,30071.899999976158,30367.899999976158,30828.899999976158,31146.299999952316,31428.899999976158,31816.5,32112.799999952316,32382.600000023842,32672.799999952316,33013.199999928474,33310.39999997616,33619.699999928474,35219,36199.10000002384,36548.39999997616,36822.89999997616,37957.60000002384,38301.199999928474,38716.60000002384,39026,39354.39999997616,39662.799999952316,39981.799999952316,40301.89999997616,40641.89999997616,40985,41337.89999997616,41640.89999997616,41944.799999952316,42274.89999997616,42597.799999952316,42936.89999997616,43274.799999952316,44046],"honeypot":0,"survey":"mace","page":9,"trial_type":"survey-mace","trial_index":17,"time_elapsed":563651,"internal_node_id":"0.0-17.0","task_version":"prescreen-v0.3","browser_interactions":0},{"responses":{"01":"No","02":"No","03":"No","04":"Yes","04_ages_4":"4","04_ages_5":"5","04_ages_6":"6","04_ages_7":"7","04_ages_8":"8","04_ages_9":"9","04_ages_10":"10","04_ages_11":"11","04_ages_12":"12","05":"Yes","05_ages_5":"5","05_ages_6":"6","05_ages_7":"7","05_ages_8":"8","05_ages_9":"9","05_ages_10":"10","05_ages_11":"11","05_ages_12":"12","05_ages_13":"13","05_ages_14":"14","05_ages_15":"15","05_ages_16":"16","05_ages_17":"17","05_ages_18":"18","06":"Yes","06_ages_17":"17","07":"Yes","07_ages_5":"5","07_ages_6":"6","07_ages_7":"7","07_ages_8":"8","07_ages_9":"9","07_ages_10":"10","07_ages_11":"11","07_ages_12":"12","07_ages_13":"13","07_ages_14":"14","07_ages_15":"15","07_ages_16":"16","07_ages_17":"17","07_ages_18":"18","08":"No"},"rt":57123.39999997616,"item_order":[0,1,2,3,4,5,6,7],"radio_events":[2905.899999976158,4103,5791.299999952316,6968.199999928474,17431.299999952316,20120.299999952316,29861.299999952316,38031,46720.699999928474,56387.299999952316],"checkbox_events":[22006.399999976158,22332.899999976158,22675.199999928474,23322.399999976158,23676.199999928474,24022.199999928474,24361.299999952316,25494.199999928474,26518.199999928474,30755.099999904633,31014.399999976158,31320,31742.199999928474,32334.799999952316,32599.199999928474,32887.199999928474,33172,33536.39999997616,33803.299999952316,34094.699999928474,34380.299999952316,35048,35733.59999990463,36095.299999952316,36389.39999997616,39137.299999952316,47953.09999990463,48262.299999952316,48521.5,48806.39999997616,49095.39999997616,49415.09999990463,49970.699999928474,50867,51384.39999997616,51913.299999952316,52063.89999997616,52937.699999928474,53233.5,53513.199999928474,54045.799999952316,54543.199999928474],"key_events":[],"mouse_events":[2905.899999976158,4103,5791.299999952316,6968.199999928474,17431.299999952316,20120.299999952316,21514.199999928474,22006.399999976158,22332.899999976158,22675.199999928474,23013.799999952316,23322.399999976158,23676.199999928474,24022.199999928474,24361.299999952316,25494.199999928474,26518.199999928474,29861.299999952316,30755.099999904633,31014.399999976158,31320,31742.199999928474,32093.299999952316,32334.799999952316,32599.199999928474,32887.199999928474,33172,33536.39999997616,33803.299999952316,34094.699999928474,34380.299999952316,34687.299999952316,35048,35330.199999928474,35733.59999990463,36095.299999952316,36389.39999997616,37663.09999990463,38031,39137.299999952316,46417.299999952316,46720.699999928474,47953.09999990463,48262.299999952316,48521.5,48806.39999997616,49095.39999997616,49415.09999990463,49683.299999952316,49970.699999928474,50269.89999997616,50573.199999928474,50867,51128.699999928474,51384.39999997616,51678,51913.299999952316,52063.89999997616,52333,52655.299999952316,52937.699999928474,53233.5,53513.199999928474,53802.39999997616,54045.799999952316,54245.89999997616,54543.199999928474,56112.199999928474,56387.299999952316,57120.39999997616],"honeypot":0,"survey":"mace","page":10,"trial_type":"survey-mace","trial_index":18,"time_elapsed":620778,"internal_node_id":"0.0-18.0","task_version":"prescreen-v0.3","browser_interactions":0,"instructed":0},{"rt":4032.8000000715256,"trial_type":"mental-health-alert","trial_index":19,"time_elapsed":624813,"internal_node_id":"0.0-19.0","task_version":"prescreen-v0.3","interactions":"[]"}]