[{"view_history":[{"page_index":0,"viewing_time":3820.0999999996275},{"page_index":1,"viewing_time":5606.700000000186},{"page_index":2,"viewing_time":5125.899999999907},{"page_index":3,"viewing_time":2224.2000000001863}],"rt":16778.399999999907,"trial_type":"instructions","trial_index":0,"time_elapsed":16793,"internal_node_id":"0.0-0.0","task_version":"prescreen-v0.3"},{"rt":45275.39999999991,"responses":{"age":"70","gender-categorical":"Male","gender-free-response":"","ethnicity":"Not Hispanic or Latino","race":["White"],"education":"Master degree or higher","siblings":"3"},"trial_type":"survey-demo","trial_index":1,"time_elapsed":62083,"internal_node_id":"0.0-1.0","task_version":"prescreen-v0.3"},{"responses":{"Q09":"1","Q19":"1","Q13":"2","Q01":"1","Q10":"1","Q04":"2","Q11":"1","Q07":"2","Q15":"2","Q20":"1","Q17":"1","Q06":"1","Q16":"1","Q08":"2","Q02":"1","Q05":"1","Q21":"3","Q14":"2","Q18":"1","Q12":"3","Q03":"1"},"rt":211712.7999999998,"item_order":[8,18,12,0,9,3,10,6,14,19,16,5,15,7,1,4,20,13,17,11,2],"radio_events":[7224.799999999814,18444.5,23281.19999999972,32560.5,37167.09999999963,43367.799999999814,48931,115030.5,126757.69999999972,132600.3999999999,136436,142115.19999999972,148394.8999999999,153846.7999999998,160302,172638.2999999998,181015.5,188485.59999999963,195306.89999999944,201563.5,209284.7000000002],"key_events":[],"mouse_events":[7224.799999999814,18444.5,23281.19999999972,32560.5,37167.09999999963,43367.799999999814,48931,115030.5,126757.69999999972,132600.3999999999,136436,142115.19999999972,148394.8999999999,153846.7999999998,160302,172638.2999999998,181015.5,188485.59999999963,195306.89999999944,201563.5,209284.7000000002,211705.7999999998],"straightlining":0.6190476190476191,"zigzagging":0.5,"honeypot":0,"survey":"sns","trial_type":"survey-template","trial_index":2,"time_elapsed":273815,"internal_node_id":"0.0-2.0","task_version":"prescreen-v0.3","browser_interactions":0,"infrequency":0},{"responses":{"Q01":"2","Q13":"0","Q04":"2","Q08":"2","Q03":"3","Q06":"2","Q02":"3","Q07":"3","Q09":"2","Q05":"2","Q11":"2","Q12":"1","Q10":"2"},"rt":95204.79999999981,"item_order":[0,12,3,7,2,5,1,6,8,4,10,11,9],"radio_events":[5686.399999999441,11283,29249.200000000186,38324.5,44782.299999999814,50460.59999999963,55185.700000000186,60484.200000000186,67533.39999999944,71328.20000000019,76505.59999999963,84619.79999999981,91380.59999999963],"key_events":[],"mouse_events":[5686.399999999441,11283,29249.200000000186,38324.5,44782.299999999814,50460.59999999963,55185.700000000186,60484.200000000186,67533.39999999944,71328.20000000019,76505.59999999963,84619.79999999981,91380.59999999963,95200.89999999944],"straightlining":0.6153846153846154,"zigzagging":0.5,"honeypot":0,"survey":"bisbas","trial_type":"survey-template","trial_index":3,"time_elapsed":369030,"internal_node_id":"0.0-3.0","task_version":"prescreen-v0.3","browser_interactions":0,"infrequency":0},{"responses":{"Q01":"2","Q02":"2","Q03":"2"},"rt":38145.40000000037,"radio_events":[12036.100000000559,25297.799999999814,33546.10000000056],"key_events":[],"mouse_events":[12036.100000000559,25297.799999999814,33546.10000000056,38143.5],"survey":"map","page":1,"trial_type":"survey-map","trial_index":4,"time_elapsed":407183,"internal_node_id":"0.0-4.0","task_version":"prescreen-v0.3","browser_interactions":0},{"responses":{"Q04":"1","Q05":"1","Q06":"2"},"rt":34942,"radio_events":[11645.900000000373,20193.5,26876,32832.40000000037],"key_events":[],"mouse_events":[11645.900000000373,20193.5,26876,32832.40000000037,34940.40000000037],"survey":"map","page":2,"trial_type":"survey-map","trial_index":5,"time_elapsed":442131,"internal_node_id":"0.0-5.0","task_version":"prescreen-v0.3","browser_interactions":0},{"responses":{"Q07":"1","Q08":"2","Q09":"2"},"rt":25781.900000000373,"radio_events":[8731.5,14315.900000000373,23908.099999999627],"key_events":[],"mouse_events":[8731.5,14315.900000000373,23908.099999999627,25780],"survey":"map","page":3,"trial_type":"survey-map","trial_index":6,"time_elapsed":467919,"internal_node_id":"0.0-6.0","task_version":"prescreen-v0.3","browser_interactions":0},{"responses":{"Q10":"1","Q11":"1","Q12":"1","Q13":"1","Q16":"0","Q14":"1","Q15":"1"},"rt":54926.299999999814,"radio_events":[5022.799999999814,7711.799999999814,15083,25005.5,35782.89999999944,47426.89999999944,52921.89999999944],"key_events":[],"mouse_events":[5022.799999999814,7711.799999999814,15083,25005.5,35782.89999999944,47426.89999999944,52921.89999999944,54922.799999999814],"survey":"map","page":4,"trial_type":"survey-map","trial_index":7,"time_elapsed":522853,"internal_node_id":"0.0-7.0","task_version":"prescreen-v0.3","browser_interactions":0,"infrequency":0},{"view_history":[{"page_index":0,"viewing_time":4052},{"page_index":1,"viewing_time":5318.4000000003725}],"rt":9372.400000000373,"trial_type":"instructions","trial_index":8,"time_elapsed":532229,"internal_node_id":"0.0-8.0","task_version":"prescreen-v0.3"},{"responses":{"01":"Yes","01_ages_6":"6","01_ages_7":"7","01_ages_8":"8","01_ages_9":"9","01_ages_10":"10","01_ages_11":"11","02":"Yes","02_ages_6":"6","02_ages_7":"7","02_ages_8":"8","02_ages_9":"9","02_ages_10":"10","02_ages_11":"11","02_ages_12":"12","02_ages_13":"13","02_ages_14":"14","03":"Yes","03_ages_6":"6","03_ages_7":"7","03_ages_8":"8","03_ages_9":"9","03_ages_10":"10","03_ages_11":"11","03_ages_12":"12","03_ages_13":"13","03_ages_14":"14","03_ages_15":"15","04":"Yes","04_ages_5":"5","04_ages_6":"6","04_ages_7":"7","04_ages_8":"8","04_ages_9":"9","04_ages_10":"10","04_ages_11":"11","04_ages_12":"12","05":"No","06":"Yes","06_ages_7":"7","06_ages_8":"8","06_ages_9":"9","06_ages_10":"10","06_ages_11":"11","06_ages_12":"12","06_ages_13":"13","06_ages_14":"14"},"rt":108638.79999999981,"item_order":[0,1,2,3,4,5],"radio_events":[13362,43979.299999999814,59023.799999999814,78524.20000000019,92414.29999999981,96843.90000000037],"checkbox_events":[25174.900000000373,25863.700000000186,27342.799999999814,28128.700000000186,28850.400000000373,31107.400000000373,46914.299999999814,47599.799999999814,48337.700000000186,49082.60000000056,49676,50405.40000000037,52012.90000000037,52774.60000000056,54121.10000000056,63501.10000000056,64587.299999999814,65316.299999999814,65949.70000000019,66575.20000000019,67176.10000000056,67801.40000000037,68551,70290.70000000019,71020.10000000056,71797.60000000056,72908,81206.10000000056,82087.90000000037,82713.10000000056,83458.90000000037,84044.29999999981,84745.70000000019,85627.90000000037,87247.20000000019,101587.60000000056,102385.20000000019,103074.10000000056,103732,104333.29999999981,105087.10000000056,105767.20000000019,106580.90000000037],"key_events":[],"mouse_events":[0.20000000018626451,13362,25174.900000000373,25863.700000000186,27342.799999999814,28128.700000000186,28850.400000000373,31107.400000000373,43979.299999999814,46914.299999999814,47599.799999999814,48337.700000000186,49082.60000000056,49676,50405.40000000037,51151.10000000056,52012.90000000037,52774.60000000056,53488,54121.10000000056,59023.799999999814,63501.10000000056,64587.299999999814,65316.299999999814,65949.70000000019,66575.20000000019,67176.10000000056,67801.40000000037,68551,69200.40000000037,70290.70000000019,71020.10000000056,71797.60000000056,72908,78524.20000000019,81206.10000000056,82087.90000000037,82713.10000000056,83458.90000000037,84044.29999999981,84745.70000000019,85627.90000000037,87247.20000000019,92414.29999999981,96843.90000000037,101587.60000000056,102385.20000000019,103074.10000000056,103732,104333.29999999981,105087.10000000056,105767.20000000019,106580.90000000037,108627.70000000019],"honeypot":0,"survey":"mace","page":1,"trial_type":"survey-mace","trial_index":9,"time_elapsed":640887,"internal_node_id":"0.0-9.0","task_version":"prescreen-v0.3","browser_interactions":0},{"responses":{"01":"Yes","01_ages_8":"8","01_ages_9":"9","01_ages_10":"10","01_ages_11":"11","01_ages_12":"12","01_ages_13":"13","01_ages_14":"14","02":"No","03":"Yes","03_ages_8":"8","03_ages_9":"9","03_ages_10":"10","03_ages_11":"11","03_ages_12":"12","03_ages_13":"13","03_ages_14":"14","04":"Yes","04_ages_5":"5","04_ages_6":"6","04_ages_7":"7","04_ages_8":"8","04_ages_9":"9","05":"Yes","05_ages_8":"8","05_ages_9":"9","05_ages_10":"10","05_ages_11":"11","05_ages_12":"12","05_ages_13":"13","05_ages_14":"14","05_ages_15":"15","06":"No","07":"No","08":"No"},"rt":91605,"item_order":[0,1,2,3,4,5,6,7],"radio_events":[5225.799999999814,29555.5,32277.199999999255,54896.59999999963,63515.59999999963,84715.29999999981,86872.09999999963,90026.29999999981],"checkbox_events":[9774.5,10604.399999999441,11293.899999999441,11959.199999999255,12568.5,13297.899999999441,14556.899999999441,34441.5,35211.09999999963,35864.39999999944,36489.799999999814,37091.09999999963,37700.299999999814,40586.799999999814,56477,57342.799999999814,57988.39999999944,58661.799999999814,59679.89999999944,67937.89999999944,68627.09999999963,69260.39999999944,69926,70728.19999999925,71397.69999999925,72175.29999999981,81215.5],"key_events":[],"mouse_events":[5225.799999999814,9774.5,10604.399999999441,11293.899999999441,11959.199999999255,12568.5,13297.899999999441,14556.899999999441,29555.5,32277.199999999255,34441.5,35211.09999999963,35864.39999999944,36489.799999999814,37091.09999999963,37700.299999999814,38486.09999999963,40586.799999999814,54896.59999999963,56477,57342.799999999814,57988.39999999944,58661.799999999814,59679.89999999944,63515.59999999963,67937.89999999944,68627.09999999963,69260.39999999944,69926,70728.19999999925,71397.69999999925,72175.29999999981,81215.5,84715.29999999981,86872.09999999963,90026.29999999981,91591],"honeypot":0,"survey":"mace","page":2,"trial_type":"survey-mace","trial_index":10,"time_elapsed":732503,"internal_node_id":"0.0-10.0","task_version":"prescreen-v0.3","browser_interactions":0},{"responses":{"01":"Yes","01_ages_10":"10","01_ages_11":"11","01_ages_12":"12","01_ages_13":"13","01_ages_14":"14","01_ages_15":"15","01_ages_16":"16","02":"Yes","02_ages_10":"10","02_ages_12":"12","02_ages_14":"14","02_ages_15":"15","02_ages_16":"16","03":"No","04":"No"},"rt":45228.59999999963,"item_order":[0,1,2,3],"radio_events":[10935.900000000373,25668.400000000373,41856.700000000186,44106.200000000186],"checkbox_events":[15366,15999.099999999627,17671,18344.799999999814,19041.900000000373,19691.400000000373,20581.299999999814,27372.200000000186,32026.400000000373,34728.40000000037,35438.5,36240],"key_events":[],"mouse_events":[10935.900000000373,15366,15999.099999999627,16889,17671,18344.799999999814,19041.900000000373,19691.400000000373,20581.299999999814,25668.400000000373,27372.200000000186,32026.400000000373,34728.40000000037,35438.5,36240,41856.700000000186,44106.200000000186,45221.200000000186],"honeypot":0,"survey":"mace","page":3,"trial_type":"survey-mace","trial_index":11,"time_elapsed":777738,"internal_node_id":"0.0-11.0","task_version":"prescreen-v0.3","browser_interactions":0},{"responses":{"01":"No","02":"No"},"rt":12103,"item_order":[0,1],"radio_events":[6742.799999999814,8968.099999999627],"checkbox_events":[],"key_events":[],"mouse_events":[6742.799999999814,8968.099999999627,12099.299999999814],"honeypot":0,"survey":"mace","page":4,"trial_type":"survey-mace","trial_index":12,"time_elapsed":789846,"internal_node_id":"0.0-12.0","task_version":"prescreen-v0.3","browser_interactions":0},{"responses":{"01":"Yes","01_ages_8":"8","01_ages_9":"9","01_ages_10":"10","01_ages_11":"11","01_ages_12":"12","01_ages_13":"13","02":"Yes","02_ages_8":"8","02_ages_9":"9","02_ages_10":"10","02_ages_11":"11","02_ages_12":"12","02_ages_13":"13","03":"No","04":"No","05":"No"},"rt":75668.20000000019,"item_order":[0,1,2,3,4],"radio_events":[29796.39999999944,42324.89999999944,56334.89999999944,61433.200000000186,72728],"checkbox_events":[32574.799999999814,33256.39999999944,34082.299999999814,34715.700000000186,35533.5,36748.39999999944,43664.39999999944,44430.200000000186,45480.799999999814,46635.799999999814,48135.09999999963,48909],"key_events":[],"mouse_events":[29796.39999999944,32574.799999999814,33256.39999999944,34082.299999999814,34715.700000000186,35533.5,36748.39999999944,42324.89999999944,43664.39999999944,44430.200000000186,45480.799999999814,46635.799999999814,47301,48135.09999999963,48909,56334.89999999944,61433.200000000186,72728,75658.70000000019],"honeypot":0,"survey":"mace","page":5,"trial_type":"survey-mace","trial_index":13,"time_elapsed":865523,"internal_node_id":"0.0-13.0","task_version":"prescreen-v0.3","browser_interactions":0},{"responses":{"01":"Yes","01_ages_12":"12","01_ages_13":"13","01_ages_14":"14","01_ages_15":"15","01_ages_16":"16","02":"Yes","02_ages_12":"12","02_ages_13":"13","02_ages_14":"14","02_ages_15":"15","02_ages_16":"16","03":"No","04":"No","05":"Yes","05_ages_9":"9","05_ages_10":"10","05_ages_11":"11"},"rt":63781.90000000037,"item_order":[0,1,2,3,4],"radio_events":[16101,25265.900000000373,41864.299999999814,50707.90000000037,56316.59999999963],"checkbox_events":[18944,19553.5,20283,20932.5,21574,29407.799999999814,30145.5,31697.5,32427,34391.299999999814,59736.200000000186,60425.799999999814,61231.700000000186],"key_events":[],"mouse_events":[16101,18944,19553.5,20283,20932.5,21574,25265.900000000373,29407.799999999814,30145.5,30987.5,31697.5,32427,34391.299999999814,41864.299999999814,50707.90000000037,56316.59999999963,59736.200000000186,60425.799999999814,61231.700000000186,63773.59999999963],"honeypot":0,"survey":"mace","page":6,"trial_type":"survey-mace","trial_index":14,"time_elapsed":929314,"internal_node_id":"0.0-14.0","task_version":"prescreen-v0.3","browser_interactions":0},{"responses":{"01":"No","02":"No","03":"No","04":"No","05":"No","06":"No","07":"No"},"rt":32059.60000000056,"item_order":[0,1,2,3,4,5,6],"radio_events":[4906.5,8013.600000000559,20048.700000000186,22794.5,26495.200000000186,28604,30677],"checkbox_events":[],"key_events":[],"mouse_events":[4906.5,8013.600000000559,20048.700000000186,22794.5,26495.200000000186,28604,30677,32048.400000000373],"honeypot":0,"survey":"mace","page":7,"trial_type":"survey-mace","trial_index":15,"time_elapsed":961379,"internal_node_id":"0.0-15.0","task_version":"prescreen-v0.3","browser_interactions":0},{"responses":{"01":"No","02":"Yes","02_ages_6":"6","02_ages_7":"7","02_ages_8":"8","02_ages_9":"9","02_ages_10":"10","02_ages_11":"11","02_ages_12":"12","02_ages_13":"13","02_ages_14":"14","02_ages_15":"15","02_ages_16":"16","02_ages_17":"17","03":"Yes","03_ages_6":"6","03_ages_7":"7","03_ages_8":"8","03_ages_9":"9","03_ages_10":"10","03_ages_11":"11","03_ages_12":"12","03_ages_13":"13","03_ages_14":"14","03_ages_15":"15","03_ages_16":"16","03_ages_17":"17","03_ages_18":"18","04":"Yes","04_ages_6":"6","04_ages_7":"7","04_ages_8":"8","04_ages_9":"9","04_ages_10":"10","04_ages_11":"11","04_ages_12":"12","04_ages_13":"13","04_ages_14":"14","04_ages_15":"15","04_ages_16":"16","04_ages_17":"17","04_ages_18":"18"},"rt":83270.19999999925,"item_order":[0,1,2,3],"radio_events":[16277.299999999814,21773.599999999627,41608.699999999255,62510.09999999963],"checkbox_events":[27652,28333.5,28999,29600.5,30217.89999999944,30827.199999999255,31464.599999999627,32098.199999999255,33412.59999999963,34151.299999999814,34752.59999999963,35726.59999999963,45100.199999999255,45934.59999999963,46599.89999999944,47394.199999999255,48111.299999999814,48744.89999999944,49362.09999999963,50083.799999999814,50741.299999999814,51398.89999999944,52060.299999999814,52725.799999999814,53383.199999999255,64691.799999999814,65441.299999999814,66091,66796.69999999925,67454.19999999925,68184.39999999944,68825.39999999944,69454.89999999944,70072.29999999981,70802,71539.69999999925,72365.5,73175.69999999925],"key_events":[],"mouse_events":[16277.299999999814,21773.599999999627,27652,28333.5,28999,29600.5,30217.89999999944,30827.199999999255,31464.599999999627,32098.199999999255,32763.89999999944,33412.59999999963,34151.299999999814,34752.59999999963,35726.59999999963,41608.699999999255,45100.199999999255,45934.59999999963,46599.89999999944,47394.199999999255,48111.299999999814,48744.89999999944,49362.09999999963,50083.799999999814,50741.299999999814,51398.89999999944,52060.299999999814,52725.799999999814,53383.199999999255,62510.09999999963,64691.799999999814,65441.299999999814,66091,66796.69999999925,67454.19999999925,68184.39999999944,68825.39999999944,69454.89999999944,70072.29999999981,70802,71539.69999999925,72365.5,73175.69999999925,83262.69999999925],"honeypot":0,"survey":"mace","page":8,"trial_type":"survey-mace","trial_index":16,"time_elapsed":1044656,"internal_node_id":"0.0-16.0","task_version":"prescreen-v0.3","browser_interactions":0},{"responses":{"01":"Yes","01_ages_5":"5","01_ages_6":"6","01_ages_7":"7","01_ages_8":"8","01_ages_9":"9","01_ages_10":"10","01_ages_11":"11","01_ages_12":"12","01_ages_13":"13","01_ages_14":"14","01_ages_15":"15","01_ages_16":"16","01_ages_17":"17","01_ages_18":"18","02":"Yes","02_ages_5":"5","02_ages_6":"6","02_ages_7":"7","02_ages_8":"8","02_ages_9":"9","02_ages_10":"10","02_ages_11":"11","02_ages_12":"12","02_ages_13":"13","02_ages_14":"14","02_ages_15":"15","02_ages_16":"16","02_ages_17":"17","02_ages_18":"18","03":"Yes","03_ages_1":"1","03_ages_2":"2","03_ages_3":"3","03_ages_5":"5","03_ages_6":"6","03_ages_7":"7","03_ages_8":"8","03_ages_9":"9","03_ages_10":"10","03_ages_11":"11","03_ages_12":"12","03_ages_13":"13","03_ages_14":"14","03_ages_15":"15","03_ages_16":"16","03_ages_17":"17","03_ages_18":"18","04":"Yes","04_ages_1":"1","04_ages_2":"2","04_ages_3":"3","04_ages_5":"5","04_ages_6":"6","04_ages_7":"7","04_ages_8":"8","04_ages_9":"9","04_ages_10":"10","04_ages_11":"11","04_ages_12":"12","04_ages_13":"13","04_ages_14":"14","04_ages_15":"15","04_ages_16":"16","04_ages_17":"17","04_ages_18":"18"},"rt":106243,"item_order":[0,1,2,3],"radio_events":[5844,28730.199999999255,42519,84807.19999999925],"checkbox_events":[13800,14601.899999999441,15263.399999999441,15913.099999999627,16634.599999999627,17324.199999999255,18005.39999999944,18671.299999999814,19300.599999999627,19950.199999999255,20583.599999999627,21321.199999999255,22989,24917.199999999255,30277.89999999944,31047.799999999814,31653.599999999627,32455.299999999814,33128.799999999814,33754,34387.799999999814,35021.39999999944,35658.89999999944,36324.699999999255,37094.39999999944,37751.89999999944,38465.59999999963,39195.299999999814,44849.199999999255,45915.09999999963,46572.799999999814,47583.39999999944,50177.299999999814,53052.699999999255,56196,57310.5,59006.5,60634.199999999255,61588.09999999963,62281.799999999814,63011.299999999814,63644.5,64397.89999999944,65087.699999999255,65953.39999999944,66823.5,73105.59999999963,74163.79999999981,79712,87553.69999999925,89245.09999999963,90376,92079.29999999981,92760.89999999944,93475.09999999963,94228.29999999981,94982,96517,98120.79999999981,98761.89999999944,99764.09999999963,100490,101179.59999999963,102518.59999999963,103600.79999999981,105168.59999999963],"key_events":[],"mouse_events":[5844,13800,14601.899999999441,15263.399999999441,15913.099999999627,16634.599999999627,17324.199999999255,18005.39999999944,18671.299999999814,19300.599999999627,19950.199999999255,20583.599999999627,21321.199999999255,22989,24917.199999999255,28730.199999999255,30277.89999999944,31047.799999999814,31653.599999999627,32455.299999999814,33128.799999999814,33754,34387.799999999814,35021.39999999944,35658.89999999944,36324.699999999255,37094.39999999944,37751.89999999944,38465.59999999963,39195.299999999814,42519,44849.199999999255,45915.09999999963,46572.799999999814,47583.39999999944,50177.299999999814,53052.699999999255,56196,57310.5,58164.59999999963,59006.5,59688,60634.199999999255,61588.09999999963,62281.799999999814,63011.299999999814,63644.5,64397.89999999944,65087.699999999255,65953.39999999944,66823.5,73105.59999999963,74163.79999999981,79712,84807.19999999925,87553.69999999925,89245.09999999963,90376,92079.29999999981,92760.89999999944,93475.09999999963,94228.29999999981,94982,95707.5,96517,97246.5,98120.79999999981,98761.89999999944,99764.09999999963,100490,101179.59999999963,102518.59999999963,103600.79999999981,104467,105168.59999999963,106235.69999999925],"honeypot":0,"survey":"mace","page":9,"trial_type":"survey-mace","trial_index":17,"time_elapsed":1150908,"internal_node_id":"0.0-17.0","task_version":"prescreen-v0.3","browser_interactions":0},{"responses":{"01":"Yes","01_ages_5":"5","01_ages_6":"6","01_ages_7":"7","01_ages_8":"8","01_ages_9":"9","01_ages_10":"10","01_ages_11":"11","01_ages_12":"12","01_ages_13":"13","01_ages_14":"14","02":"No","03":"Yes","03_ages_5":"5","03_ages_6":"6","03_ages_7":"7","03_ages_8":"8","03_ages_9":"9","03_ages_10":"10","03_ages_11":"11","03_ages_12":"12","03_ages_13":"13","03_ages_14":"14","03_ages_15":"15","03_ages_16":"16","03_ages_17":"17","03_ages_18":"18","04":"Yes","04_ages_5":"5","04_ages_6":"6","04_ages_7":"7","04_ages_8":"8","04_ages_9":"9","04_ages_10":"10","04_ages_11":"11","04_ages_12":"12","04_ages_13":"13","04_ages_14":"14","04_ages_15":"15","04_ages_16":"16","05":"Yes","05_ages_5":"5","05_ages_6":"6","05_ages_7":"7","05_ages_8":"8","05_ages_9":"9","05_ages_10":"10","05_ages_11":"11","05_ages_12":"12","05_ages_13":"13","05_ages_14":"14","05_ages_15":"15","06":"Yes","06_ages_17":"17","07":"No","08":"No"},"rt":110137.10000000056,"item_order":[0,1,2,3,4,5,6,7],"radio_events":[6619.700000000186,33363,35821.10000000056,53180.40000000037,71398.20000000019,90320.10000000056,102383.70000000019,108690.60000000056],"checkbox_events":[11796,12938.900000000373,14197.400000000373,15079.600000000559,16338.600000000559,17024.200000000186,17746,18395.400000000373,19189.700000000186,19959.10000000056,20584.700000000186,21382.60000000056,23307.10000000056,24469.700000000186,38859.60000000056,40932.40000000037,41694.300000000745,42319.60000000056,42953.200000000186,43574.700000000186,44256.60000000056,44889,45539.5,46253,47086.90000000037,47740.300000000745,49239.60000000056,50795,59326.200000000186,60111.800000000745,60793.60000000056,61528.10000000056,62120.40000000037,62721.90000000037,63435.60000000056,64157.40000000037,64806.90000000037,65412,66045.60000000056,67079.80000000075,73635.60000000056,74441.60000000056,75106.80000000075,76044.80000000075,76734.30000000075,77408.20000000019,78097.30000000075,78766.90000000037,79424.5,80916,81709.80000000075,92256.60000000056],"key_events":[],"mouse_events":[6619.700000000186,11796,12938.900000000373,14197.400000000373,15079.600000000559,16338.600000000559,17024.200000000186,17746,18395.400000000373,19189.700000000186,19959.10000000056,20584.700000000186,21382.60000000056,23307.10000000056,24469.700000000186,33363,35821.10000000056,38859.60000000056,40932.40000000037,41694.300000000745,42319.60000000056,42953.200000000186,43574.700000000186,44256.60000000056,44889,45539.5,46253,47086.90000000037,47740.300000000745,49239.60000000056,50795,53180.40000000037,59326.200000000186,60111.800000000745,60793.60000000056,61528.10000000056,62120.40000000037,62721.90000000037,63435.60000000056,64157.40000000037,64806.90000000037,65412,66045.60000000056,67079.80000000075,71398.20000000019,73635.60000000056,74441.60000000056,75106.80000000075,76044.80000000075,76734.30000000075,77408.20000000019,78097.30000000075,78766.90000000037,79424.5,80178.20000000019,80916,81709.80000000075,90320.10000000056,92256.60000000056,102383.70000000019,108690.60000000056,110122.20000000019],"honeypot":0,"survey":"mace","page":10,"trial_type":"survey-mace","trial_index":18,"time_elapsed":1261057,"internal_node_id":"0.0-18.0","task_version":"prescreen-v0.3","browser_interactions":0,"instructed":0},{"rt":6717.600000000559,"trial_type":"mental-health-alert","trial_index":19,"time_elapsed":1267779,"internal_node_id":"0.0-19.0","task_version":"prescreen-v0.3","interactions":"[]"}]