[{"view_history":[{"page_index":0,"viewing_time":2491.7999999523163},{"page_index":1,"viewing_time":1716},{"page_index":2,"viewing_time":3776.100000023842},{"page_index":3,"viewing_time":1429.8999999761581}],"rt":9415.099999904633,"trial_type":"instructions","trial_index":0,"time_elapsed":9450,"internal_node_id":"0.0-0.0","task_version":"prescreen-v0.3"},{"rt":16995.5,"responses":{"age":"21","gender-categorical":"Female","gender-free-response":"","ethnicity":"Not Hispanic or Latino","race":["White"],"education":"Some college"},"trial_type":"survey-demo","trial_index":1,"time_elapsed":26455,"internal_node_id":"0.0-1.0","task_version":"prescreen-v0.3"},{"responses":{"Q10":"1","Q17":"1","Q21":"3","Q08":"2","Q18":"1","Q13":"1","Q01":"0","Q02":"0","Q11":"0","Q04":"0","Q19":"1","Q14":"1","Q07":"1","Q03":"0","Q12":"2","Q20":"0","Q15":"2","Q05":"1","Q16":"1","Q06":"1","Q09":"1"},"rt":103092.20000004768,"item_order":[9,16,20,7,17,12,0,1,10,3,18,13,6,2,11,19,14,4,15,5,8],"radio_events":[9231.800000071526,13872.900000095367,16857.300000071526,19172.300000071526,24192.800000071526,27354.5,29668.700000047684,31034.800000071526,34280.60000002384,36178.10000002384,38733.40000009537,41430.60000002384,43175.10000002384,49018.300000071526,50118.60000002384,55169.5,61382.800000071526,70045.90000009537,84299.40000009537,89589.70000004768,94701.80000007153,101273.70000004768],"key_events":[],"mouse_events":[9231.800000071526,13872.900000095367,16857.300000071526,19172.300000071526,24192.800000071526,27354.5,29668.700000047684,30340.400000095367,31034.800000071526,34280.60000002384,36178.10000002384,38733.40000009537,41430.60000002384,43175.10000002384,49018.300000071526,50118.60000002384,55169.5,57497.200000047684,61382.800000071526,70045.90000009537,73992.60000002384,78431.70000004768,84299.40000009537,85757.10000002384,89589.70000004768,90804.70000004768,94701.80000007153,95700.70000004768,99361.30000007153,100330.90000009537,101273.70000004768,103087.80000007153],"straightlining":0.5238095238095238,"zigzagging":0.3,"honeypot":0,"survey":"sns","trial_type":"survey-template","trial_index":2,"time_elapsed":129558,"internal_node_id":"0.0-2.0","task_version":"prescreen-v0.3","browser_interactions":0,"infrequency":0},{"responses":{"Q04":"3","Q08":"2","Q13":"0","Q07":"3","Q02":"3","Q09":"2","Q05":"3","Q03":"3","Q12":"2","Q01":"2","Q11":"2","Q06":"2","Q10":"2"},"rt":46770.199999928474,"item_order":[3,7,12,6,1,8,4,2,11,0,10,5,9],"radio_events":[6369.099999904633,11441.199999928474,14324.899999976158,16727.799999952316,19029.899999976158,21230.299999952316,21926.299999952316,25468.299999952316,26986.299999952316,31584.099999904633,34897.699999928474,36479.89999997616,40299.09999990463,41893.39999997616,43867.199999928474,44537.5],"key_events":[],"mouse_events":[6369.099999904633,11441.199999928474,14324.899999976158,16727.799999952316,19029.899999976158,21230.299999952316,21926.299999952316,25468.299999952316,26986.299999952316,31584.099999904633,34897.699999928474,36479.89999997616,40299.09999990463,41893.39999997616,43867.199999928474,44537.5,46768.09999990463],"straightlining":0.5384615384615384,"zigzagging":0.4166666666666667,"honeypot":0,"survey":"bisbas","trial_type":"survey-template","trial_index":3,"time_elapsed":176335,"internal_node_id":"0.0-3.0","task_version":"prescreen-v0.3","browser_interactions":0,"infrequency":0},{"responses":{"Q01":"4","Q02":"4","Q03":"4"},"rt":12236.200000047684,"radio_events":[4468.800000071526,8263.100000023842,9540.899999976158],"key_events":[],"mouse_events":[3520.2000000476837,4468.800000071526,8263.100000023842,9540.899999976158,12235.200000047684],"survey":"map","page":1,"trial_type":"survey-map","trial_index":4,"time_elapsed":188576,"internal_node_id":"0.0-4.0","task_version":"prescreen-v0.3","browser_interactions":0},{"responses":{"Q04":"3","Q05":"3","Q06":"3"},"rt":9015.399999976158,"radio_events":[4813.799999952316,6888.399999976158,8052.299999952316],"key_events":[],"mouse_events":[4813.799999952316,6888.399999976158,8052.299999952316,9014.5],"survey":"map","page":2,"trial_type":"survey-map","trial_index":5,"time_elapsed":197595,"internal_node_id":"0.0-5.0","task_version":"prescreen-v0.3","browser_interactions":0},{"responses":{"Q07":"4","Q08":"0","Q09":"3"},"rt":10924,"radio_events":[4738.399999976158,7166.700000047684,9621],"key_events":[],"mouse_events":[4738.399999976158,7166.700000047684,9621,10923.100000023842],"survey":"map","page":3,"trial_type":"survey-map","trial_index":6,"time_elapsed":208522,"internal_node_id":"0.0-6.0","task_version":"prescreen-v0.3","browser_interactions":0},{"responses":{"Q10":"3","Q11":"4","Q12":"3","Q13":"4","Q16":"0","Q14":"3","Q15":"2"},"rt":29736.100000023842,"radio_events":[3669.2999999523163,5693.299999952316,9183.399999976158,12404,17750.100000023842,25978.100000023842,28912.299999952316],"key_events":[],"mouse_events":[3669.2999999523163,5693.299999952316,9183.399999976158,12404,17750.100000023842,25978.100000023842,28912.299999952316,29734.5],"survey":"map","page":4,"trial_type":"survey-map","trial_index":7,"time_elapsed":238262,"internal_node_id":"0.0-7.0","task_version":"prescreen-v0.3","browser_interactions":0,"infrequency":0},{"view_history":[{"page_index":0,"viewing_time":2132.100000023842},{"page_index":1,"viewing_time":3907.7999999523163}],"rt":6040.100000023842,"trial_type":"instructions","trial_index":8,"time_elapsed":244304,"internal_node_id":"0.0-8.0","task_version":"prescreen-v0.3"},{"responses":{"01":"No","02":"No","03":"Yes","03_ages_8":"8","03_ages_9":"9","03_ages_10":"10","04":"No","05":"No","06":"No"},"rt":51514.699999928474,"item_order":[0,1,2,3,4,5],"radio_events":[10922.899999976158,16515.899999976158,21865.699999928474,46787.60000002384,48143.5,50040.39999997616],"checkbox_events":[35561.89999997616,36496.799999952316,37395.5,37800.299999952316,38206.60000002384,38560.60000002384,38890.89999997616,40015.799999952316,40889.39999997616,41408.39999997616,45066.89999997616],"key_events":[],"mouse_events":[0.10000002384185791,10922.899999976158,16515.899999976158,21865.699999928474,35561.89999997616,36496.799999952316,37395.5,37800.299999952316,38206.60000002384,38560.60000002384,38890.89999997616,40015.799999952316,40889.39999997616,41408.39999997616,45066.89999997616,46787.60000002384,48143.5,50040.39999997616,51510.299999952316],"honeypot":0,"survey":"mace","page":1,"trial_type":"survey-mace","trial_index":9,"time_elapsed":295827,"internal_node_id":"0.0-9.0","task_version":"prescreen-v0.3","browser_interactions":0},{"responses":{"01":"No","02":"No","03":"No","04":"No","05":"No","06":"No","07":"No","08":"No"},"rt":15686.100000023842,"item_order":[0,1,2,3,4,5,6,7],"radio_events":[8561.700000047684,8906.399999976158,9259,10575.100000023842,11755,12716.5,13958.600000023842,15123.399999976158],"checkbox_events":[],"key_events":[],"mouse_events":[8561.700000047684,8906.399999976158,9259,10575.100000023842,11755,12716.5,13958.600000023842,15123.399999976158,15680.200000047684],"honeypot":0,"survey":"mace","page":2,"trial_type":"survey-mace","trial_index":10,"time_elapsed":311521,"internal_node_id":"0.0-10.0","task_version":"prescreen-v0.3","browser_interactions":0},{"responses":{"01":"No","02":"No","03":"No","04":"No"},"rt":4572.899999976158,"item_order":[0,1,2,3],"radio_events":[2149.5999999046326,2516.1999999284744,2960.1999999284744,4074.899999976158],"checkbox_events":[],"key_events":[],"mouse_events":[2149.5999999046326,2516.1999999284744,2960.1999999284744,4074.899999976158,4569.699999928474],"honeypot":0,"survey":"mace","page":3,"trial_type":"survey-mace","trial_index":11,"time_elapsed":316099,"internal_node_id":"0.0-11.0","task_version":"prescreen-v0.3","browser_interactions":0},{"responses":{"01":"No","02":"No"},"rt":4837.299999952316,"item_order":[0,1],"radio_events":[3279.399999976158,4354.799999952316],"checkbox_events":[],"key_events":[],"mouse_events":[3279.399999976158,4354.799999952316,4835.699999928474],"honeypot":0,"survey":"mace","page":4,"trial_type":"survey-mace","trial_index":12,"time_elapsed":320940,"internal_node_id":"0.0-12.0","task_version":"prescreen-v0.3","browser_interactions":0},{"responses":{"01":"No","02":"No","03":"No","04":"No","05":"No"},"rt":14698.699999928474,"item_order":[0,1,2,3,4],"radio_events":[9870,10793.299999952316,11577.899999976158,13314.899999976158,14125],"checkbox_events":[],"key_events":[],"mouse_events":[9870,10793.299999952316,11577.899999976158,13314.899999976158,14125,14695],"honeypot":0,"survey":"mace","page":5,"trial_type":"survey-mace","trial_index":13,"time_elapsed":335644,"internal_node_id":"0.0-13.0","task_version":"prescreen-v0.3","browser_interactions":0},{"responses":{"01":"No","02":"Yes","02_ages_8":"8","02_ages_9":"9","02_ages_10":"10","02_ages_11":"11","02_ages_12":"12","02_ages_13":"13","03":"No","04":"No","05":"No"},"rt":45370.89999997616,"item_order":[0,1,2,3,4],"radio_events":[976.2000000476837,2329.7000000476837,16272.5,41218.60000002384,44230.200000047684,44734.5],"checkbox_events":[24088.399999976158,24341.300000071526,24721.399999976158,25202.800000071526,25620.899999976158,27745.600000023842],"key_events":[],"mouse_events":[976.2000000476837,2329.7000000476837,16272.5,24088.399999976158,24341.300000071526,24721.399999976158,25202.800000071526,25620.899999976158,27745.600000023842,41218.60000002384,44230.200000047684,44734.5,45367.200000047684],"honeypot":0,"survey":"mace","page":6,"trial_type":"survey-mace","trial_index":14,"time_elapsed":381022,"internal_node_id":"0.0-14.0","task_version":"prescreen-v0.3","browser_interactions":0},{"responses":{"01":"No","02":"No","03":"No","04":"No","05":"No","06":"No","07":"No"},"rt":8995.799999952316,"item_order":[0,1,2,3,4,5,6],"radio_events":[2064.1999999284744,3279.0999999046326,4278.299999952316,5429.599999904633,6976.199999928474,8244,8547.699999928474],"checkbox_events":[],"key_events":[],"mouse_events":[2064.1999999284744,3279.0999999046326,4278.299999952316,5429.599999904633,6976.199999928474,8244,8547.699999928474,8990.699999928474],"honeypot":0,"survey":"mace","page":7,"trial_type":"survey-mace","trial_index":15,"time_elapsed":390025,"internal_node_id":"0.0-15.0","task_version":"prescreen-v0.3","browser_interactions":0},{"responses":{"01":"No","01_ages_7":"7","01_ages_8":"8","01_ages_9":"9","01_ages_10":"10","01_ages_11":"11","01_ages_12":"12","01_ages_13":"13","01_ages_14":"14","01_ages_15":"15","02":"Yes","02_ages_8":"8","02_ages_9":"9","02_ages_10":"10","02_ages_11":"11","02_ages_12":"12","02_ages_13":"13","02_ages_14":"14","02_ages_15":"15","03":"No","04":"No"},"rt":38057.299999952316,"item_order":[0,1,2,3],"radio_events":[1000.1999999284744,9274.699999928474,20497.600000023842,24253.899999976158,35182.60000002384,37218.699999928474],"checkbox_events":[12449.5,12728.299999952316,13020.100000023842,13348.899999976158,13627.699999928474,13856.299999952316,14122.399999976158,14957.100000023842,15135.199999928474,25417.699999928474,25632.399999976158,26062.899999976158,26329.199999928474,26607.799999952316,27227.699999928474,27519.100000023842,27735.299999952316,29445.600000023842,29686.699999928474,31864.299999952316,32484],"key_events":[],"mouse_events":[1000.1999999284744,9274.699999928474,12449.5,12728.299999952316,13020.100000023842,13348.899999976158,13627.699999928474,13856.299999952316,14122.399999976158,14957.100000023842,15135.199999928474,20497.600000023842,24253.899999976158,25417.699999928474,25632.399999976158,26062.899999976158,26329.199999928474,26607.799999952316,27227.699999928474,27519.100000023842,27735.299999952316,29445.600000023842,29686.699999928474,31864.299999952316,32484,35182.60000002384,37218.699999928474,38054.199999928474],"honeypot":0,"survey":"mace","page":8,"trial_type":"survey-mace","trial_index":16,"time_elapsed":428091,"internal_node_id":"0.0-16.0","task_version":"prescreen-v0.3","browser_interactions":0},{"responses":{"01":"Yes","01_ages_1":"1","01_ages_2":"2","01_ages_3":"3","01_ages_4":"4","01_ages_5":"5","01_ages_6":"6","01_ages_7":"7","01_ages_8":"8","01_ages_9":"9","01_ages_10":"10","01_ages_11":"11","01_ages_12":"12","01_ages_13":"13","01_ages_14":"14","01_ages_15":"15","01_ages_16":"16","01_ages_17":"17","01_ages_18":"18","02":"Yes","02_ages_1":"1","02_ages_2":"2","02_ages_3":"3","02_ages_4":"4","02_ages_5":"5","02_ages_6":"6","02_ages_7":"7","02_ages_8":"8","02_ages_9":"9","02_ages_10":"10","02_ages_11":"11","02_ages_12":"12","02_ages_13":"13","02_ages_14":"14","02_ages_15":"15","02_ages_16":"16","02_ages_17":"17","02_ages_18":"18","03":"Yes","03_ages_1":"1","03_ages_2":"2","03_ages_3":"3","03_ages_4":"4","03_ages_5":"5","03_ages_6":"6","03_ages_7":"7","03_ages_8":"8","03_ages_9":"9","03_ages_10":"10","03_ages_11":"11","03_ages_12":"12","03_ages_13":"13","03_ages_14":"14","03_ages_15":"15","03_ages_16":"16","03_ages_17":"17","03_ages_18":"18","04":"Yes","04_ages_1":"1","04_ages_2":"2","04_ages_3":"3","04_ages_4":"4","04_ages_5":"5","04_ages_6":"6","04_ages_7":"7","04_ages_8":"8","04_ages_9":"9","04_ages_10":"10","04_ages_11":"11","04_ages_12":"12","04_ages_13":"13","04_ages_14":"14","04_ages_15":"15","04_ages_16":"16","04_ages_17":"17","04_ages_18":"18"},"rt":50803.5,"item_order":[0,1,2,3],"radio_events":[4696.600000023842,27044,34214.60000002384,42081.5],"checkbox_events":[10366.700000047684,10556.799999952316,10784.899999976158,11000.799999952316,11203.600000023842,11393.600000023842,11583.600000023842,11761.399999976158,11926.600000023842,12117.700000047684,12230.200000047684,12598.700000047684,13194.100000023842,13384,13561.700000047684,13727,13891.200000047684,14056.700000047684,14222,14360.299999952316,14525.700000047684,14868,15184.899999976158,15627.399999976158,15843.5,16033.700000047684,27967.399999976158,28183,28296.700000047684,28436.399999976158,28550.399999976158,28715.799999952316,28906.799999952316,29071.299999952316,29236.299999952316,29412.899999976158,29578.100000023842,29730.700000047684,29897.299999952316,30047.700000047684,30782.899999976158,31289.200000047684,31681.5,32099.399999976158,35480.299999952316,35669.5,35885.799999952316,36075.200000047684,36265.39999997616,36455.60000002384,36645.89999997616,36810.700000047684,37164.89999997616,37532.700000047684,37823.200000047684,38102.89999997616,38457.10000002384,38799.89999997616,39116,39432.60000002384,39724.299999952316,40040.89999997616,40345.10000002384,40650.700000047684,40903.299999952316,41130.89999997616,44033.700000047684,44273.89999997616,44590.60000002384,44881.89999997616,45135.5,45414.89999997616,45693.60000002384,45960,46264.10000002384,46555.89999997616,46897.700000047684,47189.39999997616,47405,47595,47810.700000047684,48025.700000047684,48216.200000047684,48393.89999997616,48583.700000047684,48762.200000047684,49040.299999952316,49509.10000002384,49825.89999997616,50078.700000047684],"key_events":[],"mouse_events":[3835.399999976158,4696.600000023842,10366.700000047684,10556.799999952316,10784.899999976158,11000.799999952316,11203.600000023842,11393.600000023842,11583.600000023842,11761.399999976158,11926.600000023842,12117.700000047684,12230.200000047684,12598.700000047684,13194.100000023842,13384,13561.700000047684,13727,13891.200000047684,14056.700000047684,14222,14360.299999952316,14525.700000047684,14868,15184.899999976158,15627.399999976158,15843.5,16033.700000047684,27044,27967.399999976158,28183,28296.700000047684,28436.399999976158,28550.399999976158,28715.799999952316,28906.799999952316,29071.299999952316,29236.299999952316,29412.899999976158,29578.100000023842,29730.700000047684,29897.299999952316,30047.700000047684,30340.899999976158,30782.899999976158,31289.200000047684,31681.5,32099.399999976158,34214.60000002384,35480.299999952316,35669.5,35885.799999952316,36075.200000047684,36265.39999997616,36455.60000002384,36645.89999997616,36810.700000047684,37164.89999997616,37532.700000047684,37823.200000047684,38102.89999997616,38457.10000002384,38799.89999997616,39116,39432.60000002384,39724.299999952316,40040.89999997616,40345.10000002384,40650.700000047684,40903.299999952316,41130.89999997616,42081.5,44033.700000047684,44273.89999997616,44590.60000002384,44881.89999997616,45135.5,45414.89999997616,45693.60000002384,45960,46264.10000002384,46555.89999997616,46897.700000047684,47189.39999997616,47405,47595,47810.700000047684,48025.700000047684,48216.200000047684,48393.89999997616,48583.700000047684,48762.200000047684,49040.299999952316,49509.10000002384,49825.89999997616,50078.700000047684,50800.39999997616],"honeypot":0,"survey":"mace","page":9,"trial_type":"survey-mace","trial_index":17,"time_elapsed":478894,"internal_node_id":"0.0-17.0","task_version":"prescreen-v0.3","browser_interactions":0},{"responses":{"01":"No","02":"No","03":"No","04":"No","05":"No","06":"Yes","06_ages_17":"17","07":"Yes","07_ages_1":"1","07_ages_2":"2","07_ages_3":"3","07_ages_4":"4","07_ages_5":"5","07_ages_6":"6","07_ages_7":"7","07_ages_8":"8","07_ages_9":"9","07_ages_10":"10","07_ages_11":"11","07_ages_12":"12","07_ages_13":"13","07_ages_14":"14","07_ages_15":"15","07_ages_16":"16","07_ages_17":"17","07_ages_18":"18","08":"Yes","08_ages_1":"1","08_ages_2":"2","08_ages_3":"3","08_ages_4":"4","08_ages_5":"5","08_ages_6":"6","08_ages_7":"7","08_ages_8":"8","08_ages_9":"9","08_ages_10":"10","08_ages_11":"11","08_ages_12":"12","08_ages_13":"13","08_ages_14":"14","08_ages_15":"15","08_ages_16":"16","08_ages_17":"17","08_ages_18":"18"},"rt":42717.199999928474,"item_order":[0,1,2,3,4,5,6,7],"radio_events":[4317.299999952316,5228.799999952316,7596.599999904633,10568.899999976158,13062.099999904633,14998,19491.199999928474,34705.299999952316],"checkbox_events":[16530,21769.5,22339.399999976158,22681.299999952316,22961.699999928474,23214.199999928474,23454.299999952316,23746.5,23999.5,24329.199999928474,24696.5,25025.599999904633,25380.099999904633,25709.399999976158,26038.599999904633,26354.899999976158,26621.299999952316,26887.099999904633,27229.399999976158,27546.099999904633,27925.699999928474,36363.89999997616,36642.199999928474,36960.39999997616,37212.799999952316,37478.699999928474,37732,38011,38265,38480.199999928474,38746.5,38987.5,39418.5,39885.89999997616,40177.89999997616,40557.39999997616,40939.199999928474,41254.299999952316,41596.89999997616,41988.59999990463,42191.5],"key_events":[],"mouse_events":[4317.299999952316,5228.799999952316,7596.599999904633,10568.899999976158,13062.099999904633,14998,16530,19491.199999928474,21769.5,22339.399999976158,22681.299999952316,22961.699999928474,23214.199999928474,23454.299999952316,23746.5,23999.5,24329.199999928474,24696.5,25025.599999904633,25380.099999904633,25709.399999976158,26038.599999904633,26354.899999976158,26621.299999952316,26887.099999904633,27229.399999976158,27546.099999904633,27925.699999928474,34705.299999952316,36363.89999997616,36642.199999928474,36960.39999997616,37212.799999952316,37478.699999928474,37732,38011,38265,38480.199999928474,38746.5,38987.5,39418.5,39885.89999997616,40177.89999997616,40557.39999997616,40939.199999928474,41254.299999952316,41596.89999997616,41988.59999990463,42191.5,42711.39999997616],"honeypot":0,"survey":"mace","page":10,"trial_type":"survey-mace","trial_index":18,"time_elapsed":521619,"internal_node_id":"0.0-18.0","task_version":"prescreen-v0.3","browser_interactions":0,"instructed":0},{"rt":3241.899999976158,"trial_type":"mental-health-alert","trial_index":19,"time_elapsed":524864,"internal_node_id":"0.0-19.0","task_version":"prescreen-v0.3","interactions":"[]"}]