[{"view_history":[{"page_index":0,"viewing_time":1966.7999999970198},{"page_index":1,"viewing_time":1725.7000000029802},{"page_index":2,"viewing_time":2004.0999999940395},{"page_index":3,"viewing_time":852.5}],"rt":6549.5999999940395,"trial_type":"instructions","trial_index":0,"time_elapsed":6561,"internal_node_id":"0.0-0.0","task_version":"prescreen-v0.3"},{"rt":14428.59999999404,"responses":{"age":"22","gender-categorical":"Male","gender-free-response":"","ethnicity":"Not Hispanic or Latino","race":["White"],"education":"Bachelor degree","siblings":"3"},"trial_type":"survey-demo","trial_index":1,"time_elapsed":20993,"internal_node_id":"0.0-1.0","task_version":"prescreen-v0.3"},{"responses":{"Q08":"2","Q18":"1","Q15":"3","Q03":"1","Q20":"0","Q09":"2","Q10":"2","Q19":"2","Q02":"3","Q07":"2","Q04":"3","Q06":"0","Q16":"1","Q12":"0","Q05":"0","Q13":"1","Q01":"0","Q17":"2","Q14":"1","Q21":"3","Q11":"3"},"rt":151523.40000000596,"item_order":[7,17,14,2,19,8,9,18,1,6,3,5,15,11,4,12,0,16,13,20,10],"radio_events":[3974.1000000089407,53441.40000000596,57170.90000000596,60276.10000000894,62278.79999999702,67000.90000000596,69144.60000000894,103751.5,106326.70000000298,111097.90000000596,115116.90000000596,120083.5,123712.70000000298,127992.90000000596,131158.5,134681.10000000894,137398.70000000298,140110.29999999702,145635.79999999702,146691.29999999702,151036.20000000298],"key_events":[],"mouse_events":[3974.1000000089407,52698.90000000596,53095.90000000596,53441.40000000596,57170.90000000596,60276.10000000894,62278.79999999702,67000.90000000596,69144.60000000894,96691.10000000894,103229.40000000596,103751.5,106326.70000000298,111097.90000000596,114722.60000000894,115116.90000000596,120083.5,123712.70000000298,127992.90000000596,131158.5,134681.10000000894,137398.70000000298,140110.29999999702,144967.60000000894,145635.79999999702,146691.29999999702,151036.20000000298,151521.79999999702],"straightlining":0.2857142857142857,"zigzagging":0.55,"honeypot":0,"survey":"sns","trial_type":"survey-template","trial_index":2,"time_elapsed":172521,"internal_node_id":"0.0-2.0","task_version":"prescreen-v0.3","browser_interactions":8,"infrequency":0},{"responses":{"Q01":"3","Q13":"0","Q06":"3","Q02":"1","Q07":"3","Q05":"3","Q11":"2","Q03":"1","Q10":"2","Q09":"2","Q12":"1","Q04":"3","Q08":"3"},"rt":347787.60000000894,"item_order":[0,12,5,1,6,4,10,2,9,8,11,3,7],"radio_events":[266332.799999997,268010.700000003,272229.799999997,274367.60000000894,278524.10000000894,280752.200000003,285483.799999997,289236.5,331773.799999997,334125.10000000894,336561.10000000894,341308.299999997,344787,347364.40000000596],"key_events":[],"mouse_events":[266332.799999997,268010.700000003,272229.799999997,274367.60000000894,277300.299999997,278046.60000000894,278524.10000000894,280752.200000003,283605.40000000596,285052.799999997,285483.799999997,289236.5,330963.90000000596,331773.799999997,334125.10000000894,336187,336561.10000000894,341308.299999997,344787,347364.40000000596,347786.40000000596],"straightlining":0.46153846153846156,"zigzagging":0.5,"honeypot":0,"survey":"bisbas","trial_type":"survey-template","trial_index":3,"time_elapsed":520312,"internal_node_id":"0.0-3.0","task_version":"prescreen-v0.3","browser_interactions":6,"infrequency":0},{"responses":{"Q01":"2","Q02":"2","Q03":"2"},"rt":13911.800000011921,"radio_events":[5601.800000011921,8945.40000000596,13188.800000011921],"key_events":[],"mouse_events":[5134.9000000059605,5601.800000011921,8945.40000000596,13188.800000011921,13911.20000000298],"survey":"map","page":1,"trial_type":"survey-map","trial_index":4,"time_elapsed":534226,"internal_node_id":"0.0-4.0","task_version":"prescreen-v0.3","browser_interactions":0},{"responses":{"Q04":"1","Q05":"1","Q06":"2"},"rt":11674.70000000298,"radio_events":[4072.7999999970198,7433.5,11182.70000000298],"key_events":[],"mouse_events":[3632.9000000059605,4072.7999999970198,6998.9000000059605,7433.5,11182.70000000298,11674.40000000596],"survey":"map","page":2,"trial_type":"survey-map","trial_index":5,"time_elapsed":545903,"internal_node_id":"0.0-5.0","task_version":"prescreen-v0.3","browser_interactions":0},{"responses":{"Q07":"0","Q08":"3","Q09":"2"},"rt":16572.70000000298,"radio_events":[8088.0999999940395,13621.5,16088.5],"key_events":[],"mouse_events":[7675.0999999940395,8088.0999999940395,13621.5,16088.5,16572.29999999702],"survey":"map","page":3,"trial_type":"survey-map","trial_index":6,"time_elapsed":562476,"internal_node_id":"0.0-6.0","task_version":"prescreen-v0.3","browser_interactions":0},{"responses":{"Q10":"2","Q11":"0","Q12":"2","Q13":"4","Q16":"0","Q14":"1","Q15":"2"},"rt":49438.59999999404,"radio_events":[6324.4000000059605,24060,29343.29999999702,39054.5,41371.70000000298,44872.29999999702,48842.90000000596],"key_events":[],"mouse_events":[6324.4000000059605,19829.79999999702,23668.09999999404,24060,28957.20000000298,29343.29999999702,39054.5,41371.70000000298,44872.29999999702,48842.90000000596,49437.70000000298],"survey":"map","page":4,"trial_type":"survey-map","trial_index":7,"time_elapsed":611916,"internal_node_id":"0.0-7.0","task_version":"prescreen-v0.3","browser_interactions":2,"infrequency":0},{"view_history":[{"page_index":0,"viewing_time":1389.2000000029802},{"page_index":1,"viewing_time":2594.2000000029802}],"rt":3983.7999999970198,"trial_type":"instructions","trial_index":8,"time_elapsed":615901,"internal_node_id":"0.0-8.0","task_version":"prescreen-v0.3"},{"responses":{"01":"Yes","01_ages_8":"8","01_ages_10":"10","01_ages_12":"12","02":"Yes","02_ages_9":"9","02_ages_10":"10","02_ages_12":"12","03":"No","04":"No","05":"No","06":"Yes","06_ages_7":"7","06_ages_8":"8","06_ages_10":"10"},"rt":31740.89999999106,"item_order":[0,1,2,3,4,5],"radio_events":[4717.79999999702,13502.5,21758.09999999404,23499.29999999702,25286.09999999404,27812.19999998808],"checkbox_events":[8287.29999999702,9450.699999988079,10400.79999999702,14556.29999999702,16994.69999998808,18421.79999999702,28722.19999998808,30010.09999999404,30470.29999999702],"key_events":[],"mouse_events":[0.09999999403953552,4717.79999999702,8287.29999999702,9450.699999988079,10400.79999999702,13502.5,14556.29999999702,16081.199999988079,16994.69999998808,18421.79999999702,21758.09999999404,23499.29999999702,25286.09999999404,27812.19999998808,28722.19999998808,30010.09999999404,30470.29999999702,31738.79999999702],"honeypot":0,"survey":"mace","page":1,"trial_type":"survey-mace","trial_index":9,"time_elapsed":647649,"internal_node_id":"0.0-9.0","task_version":"prescreen-v0.3","browser_interactions":0},{"responses":{"01":"Yes","01_ages_8":"8","01_ages_9":"9","01_ages_10":"10","02":"No","03":"Yes","03_ages_6":"6","03_ages_7":"7","03_ages_8":"8","03_ages_9":"9","03_ages_10":"10","04":"Yes","04_ages_4":"4","04_ages_5":"5","04_ages_6":"6","04_ages_7":"7","04_ages_8":"8","05":"Yes","05_ages_8":"8","05_ages_9":"9","05_ages_10":"10","06":"No","07":"No","08":"No"},"rt":34368.29999999702,"item_order":[0,1,2,3,4,5,6,7],"radio_events":[4093.4000000059605,12396.09999999404,14130.70000000298,19737.5,26247.59999999404,26965.09999999404,30784.40000000596,32337.40000000596,33855.5],"checkbox_events":[5270.4000000059605,5732.29999999702,6539.29999999702,15507.90000000596,15786.59999999404,16117.90000000596,16426.5,18379.79999999702,21178.09999999404,21455,21734.09999999404,22641.90000000596,22929.5,27689.79999999702,27980.20000000298,28408.09999999404],"key_events":[],"mouse_events":[4093.4000000059605,5270.4000000059605,5732.29999999702,6539.29999999702,12396.09999999404,14130.70000000298,15507.90000000596,15786.59999999404,16117.90000000596,16426.5,18379.79999999702,19737.5,21178.09999999404,21455,21734.09999999404,22043.90000000596,22356.90000000596,22641.90000000596,22929.5,26247.59999999404,26965.09999999404,27689.79999999702,27980.20000000298,28408.09999999404,30784.40000000596,32337.40000000596,33855.5,34365.59999999404],"honeypot":0,"survey":"mace","page":2,"trial_type":"survey-mace","trial_index":10,"time_elapsed":682020,"internal_node_id":"0.0-10.0","task_version":"prescreen-v0.3","browser_interactions":0},{"responses":{"01":"Yes","01_ages_8":"8","01_ages_9":"9","01_ages_10":"10","02":"No","03":"No","04":"No"},"rt":17117.79999999702,"item_order":[0,1,2,3],"radio_events":[8623.20000000298,13944.89999999106,15783.79999999702,16741.70000000298],"checkbox_events":[9960.29999999702,10616.39999999106,11049.5],"key_events":[],"mouse_events":[8623.20000000298,9412.5,9960.29999999702,10330.5,10616.39999999106,11049.5,13944.89999999106,15783.79999999702,16323.89999999106,16741.70000000298,17116.29999999702],"honeypot":0,"survey":"mace","page":3,"trial_type":"survey-mace","trial_index":11,"time_elapsed":699141,"internal_node_id":"0.0-11.0","task_version":"prescreen-v0.3","browser_interactions":0},{"responses":{"01":"No","02":"No"},"rt":5011.9000000059605,"item_order":[0,1],"radio_events":[3084.0999999940395,4591.20000000298],"checkbox_events":[],"key_events":[],"mouse_events":[3084.0999999940395,3467.0999999940395,4591.20000000298,5011.0999999940395],"honeypot":0,"survey":"mace","page":4,"trial_type":"survey-mace","trial_index":12,"time_elapsed":704154,"internal_node_id":"0.0-12.0","task_version":"prescreen-v0.3","browser_interactions":0},{"responses":{"01":"Yes","01_ages_8":"8","01_ages_9":"9","01_ages_10":"10","02":"No","03":"No","04":"Yes","04_ages_6":"6","04_ages_7":"7","04_ages_8":"8","04_ages_9":"9","05":"No"},"rt":23470.90000000596,"item_order":[0,1,2,3,4],"radio_events":[3888.4000000059605,10645.70000000298,14285.70000000298,17116.29999999702,23040.70000000298],"checkbox_events":[5071.29999999702,5388.29999999702,5651.70000000298,18523.90000000596,18779.70000000298,19075.90000000596,20099.90000000596],"key_events":[],"mouse_events":[3888.4000000059605,5071.29999999702,5388.29999999702,5651.70000000298,10645.70000000298,13907.29999999702,14285.70000000298,17116.29999999702,18523.90000000596,18779.70000000298,19075.90000000596,19382.70000000298,19739.90000000596,20099.90000000596,22675.90000000596,23040.70000000298,23469.09999999404],"honeypot":0,"survey":"mace","page":5,"trial_type":"survey-mace","trial_index":13,"time_elapsed":727628,"internal_node_id":"0.0-13.0","task_version":"prescreen-v0.3","browser_interactions":0},{"responses":{"01":"Yes","01_ages_7":"7","01_ages_8":"8","01_ages_9":"9","02":"Yes","02_ages_7":"7","02_ages_8":"8","02_ages_9":"9","02_ages_10":"10","03":"No","04":"No","05":"No"},"rt":21316.89999999106,"item_order":[0,1,2,3,4],"radio_events":[5403,11082.89999999106,17708.19999998808,20459.19999998808,20832.69999998808],"checkbox_events":[6289.79999999702,7268.899999991059,7882.899999991059,12489.09999999404,12808.89999999106,13085.699999988079,16110],"key_events":[],"mouse_events":[5403,6289.79999999702,6836.899999991059,7268.899999991059,7584.699999988079,7882.899999991059,11082.89999999106,12489.09999999404,12808.89999999106,13085.699999988079,16110,17708.19999998808,20459.19999998808,20832.69999998808,21315],"honeypot":0,"survey":"mace","page":6,"trial_type":"survey-mace","trial_index":14,"time_elapsed":748946,"internal_node_id":"0.0-14.0","task_version":"prescreen-v0.3","browser_interactions":0},{"responses":{"01":"No","02":"No","03":"Yes","03_ages_7":"7","03_ages_8":"8","03_ages_9":"9","04":"No","05":"No","06":"No","07":"No"},"rt":14392.60000000894,"item_order":[0,1,2,3,4,5,6],"radio_events":[3298.9000000059605,4983.4000000059605,6044.29999999702,9525,11810.90000000596,13240.90000000596,13798.29999999702],"checkbox_events":[6942,7250.20000000298,7569.29999999702],"key_events":[],"mouse_events":[3298.9000000059605,3967.5,4983.4000000059605,6044.29999999702,6942,7250.20000000298,7569.29999999702,9525,11810.90000000596,13240.90000000596,13798.29999999702,14390.10000000894],"honeypot":0,"survey":"mace","page":7,"trial_type":"survey-mace","trial_index":15,"time_elapsed":763342,"internal_node_id":"0.0-15.0","task_version":"prescreen-v0.3","browser_interactions":0},{"responses":{"01":"Yes","01_ages_6":"6","01_ages_7":"7","01_ages_8":"8","02":"No","03":"Yes","03_ages_7":"7","03_ages_8":"8","03_ages_9":"9","04":"Yes","04_ages_6":"6","04_ages_7":"7","04_ages_8":"8","04_ages_9":"9"},"rt":81971.5,"item_order":[0,1,2,3],"radio_events":[64668.60000000894,71571.90000000596,75039.20000000298,78973.60000000894],"checkbox_events":[67366.60000000894,67823.79999999702,68226.79999999702,76370.60000000894,76705.10000000894,77416.20000000298,79936.5,80623.70000000298,80925.79999999702,81353.10000000894],"key_events":[],"mouse_events":[60446.40000000596,64668.60000000894,67065.29999999702,67366.60000000894,67823.79999999702,68226.79999999702,71230.90000000596,71571.90000000596,75039.20000000298,75788.5,76370.60000000894,76705.10000000894,77056.20000000298,77416.20000000298,78973.60000000894,79936.5,80254.60000000894,80623.70000000298,80925.79999999702,81353.10000000894,81970.10000000894],"honeypot":0,"survey":"mace","page":8,"trial_type":"survey-mace","trial_index":16,"time_elapsed":845315,"internal_node_id":"0.0-16.0","task_version":"prescreen-v0.3","browser_interactions":2},{"responses":{"01":"Yes","01_ages_6":"6","01_ages_7":"7","01_ages_8":"8","02":"No","03":"No","04":"No"},"rt":20346,"item_order":[0,1,2,3],"radio_events":[9189.5,16418.10000000894,18418,19870.10000000894],"checkbox_events":[11286.90000000596,12154.300000011921,12484.70000000298],"key_events":[],"mouse_events":[6087.5,9189.5,10740.800000011921,11286.90000000596,11743.90000000596,12154.300000011921,12484.70000000298,16418.10000000894,18418,19870.10000000894,20344.60000000894],"honeypot":0,"survey":"mace","page":9,"trial_type":"survey-mace","trial_index":17,"time_elapsed":865664,"internal_node_id":"0.0-17.0","task_version":"prescreen-v0.3","browser_interactions":2},{"responses":{"01":"Yes","01_ages_7":"7","01_ages_8":"8","01_ages_9":"9","01_ages_10":"10","01_ages_11":"11","01_ages_12":"12","01_ages_13":"13","01_ages_14":"14","02":"No","03":"Yes","03_ages_10":"10","03_ages_11":"11","03_ages_12":"12","03_ages_13":"13","03_ages_14":"14","04":"Yes","04_ages_10":"10","04_ages_11":"11","04_ages_12":"12","04_ages_13":"13","04_ages_14":"14","05":"Yes","05_ages_9":"9","05_ages_10":"10","05_ages_11":"11","05_ages_12":"12","05_ages_13":"13","05_ages_14":"14","06":"Yes","06_ages_17":"17","07":"No","08":"No"},"rt":38328.5,"item_order":[0,1,2,3,4,5,6,7],"radio_events":[1851.2000000029802,10712,13201,20943.29999999702,26005,32163.79999999702,36674.20000000298,37964.79999999702],"checkbox_events":[3134.2000000029802,3454.2999999970198,4012.1000000089407,5688.70000000298,7052.20000000298,7378.70000000298,8297.70000000298,8617.5,15435.10000000894,16652.60000000894,16960.20000000298,17308,17665.20000000298,22042.79999999702,22349.90000000596,22675.20000000298,23767.10000000894,24063.40000000596,27055.60000000894,28359.40000000596,28689.29999999702,29068.5,29981.40000000596,30351.40000000596,33474.79999999702],"key_events":[],"mouse_events":[1851.2000000029802,3134.2000000029802,3454.2999999970198,4012.1000000089407,5688.70000000298,6045.29999999702,6540.29999999702,7052.20000000298,7378.70000000298,8297.70000000298,8617.5,10712,13201,15435.10000000894,15778.79999999702,16108.79999999702,16652.60000000894,16960.20000000298,17308,17665.20000000298,20943.29999999702,21644.20000000298,22042.79999999702,22349.90000000596,22675.20000000298,23232.70000000298,23767.10000000894,24063.40000000596,26005,27055.60000000894,27371.10000000894,27839.40000000596,28359.40000000596,28689.29999999702,29068.5,29440.90000000596,29981.40000000596,30351.40000000596,32163.79999999702,33474.79999999702,36674.20000000298,37964.79999999702,38325.79999999702],"honeypot":0,"survey":"mace","page":10,"trial_type":"survey-mace","trial_index":18,"time_elapsed":903996,"internal_node_id":"0.0-18.0","task_version":"prescreen-v0.3","browser_interactions":0,"instructed":0},{"rt":2107.4000000059605,"trial_type":"mental-health-alert","trial_index":19,"time_elapsed":906105,"internal_node_id":"0.0-19.0","task_version":"prescreen-v0.3","interactions":"[{\"event\":\"blur\",\"trial\":2,\"time\":66475},{\"event\":\"focus\",\"trial\":2,\"time\":67077},{\"event\":\"blur\",\"trial\":2,\"time\":91984},{\"event\":\"focus\",\"trial\":2,\"time\":100106},{\"event\":\"blur\",\"trial\":2,\"time\":100951},{\"event\":\"focus\",\"trial\":2,\"time\":102704},{\"event\":\"blur\",\"trial\":2,\"time\":102716},{\"event\":\"focus\",\"trial\":2,\"time\":117615},{\"event\":\"blur\",\"trial\":3,\"time\":176670},{\"event\":\"focus\",\"trial\":3,\"time\":179247},{\"event\":\"blur\",\"trial\":3,\"time\":180165},{\"event\":\"focus\",\"trial\":3,\"time\":354484},{\"event\":\"blur\",\"trial\":3,\"time\":355290},{\"event\":\"focus\",\"trial\":3,\"time\":355945},{\"event\":\"blur\",\"trial\":7,\"time\":570377},{\"event\":\"focus\",\"trial\":7,\"time\":582224},{\"event\":\"blur\",\"trial\":16,\"time\":765856},{\"event\":\"focus\",\"trial\":16,\"time\":823705},{\"event\":\"blur\",\"trial\":17,\"time\":847195},{\"event\":\"focus\",\"trial\":17,\"time\":851354}]"}]