[{"view_history":[{"page_index":0,"viewing_time":2280.7000000001863},{"page_index":1,"viewing_time":6359.200000000186},{"page_index":2,"viewing_time":3096},{"page_index":3,"viewing_time":919.4000000003725}],"rt":12656.900000000373,"trial_type":"instructions","trial_index":0,"time_elapsed":12665,"internal_node_id":"0.0-0.0","task_version":"prescreen-v0.3"},{"rt":13066.700000000186,"responses":{"age":"24","gender-categorical":"Female","gender-free-response":"","ethnicity":"Not Hispanic or Latino","race":["White"],"education":"Bachelor degree"},"trial_type":"survey-demo","trial_index":1,"time_elapsed":25737,"internal_node_id":"0.0-1.0","task_version":"prescreen-v0.3"},{"responses":{"Q10":"0","Q08":"1","Q07":"1","Q19":"0","Q21":"3","Q11":"0","Q12":"2","Q16":"2","Q13":"2","Q05":"0","Q01":"1","Q03":"1","Q14":"2","Q17":"1","Q15":"3","Q04":"0","Q20":"1","Q02":"1","Q06":"0","Q18":"2","Q09":"0"},"rt":229296.7999999998,"item_order":[9,7,6,18,20,10,11,15,12,4,0,2,13,16,14,3,19,1,5,17,8],"radio_events":[9930.699999999255,14706,80233.69999999925,89161.69999999925,92722.09999999963,100930.29999999981,105714.29999999981,139786.59999999963,169738,177105.89999999944,184146.69999999925,187362.69999999925,191754.7999999998,194290.2999999998,195338.59999999963,201370.7999999998,204178.7999999998,208490.89999999944,212258.5,216546.7999999998,220474.59999999963,226187.2999999998,228642.59999999963],"key_events":[9930.699999999255,14706,80233.69999999925,89161.69999999925,92722.09999999963,100930.29999999981,105714.29999999981,139786.59999999963,169738,177105.89999999944,184146.69999999925,187362.69999999925,191754.7999999998,194290.2999999998,195338.59999999963,201370.7999999998,202434.59999999963,204178.7999999998,208490.89999999944,212258.5,215987.09999999963,216546.7999999998,220474.59999999963,226187.2999999998,228642.59999999963,229290.89999999944],"mouse_events":[],"straightlining":0.3333333333333333,"zigzagging":0.5,"honeypot":0,"survey":"sns","trial_type":"survey-template","trial_index":2,"time_elapsed":255036,"internal_node_id":"0.0-2.0","task_version":"prescreen-v0.3","browser_interactions":0,"infrequency":0},{"responses":{"Q08":"3","Q06":"3","Q04":"3","Q12":"1","Q05":"3","Q07":"3","Q11":"3","Q10":"3","Q03":"3","Q01":"3","Q02":"2","Q13":"0","Q09":"3"},"rt":61144.300000000745,"item_order":[7,5,3,11,4,6,10,9,2,0,1,12,8],"radio_events":[12723.700000000186,15508.100000000559,19380.5,24988.400000000373,27572.300000000745,29412.200000000186,34556.300000000745,40500.200000000186,46444.40000000037,48411.90000000037,50468.300000000745,54916,60796.200000000186],"key_events":[12723.700000000186,15508.100000000559,19380.5,24988.400000000373,27572.300000000745,29412.200000000186,34556.300000000745,40500.200000000186,46444.40000000037,48411.90000000037,50468.300000000745,54916,60796.200000000186,61140.60000000056],"mouse_events":[],"straightlining":0.7692307692307693,"zigzagging":0.16666666666666666,"honeypot":0,"survey":"bisbas","trial_type":"survey-template","trial_index":3,"time_elapsed":316184,"internal_node_id":"0.0-3.0","task_version":"prescreen-v0.3","browser_interactions":0,"infrequency":0},{"responses":{"Q01":"3","Q02":"2","Q03":"4"},"rt":76440.90000000037,"radio_events":[31054.10000000056,37686,56303.10000000056,76086.70000000019],"key_events":[31054.10000000056,37686,56303.10000000056,76086.70000000019,76438.80000000075],"mouse_events":[],"survey":"map","page":1,"trial_type":"survey-map","trial_index":4,"time_elapsed":392629,"internal_node_id":"0.0-4.0","task_version":"prescreen-v0.3","browser_interactions":0},{"responses":{"Q04":"2","Q05":"3","Q06":"3"},"rt":17435,"radio_events":[9233.700000000186,16208.799999999814,16969],"key_events":[9233.700000000186,14752.899999999441,16208.799999999814,16969,17433],"mouse_events":[],"survey":"map","page":2,"trial_type":"survey-map","trial_index":5,"time_elapsed":410068,"internal_node_id":"0.0-5.0","task_version":"prescreen-v0.3","browser_interactions":0},{"responses":{"Q07":"4","Q08":"4","Q09":"4"},"rt":22221,"radio_events":[16849.700000000186,20842.099999999627,21690.599999999627],"key_events":[16849.700000000186,20842.099999999627,21690.599999999627,22218.900000000373],"mouse_events":[],"survey":"map","page":3,"trial_type":"survey-map","trial_index":6,"time_elapsed":432292,"internal_node_id":"0.0-6.0","task_version":"prescreen-v0.3","browser_interactions":0},{"responses":{"Q10":"2","Q11":"1","Q12":"3","Q13":"4","Q16":"0","Q14":"2","Q15":"1"},"rt":50451.299999999814,"radio_events":[25481,28825.799999999814,31218.299999999814,35498.299999999814,36658.90000000037,39722.200000000186,42265.90000000037,44994.40000000037,49817.90000000037],"key_events":[6058,25481,28825.799999999814,29954.099999999627,31218.299999999814,35498.299999999814,36658.90000000037,39722.200000000186,42265.90000000037,44994.40000000037,49817.90000000037,50448.799999999814],"mouse_events":[],"survey":"map","page":4,"trial_type":"survey-map","trial_index":7,"time_elapsed":482747,"internal_node_id":"0.0-7.0","task_version":"prescreen-v0.3","browser_interactions":0,"infrequency":0},{"view_history":[{"page_index":0,"viewing_time":1323.2999999998137},{"page_index":1,"viewing_time":4583.5999999996275}],"rt":5908.299999999814,"trial_type":"instructions","trial_index":8,"time_elapsed":488658,"internal_node_id":"0.0-8.0","task_version":"prescreen-v0.3"},{"responses":{"01":"Yes","01_ages_14":"14","01_ages_15":"15","01_ages_16":"16","01_ages_17":"17","01_ages_18":"18","02":"No","03":"No","04":"No","05":"No","06":"No"},"rt":33296.200000000186,"item_order":[0,1,2,3,4,5],"radio_events":[10583.5,25166.700000000186,27823.60000000056,30062.700000000186,31558.900000000373,32918.90000000037],"checkbox_events":[16284.799999999814,16951.400000000373,19765.400000000373,21564.700000000186,22756.5],"key_events":[0.20000000018626451,10583.5,16284.799999999814,16951.400000000373,19765.400000000373,21564.700000000186,22756.5,23541.900000000373,25166.700000000186,27823.60000000056,30062.700000000186,31558.900000000373,32918.90000000037,33288.299999999814],"mouse_events":[],"honeypot":0,"survey":"mace","page":1,"trial_type":"survey-mace","trial_index":9,"time_elapsed":521963,"internal_node_id":"0.0-9.0","task_version":"prescreen-v0.3","browser_interactions":0},{"responses":{"01":"No","02":"No","03":"Yes","03_ages_2":"2","03_ages_3":"3","03_ages_4":"4","03_ages_5":"5","04":"No","05":"No","06":"No","07":"No","08":"No"},"rt":17075,"item_order":[0,1,2,3,4,5,6,7],"radio_events":[2001.8999999994412,3377.7999999998137,5770,11322.299999999814,13498.099999999627,14897.700000000186,15930,16697.099999999627],"checkbox_events":[7265.399999999441,7753.899999999441,8161.700000000186,8712.799999999814],"key_events":[2001.8999999994412,3377.7999999998137,5770,7265.399999999441,7753.899999999441,8161.700000000186,8712.799999999814,9905.700000000186,11322.299999999814,13498.099999999627,14897.700000000186,15930,16697.099999999627,17064.799999999814],"mouse_events":[],"honeypot":0,"survey":"mace","page":2,"trial_type":"survey-mace","trial_index":10,"time_elapsed":539053,"internal_node_id":"0.0-10.0","task_version":"prescreen-v0.3","browser_interactions":0},{"responses":{"01":"No","02":"No","03":"No","04":"No"},"rt":7960.100000000559,"item_order":[0,1,2,3],"radio_events":[2603.100000000559,4539,6938.9000000003725,7531.100000000559],"checkbox_events":[],"key_events":[2603.100000000559,4539,5555.4000000003725,6195.200000000186,6938.9000000003725,7531.100000000559,7954.700000000186],"mouse_events":[],"honeypot":0,"survey":"mace","page":3,"trial_type":"survey-mace","trial_index":11,"time_elapsed":547031,"internal_node_id":"0.0-11.0","task_version":"prescreen-v0.3","browser_interactions":0},{"responses":{"01":"No","02":"No"},"rt":3705.2000000001863,"item_order":[0,1],"radio_events":[2054.600000000559,3374.7999999998137],"checkbox_events":[],"key_events":[2054.600000000559,3374.7999999998137,3702.7000000001863],"mouse_events":[],"honeypot":0,"survey":"mace","page":4,"trial_type":"survey-mace","trial_index":12,"time_elapsed":550744,"internal_node_id":"0.0-12.0","task_version":"prescreen-v0.3","browser_interactions":0},{"responses":{"01":"No","02":"No","03":"No","04":"No","05":"No"},"rt":9336.100000000559,"item_order":[0,1,2,3,4],"radio_events":[2865.100000000559,4385.100000000559,5560.600000000559,6937.300000000745,8856.900000000373],"checkbox_events":[],"key_events":[2865.100000000559,4385.100000000559,5560.600000000559,6937.300000000745,8856.900000000373,9329.400000000373],"mouse_events":[],"honeypot":0,"survey":"mace","page":5,"trial_type":"survey-mace","trial_index":13,"time_elapsed":560091,"internal_node_id":"0.0-13.0","task_version":"prescreen-v0.3","browser_interactions":0},{"responses":{"01":"No","01_ages_14":"14","01_ages_15":"15","01_ages_16":"16","01_ages_17":"17","01_ages_18":"18","02":"Yes","02_ages_14":"14","02_ages_15":"15","02_ages_16":"16","02_ages_17":"17","02_ages_18":"18","03":"Yes","03_ages_14":"14","03_ages_15":"15","03_ages_16":"16","03_ages_17":"17","03_ages_18":"18","04":"Yes","04_ages_14":"14","04_ages_15":"15","04_ages_16":"16","04_ages_17":"17","04_ages_18":"18","05":"No"},"rt":50155.299999999814,"item_order":[0,1,2,3,4],"radio_events":[1948.2000000001863,10076.799999999814,28837,31444.89999999944,38444.89999999944,43549.09999999963,49661.299999999814],"checkbox_events":[23684.200000000186,24380.799999999814,24885.39999999944,25452.599999999627,26125.299999999814,33749.700000000186,34428.200000000186,34957,35685.299999999814,36349.200000000186,39996.700000000186,40356.799999999814,40701.200000000186,41197.09999999963,42140.700000000186,44829,45373,45837.299999999814,46316.89999999944,47253.299999999814],"key_events":[1948.2000000001863,10076.799999999814,23684.200000000186,24380.799999999814,24885.39999999944,25452.599999999627,26125.299999999814,28837,31444.89999999944,33141.200000000186,33749.700000000186,34428.200000000186,34957,35685.299999999814,36349.200000000186,38444.89999999944,39996.700000000186,40356.799999999814,40701.200000000186,41197.09999999963,42140.700000000186,43549.09999999963,44829,45373,45837.299999999814,46316.89999999944,47253.299999999814,49661.299999999814,50149.39999999944],"mouse_events":[],"honeypot":0,"survey":"mace","page":6,"trial_type":"survey-mace","trial_index":14,"time_elapsed":610259,"internal_node_id":"0.0-14.0","task_version":"prescreen-v0.3","browser_interactions":0},{"responses":{"01":"No","02":"No","03":"No","04":"No","05":"No","06":"No","07":"No"},"rt":11639.400000000373,"item_order":[0,1,2,3,4,5,6],"radio_events":[2173.800000000745,5677.800000000745,7117.9000000003725,8213.5,9069.700000000186,9893.200000000186,11293.300000000745],"checkbox_events":[],"key_events":[2173.800000000745,5677.800000000745,7117.9000000003725,8213.5,9069.700000000186,9893.200000000186,10540.200000000186,11293.300000000745,11629.5],"mouse_events":[],"honeypot":0,"survey":"mace","page":7,"trial_type":"survey-mace","trial_index":15,"time_elapsed":621903,"internal_node_id":"0.0-15.0","task_version":"prescreen-v0.3","browser_interactions":0},{"responses":{"01":"No","02":"No","03":"Yes","03_ages_12":"12","03_ages_13":"13","03_ages_14":"14","03_ages_15":"15","03_ages_16":"16","03_ages_17":"17","03_ages_18":"18","04":"No"},"rt":45303.200000000186,"item_order":[0,1,2,3],"radio_events":[30314.599999999627,32953.90000000037,35458.40000000037,44955],"checkbox_events":[36338.799999999814,37282.299999999814,37810.59999999963,38346.40000000037,38962.59999999963,39625.299999999814,40249.799999999814],"key_events":[30314.599999999627,32953.90000000037,35458.40000000037,36338.799999999814,36809.799999999814,37282.299999999814,37810.59999999963,38346.40000000037,38962.59999999963,39625.299999999814,40249.799999999814,44955,45298],"mouse_events":[],"honeypot":0,"survey":"mace","page":8,"trial_type":"survey-mace","trial_index":16,"time_elapsed":667210,"internal_node_id":"0.0-16.0","task_version":"prescreen-v0.3","browser_interactions":0},{"responses":{"01":"Yes","01_ages_1":"1","01_ages_2":"2","01_ages_3":"3","01_ages_4":"4","01_ages_5":"5","01_ages_6":"6","01_ages_7":"7","01_ages_8":"8","01_ages_9":"9","01_ages_10":"10","01_ages_11":"11","01_ages_12":"12","01_ages_13":"13","01_ages_14":"14","01_ages_15":"15","01_ages_16":"16","01_ages_17":"17","01_ages_18":"18","02":"Yes","02_ages_1":"1","02_ages_2":"2","02_ages_3":"3","02_ages_4":"4","02_ages_5":"5","02_ages_6":"6","02_ages_7":"7","02_ages_8":"8","02_ages_9":"9","02_ages_10":"10","02_ages_11":"11","02_ages_12":"12","02_ages_13":"13","02_ages_14":"14","02_ages_15":"15","02_ages_16":"16","02_ages_17":"17","02_ages_18":"18","03":"Yes","03_ages_1":"1","03_ages_2":"2","03_ages_3":"3","03_ages_4":"4","03_ages_5":"5","03_ages_6":"6","03_ages_7":"7","03_ages_8":"8","03_ages_9":"9","03_ages_10":"10","03_ages_11":"11","03_ages_12":"12","03_ages_13":"13","03_ages_14":"14","03_ages_15":"15","03_ages_16":"16","03_ages_17":"17","03_ages_18":"18","04":"Yes","04_ages_1":"1","04_ages_2":"2","04_ages_3":"3","04_ages_4":"4","04_ages_5":"5","04_ages_6":"6","04_ages_7":"7","04_ages_8":"8","04_ages_9":"9","04_ages_10":"10","04_ages_11":"11","04_ages_12":"12","04_ages_13":"13","04_ages_14":"14","04_ages_15":"15","04_ages_16":"16","04_ages_17":"17","04_ages_18":"18"},"rt":82277.20000000019,"item_order":[0,1,2,3],"radio_events":[5287.300000000745,37446.800000000745,52719.40000000037,71062],"checkbox_events":[17494.60000000056,18230.300000000745,18614.800000000745,19125.60000000056,19863,20214.60000000056,20742.60000000056,21135.200000000186,21502.5,21822.700000000186,22247.400000000373,22822.900000000373,23510.700000000186,31670.900000000373,32246.10000000056,32630.5,33326.700000000186,34086.5,38518.40000000037,38966.90000000037,39814.40000000037,40158.10000000056,40510.700000000186,41269.200000000186,41615.200000000186,41958.60000000056,42270.700000000186,42686.300000000745,44366.800000000745,44742.700000000186,45469.5,45822.40000000037,46518.5,46846.300000000745,47277.40000000037,51078.90000000037,53885.800000000745,54438.800000000745,54885.90000000037,55271.40000000037,56654.700000000186,57038.40000000037,57614.300000000745,58094.800000000745,58438.5,58901.700000000186,59574.800000000745,63334.40000000037,63743.200000000186,64126.800000000745,64534.40000000037,64990.800000000745,65967,66535,72782.80000000075,73382.70000000019,74414.70000000019,74950.40000000037,75486.20000000019,75950.5,76558.70000000019,76942.30000000075,77325.20000000019,77870.5,78638.90000000037,78998.90000000037,79703,80093,80711.40000000037,81109.30000000075,81494.80000000075,81870.80000000075],"key_events":[5287.300000000745,17494.60000000056,18230.300000000745,18614.800000000745,19125.60000000056,19863,20214.60000000056,20742.60000000056,21135.200000000186,21502.5,21822.700000000186,22247.400000000373,22822.900000000373,23510.700000000186,31670.900000000373,32246.10000000056,32630.5,32989.200000000186,33326.700000000186,34086.5,37446.800000000745,38518.40000000037,38966.90000000037,39398.60000000056,39814.40000000037,40158.10000000056,40510.700000000186,41269.200000000186,41615.200000000186,41958.60000000056,42270.700000000186,42686.300000000745,43006.60000000056,43437.700000000186,43886.40000000037,44366.800000000745,44742.700000000186,45469.5,45822.40000000037,46518.5,46846.300000000745,47277.40000000037,51078.90000000037,52719.40000000037,53885.800000000745,54438.800000000745,54885.90000000037,55271.40000000037,55613.5,56654.700000000186,57038.40000000037,57614.300000000745,58094.800000000745,58438.5,58901.700000000186,59238.90000000037,59574.800000000745,63334.40000000037,63743.200000000186,64126.800000000745,64534.40000000037,64990.800000000745,65415.200000000186,65967,66535,71062,72782.80000000075,73382.70000000019,74414.70000000019,74950.40000000037,75486.20000000019,75950.5,76558.70000000019,76942.30000000075,77325.20000000019,77870.5,78638.90000000037,78998.90000000037,79703,80093,80711.40000000037,81109.30000000075,81494.80000000075,81870.80000000075,82271.10000000056],"mouse_events":[],"honeypot":0,"survey":"mace","page":9,"trial_type":"survey-mace","trial_index":17,"time_elapsed":749492,"internal_node_id":"0.0-17.0","task_version":"prescreen-v0.3","browser_interactions":0},{"responses":{"01":"No","02":"No","03":"Yes","03_ages_13":"13","03_ages_14":"14","03_ages_15":"15","03_ages_16":"16","03_ages_17":"17","03_ages_18":"18","04":"No","05":"No","06":"Yes","06_ages_17":"17","07":"Yes","07_ages_1":"1","07_ages_2":"2","07_ages_3":"3","07_ages_4":"4","07_ages_5":"5","07_ages_6":"6","07_ages_7":"7","07_ages_8":"8","07_ages_9":"9","07_ages_10":"10","07_ages_11":"11","07_ages_12":"12","07_ages_13":"13","07_ages_14":"14","07_ages_15":"15","07_ages_16":"16","07_ages_17":"17","07_ages_18":"18","08":"Yes","08_ages_1":"1","08_ages_2":"2","08_ages_3":"3","08_ages_4":"4","08_ages_5":"5","08_ages_6":"6","08_ages_7":"7","08_ages_8":"8","08_ages_9":"9","08_ages_10":"10","08_ages_11":"11","08_ages_12":"12","08_ages_13":"13","08_ages_14":"14","08_ages_15":"15","08_ages_16":"16","08_ages_17":"17","08_ages_18":"18"},"rt":48606.59999999963,"item_order":[0,1,2,3,4,5,6,7],"radio_events":[2395.699999999255,4052.7999999998137,6476.5,12845.099999999627,14716.699999999255,17269,20892.599999999627,36412.59999999963],"checkbox_events":[7900.5999999996275,8395.799999999814,8796.699999999255,9540,10036.399999999441,10612.799999999814,18956.599999999627,22260.199999999255,22684.599999999627,24051.799999999814,24572.699999999255,25276.5,25731.599999999627,26099.199999999255,26468.599999999627,26867.799999999814,27739.89999999944,29228.89999999944,30011.5,30492.799999999814,31196.5,32492.39999999944,33252.59999999963,33828.199999999255,34484.59999999963,37780.39999999944,38259.39999999944,38925.09999999963,39276.59999999963,39628,40028.699999999255,40492.699999999255,41084.5,41477.699999999255,42276,42660.799999999814,43148.699999999255,43949.09999999963,45083.799999999814,45508.39999999944,46189.199999999255,46828.39999999944,47388.09999999963],"key_events":[2395.699999999255,4052.7999999998137,6476.5,7900.5999999996275,8395.799999999814,8796.699999999255,9540,10036.399999999441,10612.799999999814,12845.099999999627,14716.699999999255,17269,18956.599999999627,20892.599999999627,22260.199999999255,22684.599999999627,23068.39999999944,23595.299999999814,24051.799999999814,24572.699999999255,25276.5,25731.599999999627,26099.199999999255,26468.599999999627,26867.799999999814,27219.099999999627,27739.89999999944,29228.89999999944,30011.5,30492.799999999814,30845.099999999627,31196.5,32492.39999999944,33252.59999999963,33828.199999999255,34484.59999999963,34725.09999999963,36412.59999999963,37380.39999999944,37780.39999999944,38259.39999999944,38925.09999999963,39276.59999999963,39628,40028.699999999255,40492.699999999255,41084.5,41477.699999999255,41940.699999999255,42276,42660.799999999814,43148.699999999255,43949.09999999963,44348.89999999944,45083.799999999814,45508.39999999944,46189.199999999255,46828.39999999944,47388.09999999963,47628.199999999255,48596.09999999963],"mouse_events":[],"honeypot":0,"survey":"mace","page":10,"trial_type":"survey-mace","trial_index":18,"time_elapsed":798104,"internal_node_id":"0.0-18.0","task_version":"prescreen-v0.3","browser_interactions":0,"instructed":0},{"rt":17178.599999999627,"trial_type":"mental-health-alert","trial_index":19,"time_elapsed":815286,"internal_node_id":"0.0-19.0","task_version":"prescreen-v0.3","interactions":"[{\"event\":\"blur\",\"trial\":19,\"time\":799868},{\"event\":\"focus\",\"trial\":19,\"time\":809990}]"}]