[{"view_history":[{"page_index":0,"viewing_time":3740},{"page_index":1,"viewing_time":1388},{"page_index":2,"viewing_time":1636},{"page_index":3,"viewing_time":816}],"rt":7581,"trial_type":"instructions","trial_index":0,"time_elapsed":7586,"internal_node_id":"0.0-0.0","task_version":"prescreen-v0.3"},{"rt":22891,"responses":{"age":"21","gender-categorical":"Rather not say","gender-free-response":"","ethnicity":"Not Hispanic or Latino","race":["White"],"education":"Associate degree"},"trial_type":"survey-demo","trial_index":1,"time_elapsed":30486,"internal_node_id":"0.0-1.0","task_version":"prescreen-v0.3"},{"responses":{"Q08":"2","Q02":"0","Q07":"0","Q12":"2","Q01":"1","Q09":"1","Q05":"0","Q06":"1","Q15":"1","Q16":"0","Q14":"0","Q17":"0","Q19":"0","Q03":"0","Q11":"0","Q18":"0","Q04":"1","Q13":"1","Q10":"0","Q21":"3","Q20":"0"},"rt":147343,"item_order":[7,1,6,11,0,8,4,5,14,15,13,16,18,2,10,17,3,12,9,20,19],"radio_events":[9932,16201,22102,27879.000000000007,31594,35858,45431,50512,102018,103403,106785.00000000003,110675,114161,118536,121495,125239,129239,133066,136351,139359,142668,146251],"key_events":[],"mouse_events":[9932,16201,22102,27879.000000000007,31594,35858,45431,50512,102018,103403,106785.00000000003,110675,114161,118536,121495,125239,129239,133066,136351,139359,142668,146251,147326],"straightlining":0.5714285714285714,"zigzagging":0.4,"honeypot":0,"survey":"sns","trial_type":"survey-template","trial_index":2,"time_elapsed":177831,"internal_node_id":"0.0-2.0","task_version":"prescreen-v0.3","browser_interactions":0,"infrequency":0},{"responses":{"Q07":"3","Q11":"3","Q08":"3","Q02":"2","Q06":"3","Q04":"3","Q05":"3","Q03":"3","Q10":"3","Q09":"3","Q12":"2","Q13":"0","Q01":"2"},"rt":53934,"item_order":[6,10,7,1,5,3,4,2,9,8,11,12,0],"radio_events":[4666,8625,11880,15672,17295.00000000003,22385,26047,28206.00000000003,38119,42445,44496,47878.00000000003,51054,53317],"key_events":[],"mouse_events":[4215,4666,8089,8625,11880,15672,16536,17295.00000000003,22385,26047,28206.00000000003,38119,42445,44496,47878.00000000003,51054,53317,53922],"straightlining":0.6923076923076923,"zigzagging":0.25,"honeypot":0,"survey":"bisbas","trial_type":"survey-template","trial_index":3,"time_elapsed":231768,"internal_node_id":"0.0-3.0","task_version":"prescreen-v0.3","browser_interactions":0,"infrequency":0},{"responses":{"Q01":"4","Q02":"3","Q03":"4"},"rt":15690,"radio_events":[5286,9537.99999999997,14908.99999999997],"key_events":[],"mouse_events":[5286,9537.99999999997,14908.99999999997,15683.99999999997],"survey":"map","page":1,"trial_type":"survey-map","trial_index":4,"time_elapsed":247461,"internal_node_id":"0.0-4.0","task_version":"prescreen-v0.3","browser_interactions":0},{"responses":{"Q04":"2","Q05":"2","Q06":"3"},"rt":12863.00000000003,"radio_events":[4029,8674.99999999997,12363.00000000003],"key_events":[],"mouse_events":[4029,8674.99999999997,12363.00000000003,12858.00000000003],"survey":"map","page":2,"trial_type":"survey-map","trial_index":5,"time_elapsed":260327,"internal_node_id":"0.0-5.0","task_version":"prescreen-v0.3","browser_interactions":0},{"responses":{"Q07":"2","Q08":"4","Q09":"3"},"rt":15156,"radio_events":[7372,10914,14585],"key_events":[],"mouse_events":[7372,10914,14585,15149],"survey":"map","page":3,"trial_type":"survey-map","trial_index":6,"time_elapsed":275485,"internal_node_id":"0.0-6.0","task_version":"prescreen-v0.3","browser_interactions":0},{"responses":{"Q10":"4","Q11":"2","Q12":"3","Q13":"2","Q16":"0","Q14":"2","Q15":"2"},"rt":47516,"radio_events":[4271,7170,9653,14669,21400,22556,27405,44102,46726],"key_events":[],"mouse_events":[4271,7170,9653,14669,21400,22556,27405,44102,46726,47509],"survey":"map","page":4,"trial_type":"survey-map","trial_index":7,"time_elapsed":323002,"internal_node_id":"0.0-7.0","task_version":"prescreen-v0.3","browser_interactions":0,"infrequency":0},{"view_history":[{"page_index":0,"viewing_time":1787},{"page_index":1,"viewing_time":4396}],"rt":6184,"trial_type":"instructions","trial_index":8,"time_elapsed":329187,"internal_node_id":"0.0-8.0","task_version":"prescreen-v0.3"},{"responses":{"01":"No","02":"Yes","02_ages_15":"15","02_ages_16":"16","02_ages_17":"17","02_ages_18":"18","03":"No","04":"No","05":"No","06":"No"},"rt":37993.99999999994,"item_order":[0,1,2,3,4,5],"radio_events":[11610.999999999942,15185,31212.99999999994,33178.99999999994,35077,37238.99999999994],"checkbox_events":[21792.99999999994,22597.99999999994,23060.99999999994,23532.99999999994],"key_events":[],"mouse_events":[0,10880.999999999942,11610.999999999942,15185,21792.99999999994,22597.99999999994,23060.99999999994,23532.99999999994,31212.99999999994,33178.99999999994,35077,37238.99999999994,37980.99999999994],"honeypot":0,"survey":"mace","page":1,"trial_type":"survey-mace","trial_index":9,"time_elapsed":367189,"internal_node_id":"0.0-9.0","task_version":"prescreen-v0.3","browser_interactions":0},{"responses":{"01":"No","02":"No","03":"No","04":"No","05":"No","06":"No","07":"No","08":"No"},"rt":18721,"item_order":[0,1,2,3,4,5,6,7],"radio_events":[2388.000000000058,5693,7207,9789,12875,14819,16280.000000000058,18161],"checkbox_events":[],"key_events":[],"mouse_events":[2388.000000000058,5693,7207,9789,12875,14819,16280.000000000058,18161,18710.00000000006],"honeypot":0,"survey":"mace","page":2,"trial_type":"survey-mace","trial_index":10,"time_elapsed":385915,"internal_node_id":"0.0-10.0","task_version":"prescreen-v0.3","browser_interactions":0},{"responses":{"01":"No","02":"No","03":"No","04":"No"},"rt":7847,"item_order":[0,1,2,3],"radio_events":[2745,3863,6634,7178],"checkbox_events":[],"key_events":[],"mouse_events":[2745,3863,6634,7178,7840],"honeypot":0,"survey":"mace","page":3,"trial_type":"survey-mace","trial_index":11,"time_elapsed":393768,"internal_node_id":"0.0-11.0","task_version":"prescreen-v0.3","browser_interactions":0},{"responses":{"01":"No","02":"No"},"rt":10784,"item_order":[0,1],"radio_events":[7522,9243],"checkbox_events":[],"key_events":[],"mouse_events":[7522,9243,10777],"honeypot":0,"survey":"mace","page":4,"trial_type":"survey-mace","trial_index":12,"time_elapsed":404557,"internal_node_id":"0.0-12.0","task_version":"prescreen-v0.3","browser_interactions":0},{"responses":{"01":"No","02":"No","03":"No","04":"No","05":"No"},"rt":19717,"item_order":[0,1,2,3,4],"radio_events":[8283,12089.000000000058,14995,17570.00000000006,19134],"checkbox_events":[],"key_events":[],"mouse_events":[8283,12089.000000000058,14995,17570.00000000006,19134,19709],"honeypot":0,"survey":"mace","page":5,"trial_type":"survey-mace","trial_index":13,"time_elapsed":424281,"internal_node_id":"0.0-13.0","task_version":"prescreen-v0.3","browser_interactions":0},{"responses":{"01":"No","02":"No","03":"No","04":"No","05":"No"},"rt":21867,"item_order":[0,1,2,3,4],"radio_events":[9393,12927,16400,17899,20157],"checkbox_events":[],"key_events":[],"mouse_events":[9393,12927,16400,17899,20157,21858.00000000006],"honeypot":0,"survey":"mace","page":6,"trial_type":"survey-mace","trial_index":14,"time_elapsed":446154,"internal_node_id":"0.0-14.0","task_version":"prescreen-v0.3","browser_interactions":0},{"responses":{"01":"No","02":"No","03":"No","04":"No","05":"No","06":"No","07":"Yes","07_ages_18":"18"},"rt":21127,"item_order":[0,1,2,3,4,5,6],"radio_events":[2708,6334,8993,9736,11275,17088,17840],"checkbox_events":[18983],"key_events":[],"mouse_events":[2708,6334,8993,9736,11275,17088,17840,18983,21112],"honeypot":0,"survey":"mace","page":7,"trial_type":"survey-mace","trial_index":15,"time_elapsed":467288,"internal_node_id":"0.0-15.0","task_version":"prescreen-v0.3","browser_interactions":0},{"responses":{"01":"No","02":"No","03":"Yes","03_ages_15":"15","03_ages_16":"16","03_ages_17":"17","03_ages_18":"18","04":"No"},"rt":33257.99999999994,"item_order":[0,1,2,3],"radio_events":[14412.999999999942,16346,20525.99999999994,31242.99999999994],"checkbox_events":[26123.99999999994,26856.99999999994,27428,28009.99999999994],"key_events":[],"mouse_events":[14412.999999999942,16346,20525.99999999994,26123.99999999994,26856.99999999994,27428,28009.99999999994,31242.99999999994,33248.99999999994],"honeypot":0,"survey":"mace","page":8,"trial_type":"survey-mace","trial_index":16,"time_elapsed":500550,"internal_node_id":"0.0-16.0","task_version":"prescreen-v0.3","browser_interactions":0},{"responses":{"01":"Yes","01_ages_1":"1","01_ages_2":"2","01_ages_3":"3","01_ages_4":"4","01_ages_5":"5","01_ages_6":"6","01_ages_7":"7","01_ages_8":"8","01_ages_9":"9","01_ages_10":"10","01_ages_11":"11","01_ages_12":"12","01_ages_13":"13","01_ages_14":"14","01_ages_15":"15","01_ages_16":"16","01_ages_17":"17","01_ages_18":"18","02":"Yes","02_ages_1":"1","02_ages_2":"2","02_ages_3":"3","02_ages_4":"4","02_ages_5":"5","02_ages_6":"6","02_ages_7":"7","02_ages_8":"8","02_ages_9":"9","02_ages_10":"10","02_ages_11":"11","02_ages_12":"12","02_ages_13":"13","02_ages_14":"14","02_ages_15":"15","02_ages_16":"16","02_ages_17":"17","02_ages_18":"18","03":"Yes","03_ages_1":"1","03_ages_2":"2","03_ages_3":"3","03_ages_4":"4","03_ages_5":"5","03_ages_6":"6","03_ages_7":"7","03_ages_8":"8","03_ages_9":"9","03_ages_10":"10","03_ages_11":"11","03_ages_12":"12","03_ages_13":"13","03_ages_14":"14","03_ages_15":"15","03_ages_16":"16","03_ages_17":"17","03_ages_18":"18","04":"Yes","04_ages_1":"1","04_ages_2":"2","04_ages_3":"3","04_ages_4":"4","04_ages_5":"5","04_ages_6":"6","04_ages_7":"7","04_ages_8":"8","04_ages_9":"9","04_ages_10":"10","04_ages_11":"11","04_ages_12":"12","04_ages_13":"13","04_ages_14":"14","04_ages_15":"15","04_ages_16":"16","04_ages_17":"17","04_ages_18":"18"},"rt":67542,"item_order":[0,1,2,3],"radio_events":[6811,25537,39925,55646],"checkbox_events":[9560,10511.000000000058,11422,11995,12500,12992.000000000058,13855,14800.000000000058,15411.000000000058,15840,16422,16939.00000000006,17436,18106.99999999994,18636.00000000006,19052,19470,20617.00000000006,26802,27290.000000000116,27727,28620,29525,30065,30535.000000000116,30953,31888,32375,32946,33359,33842,34270,34708,35597,36118,36597,40916,41420,41854,42715,43166,43645,44483,44891.00000000012,45325,45821,46298,47163,48015,48539,48982,49465,49952,50415.00000000012,57252,57714,58190,58631,59520,59943,60372,61253,61725,62645,63095,63582,64455,64895,65392,65864,66446,66913],"key_events":[],"mouse_events":[6811,9560,10511.000000000058,11422,11995,12500,12992.000000000058,13855,14800.000000000058,15411.000000000058,15840,16422,16939.00000000006,17436,18106.99999999994,18636.00000000006,19052,19470,20617.00000000006,25537,26802,27290.000000000116,27727,28620,29525,30065,30535.000000000116,30953,31888,32375,32946,33359,33842,34270,34708,35597,36118,36597,39925,40916,41420,41854,42715,43166,43645,44483,44891.00000000012,45325,45821,46298,47163,48015,48539,48982,49465,49952,50415.00000000012,55646,57252,57714,58190,58631,59520,59943,60372,61253,61725,62645,63095,63582,64455,64895,65392,65864,66446,66913,67530],"honeypot":0,"survey":"mace","page":9,"trial_type":"survey-mace","trial_index":17,"time_elapsed":568097,"internal_node_id":"0.0-17.0","task_version":"prescreen-v0.3","browser_interactions":0},{"responses":{"01":"No","02":"No","03":"No","04":"No","05":"No","06":"Yes","06_ages_17":"17","07":"No","08":"No"},"rt":38052,"item_order":[0,1,2,3,4,5,6,7],"radio_events":[6128,6668,10427,14318.000000000116,17038,19670,22847,28029,31794.000000000116,34796,37243],"checkbox_events":[23738],"key_events":[],"mouse_events":[5704,6128,6668,9936,10427,14318.000000000116,17038,19670,22847,23738,28029,31794.000000000116,34796,37243,38041],"honeypot":0,"survey":"mace","page":10,"trial_type":"survey-mace","trial_index":18,"time_elapsed":606156,"internal_node_id":"0.0-18.0","task_version":"prescreen-v0.3","browser_interactions":0,"instructed":0},{"rt":3509.0000000001164,"trial_type":"mental-health-alert","trial_index":19,"time_elapsed":609670,"internal_node_id":"0.0-19.0","task_version":"prescreen-v0.3","interactions":"[]"}]