[{"view_history":[{"page_index":0,"viewing_time":3304.699999988079},{"page_index":1,"viewing_time":3583.900000035763},{"page_index":2,"viewing_time":3799.899999976158},{"page_index":3,"viewing_time":1000}],"rt":11689,"trial_type":"instructions","trial_index":0,"time_elapsed":11704,"internal_node_id":"0.0-0.0","task_version":"prescreen-v0.3"},{"rt":13461,"responses":{"age":"32","gender-categorical":"Male","gender-free-response":"","ethnicity":"Hispanic or Latino","race":["White"],"education":"Some college"},"trial_type":"survey-demo","trial_index":1,"time_elapsed":25167,"internal_node_id":"0.0-1.0","task_version":"prescreen-v0.3"},{"responses":{"Q12":"2","Q13":"2","Q09":"0","Q06":"2","Q11":"0","Q07":"1","Q14":"2","Q20":"1","Q03":"2","Q10":"0","Q05":"2","Q17":"1","Q18":"3","Q21":"3","Q15":"2","Q19":"1","Q02":"0","Q16":"3","Q01":"2","Q04":"1","Q08":"1"},"rt":94852.09999996424,"item_order":[11,12,8,5,10,6,13,19,2,9,4,16,17,20,14,18,1,15,0,3,7],"radio_events":[12403,14483.800000011921,17771,25331,27563,32571,36066.89999997616,38458.89999997616,42314.80000001192,43659,49490.89999997616,52995,57266.89999997616,62946.80000001192,66954.89999997616,72458.89999997616,77282.80000001192,80002.80000001192,83666.80000001192,89074.80000001192,94002.80000001192],"key_events":[],"mouse_events":[12403,14483.800000011921,17771,25331,27563,32571,36066.89999997616,38458.89999997616,42314.80000001192,43659,49490.89999997616,52995,57266.89999997616,62946.80000001192,66395.09999996424,66954.89999997616,72458.89999997616,75674.80000001192,76378.80000001192,77282.80000001192,80002.80000001192,83666.80000001192,89074.80000001192,94002.80000001192,94850.69999998808],"straightlining":0.38095238095238093,"zigzagging":0.55,"honeypot":0,"survey":"sns","trial_type":"survey-template","trial_index":2,"time_elapsed":120025,"internal_node_id":"0.0-2.0","task_version":"prescreen-v0.3","browser_interactions":0,"infrequency":0},{"responses":{"Q12":"3","Q02":"2","Q09":"3","Q07":"3","Q13":"0","Q11":"3","Q05":"3","Q04":"3","Q06":"3","Q08":"3","Q01":"2","Q03":"3","Q10":"3"},"rt":50715.09999996424,"item_order":[11,1,8,6,12,10,4,3,5,7,0,2,9],"radio_events":[6874.399999976158,9930.399999976158,12554.300000011921,14755.099999964237,16666.30000001192,22978.30000001192,29474.30000001192,32938.30000001192,34386.30000001192,37978.19999998808,43122.19999998808,45194.19999998808,49122.80000001192],"key_events":[],"mouse_events":[6874.399999976158,9930.399999976158,12554.300000011921,14755.099999964237,16666.30000001192,22978.30000001192,24986.30000001192,29474.30000001192,31746.30000001192,32938.30000001192,34386.30000001192,37978.19999998808,43122.19999998808,45194.19999998808,45538.39999997616,49122.80000001192,50714.30000001192],"straightlining":0.7692307692307693,"zigzagging":0.5,"honeypot":0,"survey":"bisbas","trial_type":"survey-template","trial_index":3,"time_elapsed":170744,"internal_node_id":"0.0-3.0","task_version":"prescreen-v0.3","browser_interactions":0,"infrequency":0},{"responses":{"Q01":"2","Q02":"3","Q03":"3"},"rt":12747.399999976158,"radio_events":[6035.199999988079,9427.100000023842,12123.100000023842],"key_events":[],"mouse_events":[6035.199999988079,9427.100000023842,12123.100000023842,12747],"survey":"map","page":1,"trial_type":"survey-map","trial_index":4,"time_elapsed":183495,"internal_node_id":"0.0-4.0","task_version":"prescreen-v0.3","browser_interactions":0},{"responses":{"Q04":"2","Q05":"2","Q06":"2"},"rt":18060.600000023842,"radio_events":[12061.100000023842,15580.300000011921,17604.19999998808],"key_events":[],"mouse_events":[12061.100000023842,14828.300000011921,15580.300000011921,17604.19999998808,18060.30000001192],"survey":"map","page":2,"trial_type":"survey-map","trial_index":5,"time_elapsed":201558,"internal_node_id":"0.0-5.0","task_version":"prescreen-v0.3","browser_interactions":0},{"responses":{"Q07":"4","Q08":"4","Q09":"3"},"rt":11020.900000035763,"radio_events":[5028.600000023842,8220.600000023842,10268.5],"key_events":[],"mouse_events":[5028.600000023842,8220.600000023842,10268.5,10709.100000023842,11020.5],"survey":"map","page":3,"trial_type":"survey-map","trial_index":6,"time_elapsed":212582,"internal_node_id":"0.0-6.0","task_version":"prescreen-v0.3","browser_interactions":0},{"responses":{"Q10":"2","Q11":"2","Q12":"4","Q13":"4","Q16":"0","Q14":"2","Q15":"3"},"rt":62493,"radio_events":[7268.5,9564.5,13220.5,50012.5,54916.39999997616,60980.39999997616,62100.39999997616],"key_events":[],"mouse_events":[5252.399999976158,7268.5,9564.5,13220.5,50012.5,54916.39999997616,58604.5,60980.39999997616,62100.39999997616,62492.39999997616],"survey":"map","page":4,"trial_type":"survey-map","trial_index":7,"time_elapsed":275079,"internal_node_id":"0.0-7.0","task_version":"prescreen-v0.3","browser_interactions":0,"infrequency":0},{"view_history":[{"page_index":0,"viewing_time":4116},{"page_index":1,"viewing_time":4928.100000023842}],"rt":9044.300000011921,"trial_type":"instructions","trial_index":8,"time_elapsed":284126,"internal_node_id":"0.0-8.0","task_version":"prescreen-v0.3"},{"responses":{"01":"Yes","01_ages_15":"15","01_ages_16":"16","01_ages_17":"17","01_ages_18":"18","02":"Yes","02_ages_7":"7","02_ages_8":"8","02_ages_9":"9","02_ages_10":"10","02_ages_11":"11","02_ages_12":"12","02_ages_13":"13","02_ages_14":"14","02_ages_15":"15","02_ages_16":"16","02_ages_17":"17","02_ages_18":"18","03":"Yes","03_ages_3":"3","03_ages_4":"4","03_ages_5":"5","03_ages_6":"6","03_ages_7":"7","03_ages_8":"8","03_ages_9":"9","03_ages_10":"10","03_ages_11":"11","03_ages_12":"12","03_ages_13":"13","03_ages_14":"14","03_ages_15":"15","03_ages_16":"16","03_ages_17":"17","03_ages_18":"18","04":"No","05":"No","06":"Yes","06_ages_3":"3","06_ages_4":"4","06_ages_5":"5","06_ages_6":"6","06_ages_7":"7","06_ages_8":"8","06_ages_9":"9","06_ages_10":"10","06_ages_11":"11","06_ages_12":"12","06_ages_13":"13","06_ages_14":"14","06_ages_15":"15","06_ages_16":"16","06_ages_17":"17","06_ages_18":"18"},"rt":85183.19999998808,"item_order":[0,1,2,3,4,5],"radio_events":[12341.5,23077.30000001192,48189.10000002384,65189.19999998808,70429.19999998808,73213.10000002384],"checkbox_events":[18038.19999998808,18549.600000023842,19605.19999998808,27157.69999998808,27477.100000023842,27773.100000023842,28149.5,29133.19999998808,29445.30000001192,29957,30741.80000001192,31725.69999998808,32005,34301.30000001192,36533.69999998808,38405.69999998808,38957.19999998808,39613.19999998808,41245.80000001192,41957.19999998808,42349.19999998808,42893.19999998808,43309.19999998808,44109.19999998808,50309.19999998808,50677.5,51421.19999998808,52093.19999998808,52637.90000003576,53565.60000002384,53901.10000002384,54261.10000002384,55013.30000001192,55341.80000001192,56389.19999998808,57005.19999998808,57413.69999998808,57829.10000002384,58669.19999998808,59085.10000002384,74949.10000002384,75549.10000002384,76213,77269.10000002384,77997.10000002384,78573.10000002384,79149.10000002384,79685,80685.19999998808,81029.10000002384,81573,81941.10000002384,82261.10000002384,82661.10000002384,83101.40000003576,84541],"key_events":[],"mouse_events":[0.19999998807907104,12341.5,18038.19999998808,18549.600000023842,19093.69999998808,19605.19999998808,23077.30000001192,27157.69999998808,27477.100000023842,27773.100000023842,28149.5,28461.100000023842,29133.19999998808,29445.30000001192,29957,30277.69999998808,30741.80000001192,31029,31445.600000023842,31725.69999998808,32005,32989.69999998808,33773.69999998808,34061.69999998808,34301.30000001192,36533.69999998808,38093.90000003576,38405.69999998808,38957.19999998808,39613.19999998808,40629.10000002384,41245.80000001192,41957.19999998808,42349.19999998808,42893.19999998808,43309.19999998808,44109.19999998808,48189.10000002384,50309.19999998808,50677.5,51421.19999998808,52093.19999998808,52637.90000003576,52981.19999998808,53565.60000002384,53901.10000002384,54261.10000002384,54613.10000002384,55013.30000001192,55341.80000001192,55813.19999998808,56389.19999998808,57005.19999998808,57413.69999998808,57829.10000002384,58301.19999998808,58669.19999998808,59085.10000002384,65189.19999998808,70429.19999998808,73213.10000002384,74949.10000002384,75549.10000002384,76213,77269.10000002384,77997.10000002384,78573.10000002384,79149.10000002384,79685,80061.10000002384,80685.19999998808,81029.10000002384,81573,81941.10000002384,82261.10000002384,82661.10000002384,83101.40000003576,83685.10000002384,84252.90000003576,84541,85181.40000003576],"honeypot":0,"survey":"mace","page":1,"trial_type":"survey-mace","trial_index":9,"time_elapsed":369313,"internal_node_id":"0.0-9.0","task_version":"prescreen-v0.3","browser_interactions":0},{"responses":{"01":"Yes","01_ages_7":"7","01_ages_8":"8","01_ages_9":"9","01_ages_10":"10","01_ages_11":"11","01_ages_12":"12","01_ages_13":"13","01_ages_14":"14","01_ages_15":"15","01_ages_16":"16","01_ages_17":"17","01_ages_18":"18","02":"No","03":"Yes","03_ages_3":"3","03_ages_4":"4","03_ages_5":"5","03_ages_6":"6","03_ages_7":"7","03_ages_8":"8","03_ages_9":"9","03_ages_10":"10","03_ages_11":"11","03_ages_12":"12","03_ages_13":"13","03_ages_14":"14","03_ages_15":"15","03_ages_16":"16","03_ages_17":"17","03_ages_18":"18","04":"Yes","04_ages_3":"3","04_ages_4":"4","04_ages_5":"5","04_ages_6":"6","04_ages_7":"7","04_ages_8":"8","04_ages_9":"9","04_ages_10":"10","04_ages_11":"11","04_ages_12":"12","04_ages_13":"13","05":"Yes","05_ages_7":"7","05_ages_8":"8","05_ages_9":"9","05_ages_10":"10","05_ages_11":"11","05_ages_12":"12","05_ages_13":"13","05_ages_14":"14","05_ages_15":"15","06":"Yes","06_ages_13":"13","06_ages_14":"14","06_ages_15":"15","06_ages_16":"16","07":"No","08":"No"},"rt":69211.60000002384,"item_order":[0,1,2,3,4,5,6,7],"radio_events":[2849.199999988079,18625.100000023842,19417.100000023842,32602.900000035763,43249.10000002384,60576.90000003576,66881.30000001192,68337.90000003576],"checkbox_events":[5033.199999988079,5329.199999988079,5729.199999988079,6097.100000023842,6657.100000023842,6953.300000011921,7497,7873.199999988079,8481.199999988079,8753.100000023842,9209.199999988079,9745.100000023842,21241.100000023842,21953.100000023842,22361.100000023842,22737.100000023842,23225.19999998808,24073.100000023842,24368.900000035763,25048.900000035763,26049,26457.100000023842,27001.5,27320.900000035763,27985,28321.100000023842,28801.100000023842,29800.900000035763,34801.10000002384,35569.10000002384,36105,36545.10000002384,36921.10000002384,37328.90000003576,37729.10000002384,38633.19999998808,39232.90000003576,40177.10000002384,41465,45761.10000002384,46593.5,47057,48185.10000002384,48569.10000002384,49177.10000002384,49617.10000002384,50433.10000002384,51617,62993.10000002384,63665.10000002384,64417.10000002384,64969],"key_events":[],"mouse_events":[2849.199999988079,5033.199999988079,5329.199999988079,5729.199999988079,6097.100000023842,6657.100000023842,6953.300000011921,7497,7873.199999988079,8481.199999988079,8753.100000023842,9209.199999988079,9745.100000023842,18625.100000023842,19417.100000023842,21241.100000023842,21625.80000001192,21953.100000023842,22361.100000023842,22737.100000023842,23225.19999998808,24073.100000023842,24368.900000035763,24713.400000035763,25048.900000035763,25361.19999998808,25800.900000035763,26049,26457.100000023842,27001.5,27320.900000035763,27633.100000023842,27985,28321.100000023842,28801.100000023842,29328.900000035763,29800.900000035763,32602.900000035763,34801.10000002384,35569.10000002384,36105,36545.10000002384,36921.10000002384,37328.90000003576,37729.10000002384,38289.10000002384,38633.19999998808,39232.90000003576,40177.10000002384,41465,43249.10000002384,45761.10000002384,46593.5,47057,47625.5,48185.10000002384,48569.10000002384,49177.10000002384,49617.10000002384,50433.10000002384,50889.10000002384,51617,60576.90000003576,62993.10000002384,63665.10000002384,64153.30000001192,64417.10000002384,64969,66881.30000001192,68337.90000003576,68816.90000003576,69209.19999998808],"honeypot":0,"survey":"mace","page":2,"trial_type":"survey-mace","trial_index":10,"time_elapsed":438529,"internal_node_id":"0.0-10.0","task_version":"prescreen-v0.3","browser_interactions":0},{"responses":{"01":"Yes","01_ages_10":"10","01_ages_11":"11","01_ages_12":"12","01_ages_13":"13","01_ages_14":"14","01_ages_15":"15","01_ages_16":"16","01_ages_17":"17","01_ages_18":"18","02":"No","03":"Yes","03_ages_10":"10","03_ages_11":"11","03_ages_12":"12","03_ages_13":"13","03_ages_14":"14","04":"Yes","04_ages_15":"15","04_ages_16":"16"},"rt":51218.09999996424,"item_order":[0,1,2,3],"radio_events":[4304.800000011921,18425.19999998808,21064.899999976158,47096.80000001192],"checkbox_events":[7352.899999976158,7896.899999976158,8392.899999976158,8792.899999976158,9232.800000011921,9977.300000011921,10248.899999976158,10641,11064.899999976158,22736.899999976158,23192.69999998808,23704.899999976158,24273.399999976158,24808.80000001192,49720.89999997616,50728.69999998808],"key_events":[],"mouse_events":[4304.800000011921,7352.899999976158,7896.899999976158,8392.899999976158,8792.899999976158,9232.800000011921,9977.300000011921,10248.899999976158,10641,11064.899999976158,18425.19999998808,21064.899999976158,22736.899999976158,23192.69999998808,23704.899999976158,24273.399999976158,24808.80000001192,47096.80000001192,49720.89999997616,50728.69999998808,51216.89999997616],"honeypot":0,"survey":"mace","page":3,"trial_type":"survey-mace","trial_index":11,"time_elapsed":489752,"internal_node_id":"0.0-11.0","task_version":"prescreen-v0.3","browser_interactions":0},{"responses":{"01":"No","02":"No"},"rt":4619.399999976158,"item_order":[0,1],"radio_events":[3851.099999964237,4282.899999976158],"checkbox_events":[],"key_events":[],"mouse_events":[3851.099999964237,4282.899999976158,4618.800000011921],"honeypot":0,"survey":"mace","page":4,"trial_type":"survey-mace","trial_index":12,"time_elapsed":494375,"internal_node_id":"0.0-12.0","task_version":"prescreen-v0.3","browser_interactions":0},{"responses":{"01":"No","02":"No","03":"No","04":"No","05":"No"},"rt":47876.799999952316,"item_order":[0,1,2,3,4],"radio_events":[35939.5,39211.5,40387.39999997616,43083.5,47395.89999997616],"checkbox_events":[],"key_events":[],"mouse_events":[4132.099999964237,35939.5,37131.5,39211.5,40387.39999997616,43083.5,47395.89999997616,47875.299999952316],"honeypot":0,"survey":"mace","page":5,"trial_type":"survey-mace","trial_index":13,"time_elapsed":542256,"internal_node_id":"0.0-13.0","task_version":"prescreen-v0.3","browser_interactions":0},{"responses":{"01":"Yes","01_ages_7":"7","01_ages_8":"8","01_ages_9":"9","01_ages_10":"10","01_ages_11":"11","01_ages_12":"12","01_ages_13":"13","01_ages_14":"14","01_ages_15":"15","01_ages_16":"16","01_ages_17":"17","01_ages_18":"18","02":"Yes","02_ages_7":"7","02_ages_8":"8","02_ages_9":"9","02_ages_10":"10","02_ages_11":"11","02_ages_12":"12","02_ages_13":"13","02_ages_14":"14","02_ages_15":"15","02_ages_16":"16","02_ages_17":"17","02_ages_18":"18","03":"Yes","03_ages_7":"7","03_ages_8":"8","03_ages_9":"9","03_ages_10":"10","03_ages_11":"11","03_ages_12":"12","03_ages_13":"13","03_ages_14":"14","03_ages_15":"15","03_ages_16":"16","03_ages_17":"17","03_ages_18":"18","04":"Yes","04_ages_5":"5","04_ages_6":"6","04_ages_7":"7","04_ages_8":"8","04_ages_9":"9","04_ages_10":"10","04_ages_11":"11","04_ages_12":"12","04_ages_13":"13","04_ages_14":"14","04_ages_15":"15","04_ages_16":"16","04_ages_17":"17","04_ages_18":"18","05":"Yes","05_ages_5":"5","05_ages_6":"6","05_ages_7":"7","05_ages_8":"8","05_ages_9":"9","05_ages_10":"10","05_ages_11":"11","05_ages_12":"12","05_ages_13":"13","05_ages_14":"14","05_ages_15":"15","05_ages_16":"16","05_ages_17":"17","05_ages_18":"18"},"rt":56060,"item_order":[0,1,2,3,4],"radio_events":[6490.399999976158,17498.5,25746.600000023842,36162.60000002384,46634.39999997616],"checkbox_events":[7410.600000023842,7770.5,8234.699999988079,8634.699999988079,9010.399999976158,9546.5,10034.600000023842,10570.5,11314.5,11762.5,15810.600000023842,16546.600000023842,18466.600000023842,18882.600000023842,19610.600000023842,20250.600000023842,20634.600000023842,21379,21698.600000023842,22178.5,22818.30000001192,23138.5,23546.5,23914.600000023842,27035,27562.5,27970.5,28890.399999976158,30602.899999976158,31315.100000023842,31698.600000023842,32418.600000023842,33138.5,33994.80000001192,34762.80000001192,35298.5,37994.5,38370.5,38786.5,39258.5,39626.5,40138.5,40506.5,40970.5,41322.5,41698.5,42010.5,42715,43042.60000002384,43626.5,47714.80000001192,48419,48898.5,49714.39999997616,50434.5,50819,51530.5,51874.39999997616,52250.39999997616,53002.39999997616,53394.39999997616,53923,54450.5,54994.39999997616],"key_events":[],"mouse_events":[6490.399999976158,7410.600000023842,7770.5,8234.699999988079,8634.699999988079,9010.399999976158,9546.5,10034.600000023842,10570.5,11314.5,11762.5,15810.600000023842,16546.600000023842,17498.5,18466.600000023842,18882.600000023842,19274.69999998808,19610.600000023842,19971,20250.600000023842,20634.600000023842,21379,21698.600000023842,22178.5,22818.30000001192,23138.5,23546.5,23914.600000023842,25746.600000023842,27035,27562.5,27970.5,28890.399999976158,29250.5,29579.100000023842,30602.899999976158,30898.5,31315.100000023842,31698.600000023842,32418.600000023842,33138.5,33722.30000001192,33994.80000001192,34762.80000001192,35298.5,36162.60000002384,37994.5,38370.5,38786.5,39258.5,39626.5,40138.5,40506.5,40970.5,41322.5,41698.5,42010.5,42362.5,42715,43042.60000002384,43331,43626.5,46634.39999997616,47714.80000001192,48066.5,48419,48898.5,49330.39999997616,49714.39999997616,50434.5,50819,51234.5,51530.5,51874.39999997616,52250.39999997616,52626.5,53002.39999997616,53394.39999997616,53923,54450.5,54994.39999997616,56058.69999998808],"honeypot":0,"survey":"mace","page":6,"trial_type":"survey-mace","trial_index":14,"time_elapsed":598320,"internal_node_id":"0.0-14.0","task_version":"prescreen-v0.3","browser_interactions":0},{"responses":{"01":"Yes","01_ages_11":"11","01_ages_12":"12","01_ages_13":"13","01_ages_14":"14","01_ages_15":"15","02":"Yes","02_ages_11":"11","02_ages_12":"12","02_ages_13":"13","02_ages_14":"14","02_ages_15":"15","02_ages_16":"16","02_ages_17":"17","02_ages_18":"18","03":"Yes","03_ages_7":"7","03_ages_8":"8","03_ages_9":"9","03_ages_10":"10","03_ages_11":"11","03_ages_12":"12","03_ages_13":"13","03_ages_14":"14","03_ages_15":"15","03_ages_16":"16","03_ages_17":"17","03_ages_18":"18","04":"Yes","04_ages_13":"13","04_ages_14":"14","04_ages_15":"15","04_ages_16":"16","04_ages_17":"17","05":"Yes","05_ages_14":"14","05_ages_15":"15","05_ages_16":"16","06":"No","07":"No"},"rt":41316,"item_order":[0,1,2,3,4,5,6],"radio_events":[6553.899999976158,12578,19130.5,26865.799999952316,34553.799999952316,39953.89999997616,40865.799999952316],"checkbox_events":[8457.899999976158,8977.899999976158,9441.899999976158,9937.899999976158,10674,13441.899999976158,14170.399999976158,14626.399999976158,15025.899999976158,15498.699999988079,16057.799999952316,16625.899999976158,17002.5,20234.399999976158,20537.899999976158,20882.399999976158,21305.69999998808,21665.69999998808,22274,22906.399999976158,23473.799999952316,23785.899999976158,24145.899999976158,24697.69999998808,25249.899999976158,28761.899999976158,29209.799999952316,29689.799999952316,30097.899999976158,31081.899999976158,35961.799999952316,36641.799999952316,37305.89999997616],"key_events":[],"mouse_events":[6553.899999976158,8457.899999976158,8977.899999976158,9441.899999976158,9937.899999976158,10674,12578,13441.899999976158,14170.399999976158,14626.399999976158,15025.899999976158,15498.699999988079,16057.799999952316,16625.899999976158,17002.5,19130.5,20234.399999976158,20537.899999976158,20882.399999976158,21305.69999998808,21665.69999998808,22009.899999976158,22274,22593.899999976158,22906.399999976158,23473.799999952316,23785.899999976158,24145.899999976158,24697.69999998808,25249.899999976158,26865.799999952316,28761.899999976158,29209.799999952316,29689.799999952316,30097.899999976158,31081.899999976158,34553.799999952316,35961.799999952316,36241.89999997616,36641.799999952316,37305.89999997616,39953.89999997616,40865.799999952316,41314],"honeypot":0,"survey":"mace","page":7,"trial_type":"survey-mace","trial_index":15,"time_elapsed":639641,"internal_node_id":"0.0-15.0","task_version":"prescreen-v0.3","browser_interactions":0},{"responses":{"01":"Yes","01_ages_4":"4","01_ages_5":"5","01_ages_6":"6","01_ages_7":"7","01_ages_8":"8","01_ages_9":"9","01_ages_10":"10","01_ages_11":"11","01_ages_12":"12","01_ages_13":"13","01_ages_14":"14","01_ages_15":"15","01_ages_16":"16","01_ages_17":"17","01_ages_18":"18","02":"Yes","02_ages_4":"4","02_ages_5":"5","02_ages_6":"6","02_ages_7":"7","02_ages_8":"8","02_ages_9":"9","02_ages_10":"10","02_ages_11":"11","02_ages_12":"12","02_ages_13":"13","02_ages_14":"14","02_ages_15":"15","02_ages_16":"16","02_ages_17":"17","02_ages_18":"18","03":"Yes","03_ages_4":"4","03_ages_5":"5","03_ages_6":"6","03_ages_7":"7","03_ages_8":"8","03_ages_9":"9","03_ages_10":"10","03_ages_11":"11","03_ages_12":"12","03_ages_13":"13","03_ages_14":"14","03_ages_15":"15","03_ages_16":"16","03_ages_17":"17","03_ages_18":"18","04":"Yes","04_ages_4":"4","04_ages_5":"5","04_ages_6":"6","04_ages_7":"7","04_ages_8":"8","04_ages_9":"9","04_ages_10":"10","04_ages_11":"11","04_ages_12":"12","04_ages_13":"13","04_ages_14":"14","04_ages_15":"15","04_ages_16":"16","04_ages_17":"17","04_ages_18":"18"},"rt":62586.89999997616,"item_order":[0,1,2,3],"radio_events":[15129.699999988079,29913.899999976158,43401.59999996424,44265.59999996424],"checkbox_events":[16913.599999964237,17449.599999964237,18225.599999964237,18585.599999964237,18961.599999964237,20297.599999964237,20713.599999964237,21209.5,21745.599999964237,22666,23137.5,23657.5,24033.599999964237,24377.599999964237,26145.599999964237,31066,31593.5,32121.80000001192,32826.39999997616,33145.59999996424,33513.5,33873.59999996424,34329.59999996424,35577.5,35921.59999996424,36313.59999996424,36625.59999996424,36985.5,37681.59999996424,38193.59999996424,45289.5,45657.59999996424,46193.59999996424,46889.5,47537.80000001192,47857.5,48617.39999997616,48977.89999997616,49329.59999996424,50290.30000001192,50561.5,51297.30000001192,51633.5,52201.5,52553.59999996424,53041.5,53369.5,54473.5,54897.59999996424,55273.89999997616,55809.5,56145.5,56569.30000001192,57161.5,58081.5,59273.59999996424,59617.80000001192,60049.5,60633.5,61009.5,61529.5,61993.5],"key_events":[],"mouse_events":[15129.699999988079,16913.599999964237,17449.599999964237,18225.599999964237,18585.599999964237,18961.599999964237,19337.599999964237,20297.599999964237,20713.599999964237,21209.5,21745.599999964237,22249.599999964237,22666,23137.5,23657.5,24033.599999964237,24377.599999964237,24906,26145.599999964237,29913.899999976158,31066,31593.5,32121.80000001192,32826.39999997616,33145.59999996424,33513.5,33873.59999996424,34329.59999996424,34969.5,35577.5,35921.59999996424,36313.59999996424,36625.59999996424,36985.5,37321.59999996424,37681.59999996424,38193.59999996424,43401.59999996424,44265.59999996424,45289.5,45657.59999996424,46193.59999996424,46889.5,47537.80000001192,47857.5,48617.39999997616,48977.89999997616,49329.59999996424,49801.59999996424,50290.30000001192,50561.5,50913.39999997616,51297.30000001192,51633.5,52201.5,52553.59999996424,53041.5,53369.5,54473.5,54897.59999996424,55273.89999997616,55809.5,56145.5,56569.30000001192,57161.5,57529.5,58081.5,58425.5,58865.5,59273.59999996424,59617.80000001192,60049.5,60369.5,60633.5,61009.5,61529.5,61993.5,62585.59999996424],"honeypot":0,"survey":"mace","page":8,"trial_type":"survey-mace","trial_index":16,"time_elapsed":702231,"internal_node_id":"0.0-16.0","task_version":"prescreen-v0.3","browser_interactions":2},{"responses":{"01":"No","02":"No","03":"No","04":"Yes","04_ages_4":"4","04_ages_5":"5","04_ages_6":"6","04_ages_7":"7","04_ages_8":"8","04_ages_9":"9","04_ages_10":"10","04_ages_11":"11","04_ages_12":"12","04_ages_13":"13","04_ages_14":"14","04_ages_15":"15","04_ages_16":"16","04_ages_17":"17","04_ages_18":"18"},"rt":26420.19999998808,"item_order":[0,1,2,3],"radio_events":[8554.800000011921,10370.800000011921,11842.800000011921,15850.800000011921],"checkbox_events":[17842.80000001192,18226.899999976158,18978.69999998808,19354.80000001192,19722.69999998808,20098.80000001192,20562.80000001192,21058.600000023842,21986.80000001192,23338.80000001192,23826.80000001192,24210.69999998808,24546.69999998808,25066.69999998808,25810.80000001192],"key_events":[],"mouse_events":[8554.800000011921,10370.800000011921,11842.800000011921,15850.800000011921,17842.80000001192,18226.899999976158,18978.69999998808,19354.80000001192,19722.69999998808,20098.80000001192,20562.80000001192,21058.600000023842,21986.80000001192,23338.80000001192,23826.80000001192,24210.69999998808,24546.69999998808,25066.69999998808,25523.100000023842,25810.80000001192,26418.899999976158],"honeypot":0,"survey":"mace","page":9,"trial_type":"survey-mace","trial_index":17,"time_elapsed":728656,"internal_node_id":"0.0-17.0","task_version":"prescreen-v0.3","browser_interactions":0},{"responses":{"01":"No","02":"No","03":"Yes","03_ages_7":"7","03_ages_8":"8","03_ages_9":"9","03_ages_10":"10","03_ages_11":"11","03_ages_12":"12","03_ages_13":"13","03_ages_14":"14","03_ages_15":"15","03_ages_16":"16","03_ages_17":"17","03_ages_18":"18","04":"Yes","04_ages_4":"4","04_ages_5":"5","04_ages_6":"6","04_ages_7":"7","04_ages_8":"8","04_ages_9":"9","04_ages_10":"10","04_ages_11":"11","04_ages_12":"12","04_ages_13":"13","04_ages_14":"14","04_ages_15":"15","04_ages_16":"16","04_ages_17":"17","04_ages_18":"18","05":"Yes","05_ages_3":"3","05_ages_4":"4","05_ages_5":"5","05_ages_6":"6","05_ages_7":"7","05_ages_8":"8","05_ages_9":"9","05_ages_10":"10","05_ages_11":"11","05_ages_12":"12","05_ages_13":"13","05_ages_14":"14","05_ages_15":"15","05_ages_16":"16","05_ages_17":"17","05_ages_18":"18","06":"Yes","06_ages_17":"17","07":"No","08":"No"},"rt":52628.39999997616,"item_order":[0,1,2,3,4,5,6,7],"radio_events":[8362,9514.399999976158,11234.299999952316,22786.19999998808,33242.09999996424,46778,50514.19999998808,52178.5],"checkbox_events":[14706.299999952316,15106.199999988079,15482.099999964237,15810.199999988079,16458.19999998808,17290.19999998808,17634.299999952316,18018.19999998808,18850,19298.799999952316,19771,20346.19999998808,24234.799999952316,24698.69999998808,25226.19999998808,25698.19999998808,26050.099999964237,26610.799999952316,27146.099999964237,27466.19999998808,28266.299999952316,28682.099999964237,29130.19999998808,29530.69999998808,30402.799999952316,30882.69999998808,31322.19999998808,35578.19999998808,36050.09999996424,37298.09999996424,38450,39034.09999996424,39458.09999996424,39818.19999998808,40306.799999952316,40922.09999996424,41274.19999998808,42146.09999996424,42514.09999996424,42930.19999998808,43410.5,43786.09999996424,44154.09999996424,48050.19999998808],"key_events":[],"mouse_events":[8362,9514.399999976158,11234.299999952316,14706.299999952316,15106.199999988079,15482.099999964237,15810.199999988079,16154.199999988079,16458.19999998808,16842.299999952316,17290.19999998808,17634.299999952316,18018.19999998808,18530.299999952316,18850,19298.799999952316,19771,20346.19999998808,22786.19999998808,24234.799999952316,24698.69999998808,25226.19999998808,25698.19999998808,26050.099999964237,26610.799999952316,27146.099999964237,27466.19999998808,27914.19999998808,28266.299999952316,28682.099999964237,29130.19999998808,29530.69999998808,30042.399999976158,30402.799999952316,30882.69999998808,31322.19999998808,33242.09999996424,34618.19999998808,35578.19999998808,36050.09999996424,36634.59999996424,37298.09999996424,38114.59999996424,38450,38714.59999996424,39034.09999996424,39458.09999996424,39818.19999998808,40306.799999952316,40922.09999996424,41274.19999998808,41682,42146.09999996424,42514.09999996424,42930.19999998808,43410.5,43786.09999996424,44154.09999996424,46778,48050.19999998808,50514.19999998808,51826.19999998808,52178.5,52626],"honeypot":0,"survey":"mace","page":10,"trial_type":"survey-mace","trial_index":18,"time_elapsed":781289,"internal_node_id":"0.0-18.0","task_version":"prescreen-v0.3","browser_interactions":0,"instructed":0},{"rt":3993.400000035763,"trial_type":"mental-health-alert","trial_index":19,"time_elapsed":785286,"internal_node_id":"0.0-19.0","task_version":"prescreen-v0.3","interactions":"[{\"event\":\"blur\",\"trial\":16,\"time\":640507},{\"event\":\"focus\",\"trial\":16,\"time\":645891}]"}]