[{"view_history":[{"page_index":0,"viewing_time":1848},{"page_index":1,"viewing_time":1331.6000000238419},{"page_index":2,"viewing_time":2231.7999999821186},{"page_index":3,"viewing_time":790.0999999940395}],"rt":6202.200000017881,"trial_type":"instructions","trial_index":0,"time_elapsed":6235,"internal_node_id":"0.0-0.0","task_version":"prescreen-v0.3"},{"rt":10664.09999999404,"responses":{"age":"22","gender-categorical":"Male","gender-free-response":"","ethnicity":"Not Hispanic or Latino","race":["Asian"],"education":"Bachelor degree","siblings":"3"},"trial_type":"survey-demo","trial_index":1,"time_elapsed":16903,"internal_node_id":"0.0-1.0","task_version":"prescreen-v0.3"},{"responses":{"Q14":"1","Q12":"2","Q16":"2","Q15":"2","Q08":"3","Q17":"0","Q05":"0","Q19":"1","Q10":"0","Q13":"0","Q02":"0","Q07":"0","Q20":"1","Q11":"1","Q21":"3","Q03":"1","Q04":"1","Q18":"0","Q06":"0","Q09":"0","Q01":"1"},"rt":82718.59999999404,"item_order":[13,11,15,14,7,16,4,18,9,12,1,6,19,10,20,2,3,17,5,8,0],"radio_events":[8110.5999999940395,9332.699999988079,13965.40000000596,14506.699999988079,18700.69999998808,20576.69999998808,29374.59999999404,30270.69999998808,33956.59999999404,37456.59999999404,38882.40000000596,41074.19999998808,48820.5,49238.5,52476.5,53664.59999999404,55304.19999998808,66346.40000000596,68896.5,71028.19999998808,73948.5,75866.30000001192,79492.30000001192,80465.19999998808,81350.30000001192],"key_events":[],"mouse_events":[4876.9000000059605,7700.800000011921,8110.5999999940395,9332.699999988079,12074.90000000596,13965.40000000596,14506.699999988079,18700.69999998808,20576.69999998808,29374.59999999404,30270.69999998808,33956.59999999404,37456.59999999404,38882.40000000596,41074.19999998808,43524.80000001192,48090.69999998808,48820.5,49238.5,52476.5,53664.59999999404,54610.30000001192,55304.19999998808,64542.40000000596,66346.40000000596,67282.69999998808,68896.5,71028.19999998808,73948.5,75866.30000001192,78864.19999998808,79492.30000001192,80036.59999999404,80465.19999998808,81350.30000001192,82716.40000000596],"straightlining":0.42857142857142855,"zigzagging":0.4,"honeypot":0,"survey":"sns","trial_type":"survey-template","trial_index":2,"time_elapsed":99631,"internal_node_id":"0.0-2.0","task_version":"prescreen-v0.3","browser_interactions":0,"infrequency":0},{"responses":{"Q07":"3","Q12":"1","Q06":"2","Q08":"3","Q04":"2","Q02":"2","Q05":"2","Q09":"2","Q10":"1","Q11":"1","Q13":"0","Q03":"2","Q01":"3"},"rt":42859.39999997616,"item_order":[6,11,5,7,3,1,4,8,9,10,12,2,0],"radio_events":[3706.2999999821186,7360.699999988079,11182.5,15544.199999988079,17220.59999999404,19488.29999998212,21966.59999999404,24028.79999998212,29982.399999976158,31750.5,35162.19999998808,35992.09999999404,39320.29999998212,41516],"key_events":[],"mouse_events":[3706.2999999821186,7360.699999988079,11182.5,15544.199999988079,17220.59999999404,19488.29999998212,21276.59999999404,21966.59999999404,24028.79999998212,24834.29999998212,29982.399999976158,31750.5,33480.19999998808,35162.19999998808,35992.09999999404,38582.59999999404,39320.29999998212,40050.29999998212,40674,41182.09999999404,41516,42858.29999998212],"straightlining":0.46153846153846156,"zigzagging":0.5,"honeypot":0,"survey":"bisbas","trial_type":"survey-template","trial_index":3,"time_elapsed":142499,"internal_node_id":"0.0-3.0","task_version":"prescreen-v0.3","browser_interactions":0,"infrequency":0},{"responses":{"Q01":"3","Q02":"2","Q03":"2"},"rt":12407.200000017881,"radio_events":[7850.9000000059605,10024.5,11632.5],"key_events":[],"mouse_events":[7850.9000000059605,10024.5,11632.5,12406.40000000596],"survey":"map","page":1,"trial_type":"survey-map","trial_index":4,"time_elapsed":154913,"internal_node_id":"0.0-4.0","task_version":"prescreen-v0.3","browser_interactions":0},{"responses":{"Q04":"2","Q05":"2","Q06":"3"},"rt":7707.699999988079,"radio_events":[3709.300000011921,4641.5,6549.5],"key_events":[],"mouse_events":[3709.300000011921,4641.5,6127.4000000059605,6549.5,7707.199999988079],"survey":"map","page":2,"trial_type":"survey-map","trial_index":5,"time_elapsed":162626,"internal_node_id":"0.0-5.0","task_version":"prescreen-v0.3","browser_interactions":0},{"responses":{"Q07":"3","Q08":"3","Q09":"3"},"rt":12718.199999988079,"radio_events":[5210.0999999940395,10051.90000000596,11649.699999988079],"key_events":[],"mouse_events":[5210.0999999940395,10051.90000000596,11649.699999988079,12717.59999999404],"survey":"map","page":3,"trial_type":"survey-map","trial_index":6,"time_elapsed":175350,"internal_node_id":"0.0-6.0","task_version":"prescreen-v0.3","browser_interactions":0},{"responses":{"Q10":"2","Q11":"2","Q12":"1","Q13":"2","Q16":"0","Q14":"2","Q15":"3"},"rt":29684.80000001192,"radio_events":[11925.59999999404,13985.699999988079,16811.80000001192,19837.59999999404,21793.59999999404,28277.69999998808,29019.59999999404],"key_events":[],"mouse_events":[11925.59999999404,13985.699999988079,16811.80000001192,19837.59999999404,21793.59999999404,26152,28277.69999998808,29019.59999999404,29683.80000001192],"survey":"map","page":4,"trial_type":"survey-map","trial_index":7,"time_elapsed":205041,"internal_node_id":"0.0-7.0","task_version":"prescreen-v0.3","browser_interactions":0,"infrequency":0},{"view_history":[{"page_index":0,"viewing_time":3023.5},{"page_index":1,"viewing_time":1907.699999988079}],"rt":4932.0999999940395,"trial_type":"instructions","trial_index":8,"time_elapsed":209978,"internal_node_id":"0.0-8.0","task_version":"prescreen-v0.3"},{"responses":{"01":"Yes","01_ages_7":"7","01_ages_8":"8","01_ages_9":"9","01_ages_10":"10","01_ages_11":"11","01_ages_12":"12","01_ages_13":"13","02":"Yes","02_ages_7":"7","02_ages_8":"8","02_ages_9":"9","02_ages_10":"10","02_ages_11":"11","02_ages_12":"12","02_ages_13":"13","02_ages_14":"14","02_ages_15":"15","02_ages_16":"16","03":"No","04":"No","05":"No","06":"No"},"rt":45079,"item_order":[0,1,2,3,4,5],"radio_events":[3452.699999988079,19468,33716.19999998808,34226.40000000596,35214.19999998808,43738.19999998808],"checkbox_events":[11597,12222.40000000596,12842.5,13506.299999982119,14010.299999982119,14558.199999988079,15892.799999982119,21838.19999998808,22228.09999999404,23708.09999999404,24312.40000000596,25918.19999998808,26398,27112,27994.40000000596,28514.09999999404,31624.19999998808],"key_events":[],"mouse_events":[0.09999999403953552,3452.699999988079,10824.5,11597,12222.40000000596,12842.5,13506.299999982119,14010.299999982119,14558.199999988079,15892.799999982119,19468,21838.19999998808,22228.09999999404,22731.90000000596,23708.09999999404,24312.40000000596,24824,25439.79999998212,25918.19999998808,26398,27112,27994.40000000596,28514.09999999404,31624.19999998808,32704,33716.19999998808,34226.40000000596,35214.19999998808,43738.19999998808,45076.59999999404],"honeypot":0,"survey":"mace","page":1,"trial_type":"survey-mace","trial_index":9,"time_elapsed":255066,"internal_node_id":"0.0-9.0","task_version":"prescreen-v0.3","browser_interactions":0},{"responses":{"01":"No","02":"No","03":"Yes","03_ages_6":"6","04":"No","05":"No","06":"No","07":"No","08":"No"},"rt":20069,"item_order":[0,1,2,3,4,5,6,7],"radio_events":[2209.5,4286.699999988079,4953,5721.199999988079,11621,16578.79999998212,17264.79999998212,17845.09999999404,18843],"checkbox_events":[13500.799999982119],"key_events":[],"mouse_events":[2209.5,2941,3670.9000000059605,4286.699999988079,4953,5721.199999988079,11621,13500.799999982119,16578.79999998212,17264.79999998212,17845.09999999404,18843,20065.69999998808],"honeypot":0,"survey":"mace","page":2,"trial_type":"survey-mace","trial_index":10,"time_elapsed":275142,"internal_node_id":"0.0-10.0","task_version":"prescreen-v0.3","browser_interactions":0},{"responses":{"01":"No","02":"No","03":"No","04":"No"},"rt":6676.300000011921,"item_order":[0,1,2,3],"radio_events":[2592.300000011921,3052.2000000178814,4022.100000023842,6110.100000023842],"checkbox_events":[],"key_events":[],"mouse_events":[2592.300000011921,3052.2000000178814,3550.800000011921,4022.100000023842,4526,6110.100000023842,6674.200000017881],"honeypot":0,"survey":"mace","page":3,"trial_type":"survey-mace","trial_index":11,"time_elapsed":281824,"internal_node_id":"0.0-11.0","task_version":"prescreen-v0.3","browser_interactions":0},{"responses":{"01":"No","02":"No"},"rt":2595.7999999821186,"item_order":[0,1],"radio_events":[1606.699999988079,1990.699999988079],"checkbox_events":[],"key_events":[],"mouse_events":[1606.699999988079,1990.699999988079,2594.9000000059605],"honeypot":0,"survey":"mace","page":4,"trial_type":"survey-mace","trial_index":12,"time_elapsed":284425,"internal_node_id":"0.0-12.0","task_version":"prescreen-v0.3","browser_interactions":0},{"responses":{"01":"No","02":"No","03":"No","04":"No","05":"No"},"rt":8546,"item_order":[0,1,2,3,4],"radio_events":[3620.300000011921,4446,5296.200000017881,7262.100000023842,8000.100000023842],"checkbox_events":[],"key_events":[],"mouse_events":[1102.7000000178814,1496.9000000059605,1869.1000000238419,2246,2593,2950,3281.9000000059605,3620.300000011921,4446,5296.200000017881,7262.100000023842,8000.100000023842,8544.100000023842],"honeypot":0,"survey":"mace","page":5,"trial_type":"survey-mace","trial_index":13,"time_elapsed":292976,"internal_node_id":"0.0-13.0","task_version":"prescreen-v0.3","browser_interactions":0},{"responses":{"01":"Yes","01_ages_8":"8","01_ages_9":"9","01_ages_10":"10","01_ages_11":"11","01_ages_12":"12","01_ages_13":"13","02":"No","03":"Yes","03_ages_13":"13","03_ages_14":"14","03_ages_15":"15","03_ages_16":"16","03_ages_17":"17","04":"Yes","04_ages_7":"7","04_ages_8":"8","04_ages_9":"9","04_ages_10":"10","04_ages_11":"11","04_ages_12":"12","04_ages_13":"13","04_ages_14":"14","05":"No"},"rt":53624.59999999404,"item_order":[0,1,2,3,4],"radio_events":[7290,25031.80000001192,28015.59999999404,38771.5,52673.70000001788],"checkbox_events":[10704.09999999404,11879.90000000596,12520.300000011921,14627.700000017881,18272,19927.90000000596,30823.90000000596,31637.59999999404,32307,32903.70000001788,33461,43151.5,44585.90000000596,45575.80000001192,45967.80000001192,46406.20000001788,47104,47780.09999999404,48533.70000001788],"key_events":[],"mouse_events":[7290,10704.09999999404,11879.90000000596,12520.300000011921,14627.700000017881,18272,19927.90000000596,25031.80000001192,26897.59999999404,28015.59999999404,30823.90000000596,31637.59999999404,32307,32903.70000001788,33461,38771.5,43151.5,44585.90000000596,45067.5,45575.80000001192,45967.80000001192,46406.20000001788,47104,47780.09999999404,48533.70000001788,52673.70000001788,53622.20000001788],"honeypot":0,"survey":"mace","page":6,"trial_type":"survey-mace","trial_index":14,"time_elapsed":346606,"internal_node_id":"0.0-14.0","task_version":"prescreen-v0.3","browser_interactions":0},{"responses":{"01":"No","02":"No","03":"No","04":"No","05":"No","06":"No","07":"No"},"rt":8580.299999982119,"item_order":[0,1,2,3,4,5,6],"radio_events":[2971,3559.0999999940395,4789.299999982119,5305.699999988079,5969.299999982119,7179.399999976158,7637.199999988079],"checkbox_events":[],"key_events":[],"mouse_events":[1818.7999999821186,2286.7999999821186,2971,3559.0999999940395,4789.299999982119,5305.699999988079,5969.299999982119,7179.399999976158,7637.199999988079,8577.5],"honeypot":0,"survey":"mace","page":7,"trial_type":"survey-mace","trial_index":15,"time_elapsed":355192,"internal_node_id":"0.0-15.0","task_version":"prescreen-v0.3","browser_interactions":0},{"responses":{"01":"No","02":"No","03":"No","04":"No"},"rt":15074.800000011921,"item_order":[0,1,2,3],"radio_events":[2561,6112.800000011921,7325.0999999940395,13552.90000000596],"checkbox_events":[],"key_events":[],"mouse_events":[2561,6112.800000011921,7325.0999999940395,8102.699999988079,13552.90000000596,14672.59999999404,15072.800000011921],"honeypot":0,"survey":"mace","page":8,"trial_type":"survey-mace","trial_index":16,"time_elapsed":370273,"internal_node_id":"0.0-16.0","task_version":"prescreen-v0.3","browser_interactions":0},{"responses":{"01":"Yes","01_ages_1":"1","01_ages_2":"2","01_ages_3":"3","01_ages_4":"4","01_ages_5":"5","01_ages_6":"6","01_ages_7":"7","01_ages_8":"8","01_ages_9":"9","01_ages_10":"10","01_ages_11":"11","01_ages_12":"12","01_ages_13":"13","01_ages_14":"14","01_ages_15":"15","01_ages_16":"16","01_ages_17":"17","01_ages_18":"18","02":"Yes","02_ages_1":"1","02_ages_2":"2","02_ages_3":"3","02_ages_4":"4","02_ages_5":"5","02_ages_6":"6","02_ages_7":"7","02_ages_8":"8","02_ages_9":"9","02_ages_10":"10","02_ages_11":"11","02_ages_12":"12","02_ages_13":"13","02_ages_14":"14","02_ages_15":"15","02_ages_16":"16","02_ages_17":"17","02_ages_18":"18","03":"Yes","03_ages_1":"1","03_ages_2":"2","03_ages_3":"3","03_ages_4":"4","03_ages_5":"5","03_ages_6":"6","03_ages_7":"7","03_ages_8":"8","03_ages_9":"9","03_ages_10":"10","03_ages_11":"11","03_ages_12":"12","03_ages_13":"13","03_ages_14":"14","03_ages_15":"15","03_ages_16":"16","03_ages_17":"17","03_ages_18":"18","04":"Yes","04_ages_1":"1","04_ages_2":"2","04_ages_3":"3","04_ages_4":"4","04_ages_5":"5","04_ages_6":"6","04_ages_7":"7","04_ages_8":"8","04_ages_9":"9","04_ages_10":"10","04_ages_11":"11","04_ages_12":"12","04_ages_13":"13","04_ages_14":"14","04_ages_15":"15","04_ages_16":"16","04_ages_17":"17","04_ages_18":"18"},"rt":57737.5,"item_order":[0,1,2,3],"radio_events":[3112,24525.90000000596,25339.80000001192,26285.90000000596],"checkbox_events":[7304.4000000059605,7986,8534,9024,9564.300000011921,10635.90000000596,11224.800000011921,12319.90000000596,12708.200000017881,13094.200000017881,13544.90000000596,14100,14552.100000023842,14946,15422,16025.800000011921,16437.70000001788,17034.40000000596,27422.100000023842,27777.90000000596,28132.20000001788,28529.90000000596,29569.80000001192,30077.80000001192,30504.100000023842,31064,31643.70000001788,32277.90000000596,32898.70000001788,33283.90000000596,33908.10000002384,34485.60000002384,34875.80000001192,35214.20000001788,35604.10000002384,36146.10000002384,37528.10000002384,38195.90000000596,38736,39172,40017.90000000596,40532.30000001192,41040.70000001788,42289.90000000596,43195.70000001788,43667.80000001192,44133.80000001192,44613.80000001192,45117.80000001192,45585.90000000596,46173.90000000596,46762,47433.80000001192,47925.70000001788,48505.70000001788,49145.80000001192,49654.10000002384,50563.70000001788,51003.90000000596,51480,51961.80000001192,52429.80000001192,52877.5,53315.70000001788,53759.60000002384,54193.60000002384,54908,55297.5,55745.60000002384,56131.80000001192,56639.90000000596,57079.60000002384],"key_events":[],"mouse_events":[3112,7304.4000000059605,7986,8534,9024,9564.300000011921,9968.100000023842,10635.90000000596,11224.800000011921,11668,12319.90000000596,12708.200000017881,13094.200000017881,13544.90000000596,14100,14552.100000023842,14946,15422,16025.800000011921,16437.70000001788,17034.40000000596,24525.90000000596,25339.80000001192,26285.90000000596,27422.100000023842,27777.90000000596,28132.20000001788,28529.90000000596,28913.90000000596,29215.90000000596,29569.80000001192,30077.80000001192,30504.100000023842,31064,31643.70000001788,32277.90000000596,32898.70000001788,33283.90000000596,33908.10000002384,34485.60000002384,34875.80000001192,35214.20000001788,35604.10000002384,36146.10000002384,37528.10000002384,38195.90000000596,38736,39172,40017.90000000596,40532.30000001192,41040.70000001788,41933.40000000596,42289.90000000596,42825.5,43195.70000001788,43667.80000001192,44133.80000001192,44613.80000001192,45117.80000001192,45585.90000000596,46173.90000000596,46762,47433.80000001192,47925.70000001788,48505.70000001788,49145.80000001192,49654.10000002384,50563.70000001788,51003.90000000596,51480,51961.80000001192,52429.80000001192,52877.5,53315.70000001788,53759.60000002384,54193.60000002384,54908,55297.5,55745.60000002384,56131.80000001192,56639.90000000596,57079.60000002384,57735.90000000596],"honeypot":0,"survey":"mace","page":9,"trial_type":"survey-mace","trial_index":17,"time_elapsed":428016,"internal_node_id":"0.0-17.0","task_version":"prescreen-v0.3","browser_interactions":0},{"responses":{"01":"No","02":"No","03":"No","04":"No","05":"No","06":"Yes","06_ages_17":"17","07":"Yes","07_ages_1":"1","07_ages_2":"2","07_ages_3":"3","07_ages_4":"4","07_ages_5":"5","07_ages_6":"6","07_ages_7":"7","07_ages_8":"8","07_ages_9":"9","07_ages_10":"10","07_ages_11":"11","07_ages_12":"12","07_ages_13":"13","07_ages_14":"14","07_ages_15":"15","07_ages_16":"16","07_ages_17":"17","07_ages_18":"18","08":"Yes","08_ages_1":"1","08_ages_2":"2","08_ages_3":"3","08_ages_4":"4","08_ages_5":"5","08_ages_6":"6","08_ages_7":"7","08_ages_8":"8","08_ages_9":"9","08_ages_10":"10","08_ages_11":"11","08_ages_12":"12","08_ages_13":"13","08_ages_14":"14","08_ages_15":"15","08_ages_16":"16","08_ages_17":"17","08_ages_18":"18"},"rt":41104.30000001192,"item_order":[0,1,2,3,4,5,6,7],"radio_events":[2351.5,3027.2000000178814,5039.300000011921,8093.100000023842,10313.40000000596,12287.200000017881,18185,19987.40000000596],"checkbox_events":[14071.100000023842,20873,21365.20000001788,21727.20000001788,22069,22431.20000001788,22835,23289.100000023842,23761.20000001788,24288.70000001788,24725,25417.600000023842,25811.20000001788,26537,27226.100000023842,27573.20000001788,28015.100000023842,28353.100000023842,28805.100000023842,30297.20000001788,31489.40000000596,32037.20000001788,32742,33407.20000001788,33982.90000000596,34627.10000002384,35027.10000002384,35457.90000000596,35904.90000000596,36532.70000001788,37180.80000001192,37604.70000001788,38055.10000002384,38527.20000001788,39034.60000002384,39429.30000001192,40147.10000002384],"key_events":[],"mouse_events":[1695.2000000178814,2351.5,3027.2000000178814,5039.300000011921,7291.200000017881,8093.100000023842,8951.300000011921,10313.40000000596,12287.200000017881,14071.100000023842,18185,19987.40000000596,20873,21365.20000001788,21727.20000001788,22069,22431.20000001788,22835,23289.100000023842,23761.20000001788,24288.70000001788,24725,25099,25417.600000023842,25811.20000001788,26537,27226.100000023842,27573.20000001788,28015.100000023842,28353.100000023842,28805.100000023842,30297.20000001788,30916.80000001192,31489.40000000596,32037.20000001788,32742,33407.20000001788,33982.90000000596,34627.10000002384,35027.10000002384,35457.90000000596,35904.90000000596,36532.70000001788,37180.80000001192,37604.70000001788,38055.10000002384,38527.20000001788,39034.60000002384,39429.30000001192,39858.10000002384,40147.10000002384,41101],"honeypot":0,"survey":"mace","page":10,"trial_type":"survey-mace","trial_index":18,"time_elapsed":469128,"internal_node_id":"0.0-18.0","task_version":"prescreen-v0.3","browser_interactions":0,"instructed":0},{"rt":2002.9000000059605,"trial_type":"mental-health-alert","trial_index":19,"time_elapsed":471136,"internal_node_id":"0.0-19.0","task_version":"prescreen-v0.3","interactions":"[]"}]