[{"view_history":[{"page_index":0,"viewing_time":5620.299999982119},{"page_index":1,"viewing_time":4858.4000000059605},{"page_index":2,"viewing_time":4064.5},{"page_index":3,"viewing_time":1501.800000011921}],"rt":16047.199999988079,"trial_type":"instructions","trial_index":0,"time_elapsed":16058,"internal_node_id":"0.0-0.0","task_version":"prescreen-v0.3"},{"rt":16758.09999999404,"responses":{"age":"54","gender-categorical":"Male","gender-free-response":"","ethnicity":"Not Hispanic or Latino","race":["White"],"education":"Bachelor degree"},"trial_type":"survey-demo","trial_index":1,"time_elapsed":32822,"internal_node_id":"0.0-1.0","task_version":"prescreen-v0.3"},{"responses":{"Q14":"3","Q15":"3","Q11":"3","Q20":"0","Q01":"2","Q02":"2","Q16":"1","Q10":"2","Q04":"2","Q06":"1","Q05":"1","Q12":"2","Q19":"2","Q08":"1","Q09":"2","Q03":"2","Q07":"1","Q13":"2","Q18":"1","Q21":"3","Q17":"1"},"rt":100811.5,"item_order":[13,14,10,19,0,1,15,9,3,5,4,11,18,7,8,2,6,12,17,20,16],"radio_events":[7169,10972.699999988079,13642,16986.80000001192,18860.59999999404,21554.09999999404,28223.40000000596,33611.5,37636.5,43564.80000001192,49624,55449.40000000596,64764.30000001192,67596,73364.09999999404,74273.09999999404,81340.19999998808,84617.90000000596,87806.30000001192,92682.69999998808,98630],"key_events":[],"mouse_events":[6130.300000011921,7169,10972.699999988079,13642,16986.80000001192,18860.59999999404,21554.09999999404,28223.40000000596,33611.5,37636.5,43564.80000001192,49624,55449.40000000596,64764.30000001192,67596,71295.59999999404,73364.09999999404,74273.09999999404,81340.19999998808,84617.90000000596,87806.30000001192,92682.69999998808,98630,100804.90000000596],"straightlining":0.42857142857142855,"zigzagging":0.5,"honeypot":0,"survey":"sns","trial_type":"survey-template","trial_index":2,"time_elapsed":133639,"internal_node_id":"0.0-2.0","task_version":"prescreen-v0.3","browser_interactions":0,"infrequency":0},{"responses":{"Q04":"3","Q13":"0","Q07":"3","Q10":"2","Q08":"2","Q01":"3","Q11":"1","Q06":"2","Q05":"2","Q12":"1","Q02":"3","Q03":"3","Q09":"1"},"rt":54082.19999998808,"item_order":[3,12,6,9,7,0,10,5,4,11,1,2,8],"radio_events":[6815.800000011921,11076,14174.59999999404,18248,23731.5,25312.90000000596,31092.80000001192,36642.69999998808,38889.30000001192,41785,43977.09999999404,47172.19999998808,49997.30000001192],"key_events":[],"mouse_events":[6815.800000011921,11076,14174.59999999404,18248,23731.5,25312.90000000596,31092.80000001192,36642.69999998808,38889.30000001192,41785,43977.09999999404,47172.19999998808,49997.30000001192,54078.69999998808],"straightlining":0.38461538461538464,"zigzagging":0.5,"honeypot":0,"survey":"bisbas","trial_type":"survey-template","trial_index":3,"time_elapsed":187725,"internal_node_id":"0.0-3.0","task_version":"prescreen-v0.3","browser_interactions":0,"infrequency":0},{"responses":{"Q01":"2","Q02":"2","Q03":"2"},"rt":14762.300000011921,"radio_events":[5527.800000011921,9153.700000017881,12667],"key_events":[],"mouse_events":[5527.800000011921,9153.700000017881,12667,14760.600000023842],"survey":"map","page":1,"trial_type":"survey-map","trial_index":4,"time_elapsed":202493,"internal_node_id":"0.0-4.0","task_version":"prescreen-v0.3","browser_interactions":0},{"responses":{"Q04":"3","Q05":"2","Q06":"2"},"rt":15008.600000023842,"radio_events":[5384.200000017881,10609.90000000596,13068],"key_events":[],"mouse_events":[5384.200000017881,10609.90000000596,13068,15007.300000011921],"survey":"map","page":2,"trial_type":"survey-map","trial_index":5,"time_elapsed":217506,"internal_node_id":"0.0-5.0","task_version":"prescreen-v0.3","browser_interactions":0},{"responses":{"Q07":"1","Q08":"3","Q09":"1"},"rt":18690.80000001192,"radio_events":[5997.0999999940395,13878.699999988079,16815.19999998808],"key_events":[],"mouse_events":[5997.0999999940395,13878.699999988079,16815.19999998808,18689.19999998808],"survey":"map","page":3,"trial_type":"survey-map","trial_index":6,"time_elapsed":236201,"internal_node_id":"0.0-6.0","task_version":"prescreen-v0.3","browser_interactions":0},{"responses":{"Q10":"1","Q11":"1","Q12":"3","Q13":"3","Q16":"0","Q14":"2","Q15":"1"},"rt":33780.30000001192,"radio_events":[3928.7000000178814,6905.700000017881,11790.40000000596,16463,21915,25818.30000001192,31472.90000000596],"key_events":[],"mouse_events":[3928.7000000178814,6905.700000017881,11790.40000000596,16463,21915,25818.30000001192,31472.90000000596,33777.30000001192],"survey":"map","page":4,"trial_type":"survey-map","trial_index":7,"time_elapsed":269986,"internal_node_id":"0.0-7.0","task_version":"prescreen-v0.3","browser_interactions":0,"infrequency":0},{"view_history":[{"page_index":0,"viewing_time":2807.4000000059605},{"page_index":1,"viewing_time":2791.4000000059605}],"rt":5600,"trial_type":"instructions","trial_index":8,"time_elapsed":275589,"internal_node_id":"0.0-8.0","task_version":"prescreen-v0.3"},{"responses":{"01":"No","02":"Yes","02_ages_5":"5","02_ages_6":"6","02_ages_7":"7","02_ages_8":"8","02_ages_9":"9","02_ages_10":"10","02_ages_11":"11","02_ages_12":"12","02_ages_13":"13","02_ages_14":"14","02_ages_15":"15","03":"No","04":"No","05":"No","06":"No"},"rt":46720.19999998808,"item_order":[0,1,2,3,4,5],"radio_events":[12773,15197.199999988079,37205,39411.59999999404,41455.89999997616,44052.79999998212],"checkbox_events":[23290,25342.09999999404,25982.09999999404,26631.19999998808,27280.19999998808,27968.899999976158,28798.399999976158,29634.19999998808,30266.19999998808,31029.899999976158,34056.09999999404],"key_events":[],"mouse_events":[0.5,12773,15197.199999988079,23290,25342.09999999404,25982.09999999404,26631.19999998808,27280.19999998808,27968.899999976158,28798.399999976158,29634.19999998808,30266.19999998808,31029.899999976158,34056.09999999404,37205,39411.59999999404,41455.89999997616,44052.79999998212,46714.09999999404],"honeypot":0,"survey":"mace","page":1,"trial_type":"survey-mace","trial_index":9,"time_elapsed":322315,"internal_node_id":"0.0-9.0","task_version":"prescreen-v0.3","browser_interactions":0},{"responses":{"01":"No","02":"No","03":"Yes","03_ages_6":"6","03_ages_7":"7","03_ages_8":"8","03_ages_9":"9","04":"No","05":"Yes","05_ages_6":"6","05_ages_7":"7","05_ages_8":"8","05_ages_9":"9","06":"No","07":"No","08":"No"},"rt":50891.40000000596,"item_order":[0,1,2,3,4,5,6,7],"radio_events":[3535.4000000059605,7592.9000000059605,11179.5,26673.59999999404,28580.90000000596,33320.19999998808,46750.69999998808,50117.80000001192],"checkbox_events":[15018,15894.800000011921,16982,35494.40000000596,36338.69999998808,37044.90000000596,39080.09999999404,40071.19999998808],"key_events":[],"mouse_events":[3535.4000000059605,5646.0999999940395,7592.9000000059605,11179.5,15018,15894.800000011921,16982,26673.59999999404,28580.90000000596,33320.19999998808,35494.40000000596,36338.69999998808,37044.90000000596,39080.09999999404,40071.19999998808,46750.69999998808,50117.80000001192,50881.30000001192],"honeypot":0,"survey":"mace","page":2,"trial_type":"survey-mace","trial_index":10,"time_elapsed":373208,"internal_node_id":"0.0-10.0","task_version":"prescreen-v0.3","browser_interactions":0},{"responses":{"01":"No","02":"No","03":"No","04":"No"},"rt":9233.40000000596,"item_order":[0,1,2,3],"radio_events":[5314.0999999940395,6420.5,7620.4000000059605,8464.59999999404],"checkbox_events":[],"key_events":[],"mouse_events":[5314.0999999940395,6420.5,7620.4000000059605,8464.59999999404,9227.90000000596],"honeypot":0,"survey":"mace","page":3,"trial_type":"survey-mace","trial_index":11,"time_elapsed":382446,"internal_node_id":"0.0-11.0","task_version":"prescreen-v0.3","browser_interactions":0},{"responses":{"01":"No","02":"No"},"rt":4180.0999999940395,"item_order":[0,1],"radio_events":[2627.5999999940395,3439],"checkbox_events":[],"key_events":[],"mouse_events":[2627.5999999940395,3439,4176.699999988079],"honeypot":0,"survey":"mace","page":4,"trial_type":"survey-mace","trial_index":12,"time_elapsed":386629,"internal_node_id":"0.0-12.0","task_version":"prescreen-v0.3","browser_interactions":0},{"responses":{"01":"No","02":"No","03":"No","04":"No","05":"No"},"rt":20076.90000000596,"item_order":[0,1,2,3,4],"radio_events":[12889.5,14025.299999982119,15688.90000000596,16809,18707.09999999404],"checkbox_events":[],"key_events":[],"mouse_events":[12889.5,14025.299999982119,15688.90000000596,16809,18707.09999999404,20070.69999998808],"honeypot":0,"survey":"mace","page":5,"trial_type":"survey-mace","trial_index":13,"time_elapsed":406711,"internal_node_id":"0.0-13.0","task_version":"prescreen-v0.3","browser_interactions":0},{"responses":{"01":"Yes","01_ages_6":"6","01_ages_7":"7","01_ages_8":"8","01_ages_9":"9","01_ages_10":"10","01_ages_11":"11","01_ages_12":"12","01_ages_13":"13","01_ages_14":"14","01_ages_15":"15","01_ages_16":"16","02":"Yes","02_ages_6":"6","02_ages_7":"7","02_ages_8":"8","02_ages_9":"9","02_ages_10":"10","02_ages_11":"11","02_ages_12":"12","02_ages_13":"13","02_ages_14":"14","02_ages_15":"15","02_ages_16":"16","03":"No","04":"Yes","04_ages_6":"6","04_ages_7":"7","04_ages_8":"8","04_ages_9":"9","04_ages_10":"10","04_ages_11":"11","04_ages_12":"12","04_ages_13":"13","04_ages_14":"14","04_ages_15":"15","04_ages_16":"16","05":"No"},"rt":63281.40000000596,"item_order":[0,1,2,3,4],"radio_events":[7298.799999982119,22521.5,24469.09999999404,38815,48741.90000000596,52214.79999998212],"checkbox_events":[10707.799999982119,11745.59999999404,12484.59999999404,13149.799999982119,14108.09999999404,14885.90000000596,15949.40000000596,16679.59999999404,17418.09999999404,18056.19999998808,18845.79999998212,25734.90000000596,26619.19999998808,27235.40000000596,27925.09999999404,28834.09999999404,29687.69999998808,30367.40000000596,31114.09999999404,31957.59999999404,32858.79999998212,33564.29999998212,54333.09999999404,55029.90000000596,55663.09999999404,56264.5,56864.59999999404,57511.59999999404,58276.59999999404,59110.19999998808,59899.79999998212,60726.90000000596,61472.79999998212],"key_events":[],"mouse_events":[7298.799999982119,10707.799999982119,11745.59999999404,12484.59999999404,13149.799999982119,14108.09999999404,14885.90000000596,15949.40000000596,16679.59999999404,17418.09999999404,18056.19999998808,18845.79999998212,22521.5,24469.09999999404,25734.90000000596,26619.19999998808,27235.40000000596,27925.09999999404,28834.09999999404,29687.69999998808,30367.40000000596,31114.09999999404,31957.59999999404,32858.79999998212,33564.29999998212,38815,48741.90000000596,52214.79999998212,54333.09999999404,55029.90000000596,55663.09999999404,56264.5,56864.59999999404,57511.59999999404,58276.59999999404,59110.19999998808,59899.79999998212,60726.90000000596,61472.79999998212,63275.09999999404],"honeypot":0,"survey":"mace","page":6,"trial_type":"survey-mace","trial_index":14,"time_elapsed":469994,"internal_node_id":"0.0-14.0","task_version":"prescreen-v0.3","browser_interactions":0},{"responses":{"01":"No","02":"No","03":"Yes","03_ages_12":"12","03_ages_13":"13","04":"No","05":"No","06":"No","07":"No"},"rt":50492.09999999404,"item_order":[0,1,2,3,4,5,6],"radio_events":[5807.299999982119,10382.799999982119,35955.5,39257.09999999404,40133.89999997616,41473.59999999404,48803.19999998808],"checkbox_events":[23125,23904.29999998212,24634.5,29245,29959.19999998808,30891.69999998808],"key_events":[],"mouse_events":[5807.299999982119,10382.799999982119,23125,23904.29999998212,24634.5,29245,29959.19999998808,30891.69999998808,35955.5,39257.09999999404,40133.89999997616,41473.59999999404,42292.59999999404,48803.19999998808,50482.89999997616],"honeypot":0,"survey":"mace","page":7,"trial_type":"survey-mace","trial_index":15,"time_elapsed":520511,"internal_node_id":"0.0-15.0","task_version":"prescreen-v0.3","browser_interactions":0},{"responses":{"01":"No","02":"No","03":"No","04":"No"},"rt":20572.5,"item_order":[0,1,2,3],"radio_events":[8062.199999988079,11300.300000011921,17637.59999999404,18781.40000000596],"checkbox_events":[],"key_events":[],"mouse_events":[8062.199999988079,11300.300000011921,17637.59999999404,18781.40000000596,20566.59999999404],"honeypot":0,"survey":"mace","page":8,"trial_type":"survey-mace","trial_index":16,"time_elapsed":541093,"internal_node_id":"0.0-16.0","task_version":"prescreen-v0.3","browser_interactions":0},{"responses":{"01":"Yes","01_ages_1":"1","01_ages_2":"2","01_ages_3":"3","01_ages_4":"4","01_ages_5":"5","01_ages_6":"6","01_ages_7":"7","01_ages_8":"8","01_ages_9":"9","01_ages_10":"10","01_ages_11":"11","01_ages_12":"12","01_ages_13":"13","01_ages_14":"14","01_ages_15":"15","01_ages_16":"16","01_ages_17":"17","01_ages_18":"18","02":"Yes","02_ages_4":"4","02_ages_5":"5","02_ages_6":"6","02_ages_7":"7","02_ages_8":"8","02_ages_9":"9","02_ages_10":"10","02_ages_11":"11","02_ages_12":"12","02_ages_13":"13","02_ages_14":"14","02_ages_15":"15","02_ages_16":"16","02_ages_17":"17","02_ages_18":"18","03":"Yes","03_ages_1":"1","03_ages_2":"2","03_ages_3":"3","03_ages_4":"4","03_ages_5":"5","03_ages_6":"6","03_ages_7":"7","03_ages_8":"8","03_ages_9":"9","03_ages_10":"10","03_ages_11":"11","03_ages_12":"12","03_ages_13":"13","03_ages_14":"14","03_ages_15":"15","03_ages_16":"16","03_ages_17":"17","03_ages_18":"18","04":"Yes","04_ages_1":"1","04_ages_2":"2","04_ages_3":"3","04_ages_4":"4","04_ages_5":"5","04_ages_6":"6","04_ages_7":"7","04_ages_8":"8","04_ages_9":"9","04_ages_10":"10","04_ages_11":"11","04_ages_12":"12","04_ages_13":"13","04_ages_14":"14","04_ages_15":"15","04_ages_16":"16","04_ages_17":"17","04_ages_18":"18"},"rt":92404,"item_order":[0,1,2,3],"radio_events":[5562.9000000059605,27435.09999999404,47828,67878.5],"checkbox_events":[12966.90000000596,13841.5,14629.699999988079,15303.40000000596,15984.5,16610.40000000596,17437.30000001192,18119.40000000596,18824.69999998808,19579.80000001192,20334,20991.5,21689.69999998808,22396,23070.19999998808,23702.09999999404,24360.19999998808,25122.5,31696.09999999404,32840.30000001192,33667.5,34974,35631,36264.5,37018.90000000596,37684.30000001192,38430.30000001192,39501,41984.40000000596,42901.30000001192,43583.5,44329.59999999404,44979.80000001192,50344.09999999404,50976.30000001192,51682.5,52526.59999999404,53297.19999998808,54262.40000000596,55098.5,55804.30000001192,56599.09999999404,57296.90000000596,57978.69999998808,58685,59431.59999999404,60291.40000000596,60972.90000000596,61832.5,62530.5,63382,71723.90000000596,72413.30000001192,73176.40000000596,74547.59999999404,75480.80000001192,76129,76778.09999999404,77436.30000001192,78847.90000000596,80357,81119.80000001192,82093.59999999404,82953.90000000596,83950.80000001192,84908.19999998808,87700.80000001192,88609.40000000596,89445.40000000596],"key_events":[],"mouse_events":[5562.9000000059605,12966.90000000596,13841.5,14629.699999988079,15303.40000000596,15984.5,16610.40000000596,17437.30000001192,18119.40000000596,18824.69999998808,19579.80000001192,20334,20991.5,21689.69999998808,22396,23070.19999998808,23702.09999999404,24360.19999998808,25122.5,27435.09999999404,31696.09999999404,32840.30000001192,33667.5,34974,35631,36264.5,37018.90000000596,37684.30000001192,38430.30000001192,39501,41984.40000000596,42901.30000001192,43583.5,44329.59999999404,44979.80000001192,47828,50344.09999999404,50976.30000001192,51682.5,52526.59999999404,53297.19999998808,54262.40000000596,55098.5,55804.30000001192,56599.09999999404,57296.90000000596,57978.69999998808,58685,59431.59999999404,60291.40000000596,60972.90000000596,61832.5,62530.5,63382,67878.5,71723.90000000596,72413.30000001192,73176.40000000596,73834.09999999404,74547.59999999404,75480.80000001192,76129,76778.09999999404,77436.30000001192,78158.90000000596,78847.90000000596,79423.80000001192,80357,81119.80000001192,82093.59999999404,82953.90000000596,83950.80000001192,84908.19999998808,86734.80000001192,87700.80000001192,88609.40000000596,89445.40000000596,92399],"honeypot":0,"survey":"mace","page":9,"trial_type":"survey-mace","trial_index":17,"time_elapsed":633500,"internal_node_id":"0.0-17.0","task_version":"prescreen-v0.3","browser_interactions":0},{"responses":{"01":"No","02":"No","03":"No","04":"No","05":"No","06":"Yes","06_ages_17":"17","07":"Yes","07_ages_1":"1","07_ages_2":"2","07_ages_3":"3","07_ages_4":"4","07_ages_5":"5","07_ages_6":"6","07_ages_7":"7","07_ages_8":"8","07_ages_9":"9","07_ages_10":"10","07_ages_11":"11","07_ages_12":"12","07_ages_13":"13","07_ages_14":"14","07_ages_15":"15","07_ages_16":"16","07_ages_17":"17","07_ages_18":"18","08":"Yes","08_ages_4":"4","08_ages_5":"5","08_ages_6":"6","08_ages_7":"7","08_ages_8":"8","08_ages_9":"9","08_ages_10":"10","08_ages_11":"11","08_ages_12":"12","08_ages_13":"13","08_ages_14":"14","08_ages_15":"15","08_ages_16":"16","08_ages_17":"17","08_ages_18":"18"},"rt":72326.79999998212,"item_order":[0,1,2,3,4,5,6,7],"radio_events":[4313.899999976158,5311.699999988079,7843.699999988079,10277.799999982119,12607.199999988079,15593.399999976158,31006.899999976158,50536.69999998808],"checkbox_events":[17466.29999998212,32751.69999998808,33594.89999997616,34350.39999997616,35112.69999998808,36427.19999998808,37181.89999997616,38260.39999997616,39226.89999997616,39875.69999998808,40524.19999998808,41149.19999998808,41993.09999999404,42665.79999998212,43575.39999997616,45115.69999998808,45936.19999998808,46650.19999998808,47583.19999998808,51762.39999997616,52516.89999997616,53230.39999997616,53888.29999998212,54634.79999998212,55298.69999998808,56006.59999999404,56776.69999998808,59503.5,60175.19999998808,61012.69999998808,61816.09999999404,62740.79999998212,63535.59999999404,64436.59999999404,65142,65832.69999998808,66667.79999998212,68356,69102.39999997616,69849.29999998212],"key_events":[],"mouse_events":[4313.899999976158,5311.699999988079,7843.699999988079,10277.799999982119,12607.199999988079,15593.399999976158,17466.29999998212,31006.899999976158,32751.69999998808,33594.89999997616,34350.39999997616,35112.69999998808,36427.19999998808,37181.89999997616,38260.39999997616,39226.89999997616,39875.69999998808,40524.19999998808,41149.19999998808,41993.09999999404,42665.79999998212,43575.39999997616,44369.79999998212,45115.69999998808,45936.19999998808,46650.19999998808,47583.19999998808,49871.59999999404,50536.69999998808,51762.39999997616,52516.89999997616,53230.39999997616,53888.29999998212,54634.79999998212,55298.69999998808,56006.59999999404,56776.69999998808,59503.5,60175.19999998808,61012.69999998808,61816.09999999404,62740.79999998212,63535.59999999404,64436.59999999404,65142,65832.69999998808,66667.79999998212,68356,69102.39999997616,69849.29999998212,72316.79999998212],"honeypot":0,"survey":"mace","page":10,"trial_type":"survey-mace","trial_index":18,"time_elapsed":705830,"internal_node_id":"0.0-18.0","task_version":"prescreen-v0.3","browser_interactions":0,"instructed":0},{"rt":5542.0999999940395,"trial_type":"mental-health-alert","trial_index":19,"time_elapsed":711375,"internal_node_id":"0.0-19.0","task_version":"prescreen-v0.3","interactions":"[]"}]