[{"view_history":[{"page_index":0,"viewing_time":1975.7999997138977},{"page_index":1,"viewing_time":2738.5},{"page_index":2,"viewing_time":1968.5999999046326},{"page_index":3,"viewing_time":1182.7000002861023}],"rt":7866.5,"trial_type":"instructions","trial_index":0,"time_elapsed":7875,"internal_node_id":"0.0-0.0","task_version":"prescreen-v0.3"},{"rt":13721,"responses":{"age":"40","gender-categorical":"Male","gender-free-response":"","ethnicity":"Not Hispanic or Latino","race":["White"],"education":"Associate degree","siblings":"2"},"trial_type":"survey-demo","trial_index":1,"time_elapsed":21601,"internal_node_id":"0.0-1.0","task_version":"prescreen-v0.3"},{"responses":{"Q14":"1","Q16":"1","Q15":"1","Q21":"3","Q04":"2","Q12":"1","Q18":"1","Q03":"2","Q11":"2","Q19":"1","Q02":"2","Q09":"2","Q07":"1","Q20":"3","Q08":"1","Q10":"1","Q06":"2","Q13":"1","Q01":"2","Q05":"1","Q17":"2"},"rt":99729.5,"item_order":[13,15,14,20,3,11,17,2,10,18,1,8,6,19,7,9,5,12,0,4,16],"radio_events":[10163.599999904633,14195.900000095367,17117.300000190735,18744.5,21983.099999904633,28738.5,32950.09999990463,35898.300000190735,39565.800000190735,43669.7000002861,44558.800000190735,47194.09999990463,53004.7000002861,58148.7000002861,59474.300000190735,67761.5,68404.40000009537,71079.59999990463,72762.40000009537,75104.2000002861,77112.40000009537,79731.90000009537,81295.7000002861,82978.59999990463,89956.09999990463,94036.09999990463,97187.59999990463],"key_events":[],"mouse_events":[6154.599999904633,9321.700000286102,10163.599999904633,14195.900000095367,17117.300000190735,18744.5,21983.099999904633,23610.300000190735,28738.5,32950.09999990463,34453.7000002861,35898.300000190735,38279.800000190735,39565.800000190735,41375.300000190735,42415.40000009537,43669.7000002861,44558.800000190735,47194.09999990463,53004.7000002861,56791,58148.7000002861,59474.300000190735,61045.90000009537,62172.800000190735,66522.90000009537,67761.5,68404.40000009537,71079.59999990463,72762.40000009537,73960.80000019073,75104.2000002861,75619.80000019073,77112.40000009537,79731.90000009537,80398.59999990463,81295.7000002861,82978.59999990463,85336,89956.09999990463,91495.80000019073,94036.09999990463,96044.30000019073,97187.59999990463,99727.5],"straightlining":0.5238095238095238,"zigzagging":0.55,"honeypot":0,"survey":"sns","trial_type":"survey-template","trial_index":2,"time_elapsed":122285,"internal_node_id":"0.0-2.0","task_version":"prescreen-v0.3","browser_interactions":4,"infrequency":0},{"responses":{"Q05":"2","Q12":"1","Q11":"2","Q04":"1","Q10":"2","Q08":"2","Q03":"2","Q02":"1","Q13":"3","Q09":"2","Q07":"2","Q06":"2","Q01":"1"},"rt":44701.39999961853,"item_order":[4,11,10,3,9,7,2,1,12,8,6,5,0],"radio_events":[7764.89999961853,9082.5,10432,11241.599999904633,12733.89999961853,15885.299999713898,16997,17734.89999961853,22751.599999904633,26601.599999904633,30729.5,32952,34261.7999997139,38262.39999961853],"key_events":[],"mouse_events":[2922.5,5986.5,7764.89999961853,9082.5,10432,11241.599999904633,12733.89999961853,13543.299999713898,14273.599999904633,14861.099999904633,15258.199999809265,15885.299999713898,16997,17734.89999961853,19584.199999809265,20441.5,22751.599999904633,25871.199999809265,26601.599999904633,30729.5,31356.39999961853,32952,34261.7999997139,36365.2999997139,37508.09999990463,38262.39999961853,44700.09999990463],"straightlining":0.6153846153846154,"zigzagging":0.5833333333333334,"honeypot":0,"survey":"bisbas","trial_type":"survey-template","trial_index":3,"time_elapsed":166991,"internal_node_id":"0.0-3.0","task_version":"prescreen-v0.3","browser_interactions":0,"infrequency":1},{"responses":{"Q01":"0","Q02":"0","Q03":"1"},"rt":13592.5,"radio_events":[7352.900000095367,8607,9638.900000095367,12806.200000286102],"key_events":[],"mouse_events":[7352.900000095367,8607,9638.900000095367,12806.200000286102,13591.900000095367],"survey":"map","page":1,"trial_type":"survey-map","trial_index":4,"time_elapsed":181056,"internal_node_id":"0.0-4.0","task_version":"prescreen-v0.3","browser_interactions":0},{"responses":{"Q04":"1","Q05":"1","Q06":"2"},"rt":9435.700000286102,"radio_events":[4807.5,6657.10000038147,8363.700000286102],"key_events":[],"mouse_events":[2163.9000000953674,4807.5,6657.10000038147,8363.700000286102,9435.10000038147],"survey":"map","page":2,"trial_type":"survey-map","trial_index":5,"time_elapsed":190494,"internal_node_id":"0.0-5.0","task_version":"prescreen-v0.3","browser_interactions":0},{"responses":{"Q07":"0","Q08":"0","Q09":"1"},"rt":14222.800000190735,"radio_events":[3133,5982.699999809265,7197.199999809265,13166.5],"key_events":[],"mouse_events":[3133,4125.099999904633,5982.699999809265,7197.199999809265,13166.5,14222.300000190735],"survey":"map","page":3,"trial_type":"survey-map","trial_index":6,"time_elapsed":204719,"internal_node_id":"0.0-6.0","task_version":"prescreen-v0.3","browser_interactions":0},{"responses":{"Q10":"1","Q11":"0","Q12":"1","Q13":"0","Q16":"0","Q14":"1","Q15":"0"},"rt":33353.40000009537,"radio_events":[3863,6418.900000095367,7244.299999713898,9117.799999713898,10935.5,12507.5,14261.5,15627.599999904633,26192.400000095367,32280.5],"key_events":[],"mouse_events":[3863,4902.599999904633,6418.900000095367,7244.299999713898,9117.799999713898,10935.5,12507.5,14261.5,15627.599999904633,19087.799999713898,25358.299999713898,26192.400000095367,32280.5,33352.2999997139],"survey":"map","page":4,"trial_type":"survey-map","trial_index":7,"time_elapsed":238554,"internal_node_id":"0.0-7.0","task_version":"prescreen-v0.3","browser_interactions":0,"infrequency":0},{"view_history":[{"page_index":0,"viewing_time":2576},{"page_index":1,"viewing_time":3675.199999809265}],"rt":6252.099999904633,"trial_type":"instructions","trial_index":8,"time_elapsed":244807,"internal_node_id":"0.0-8.0","task_version":"prescreen-v0.3"},{"responses":{"01":"No","01_ages_6":"6","01_ages_8":"8","01_ages_9":"9","01_ages_10":"10","02":"No","03":"No","04":"No","05":"No","06":"No"},"rt":37893.699999809265,"item_order":[0,1,2,3,4,5],"radio_events":[10410,21896,23642.599999904633,27611.400000095367,29055.699999809265,29849.5,30857.699999809265,33231],"checkbox_events":[15450,16195.900000095367,18180.5,20514.299999713898],"key_events":[],"mouse_events":[15,10410,15450,16195.900000095367,18180.5,20514.299999713898,21896,23642.599999904633,27611.400000095367,29055.699999809265,29849.5,30857.699999809265,32222.400000095367,33231,37890.7999997139],"honeypot":0,"survey":"mace","page":1,"trial_type":"survey-mace","trial_index":9,"time_elapsed":282708,"internal_node_id":"0.0-9.0","task_version":"prescreen-v0.3","browser_interactions":0},{"responses":{"01":"No","02":"No","03":"Yes","03_ages_5":"5","03_ages_6":"6","03_ages_7":"7","03_ages_8":"8","03_ages_9":"9","03_ages_10":"10","03_ages_11":"11","03_ages_12":"12","04":"No","05":"Yes","05_ages_6":"6","05_ages_7":"7","05_ages_8":"8","05_ages_9":"9","05_ages_10":"10","05_ages_11":"11","05_ages_12":"12","06":"No","07":"No","08":"No"},"rt":44622.699999809265,"item_order":[0,1,2,3,4,5,6,7],"radio_events":[3881.699999809265,5461.400000095367,8764,21392.800000190735,32045.599999904633,33609.90000009537,40515.40000009537,41864.90000009537,43452.5],"checkbox_events":[11097,11573.099999904633,12073.300000190735,12549.599999904633,13462.599999904633,14232.400000095367,15479,16161.400000095367,34768,35848,36268.40000009537,36697,37260.59999990463,37863.800000190735,38562.40000009537],"key_events":[],"mouse_events":[3881.699999809265,5461.400000095367,8764,11097,11573.099999904633,12073.300000190735,12549.599999904633,13065.699999809265,13462.599999904633,14232.400000095367,15011.199999809265,15479,16161.400000095367,21392.800000190735,32045.599999904633,33609.90000009537,34768,35252.199999809265,35848,36268.40000009537,36697,37260.59999990463,37863.800000190735,38562.40000009537,40515.40000009537,41237.699999809265,41864.90000009537,42555.199999809265,43452.5,44619],"honeypot":0,"survey":"mace","page":2,"trial_type":"survey-mace","trial_index":10,"time_elapsed":327804,"internal_node_id":"0.0-10.0","task_version":"prescreen-v0.3","browser_interactions":0},{"responses":{"01":"No","02":"No","03":"No","04":"No"},"rt":11305.900000095367,"item_order":[0,1,2,3],"radio_events":[3358.4000000953674,5255.900000095367,8502,9177],"checkbox_events":[],"key_events":[],"mouse_events":[3358.4000000953674,4255.10000038147,5255.900000095367,6128.10000038147,8502,9177,11304],"honeypot":0,"survey":"mace","page":3,"trial_type":"survey-mace","trial_index":11,"time_elapsed":339113,"internal_node_id":"0.0-11.0","task_version":"prescreen-v0.3","browser_interactions":0},{"responses":{"01":"No","02":"No"},"rt":5648.400000095367,"item_order":[0,1],"radio_events":[2432.800000190735,3528.4000000953674],"checkbox_events":[],"key_events":[],"mouse_events":[2432.800000190735,3528.4000000953674,5647.400000095367],"honeypot":0,"survey":"mace","page":4,"trial_type":"survey-mace","trial_index":12,"time_elapsed":344764,"internal_node_id":"0.0-12.0","task_version":"prescreen-v0.3","browser_interactions":0},{"responses":{"01":"No","02":"No","03":"No","04":"No","05":"No"},"rt":14747.400000095367,"item_order":[0,1,2,3,4],"radio_events":[4354.400000095367,6735.900000095367,8355.199999809265,9768.099999904633,12038.299999713898],"checkbox_events":[],"key_events":[],"mouse_events":[4354.400000095367,6735.900000095367,8355.199999809265,9768.099999904633,12038.299999713898,14744.900000095367],"honeypot":0,"survey":"mace","page":5,"trial_type":"survey-mace","trial_index":13,"time_elapsed":359983,"internal_node_id":"0.0-13.0","task_version":"prescreen-v0.3","browser_interactions":0},{"responses":{"01":"No","02":"No","03":"No","04":"No","05":"No"},"rt":13467.400000095367,"item_order":[0,1,2,3,4],"radio_events":[2630,6361,7234.199999809265,10139.400000095367,11234.699999809265],"checkbox_events":[],"key_events":[],"mouse_events":[2630,6361,7234.199999809265,8567.199999809265,10139.400000095367,11234.699999809265,13465.099999904633],"honeypot":0,"survey":"mace","page":6,"trial_type":"survey-mace","trial_index":14,"time_elapsed":373454,"internal_node_id":"0.0-14.0","task_version":"prescreen-v0.3","browser_interactions":0},{"responses":{"01":"No","02":"No","03":"No","04":"No","05":"No","06":"No","07":"No"},"rt":20056.199999809265,"item_order":[0,1,2,3,4,5,6],"radio_events":[3701.5,5828.400000095367,7249.5,10734.299999713898,11559.699999809265,13004.299999713898,15862.099999904633],"checkbox_events":[],"key_events":[],"mouse_events":[3701.5,5828.400000095367,7249.5,10734.299999713898,11559.699999809265,13004.299999713898,15862.099999904633,20053],"honeypot":0,"survey":"mace","page":7,"trial_type":"survey-mace","trial_index":15,"time_elapsed":393514,"internal_node_id":"0.0-15.0","task_version":"prescreen-v0.3","browser_interactions":0},{"responses":{"01":"No","02":"No","03":"No","04":"No"},"rt":14902.900000095367,"item_order":[0,1,2,3],"radio_events":[6264.699999809265,7844.300000190735,9312.900000095367,10003.400000095367],"checkbox_events":[],"key_events":[],"mouse_events":[6264.699999809265,7844.300000190735,8875.800000190735,9312.900000095367,10003.400000095367,14900.900000095367],"honeypot":0,"survey":"mace","page":8,"trial_type":"survey-mace","trial_index":16,"time_elapsed":408420,"internal_node_id":"0.0-16.0","task_version":"prescreen-v0.3","browser_interactions":0},{"responses":{"01":"Yes","01_ages_1":"1","01_ages_2":"2","01_ages_3":"3","01_ages_4":"4","01_ages_5":"5","01_ages_6":"6","01_ages_7":"7","01_ages_8":"8","01_ages_9":"9","01_ages_10":"10","01_ages_11":"11","01_ages_12":"12","01_ages_13":"13","01_ages_14":"14","01_ages_15":"15","01_ages_16":"16","01_ages_17":"17","01_ages_18":"18","02":"Yes","02_ages_1":"1","02_ages_2":"2","02_ages_3":"3","02_ages_4":"4","02_ages_5":"5","02_ages_6":"6","02_ages_7":"7","02_ages_8":"8","02_ages_9":"9","02_ages_10":"10","02_ages_11":"11","02_ages_12":"12","02_ages_13":"13","02_ages_14":"14","02_ages_15":"15","02_ages_16":"16","02_ages_17":"17","02_ages_18":"18","03":"Yes","03_ages_1":"1","03_ages_2":"2","03_ages_3":"3","03_ages_4":"4","03_ages_5":"5","03_ages_6":"6","03_ages_7":"7","03_ages_8":"8","03_ages_9":"9","03_ages_10":"10","03_ages_11":"11","03_ages_12":"12","03_ages_13":"13","03_ages_14":"14","03_ages_15":"15","03_ages_16":"16","03_ages_17":"17","03_ages_18":"18","04":"Yes","04_ages_1":"1","04_ages_2":"2","04_ages_3":"3","04_ages_4":"4","04_ages_5":"5","04_ages_6":"6","04_ages_7":"7","04_ages_8":"8","04_ages_9":"9","04_ages_10":"10","04_ages_11":"11","04_ages_12":"12","04_ages_13":"13","04_ages_14":"14","04_ages_15":"15","04_ages_16":"16","04_ages_17":"17","04_ages_18":"18"},"rt":76812.80000019073,"item_order":[0,1,2,3],"radio_events":[4821.800000190735,22142.599999904633,37820,58101.5],"checkbox_events":[8933.099999904633,9393.400000095367,9798.099999904633,10218.900000095367,11179.400000095367,11774.599999904633,12298.800000190735,12949.5,13513.300000190735,14053,15021.599999904633,15696.099999904633,16434.400000095367,16910.900000095367,17426.5,17926.800000190735,18418.900000095367,19141.300000190735,23729.400000095367,25618.700000286102,26102.900000095367,26555.400000095367,26952.200000286102,27333.400000095367,27722.200000286102,28746.400000095367,29143.099999904633,29881.300000190735,30397.200000286102,31016.300000190735,31818.300000190735,32239,33977.5,34517,35390.300000190735,36192.09999990463,39319.59999990463,40137.2000002861,41010.59999990463,41438.90000009537,41899.300000190735,42804.300000190735,43772.90000009537,44360.300000190735,44868.2000002861,45360.300000190735,46305.2000002861,46884.5,47376.7000002861,47876.7000002861,48829.300000190735,49353.09999990463,50615.2000002861,51647.300000190735,60077.5,60895.09999990463,61609.5,62363.59999990463,63427.40000009537,63990.90000009537,64705.40000009537,65554.59999990463,66015,66713.5,67936,68539.2000002861,69142.59999990463,72817.90000009537,73595.80000019073,74310.2000002861,74866.09999990463,75437.40000009537],"key_events":[],"mouse_events":[3392.4000000953674,4305,4821.800000190735,8933.099999904633,9393.400000095367,9798.099999904633,10218.900000095367,10782.599999904633,11179.400000095367,11774.599999904633,12298.800000190735,12949.5,13513.300000190735,14053,14576.900000095367,15021.599999904633,15696.099999904633,16434.400000095367,16910.900000095367,17426.5,17926.800000190735,18418.900000095367,19141.300000190735,22142.599999904633,23729.400000095367,25618.700000286102,26102.900000095367,26555.400000095367,26952.200000286102,27333.400000095367,27722.200000286102,28150.800000190735,28746.400000095367,29143.099999904633,29881.300000190735,30397.200000286102,31016.300000190735,31818.300000190735,32239,32627.700000286102,33207.300000190735,33977.5,34517,35390.300000190735,36192.09999990463,37820,38970.2000002861,39319.59999990463,40137.2000002861,41010.59999990463,41438.90000009537,41899.300000190735,42328.09999990463,42804.300000190735,43772.90000009537,44360.300000190735,44868.2000002861,45360.300000190735,45876.300000190735,46305.2000002861,46884.5,47376.7000002861,47876.7000002861,48376.800000190735,48829.300000190735,49353.09999990463,50615.2000002861,51647.300000190735,58101.5,60077.5,60895.09999990463,61609.5,62363.59999990463,63427.40000009537,63990.90000009537,64705.40000009537,65554.59999990463,66015,66713.5,67245.30000019073,67936,68539.2000002861,69142.59999990463,72817.90000009537,73595.80000019073,74310.2000002861,74866.09999990463,75437.40000009537,76810.90000009537],"honeypot":0,"survey":"mace","page":9,"trial_type":"survey-mace","trial_index":17,"time_elapsed":486176,"internal_node_id":"0.0-17.0","task_version":"prescreen-v0.3","browser_interactions":2},{"responses":{"01":"No","02":"No","03":"No","04":"No","05":"No","06":"Yes","06_ages_17":"17","07":"Yes","07_ages_7":"7","07_ages_8":"8","07_ages_9":"9","07_ages_10":"10","07_ages_11":"11","07_ages_12":"12","07_ages_13":"13","07_ages_14":"14","07_ages_15":"15","07_ages_16":"16","08":"Yes","08_ages_1":"1","08_ages_2":"2","08_ages_3":"3","08_ages_4":"4","08_ages_5":"5","08_ages_6":"6","08_ages_7":"7","08_ages_8":"8","08_ages_9":"9","08_ages_10":"10","08_ages_11":"11","08_ages_12":"12","08_ages_13":"13","08_ages_14":"14","08_ages_15":"15","08_ages_16":"16","08_ages_17":"17","08_ages_18":"18"},"rt":47157.199999809265,"item_order":[0,1,2,3,4,5,6,7],"radio_events":[2193.0999999046326,3629.7999997138977,4344.299999713898,5637.799999713898,7186.099999904633,8781.599999904633,10187.099999904633,14266.599999904633,22078,34524.90000009537],"checkbox_events":[12012,25252.599999904633,25824,26332.099999904633,26919.5,28063.099999904633,28538.799999713898,29134.199999809265,29769.199999809265,31087,31793.5,35786.199999809265,36302.199999809265,37246.7999997139,37858.199999809265,38334.2999997139,38842.40000009537,39413.699999809265,39858.5,40287.09999990463,40723.699999809265,41311.09999990463,42144.59999990463,42668.5,43843.5,44351.40000009537,44930.7999997139,45446.7999997139,46423.09999990463],"key_events":[],"mouse_events":[2193.0999999046326,2819.699999809265,3629.7999997138977,4344.299999713898,5637.799999713898,6463.400000095367,7186.099999904633,8781.599999904633,10187.099999904633,12012,14266.599999904633,22078,25252.599999904633,25824,26332.099999904633,26919.5,27435.400000095367,28063.099999904633,28538.799999713898,29134.199999809265,29769.199999809265,30491.599999904633,31087,31793.5,33849.40000009537,34524.90000009537,35786.199999809265,36302.199999809265,37246.7999997139,37858.199999809265,38334.2999997139,38842.40000009537,39413.699999809265,39858.5,40287.09999990463,40723.699999809265,41311.09999990463,41739.5,42144.59999990463,42668.5,43200.5,43843.5,44351.40000009537,44930.7999997139,45446.7999997139,45907.09999990463,46423.09999990463,47153.40000009537],"honeypot":0,"survey":"mace","page":10,"trial_type":"survey-mace","trial_index":18,"time_elapsed":533338,"internal_node_id":"0.0-18.0","task_version":"prescreen-v0.3","browser_interactions":0,"instructed":0},{"rt":3009.6000003814697,"trial_type":"mental-health-alert","trial_index":19,"time_elapsed":536350,"internal_node_id":"0.0-19.0","task_version":"prescreen-v0.3","interactions":"[{\"event\":\"blur\",\"trial\":2,\"time\":106262},{\"event\":\"focus\",\"trial\":2,\"time\":106609},{\"event\":\"blur\",\"trial\":2,\"time\":121067},{\"event\":\"focus\",\"trial\":2,\"time\":121414},{\"event\":\"blur\",\"trial\":17,\"time\":480856},{\"event\":\"focus\",\"trial\":17,\"time\":481185}]"}]