[{"view_history":[{"page_index":0,"viewing_time":2092.399999976158},{"page_index":1,"viewing_time":2677.800000011921},{"page_index":2,"viewing_time":2756},{"page_index":3,"viewing_time":1680.0999999940395}],"rt":9206.899999976158,"trial_type":"instructions","trial_index":0,"time_elapsed":9218,"internal_node_id":"0.0-0.0","task_version":"prescreen-v0.3"},{"rt":15581.800000011921,"responses":{"age":"32","gender-categorical":"Male","gender-free-response":"","ethnicity":"Not Hispanic or Latino","race":["White"],"education":"Associate degree","siblings":"6"},"trial_type":"survey-demo","trial_index":1,"time_elapsed":24803,"internal_node_id":"0.0-1.0","task_version":"prescreen-v0.3"},{"responses":{"Q20":"0","Q11":"1","Q02":"2","Q01":"2","Q17":"1","Q15":"1","Q14":"2","Q12":"0","Q18":"1","Q07":"1","Q06":"2","Q03":"1","Q21":"3","Q08":"2","Q10":"0","Q19":"1","Q16":"1","Q13":"2","Q09":"2","Q04":"0","Q05":"0"},"rt":333443,"item_order":[19,10,1,0,16,14,13,11,17,6,5,2,20,7,9,18,15,12,8,3,4],"radio_events":[11586.699999988079,16570.69999998808,19346.80000001192,20657.59999999404,23460.90000000596,230429.59999999404,235029.5,238303.69999998808,239706.5,248194.5,250931.09999999404,262153.40000000596,263935.40000000596,267808.3000000119,300555.1999999881,304880.40000000596,309460.8000000119,312778.40000000596,314438.3000000119,314566.3000000119,317131.3000000119,319857.3000000119,323539.40000000596,327842.3000000119,330453.5],"key_events":[],"mouse_events":[11586.699999988079,13285.5,16570.69999998808,19346.80000001192,20657.59999999404,23460.90000000596,229850.80000001192,230429.59999999404,234539.5,235029.5,238303.69999998808,239706.5,248194.5,250931.09999999404,260151.5,262153.40000000596,263935.40000000596,267808.3000000119,300555.1999999881,304880.40000000596,309460.8000000119,312778.40000000596,314438.3000000119,314566.3000000119,317131.3000000119,319857.3000000119,323539.40000000596,327842.3000000119,329981.59999999404,330453.5,333441.40000000596],"straightlining":0.38095238095238093,"zigzagging":0.5,"honeypot":0,"survey":"sns","trial_type":"survey-template","trial_index":2,"time_elapsed":358253,"internal_node_id":"0.0-2.0","task_version":"prescreen-v0.3","browser_interactions":2,"infrequency":0},{"responses":{"Q09":"3","Q04":"2","Q08":"2","Q02":"3","Q06":"3","Q13":"0","Q01":"2","Q07":"3","Q05":"3","Q10":"2","Q03":"2","Q12":"3","Q11":"2"},"rt":79571.59999999404,"item_order":[8,3,7,1,5,12,0,6,4,9,2,11,10],"radio_events":[2286.300000011921,4688.800000011921,7687.800000011921,9210.800000011921,11717.800000011921,24262.30000001192,26415.90000000596,27595.90000000596,29609.90000000596,30570.70000001788,32104,33640,35647.59999999404,61421.70000001788],"key_events":[],"mouse_events":[2286.300000011921,4012.2000000178814,4688.800000011921,7687.800000011921,9210.800000011921,11717.800000011921,24262.30000001192,26415.90000000596,27595.90000000596,29609.90000000596,30570.70000001788,31444,32104,33640,35647.59999999404,61421.70000001788,79570.80000001192],"straightlining":0.46153846153846156,"zigzagging":0.5833333333333334,"honeypot":0,"survey":"bisbas","trial_type":"survey-template","trial_index":3,"time_elapsed":437829,"internal_node_id":"0.0-3.0","task_version":"prescreen-v0.3","browser_interactions":0,"infrequency":0},{"responses":{"Q01":"3","Q02":"2","Q03":"3"},"rt":51602,"radio_events":[7634.4000000059605,9679.600000023842,16455.600000023842],"key_events":[],"mouse_events":[7634.4000000059605,9679.600000023842,16455.600000023842,51601.60000002384],"survey":"map","page":1,"trial_type":"survey-map","trial_index":4,"time_elapsed":489435,"internal_node_id":"0.0-4.0","task_version":"prescreen-v0.3","browser_interactions":0},{"responses":{"Q04":"4","Q05":"3","Q06":"3"},"rt":8869.299999982119,"radio_events":[4547.9000000059605,6587.4000000059605,8401.799999982119],"key_events":[],"mouse_events":[4547.9000000059605,6587.4000000059605,8401.799999982119,8868.799999982119],"survey":"map","page":2,"trial_type":"survey-map","trial_index":5,"time_elapsed":498308,"internal_node_id":"0.0-5.0","task_version":"prescreen-v0.3","browser_interactions":0},{"responses":{"Q07":"3","Q08":"4","Q09":"4"},"rt":60697.5,"radio_events":[12671.09999999404,53832.59999999404,58080.40000000596],"key_events":[],"mouse_events":[12671.09999999404,53832.59999999404,58080.40000000596,60697.09999999404],"survey":"map","page":3,"trial_type":"survey-map","trial_index":6,"time_elapsed":559009,"internal_node_id":"0.0-6.0","task_version":"prescreen-v0.3","browser_interactions":0},{"responses":{"Q10":"2","Q11":"2","Q12":"3","Q13":"4","Q16":"3","Q14":"4","Q15":"4"},"rt":29375.59999999404,"radio_events":[3649.199999988079,6215.9000000059605,8133.9000000059605,9784.799999982119,11183.90000000596,21641.79999998212,23475.69999998808],"key_events":[],"mouse_events":[3649.199999988079,6215.9000000059605,8133.9000000059605,9143.799999982119,9784.799999982119,11183.90000000596,21641.79999998212,23475.69999998808,29374.79999998212],"survey":"map","page":4,"trial_type":"survey-map","trial_index":7,"time_elapsed":588389,"internal_node_id":"0.0-7.0","task_version":"prescreen-v0.3","browser_interactions":0,"infrequency":1},{"view_history":[{"page_index":0,"viewing_time":32783.40000000596},{"page_index":1,"viewing_time":3404}],"rt":36188.30000001192,"trial_type":"instructions","trial_index":8,"time_elapsed":624580,"internal_node_id":"0.0-8.0","task_version":"prescreen-v0.3"},{"responses":{"01":"Yes","01_ages_4":"4","01_ages_5":"5","01_ages_6":"6","01_ages_7":"7","01_ages_8":"8","01_ages_9":"9","01_ages_10":"10","01_ages_11":"11","01_ages_12":"12","01_ages_13":"13","01_ages_14":"14","01_ages_15":"15","01_ages_16":"16","01_ages_17":"17","01_ages_18":"18","02":"Yes","02_ages_7":"7","02_ages_8":"8","02_ages_9":"9","02_ages_10":"10","02_ages_11":"11","02_ages_12":"12","02_ages_13":"13","02_ages_14":"14","02_ages_15":"15","02_ages_16":"16","02_ages_17":"17","02_ages_18":"18","03":"Yes","03_ages_5":"5","03_ages_6":"6","03_ages_7":"7","03_ages_8":"8","03_ages_9":"9","03_ages_10":"10","03_ages_11":"11","03_ages_12":"12","03_ages_13":"13","03_ages_14":"14","03_ages_15":"15","03_ages_16":"16","03_ages_17":"17","04":"No","05":"Yes","05_ages_10":"10","05_ages_11":"11","05_ages_12":"12","05_ages_13":"13","05_ages_14":"14","05_ages_15":"15","05_ages_16":"16","06":"Yes","06_ages_5":"5","06_ages_6":"6","06_ages_7":"7","06_ages_8":"8","06_ages_9":"9","06_ages_10":"10","06_ages_11":"11","06_ages_12":"12","06_ages_13":"13","06_ages_14":"14","06_ages_15":"15","06_ages_16":"16","06_ages_17":"17"},"rt":97701.19999998808,"item_order":[0,1,2,3,4,5],"radio_events":[4353.800000011921,22459.69999998808,36384.69999998808,68520.59999999404,75765.90000000596,84404.69999998808],"checkbox_events":[8599.90000000596,8958,9338.300000011921,10059.199999988079,10453.199999988079,11001.199999988079,12108.09999999404,14264.199999988079,14608.40000000596,14965.09999999404,15349.90000000596,16329.5,16659.19999998808,16995.09999999404,17382.69999998808,24369.69999998808,24816.59999999404,25280.59999999404,25629,26316.69999998808,27666.69999998808,28309.59999999404,28653,29012.90000000596,29347.69999998808,29645.69999998808,29923.69999998808,39093.19999998808,39497.69999998808,39807.80000001192,40126.90000000596,41017.90000000596,41315.69999998808,41624.69999998808,41994.80000001192,42333.59999999404,42690.69999998808,43081.69999998808,43642.69999998808,44428.59999999404,45454.90000000596,49949.59999999404,51136.80000001192,51507.80000001192,78818.69999998808,79185.59999999404,80475.5,80765.59999999404,81081.59999999404,81794.80000001192,82552.69999998808,87581.59999999404,88601.80000001192,89042.59999999404,89378.59999999404,89735.80000001192,90117.59999999404,90507.80000001192,90919.69999998808,91838.80000001192,92262.69999998808,92622,92991.69999998808,93382.59999999404,94552.59999999404,96927],"key_events":[],"mouse_events":[0.09999999403953552,3882,4353.800000011921,8599.90000000596,8958,9338.300000011921,9705,10059.199999988079,10453.199999988079,11001.199999988079,11701.90000000596,12108.09999999404,12626,13061.699999988079,13645.90000000596,14264.199999988079,14608.40000000596,14965.09999999404,15349.90000000596,16329.5,16659.19999998808,16995.09999999404,17382.69999998808,22459.69999998808,24369.69999998808,24816.59999999404,25280.59999999404,25629,26316.69999998808,26616.80000001192,27666.69999998808,28309.59999999404,28653,29012.90000000596,29347.69999998808,29645.69999998808,29923.69999998808,35146.59999999404,36028,36384.69999998808,39093.19999998808,39497.69999998808,39807.80000001192,40126.90000000596,40467.80000001192,41017.90000000596,41315.69999998808,41624.69999998808,41994.80000001192,42333.59999999404,42690.69999998808,43081.69999998808,43642.69999998808,44428.59999999404,45454.90000000596,48988.69999998808,49949.59999999404,50661.40000000596,51136.80000001192,51507.80000001192,68520.59999999404,75765.90000000596,78818.69999998808,79185.59999999404,79477.80000001192,79885.59999999404,80475.5,80765.59999999404,81081.59999999404,81409.59999999404,81794.80000001192,82552.69999998808,84404.69999998808,87581.59999999404,88601.80000001192,89042.59999999404,89378.59999999404,89735.80000001192,90117.59999999404,90507.80000001192,90919.69999998808,91838.80000001192,92262.69999998808,92622,92991.69999998808,93382.59999999404,94552.59999999404,96927,97699.09999999404],"honeypot":0,"survey":"mace","page":1,"trial_type":"survey-mace","trial_index":9,"time_elapsed":722290,"internal_node_id":"0.0-9.0","task_version":"prescreen-v0.3","browser_interactions":0},{"responses":{"01":"Yes","01_ages_5":"5","01_ages_6":"6","01_ages_7":"7","01_ages_8":"8","01_ages_9":"9","01_ages_10":"10","01_ages_11":"11","01_ages_12":"12","01_ages_13":"13","01_ages_14":"14","01_ages_15":"15","01_ages_16":"16","01_ages_17":"17","02":"Yes","02_ages_5":"5","02_ages_6":"6","02_ages_7":"7","02_ages_8":"8","02_ages_9":"9","02_ages_10":"10","02_ages_11":"11","02_ages_12":"12","02_ages_13":"13","02_ages_14":"14","02_ages_15":"15","03":"Yes","03_ages_4":"4","03_ages_5":"5","03_ages_6":"6","03_ages_7":"7","03_ages_8":"8","03_ages_9":"9","03_ages_10":"10","03_ages_11":"11","03_ages_12":"12","03_ages_13":"13","03_ages_14":"14","04":"Yes","04_ages_3":"3","04_ages_4":"4","04_ages_5":"5","04_ages_6":"6","04_ages_7":"7","04_ages_8":"8","04_ages_9":"9","04_ages_10":"10","04_ages_11":"11","04_ages_12":"12","04_ages_13":"13","04_ages_14":"14","04_ages_15":"15","04_ages_16":"16","04_ages_17":"17","04_ages_18":"18","05":"Yes","05_ages_5":"5","05_ages_6":"6","05_ages_7":"7","05_ages_8":"8","05_ages_9":"9","05_ages_10":"10","05_ages_11":"11","05_ages_12":"12","05_ages_13":"13","06":"No","07":"No","08":"No"},"rt":301809.3000000119,"item_order":[0,1,2,3,4,5,6,7],"radio_events":[3946.800000011921,15377.59999999404,24673.59999999404,45685.80000001192,292753.5,299565.3000000119,300514.40000000596,301152.40000000596],"checkbox_events":[5104.5999999940395,5451.800000011921,5793,6078.5999999940395,6378.700000017881,6790.700000017881,7519.700000017881,7901.9000000059605,8251.59999999404,9291.5,9891.5,10244.90000000596,10663.5,16811.40000000596,17179.59999999404,18258.20000001788,18593,18913.90000000596,19247.70000001788,19547.59999999404,19986.59999999404,21047.59999999404,21663.5,22132.90000000596,28180.09999999404,28525.59999999404,28869.20000001788,29374.40000000596,30067.59999999404,30490.90000000596,31000.5,31877.5,33017.5,34675.59999999404,36228.59999999404,36840.59999999404,37906.59999999404,38302.70000001788,38712.80000001192,40342.5,40808.5,41258.80000001192,42119.59999999404,49765.20000001788,50211.5,51073.30000001192,51593.59999999404,52053.30000001192,53112.59999999404,53819.70000001788,56010.59999999404,56755.59999999404,57565.20000001788,57906.5,58251.59999999404,59093.90000000596,59643.5,60037.5,60437.5,294163.7000000179,294582.3000000119,295089.5,295349.3000000119,295888.40000000596,296205.40000000596,296504.40000000596,296897.8000000119,297612.40000000596],"key_events":[],"mouse_events":[3946.800000011921,5104.5999999940395,5451.800000011921,5793,6078.5999999940395,6378.700000017881,6790.700000017881,7137.5,7519.700000017881,7901.9000000059605,8251.59999999404,9291.5,9891.5,10244.90000000596,10663.5,14898.59999999404,15377.59999999404,16811.40000000596,17179.59999999404,17492.70000001788,18258.20000001788,18593,18913.90000000596,19247.70000001788,19547.59999999404,19986.59999999404,20646.5,21047.59999999404,21663.5,22132.90000000596,24673.59999999404,27625.59999999404,28180.09999999404,28525.59999999404,28869.20000001788,29374.40000000596,29713.5,30067.59999999404,30490.90000000596,31000.5,31387.09999999404,31877.5,32398.90000000596,33017.5,34268.59999999404,34675.59999999404,35384.59999999404,35810.40000000596,36228.59999999404,36840.59999999404,37906.59999999404,38302.70000001788,38712.80000001192,40342.5,40808.5,41258.80000001192,42119.59999999404,45685.80000001192,47195.5,48833.5,49765.20000001788,50211.5,50605.70000001788,51073.30000001192,51593.59999999404,52053.30000001192,52494.70000001788,53112.59999999404,53819.70000001788,54518.59999999404,56010.59999999404,56755.59999999404,57139.40000000596,57565.20000001788,57906.5,58251.59999999404,58619.70000001788,59093.90000000596,59643.5,60037.5,60437.5,290955.90000000596,292200.3000000119,292753.5,294163.7000000179,294582.3000000119,295089.5,295349.3000000119,295599.59999999404,295888.40000000596,296205.40000000596,296504.40000000596,296897.8000000119,297612.40000000596,299565.3000000119,300514.40000000596,301152.40000000596,301806.59999999404],"honeypot":0,"survey":"mace","page":2,"trial_type":"survey-mace","trial_index":10,"time_elapsed":1024105,"internal_node_id":"0.0-10.0","task_version":"prescreen-v0.3","browser_interactions":2},{"responses":{"01":"Yes","01_ages_9":"9","01_ages_10":"10","01_ages_11":"11","01_ages_12":"12","01_ages_13":"13","01_ages_14":"14","01_ages_15":"15","01_ages_16":"16","01_ages_17":"17","01_ages_18":"18","02":"No","03":"No","04":"No"},"rt":20424.5,"item_order":[0,1,2,3],"radio_events":[2980.4000000059605,16981.40000000596,18555.30000001192,19800.5],"checkbox_events":[4617.4000000059605,5156.200000017881,5736.300000011921,6102.300000011921,6440.4000000059605,6770.800000011921,7522.5999999940395,7965.4000000059605,8403,8791.40000000596,9548.300000011921,9923.40000000596,10511.5,11268.300000011921,11556.300000011921,11884.300000011921,12190.59999999404,12617.800000011921],"key_events":[],"mouse_events":[2980.4000000059605,4080.5,4617.4000000059605,5156.200000017881,5736.300000011921,6102.300000011921,6440.4000000059605,6770.800000011921,7522.5999999940395,7965.4000000059605,8403,8791.40000000596,9548.300000011921,9923.40000000596,10511.5,11268.300000011921,11556.300000011921,11884.300000011921,12190.59999999404,12617.800000011921,16981.40000000596,18555.30000001192,19800.5,20423.09999999404],"honeypot":0,"survey":"mace","page":3,"trial_type":"survey-mace","trial_index":11,"time_elapsed":1044534,"internal_node_id":"0.0-11.0","task_version":"prescreen-v0.3","browser_interactions":0},{"responses":{"01":"No","02":"No"},"rt":11333.800000011921,"item_order":[0,1],"radio_events":[9450.90000000596,10366],"checkbox_events":[],"key_events":[],"mouse_events":[9450.90000000596,10366,11333],"honeypot":0,"survey":"mace","page":4,"trial_type":"survey-mace","trial_index":12,"time_elapsed":1055871,"internal_node_id":"0.0-12.0","task_version":"prescreen-v0.3","browser_interactions":0},{"responses":{"01":"Yes","01_ages_6":"6","01_ages_7":"7","01_ages_8":"8","01_ages_9":"9","01_ages_10":"10","01_ages_11":"11","01_ages_12":"12","01_ages_13":"13","01_ages_14":"14","01_ages_15":"15","02":"Yes","02_ages_6":"6","02_ages_7":"7","02_ages_8":"8","02_ages_9":"9","02_ages_10":"10","02_ages_11":"11","02_ages_12":"12","02_ages_13":"13","02_ages_14":"14","02_ages_15":"15","02_ages_16":"16","03":"No","04":"No","05":"No"},"rt":54269.39999997616,"item_order":[0,1,2,3,4],"radio_events":[17986.69999998808,34491.59999999404,45882.59999999404,48707.89999997616,51785.69999998808,53726.79999998212],"checkbox_events":[19793.399999976158,20938.69999998808,21492.59999999404,21886.79999998212,22235.59999999404,22630.69999998808,22954.59999999404,23337.79999998212,23694.29999998212,24070.59999999404,25180.69999998808,28177.79999998212,35753.89999997616,36304.59999999404,37314.79999998212,37628.69999998808,37931.69999998808,38194.59999999404,38529.79999998212,38831.59999999404,39166.5,39466.59999999404,42283.79999998212],"key_events":[],"mouse_events":[17986.69999998808,19107.59999999404,19793.399999976158,20938.69999998808,21492.59999999404,21886.79999998212,22235.59999999404,22630.69999998808,22954.59999999404,23337.79999998212,23694.29999998212,24070.59999999404,25180.69999998808,28177.79999998212,34491.59999999404,35753.89999997616,36304.59999999404,36686.09999999404,37314.79999998212,37628.69999998808,37931.69999998808,38194.59999999404,38529.79999998212,38831.59999999404,39166.5,39466.59999999404,42283.79999998212,45882.59999999404,48707.89999997616,51785.69999998808,53726.79999998212,54267.59999999404],"honeypot":0,"survey":"mace","page":5,"trial_type":"survey-mace","trial_index":13,"time_elapsed":1110146,"internal_node_id":"0.0-13.0","task_version":"prescreen-v0.3","browser_interactions":4},{"responses":{"01":"Yes","01_ages_5":"5","01_ages_6":"6","01_ages_7":"7","01_ages_8":"8","01_ages_9":"9","01_ages_10":"10","01_ages_11":"11","01_ages_12":"12","01_ages_13":"13","01_ages_14":"14","01_ages_15":"15","01_ages_16":"16","01_ages_17":"17","01_ages_18":"18","02":"Yes","02_ages_7":"7","02_ages_8":"8","02_ages_9":"9","02_ages_10":"10","02_ages_11":"11","02_ages_12":"12","02_ages_13":"13","02_ages_14":"14","02_ages_15":"15","03":"No","04":"No","05":"No"},"rt":21336.59999999404,"item_order":[0,1,2,3,4],"radio_events":[4003.800000011921,12683.800000011921,18832.80000001192,19534.80000001192,20842.80000001192],"checkbox_events":[4635.0999999940395,4971.800000011921,5878.800000011921,6368.200000017881,7068.9000000059605,7679.0999999940395,7979.800000011921,8333.09999999404,8682.90000000596,9019.800000011921,9354.800000011921,9764.800000011921,10100.800000011921,11340.300000011921,14429.40000000596,14856.700000017881,15170.800000011921,15456.800000011921,15746,16069.800000011921,16392.09999999404,16777,17147.70000001788],"key_events":[],"mouse_events":[4003.800000011921,4635.0999999940395,4971.800000011921,5395.9000000059605,5878.800000011921,6368.200000017881,7068.9000000059605,7679.0999999940395,7979.800000011921,8333.09999999404,8682.90000000596,9019.800000011921,9354.800000011921,9764.800000011921,10100.800000011921,11340.300000011921,12683.800000011921,13915.90000000596,14429.40000000596,14856.700000017881,15170.800000011921,15456.800000011921,15746,16069.800000011921,16392.09999999404,16777,17147.70000001788,18832.80000001192,19534.80000001192,20842.80000001192,21334.80000001192],"honeypot":0,"survey":"mace","page":6,"trial_type":"survey-mace","trial_index":14,"time_elapsed":1131487,"internal_node_id":"0.0-14.0","task_version":"prescreen-v0.3","browser_interactions":0},{"responses":{"01":"No","02":"No","03":"No","04":"Yes","04_ages_7":"7","04_ages_11":"11","04_ages_12":"12","04_ages_13":"13","04_ages_16":"16","04_ages_18":"18","05":"Yes","05_ages_13":"13","05_ages_16":"16","05_ages_18":"18","06":"No","07":"No"},"rt":18058.90000000596,"item_order":[0,1,2,3,4,5,6],"radio_events":[2360.2999999821186,2809.5,4292.5999999940395,6229.5,11734.59999999404,16462.5,17223.40000000596],"checkbox_events":[7047.5999999940395,7777.699999988079,8183.5999999940395,8535.59999999404,9015.59999999404,9524.5,12273.40000000596,13340.5,13712.5],"key_events":[],"mouse_events":[1766.4000000059605,2360.2999999821186,2809.5,4292.5999999940395,6032.4000000059605,6229.5,7047.5999999940395,7434.5999999940395,7777.699999988079,8183.5999999940395,8535.59999999404,9015.59999999404,9524.5,11734.59999999404,12273.40000000596,12818.40000000596,13340.5,13712.5,15559.59999999404,16462.5,17223.40000000596,18056.59999999404],"honeypot":0,"survey":"mace","page":7,"trial_type":"survey-mace","trial_index":15,"time_elapsed":1149551,"internal_node_id":"0.0-15.0","task_version":"prescreen-v0.3","browser_interactions":0},{"responses":{"01":"Yes","01_ages_10":"10","01_ages_11":"11","01_ages_12":"12","01_ages_13":"13","01_ages_14":"14","01_ages_15":"15","01_ages_16":"16","01_ages_17":"17","01_ages_18":"18","02":"Yes","02_ages_11":"11","02_ages_12":"12","02_ages_13":"13","02_ages_14":"14","02_ages_15":"15","02_ages_16":"16","02_ages_17":"17","02_ages_18":"18","03":"No","04":"No"},"rt":54544.59999999404,"item_order":[0,1,2,3],"radio_events":[3203.300000011921,9466,52636,53993.90000000596],"checkbox_events":[4261.199999988079,4603.199999988079,4920,5258.9000000059605,5582.800000011921,5857.9000000059605,6174.800000011921,6540.9000000059605,6904.9000000059605,11903,12363.90000000596,12682.199999988079,13028.800000011921,13375.199999988079,13714,14063.800000011921,14896.90000000596],"key_events":[],"mouse_events":[3203.300000011921,3769.800000011921,4261.199999988079,4603.199999988079,4920,5258.9000000059605,5582.800000011921,5857.9000000059605,6174.800000011921,6540.9000000059605,6904.9000000059605,9466,10237.800000011921,10770.800000011921,11273.699999988079,11903,12363.90000000596,12682.199999988079,13028.800000011921,13375.199999988079,13714,14063.800000011921,14431.800000011921,14896.90000000596,52636,53185.09999999404,53993.90000000596,54543.19999998808],"honeypot":0,"survey":"mace","page":8,"trial_type":"survey-mace","trial_index":16,"time_elapsed":1204100,"internal_node_id":"0.0-16.0","task_version":"prescreen-v0.3","browser_interactions":0},{"responses":{"01":"No","02":"No","03":"No","04":"No"},"rt":7972.5,"item_order":[0,1,2,3],"radio_events":[2713.5,3133,4471.299999982119,7056.0999999940395],"checkbox_events":[],"key_events":[],"mouse_events":[2713.5,3133,4024.0999999940395,4471.299999982119,5136.199999988079,7056.0999999940395,7971.0999999940395],"honeypot":0,"survey":"mace","page":9,"trial_type":"survey-mace","trial_index":17,"time_elapsed":1212076,"internal_node_id":"0.0-17.0","task_version":"prescreen-v0.3","browser_interactions":0},{"responses":{"01":"No","02":"No","03":"No","04":"Yes","04_ages_8":"8","04_ages_9":"9","04_ages_10":"10","04_ages_11":"11","04_ages_12":"12","04_ages_13":"13","04_ages_14":"14","04_ages_15":"15","04_ages_16":"16","04_ages_17":"17","04_ages_18":"18","05":"No","06":"Yes","06_ages_17":"17","07":"No","08":"No"},"rt":21490,"item_order":[0,1,2,3,4,5,6,7],"radio_events":[2150,4838.5,5409.399999976158,6851,7742.0999999940395,14087,15904.09999999404,20106.09999999404,21109.09999999404],"checkbox_events":[9539.09999999404,9934.09999999404,10224.299999982119,10510.09999999404,10773.899999976158,11074,11381.09999999404,11661.5,11982.899999976158,12246,12761.5,17125],"key_events":[],"mouse_events":[2150,4838.5,5409.399999976158,6851,7742.0999999940395,9064.899999976158,9539.09999999404,9934.09999999404,10224.299999982119,10510.09999999404,10773.899999976158,11074,11381.09999999404,11661.5,11982.899999976158,12246,12761.5,14087,15904.09999999404,17125,20106.09999999404,21109.09999999404,21487.29999998212],"honeypot":0,"survey":"mace","page":10,"trial_type":"survey-mace","trial_index":18,"time_elapsed":1233571,"internal_node_id":"0.0-18.0","task_version":"prescreen-v0.3","browser_interactions":0,"instructed":0},{"rt":5502.800000011921,"trial_type":"mental-health-alert","trial_index":19,"time_elapsed":1239078,"internal_node_id":"0.0-19.0","task_version":"prescreen-v0.3","interactions":"[{\"event\":\"blur\",\"trial\":2,\"time\":129368},{\"event\":\"focus\",\"trial\":2,\"time\":252535},{\"event\":\"blur\",\"trial\":8,\"time\":592609},{\"event\":\"focus\",\"trial\":8,\"time\":619611},{\"event\":\"blur\",\"trial\":10,\"time\":791144},{\"event\":\"focus\",\"trial\":10,\"time\":1013212},{\"event\":\"blur\",\"trial\":13,\"time\":1057321},{\"event\":\"focus\",\"trial\":13,\"time\":1058600},{\"event\":\"blur\",\"trial\":13,\"time\":1060497},{\"event\":\"focus\",\"trial\":13,\"time\":1063572}]"}]