[{"view_history":[{"page_index":0,"viewing_time":4141.5},{"page_index":1,"viewing_time":2092.699999988079},{"page_index":2,"viewing_time":13706.199999988079},{"page_index":3,"viewing_time":20321.5}],"rt":40271.80000001192,"trial_type":"instructions","trial_index":0,"time_elapsed":40320,"internal_node_id":"0.0-0.0","task_version":"prescreen-v0.3"},{"rt":70752.59999996424,"responses":{"age":"31","gender-categorical":"Male","gender-free-response":"","ethnicity":"Not Hispanic or Latino","race":["Black or African American"],"education":"Master degree or higher"},"trial_type":"survey-demo","trial_index":1,"time_elapsed":111158,"internal_node_id":"0.0-1.0","task_version":"prescreen-v0.3"},{"responses":{"Q18":"0","Q11":"1","Q09":"0","Q04":"0","Q14":"0","Q16":"0","Q19":"0","Q20":"0","Q03":"0","Q01":"0","Q05":"0","Q17":"0","Q06":"0","Q12":"0","Q07":"2","Q02":"0","Q13":"0","Q08":"0","Q15":"0","Q21":"3","Q10":"0"},"rt":215679.69999998808,"item_order":[17,10,8,3,13,15,18,19,2,0,4,16,5,11,6,1,12,7,14,20,9],"radio_events":[6457.599999964237,10627.699999988079,13586.5,16464.399999976158,17097.599999964237,17893,19827.299999952316,26162.399999976158,111487,112185.19999998808,117931,118417.29999995232,119293.29999995232,120024.09999996424,126924.59999996424,127653.69999998808,145485.89999997616,146529.79999995232,147135.89999997616,149037,149983.89999997616,163035.29999995232,165658.59999996424,168875.39999997616,198982.69999998808,200191.39999997616,200888,201434.5],"key_events":[],"mouse_events":[5745.5,6457.599999964237,10627.699999988079,13586.5,14399.799999952316,16464.399999976158,17097.599999964237,17893,18595.19999998808,19827.299999952316,26162.399999976158,111487,112185.19999998808,117931,118417.29999995232,119293.29999995232,120024.09999996424,126924.59999996424,127653.69999998808,145485.89999997616,146529.79999995232,147135.89999997616,149037,149983.89999997616,163035.29999995232,165658.59999996424,168875.39999997616,198982.69999998808,200191.39999997616,200888,201434.5,215650.09999996424],"straightlining":0.8571428571428571,"zigzagging":0.2,"honeypot":0,"survey":"sns","trial_type":"survey-template","trial_index":2,"time_elapsed":326927,"internal_node_id":"0.0-2.0","task_version":"prescreen-v0.3","browser_interactions":0,"infrequency":0},{"responses":{"Q10":"3","Q03":"1","Q04":"1","Q01":"0","Q13":"0","Q05":"3","Q06":"3","Q08":"3","Q12":"3","Q02":"1","Q09":"3","Q07":"3","Q11":"3"},"rt":80142.30000001192,"item_order":[9,2,3,0,12,4,5,7,11,1,8,6,10],"radio_events":[11243.599999964237,13422.5,19301,20203.5,20759.399999976158,22210.599999964237,23240.30000001192,25800.899999976158,40766,47675.59999996424,53711,55997.89999997616,62439.09999996424,62968.59999996424,66376.30000001192],"key_events":[],"mouse_events":[11243.599999964237,13422.5,17234.80000001192,19301,20203.5,20759.399999976158,22210.599999964237,23240.30000001192,24045.399999976158,25800.899999976158,39791.30000001192,40766,47675.59999996424,53711,55997.89999997616,56565.69999998808,60501.19999998808,60970,62439.09999996424,62968.59999996424,66376.30000001192,80124.59999996424],"straightlining":0.6153846153846154,"zigzagging":0.16666666666666666,"honeypot":0,"survey":"bisbas","trial_type":"survey-template","trial_index":3,"time_elapsed":407108,"internal_node_id":"0.0-3.0","task_version":"prescreen-v0.3","browser_interactions":0,"infrequency":0},{"responses":{"Q01":"3","Q02":"3","Q03":"3"},"rt":151154.19999998808,"radio_events":[8153,8885.100000023842,144232.10000002384,145215.69999998808],"key_events":[],"mouse_events":[8153,8885.100000023842,144232.10000002384,145215.69999998808,151136.30000001192],"survey":"map","page":1,"trial_type":"survey-map","trial_index":4,"time_elapsed":558303,"internal_node_id":"0.0-4.0","task_version":"prescreen-v0.3","browser_interactions":2},{"responses":{"Q04":"3","Q05":"3","Q06":"3"},"rt":13554.800000011921,"radio_events":[4645.899999976158,5381.300000011921,5910.199999988079,12601.099999964237],"key_events":[],"mouse_events":[4645.899999976158,5381.300000011921,5910.199999988079,10738.300000011921,12601.099999964237,13545.699999988079],"survey":"map","page":2,"trial_type":"survey-map","trial_index":5,"time_elapsed":571894,"internal_node_id":"0.0-5.0","task_version":"prescreen-v0.3","browser_interactions":0},{"responses":{"Q07":"4","Q08":"4","Q09":"3"},"rt":13388.099999964237,"radio_events":[4366.599999964237,5685.799999952316,10512.399999976158,12296.199999988079],"key_events":[],"mouse_events":[4366.599999964237,5685.799999952316,10512.399999976158,12296.199999988079,13380.899999976158],"survey":"map","page":3,"trial_type":"survey-map","trial_index":6,"time_elapsed":585306,"internal_node_id":"0.0-6.0","task_version":"prescreen-v0.3","browser_interactions":0},{"responses":{"Q10":"3","Q11":"3","Q12":"2","Q13":"3","Q16":"0","Q14":"3","Q15":"3"},"rt":102643.60000002384,"radio_events":[40183.30000001192,40823.40000003576,50282.80000001192,52252.40000003576,52915.90000003576,56492.80000001192,69385.5,73068.90000003576,81828.40000003576,100760.69999998808],"key_events":[],"mouse_events":[40183.30000001192,40823.40000003576,41541.90000003576,44321,50282.80000001192,52252.40000003576,52915.90000003576,56492.80000001192,69385.5,73068.90000003576,77597.19999998808,81828.40000003576,100760.69999998808,102631.30000001192],"survey":"map","page":4,"trial_type":"survey-map","trial_index":7,"time_elapsed":687980,"internal_node_id":"0.0-7.0","task_version":"prescreen-v0.3","browser_interactions":0,"infrequency":0},{"view_history":[{"page_index":0,"viewing_time":4230.5},{"page_index":1,"viewing_time":86504.69999998808}],"rt":90736.89999997616,"trial_type":"instructions","trial_index":8,"time_elapsed":778723,"internal_node_id":"0.0-8.0","task_version":"prescreen-v0.3"},{"responses":{"01":"No","02":"No","03":"No","04":"No","05":"No","06":"No"},"rt":14369.599999964237,"item_order":[0,1,2,3,4,5],"radio_events":[3991.099999964237,5024.699999988079,5476.300000011921,6164.800000011921,8967.899999976158,13628],"checkbox_events":[],"key_events":[],"mouse_events":[0.3999999761581421,3991.099999964237,5024.699999988079,5476.300000011921,6164.800000011921,6981.099999964237,8967.899999976158,13628,14333.099999964237],"honeypot":0,"survey":"mace","page":1,"trial_type":"survey-mace","trial_index":9,"time_elapsed":793144,"internal_node_id":"0.0-9.0","task_version":"prescreen-v0.3","browser_interactions":0},{"responses":{"01":"No","02":"No","03":"Yes","03_ages_4":"4","03_ages_5":"5","04":"No","05":"No","06":"No","07":"No","08":"No"},"rt":41857,"item_order":[0,1,2,3,4,5,6,7],"radio_events":[16883.19999998808,17357.80000001192,17922.400000035763,19666.100000023842,29813.100000023842,30486.80000001192,32061.69999998808,34480,40830.69999998808],"checkbox_events":[24056.19999998808,25013.100000023842,26516.5,27154.100000023842],"key_events":[],"mouse_events":[16883.19999998808,17357.80000001192,17922.400000035763,19666.100000023842,24056.19999998808,25013.100000023842,26516.5,27154.100000023842,29429.900000035763,29813.100000023842,30486.80000001192,32061.69999998808,32806.69999998808,34480,39525.60000002384,40830.69999998808,41797.90000003576],"honeypot":0,"survey":"mace","page":2,"trial_type":"survey-mace","trial_index":10,"time_elapsed":835077,"internal_node_id":"0.0-10.0","task_version":"prescreen-v0.3","browser_interactions":0},{"responses":{"01":"No","02":"No","03":"No","04":"No"},"rt":70324.69999998808,"item_order":[0,1,2,3],"radio_events":[56869.39999997616,57934.09999996424,58257.5,61598],"checkbox_events":[],"key_events":[],"mouse_events":[788.8999999761581,56869.39999997616,57934.09999996424,58257.5,59216.19999998808,61598,70284.69999998808],"honeypot":0,"survey":"mace","page":3,"trial_type":"survey-mace","trial_index":11,"time_elapsed":905455,"internal_node_id":"0.0-11.0","task_version":"prescreen-v0.3","browser_interactions":0},{"responses":{"01":"No","02":"No"},"rt":37547.60000002384,"item_order":[0,1],"radio_events":[32803.80000001192,34571.60000002384],"checkbox_events":[],"key_events":[],"mouse_events":[32803.80000001192,34571.60000002384,37511.10000002384],"honeypot":0,"survey":"mace","page":4,"trial_type":"survey-mace","trial_index":12,"time_elapsed":943039,"internal_node_id":"0.0-12.0","task_version":"prescreen-v0.3","browser_interactions":0},{"responses":{"01":"No","02":"No","03":"No","04":"No","05":"No"},"rt":19903.80000001192,"item_order":[0,1,2,3,4],"radio_events":[2721.199999988079,3435.199999988079,9645.099999964237,10268.099999964237,19087.30000001192],"checkbox_events":[],"key_events":[],"mouse_events":[2721.199999988079,3435.199999988079,9645.099999964237,10268.099999964237,10837.099999964237,19087.30000001192,19870.599999964237],"honeypot":0,"survey":"mace","page":5,"trial_type":"survey-mace","trial_index":13,"time_elapsed":962998,"internal_node_id":"0.0-13.0","task_version":"prescreen-v0.3","browser_interactions":0},{"responses":{"01":"No","02":"No","03":"No","04":"No","05":"No"},"rt":125606.10000002384,"item_order":[0,1,2,3,4],"radio_events":[119566.10000002384,120187.70000004768,121404.30000001192,123385.40000003576,124760.30000001192],"checkbox_events":[],"key_events":[],"mouse_events":[119566.10000002384,120187.70000004768,120874.70000004768,121404.30000001192,123385.40000003576,123804.70000004768,124760.30000001192,125568.5],"honeypot":0,"survey":"mace","page":6,"trial_type":"survey-mace","trial_index":14,"time_elapsed":1088644,"internal_node_id":"0.0-14.0","task_version":"prescreen-v0.3","browser_interactions":0},{"responses":{"01":"No","02":"No","03":"No","04":"No","05":"No","06":"No","07":"No"},"rt":9960,"item_order":[0,1,2,3,4,5,6],"radio_events":[2448.899999976158,4566.800000011921,5137.600000023842,5854.100000023842,6521.899999976158,7100,7680.5],"checkbox_events":[],"key_events":[],"mouse_events":[2448.899999976158,3250.899999976158,4566.800000011921,5137.600000023842,5854.100000023842,6521.899999976158,7100,7680.5,9925.600000023842],"honeypot":0,"survey":"mace","page":7,"trial_type":"survey-mace","trial_index":15,"time_elapsed":1098657,"internal_node_id":"0.0-15.0","task_version":"prescreen-v0.3","browser_interactions":0},{"responses":{"01":"No","02":"No","03":"No","04":"No"},"rt":13526.899999976158,"item_order":[0,1,2,3],"radio_events":[6579,7450.5,9220.800000011921,12344.099999964237],"checkbox_events":[],"key_events":[],"mouse_events":[6579,7450.5,9220.800000011921,12344.099999964237,13499.300000011921],"honeypot":0,"survey":"mace","page":8,"trial_type":"survey-mace","trial_index":16,"time_elapsed":1112222,"internal_node_id":"0.0-16.0","task_version":"prescreen-v0.3","browser_interactions":0},{"responses":{"01":"Yes","01_ages_8":"8","01_ages_9":"9","01_ages_10":"10","01_ages_11":"11","01_ages_12":"12","01_ages_13":"13","01_ages_14":"14","01_ages_15":"15","01_ages_16":"16","02":"Yes","02_ages_9":"9","02_ages_10":"10","02_ages_11":"11","02_ages_12":"12","02_ages_13":"13","02_ages_14":"14","02_ages_15":"15","02_ages_16":"16","03":"Yes","03_ages_1":"1","03_ages_2":"2","03_ages_3":"3","03_ages_4":"4","03_ages_5":"5","03_ages_6":"6","03_ages_7":"7","03_ages_8":"8","03_ages_9":"9","03_ages_10":"10","03_ages_11":"11","03_ages_12":"12","03_ages_13":"13","03_ages_14":"14","03_ages_15":"15","03_ages_16":"16","03_ages_17":"17","03_ages_18":"18","04":"Yes","04_ages_6":"6","04_ages_7":"7","04_ages_8":"8","04_ages_9":"9","04_ages_10":"10","04_ages_11":"11","04_ages_12":"12","04_ages_13":"13","04_ages_14":"14","04_ages_15":"15"},"rt":64886.60000002384,"item_order":[0,1,2,3],"radio_events":[2097.7000000476837,2805.100000023842,3388.400000035763,5554.100000023842,7186.300000011921,34442.80000001192,53438.700000047684],"checkbox_events":[13485.400000035763,14156.200000047684,14854.700000047684,15401.400000035763,15922.600000023842,17259.200000047684,17972.700000047684,18635.200000047684,19312.200000047684,23747.5,24686.5,25268.400000035763,25968.700000047684,26857.700000047684,27681.600000023842,28262.5,28870.80000001192,29449.400000035763,30083.400000035763,38512,39307.30000001192,40176.10000002384,40811.80000001192,41484.700000047684,41934.200000047684,43081.80000001192,43648,44129.700000047684,44815.90000003576,45382,46178.80000001192,46725.5,47286.700000047684,47848.90000003576,48594.700000047684,49081.90000003576,49548.80000001192,51282,51764.200000047684,58271.10000002384,58941.200000047684,59407.90000003576,59896.60000002384,60270.5,61158.5,61761.5,62265,62895,63477.90000003576],"key_events":[],"mouse_events":[2097.7000000476837,2805.100000023842,3388.400000035763,4353.600000023842,5554.100000023842,7186.300000011921,12642.800000011921,13485.400000035763,14156.200000047684,14854.700000047684,15401.400000035763,15922.600000023842,16569.30000001192,17259.200000047684,17972.700000047684,18635.200000047684,19312.200000047684,23747.5,24686.5,25268.400000035763,25968.700000047684,26857.700000047684,27681.600000023842,28262.5,28870.80000001192,29449.400000035763,30083.400000035763,33053.200000047684,34442.80000001192,38512,39307.30000001192,40176.10000002384,40811.80000001192,41484.700000047684,41934.200000047684,43081.80000001192,43648,44129.700000047684,44815.90000003576,45382,46178.80000001192,46725.5,47286.700000047684,47848.90000003576,48594.700000047684,49081.90000003576,49548.80000001192,51282,51764.200000047684,53438.700000047684,58271.10000002384,58941.200000047684,59407.90000003576,59896.60000002384,60270.5,61158.5,61761.5,62265,62895,63477.90000003576,64865.30000001192],"honeypot":0,"survey":"mace","page":9,"trial_type":"survey-mace","trial_index":17,"time_elapsed":1177148,"internal_node_id":"0.0-17.0","task_version":"prescreen-v0.3","browser_interactions":0},{"responses":{"01":"No","02":"No","03":"No","04":"No","05":"No","06":"Yes","06_ages_17":"17","07":"Yes","07_ages_9":"9","07_ages_10":"10","07_ages_11":"11","07_ages_12":"12","07_ages_13":"13","07_ages_14":"14","07_ages_15":"15","07_ages_16":"16","08":"Yes","08_ages_7":"7","08_ages_8":"8","08_ages_9":"9","08_ages_10":"10","08_ages_11":"11","08_ages_12":"12","08_ages_13":"13","08_ages_14":"14","08_ages_15":"15","08_ages_16":"16","08_ages_17":"17","08_ages_18":"18"},"rt":166881.80000001192,"item_order":[0,1,2,3,4,5,6,7],"radio_events":[4759.100000023842,5259.399999976158,5965.300000011921,6810.899999976158,7572.399999976158,8264.399999976158,69066.69999998808,70869.19999998808,81702.80000001192,130626.10000002384,153436.69999998808],"checkbox_events":[73820.39999997616,74764.69999998808,75457.60000002384,75894.30000001192,77337.89999997616,78116.30000001192,80152.60000002384,80807.5,132113,133005.10000002384,133745.60000002384,134810.19999998808,137277.60000002384,137999.69999998808,138788.39999997616,139598,140254.89999997616,140912.30000001192,141358.39999997616,142285.89999997616,143080.5,144428.30000001192,145112,146922.89999997616,147843,148532.19999998808,155629.39999997616],"key_events":[],"mouse_events":[4759.100000023842,5259.399999976158,5965.300000011921,6810.899999976158,7572.399999976158,8264.399999976158,69066.69999998808,70869.19999998808,73820.39999997616,74764.69999998808,75457.60000002384,75894.30000001192,77337.89999997616,78116.30000001192,78792.10000002384,80152.60000002384,80807.5,81702.80000001192,127806.5,130626.10000002384,132113,133005.10000002384,133745.60000002384,134810.19999998808,137277.60000002384,137999.69999998808,138788.39999997616,139598,140254.89999997616,140912.30000001192,141358.39999997616,142285.89999997616,143080.5,144428.30000001192,145112,146922.89999997616,147843,148532.19999998808,153436.69999998808,155629.39999997616,166854.69999998808],"honeypot":0,"survey":"mace","page":10,"trial_type":"survey-mace","trial_index":18,"time_elapsed":1344074,"internal_node_id":"0.0-18.0","task_version":"prescreen-v0.3","browser_interactions":0,"instructed":0},{"rt":2995.300000011921,"trial_type":"mental-health-alert","trial_index":19,"time_elapsed":1347085,"internal_node_id":"0.0-19.0","task_version":"prescreen-v0.3","interactions":"[{\"event\":\"blur\",\"trial\":4,\"time\":426314},{\"event\":\"focus\",\"trial\":4,\"time\":474838}]"}]