[{"view_history":[{"page_index":0,"viewing_time":3423},{"page_index":1,"viewing_time":4991.199999988079},{"page_index":2,"viewing_time":3994.100000023842},{"page_index":3,"viewing_time":1476.1000000238419}],"rt":13885.699999988079,"trial_type":"instructions","trial_index":0,"time_elapsed":13899,"internal_node_id":"0.0-0.0","task_version":"prescreen-v0.3"},{"rt":18179.600000023842,"responses":{"age":"40","gender-categorical":"Male","gender-free-response":"","ethnicity":"Not Hispanic or Latino","race":["White"],"education":"Associate degree","siblings":"2"},"trial_type":"survey-demo","trial_index":1,"time_elapsed":32091,"internal_node_id":"0.0-1.0","task_version":"prescreen-v0.3"},{"responses":{"Q06":"0","Q15":"2","Q07":"0","Q17":"2","Q21":"3","Q08":"2","Q04":"2","Q19":"1","Q05":"2","Q20":"2","Q10":"1","Q12":"1","Q11":"1","Q03":"2","Q16":"2","Q18":"1","Q09":"2","Q02":"2","Q01":"2","Q14":"2","Q13":"2"},"rt":102508.39999997616,"item_order":[5,14,6,16,20,7,3,18,4,19,9,11,10,2,15,17,8,1,0,13,12],"radio_events":[11542.5,17896.5,24983.099999964237,30026.19999998808,33903.39999997616,36813,40962.19999998808,45888.89999997616,51786.39999997616,54038.5,58422.299999952316,61949.09999996424,68112.29999995232,71632.5,76342.29999995232,80047,81400.5,84610.39999997616,87777.09999996424,90186.19999998808,95112.29999995232,96808.59999996424,99803.19999998808,101579],"key_events":[],"mouse_events":[5468.599999964237,11542.5,17896.5,24983.099999964237,30026.19999998808,33903.39999997616,36813,40962.19999998808,45888.89999997616,51786.39999997616,54038.5,58422.299999952316,61949.09999996424,68112.29999995232,71632.5,76342.29999995232,80047,81400.5,84610.39999997616,87777.09999996424,89694.39999997616,90186.19999998808,95112.29999995232,96808.59999996424,99803.19999998808,101579,102503.69999998808],"straightlining":0.6190476190476191,"zigzagging":0.4,"honeypot":0,"survey":"sns","trial_type":"survey-template","trial_index":2,"time_elapsed":134616,"internal_node_id":"0.0-2.0","task_version":"prescreen-v0.3","browser_interactions":0,"infrequency":0},{"responses":{"Q11":"2","Q10":"2","Q03":"2","Q13":"0","Q05":"3","Q12":"2","Q02":"2","Q07":"3","Q04":"3","Q06":"3","Q08":"3","Q09":"2","Q01":"2"},"rt":55278.59999996424,"item_order":[10,9,2,12,4,11,1,6,3,5,7,8,0],"radio_events":[6234.599999964237,10906.599999964237,14122.800000011921,15861.599999964237,20197.099999964237,25143,27664.80000001192,30318,33712.59999996424,38200.69999998808,41090.69999998808,45550.59999996424,50798.80000001192,53680.80000001192],"key_events":[],"mouse_events":[6234.599999964237,10906.599999964237,14122.800000011921,15861.599999964237,20197.099999964237,25143,27664.80000001192,30318,33712.59999996424,38200.69999998808,41090.69999998808,45550.59999996424,50798.80000001192,53680.80000001192,55276.69999998808],"straightlining":0.5384615384615384,"zigzagging":0.3333333333333333,"honeypot":0,"survey":"bisbas","trial_type":"survey-template","trial_index":3,"time_elapsed":189904,"internal_node_id":"0.0-3.0","task_version":"prescreen-v0.3","browser_interactions":0,"infrequency":0},{"responses":{"Q01":"1","Q02":"1","Q03":"1"},"rt":20133.799999952316,"radio_events":[6433.599999964237,13269.099999964237,17392.69999998808],"key_events":[],"mouse_events":[6433.599999964237,13269.099999964237,17392.69999998808,20132.69999998808],"survey":"map","page":1,"trial_type":"survey-map","trial_index":4,"time_elapsed":210048,"internal_node_id":"0.0-4.0","task_version":"prescreen-v0.3","browser_interactions":0},{"responses":{"Q04":"1","Q05":"1","Q06":"1"},"rt":10712.599999964237,"radio_events":[3846.199999988079,7736.099999964237,9575.399999976158],"key_events":[],"mouse_events":[3846.199999988079,7064.899999976158,7736.099999964237,9575.399999976158,10710.800000011921],"survey":"map","page":2,"trial_type":"survey-map","trial_index":5,"time_elapsed":220766,"internal_node_id":"0.0-5.0","task_version":"prescreen-v0.3","browser_interactions":0},{"responses":{"Q07":"1","Q08":"1","Q09":"1"},"rt":16895.900000035763,"radio_events":[6063.800000011921,12954.400000035763,15799.200000047684],"key_events":[],"mouse_events":[6063.800000011921,12954.400000035763,15799.200000047684,16894.900000035763],"survey":"map","page":3,"trial_type":"survey-map","trial_index":6,"time_elapsed":237670,"internal_node_id":"0.0-6.0","task_version":"prescreen-v0.3","browser_interactions":0},{"responses":{"Q10":"1","Q11":"1","Q12":"1","Q13":"0","Q16":"0","Q14":"1","Q15":"1"},"rt":36526.30000001192,"radio_events":[7031.699999988079,10772.800000011921,14120.800000011921,19340.399999976158,23156.30000001192,27428.599999964237,31936.399999976158,34748.5],"key_events":[],"mouse_events":[7031.699999988079,10772.800000011921,14120.800000011921,19340.399999976158,23156.30000001192,27428.599999964237,31936.399999976158,34748.5,36523],"survey":"map","page":4,"trial_type":"survey-map","trial_index":7,"time_elapsed":274202,"internal_node_id":"0.0-7.0","task_version":"prescreen-v0.3","browser_interactions":0,"infrequency":0},{"view_history":[{"page_index":0,"viewing_time":2793.699999988079},{"page_index":1,"viewing_time":5965.399999976158}],"rt":8760.5,"trial_type":"instructions","trial_index":8,"time_elapsed":282967,"internal_node_id":"0.0-8.0","task_version":"prescreen-v0.3"},{"responses":{"01":"No","02":"No","03":"Yes","03_ages_14":"14","04":"No","05":"No","06":"No"},"rt":42528.60000002384,"item_order":[0,1,2,3,4,5],"radio_events":[10521.200000047684,13902.800000011921,19193.200000047684,25627.400000035763,26953.5,38210.5],"checkbox_events":[22755.80000001192],"key_events":[],"mouse_events":[0.10000002384185791,10521.200000047684,13902.800000011921,19193.200000047684,22755.80000001192,25627.400000035763,26953.5,38210.5,42523],"honeypot":0,"survey":"mace","page":1,"trial_type":"survey-mace","trial_index":9,"time_elapsed":325513,"internal_node_id":"0.0-9.0","task_version":"prescreen-v0.3","browser_interactions":0},{"responses":{"01":"No","02":"No","03":"Yes","03_ages_3":"3","03_ages_4":"4","03_ages_5":"5","03_ages_6":"6","03_ages_7":"7","03_ages_8":"8","04":"No","05":"No","06":"No","07":"No","08":"No"},"rt":37329.69999998808,"item_order":[0,1,2,3,4,5,6,7],"radio_events":[3231.600000023842,7866.300000011921,9796.199999988079,24606.100000023842,27163.80000001192,28911.400000035763,34901.60000002384,35985.69999998808],"checkbox_events":[14029.900000035763,14535,15258.800000011921,16081.800000011921,16745.900000035763,17430.5],"key_events":[],"mouse_events":[3231.600000023842,7866.300000011921,9796.199999988079,14029.900000035763,14535,15258.800000011921,15702.400000035763,16081.800000011921,16745.900000035763,17430.5,24606.100000023842,27163.80000001192,28911.400000035763,34901.60000002384,35985.69999998808,37320.10000002384],"honeypot":0,"survey":"mace","page":2,"trial_type":"survey-mace","trial_index":10,"time_elapsed":362857,"internal_node_id":"0.0-10.0","task_version":"prescreen-v0.3","browser_interactions":0},{"responses":{"01":"No","02":"No","03":"No","04":"No"},"rt":13071.199999988079,"item_order":[0,1,2,3],"radio_events":[3541.199999988079,6337.699999988079,11825.5,12447.399999976158],"checkbox_events":[],"key_events":[],"mouse_events":[3541.199999988079,6337.699999988079,11825.5,12447.399999976158,13067.399999976158],"honeypot":0,"survey":"mace","page":3,"trial_type":"survey-mace","trial_index":11,"time_elapsed":375936,"internal_node_id":"0.0-11.0","task_version":"prescreen-v0.3","browser_interactions":0},{"responses":{"01":"No","02":"No"},"rt":10234.799999952316,"item_order":[0,1],"radio_events":[8261.299999952316,9386.399999976158],"checkbox_events":[],"key_events":[],"mouse_events":[8261.299999952316,9386.399999976158,10233.199999988079],"honeypot":0,"survey":"mace","page":4,"trial_type":"survey-mace","trial_index":12,"time_elapsed":386176,"internal_node_id":"0.0-12.0","task_version":"prescreen-v0.3","browser_interactions":0},{"responses":{"01":"No","02":"No","03":"No","04":"No","05":"No"},"rt":11019.199999988079,"item_order":[0,1,2,3,4],"radio_events":[3714.5,5382.5,7083.800000011921,7958.199999988079,9562],"checkbox_events":[],"key_events":[],"mouse_events":[3714.5,5382.5,7083.800000011921,7958.199999988079,9055.300000011921,9562,11012.300000011921],"honeypot":0,"survey":"mace","page":5,"trial_type":"survey-mace","trial_index":13,"time_elapsed":397204,"internal_node_id":"0.0-13.0","task_version":"prescreen-v0.3","browser_interactions":0},{"responses":{"01":"Yes","01_ages_5":"5","01_ages_6":"6","01_ages_7":"7","01_ages_8":"8","01_ages_9":"9","01_ages_10":"10","01_ages_11":"11","01_ages_12":"12","01_ages_13":"13","01_ages_14":"14","01_ages_15":"15","01_ages_16":"16","01_ages_17":"17","01_ages_18":"18","02":"Yes","02_ages_5":"5","02_ages_6":"6","02_ages_7":"7","02_ages_8":"8","02_ages_9":"9","02_ages_10":"10","02_ages_11":"11","02_ages_12":"12","02_ages_13":"13","02_ages_14":"14","02_ages_15":"15","02_ages_16":"16","02_ages_17":"17","02_ages_18":"18","03":"Yes","03_ages_10":"10","03_ages_11":"11","03_ages_12":"12","03_ages_13":"13","03_ages_14":"14","03_ages_15":"15","03_ages_16":"16","03_ages_17":"17","03_ages_18":"18","04":"Yes","04_ages_13":"13","04_ages_14":"14","04_ages_15":"15","04_ages_16":"16","04_ages_17":"17","04_ages_18":"18","05":"Yes","05_ages_10":"10","05_ages_11":"11","05_ages_12":"12","05_ages_13":"13","05_ages_14":"14","05_ages_15":"15","05_ages_16":"16","05_ages_17":"17","05_ages_18":"18"},"rt":61973.69999998808,"item_order":[0,1,2,3,4],"radio_events":[3804.7999999523163,16218.899999976158,29327,40959.5,51496.89999997616],"checkbox_events":[6394.899999976158,6827.599999964237,7430.799999952316,7862.699999988079,8346.099999964237,8752.699999988079,9265.099999964237,9696.699999988079,10424.899999976158,11060.899999976158,11426.599999964237,12352.5,12729.899999976158,13276.899999976158,17751.19999998808,18164.799999952316,18811.099999964237,19195.399999976158,19535.5,19992.399999976158,20332.799999952316,20796.899999976158,21215.099999964237,21841.299999952316,22148,22514.099999964237,22917.19999998808,23428.299999952316,33680.19999998808,34120.89999997616,34508.89999997616,34953.09999996424,35314.799999952316,35792.19999998808,36173.19999998808,36646.5,37150.799999952316,44715.799999952316,45195.19999998808,45667.19999998808,46231,46640.799999952316,47180.799999952316,52766.59999996424,53178.89999997616,53790.69999998808,54156.59999996424,54772.89999997616,55156.89999997616,57437.39999997616,58070.799999952316,58690.69999998808],"key_events":[],"mouse_events":[3804.7999999523163,6394.899999976158,6827.599999964237,7430.799999952316,7862.699999988079,8346.099999964237,8752.699999988079,9265.099999964237,9696.699999988079,10424.899999976158,11060.899999976158,11426.599999964237,11895.299999952316,12352.5,12729.899999976158,13276.899999976158,16218.899999976158,17751.19999998808,18164.799999952316,18811.099999964237,19195.399999976158,19535.5,19992.399999976158,20332.799999952316,20796.899999976158,21215.099999964237,21841.299999952316,22148,22514.099999964237,22917.19999998808,23428.299999952316,28048.69999998808,29327,33680.19999998808,34120.89999997616,34508.89999997616,34953.09999996424,35314.799999952316,35792.19999998808,36173.19999998808,36646.5,37150.799999952316,40959.5,44715.799999952316,45195.19999998808,45667.19999998808,46231,46640.799999952316,47180.799999952316,51496.89999997616,52766.59999996424,53178.89999997616,53790.69999998808,54156.59999996424,54772.89999997616,55156.89999997616,57437.39999997616,58070.799999952316,58690.69999998808,61967.19999998808],"honeypot":0,"survey":"mace","page":6,"trial_type":"survey-mace","trial_index":14,"time_elapsed":459186,"internal_node_id":"0.0-14.0","task_version":"prescreen-v0.3","browser_interactions":0},{"responses":{"01":"Yes","01_ages_11":"11","02":"No","03":"No","04":"No","05":"No","06":"No","07":"No"},"rt":29442.19999998808,"item_order":[0,1,2,3,4,5,6],"radio_events":[2895.400000035763,19883.400000035763,21349.69999998808,22418.69999998808,23385.600000023842,24481.19999998808,25355.19999998808],"checkbox_events":[11557.800000011921,27877.5,28371.600000023842],"key_events":[],"mouse_events":[2895.400000035763,11557.800000011921,19883.400000035763,21349.69999998808,22418.69999998808,23385.600000023842,24481.19999998808,25355.19999998808,27877.5,28371.600000023842,29430.400000035763],"honeypot":0,"survey":"mace","page":7,"trial_type":"survey-mace","trial_index":15,"time_elapsed":488640,"internal_node_id":"0.0-15.0","task_version":"prescreen-v0.3","browser_interactions":0},{"responses":{"01":"Yes","01_ages_5":"5","01_ages_6":"6","01_ages_7":"7","01_ages_8":"8","01_ages_9":"9","01_ages_10":"10","01_ages_11":"11","01_ages_12":"12","01_ages_13":"13","01_ages_14":"14","01_ages_15":"15","01_ages_16":"16","01_ages_17":"17","01_ages_18":"18","02":"Yes","02_ages_5":"5","02_ages_6":"6","02_ages_7":"7","02_ages_8":"8","02_ages_9":"9","02_ages_10":"10","02_ages_11":"11","02_ages_12":"12","02_ages_13":"13","02_ages_14":"14","02_ages_15":"15","02_ages_16":"16","02_ages_17":"17","02_ages_18":"18","03":"Yes","03_ages_5":"5","03_ages_6":"6","03_ages_7":"7","03_ages_8":"8","03_ages_9":"9","03_ages_10":"10","03_ages_11":"11","03_ages_12":"12","03_ages_13":"13","03_ages_14":"14","03_ages_15":"15","03_ages_16":"16","03_ages_17":"17","03_ages_18":"18","04":"Yes","04_ages_5":"5","04_ages_6":"6","04_ages_7":"7","04_ages_8":"8","04_ages_9":"9","04_ages_10":"10","04_ages_11":"11","04_ages_12":"12","04_ages_13":"13","04_ages_14":"14","04_ages_15":"15","04_ages_16":"16","04_ages_17":"17","04_ages_18":"18"},"rt":60329.60000002384,"item_order":[0,1,2,3],"radio_events":[6211.800000011921,22867.30000001192,35859.60000002384,51607.5],"checkbox_events":[9669.800000011921,10162.400000035763,10611.900000035763,11068.900000035763,11623.699999988079,12011.800000011921,12361.800000011921,12840.400000035763,13387.800000011921,13824.600000023842,14359.699999988079,14666.300000011921,15133.900000035763,15541.699999988079,15872.800000011921,18397.600000023842,23903.5,24239.69999998808,24759.80000001192,26141.80000001192,27011.30000001192,27302.30000001192,27703.69999998808,28897.69999998808,29263.69999998808,29617.80000001192,30335.900000035763,30677.600000023842,31129.600000023842,31531,37279.69999998808,38101.60000002384,38714,39173.90000003576,39787.10000002384,40313.80000001192,41619,42163.60000002384,42820.60000002384,43233.69999998808,43780,44154.40000003576,44519.80000001192,45052.10000002384,52545.19999998808,52995.19999998808,53957.60000002384,54809.19999998808,55197.60000002384,55589.69999998808,55995.40000003576,56479.80000001192,56933.10000002384,57519.80000001192,57898.10000002384,58305.80000001192,59115.80000001192,59518.19999998808],"key_events":[],"mouse_events":[6211.800000011921,9669.800000011921,10162.400000035763,10611.900000035763,11068.900000035763,11623.699999988079,12011.800000011921,12361.800000011921,12840.400000035763,13387.800000011921,13824.600000023842,14359.699999988079,14666.300000011921,15133.900000035763,15541.699999988079,15872.800000011921,18397.600000023842,22867.30000001192,23903.5,24239.69999998808,24759.80000001192,25455.5,26141.80000001192,27011.30000001192,27302.30000001192,27703.69999998808,28136.600000023842,28897.69999998808,29263.69999998808,29617.80000001192,30335.900000035763,30677.600000023842,31129.600000023842,31531,35859.60000002384,37279.69999998808,37665.5,38101.60000002384,38714,39173.90000003576,39787.10000002384,40313.80000001192,40793.60000002384,41619,42163.60000002384,42820.60000002384,43233.69999998808,43780,44154.40000003576,44519.80000001192,45052.10000002384,50407.69999998808,51607.5,52545.19999998808,52995.19999998808,53547.40000003576,53957.60000002384,54360.60000002384,54809.19999998808,55197.60000002384,55589.69999998808,55995.40000003576,56479.80000001192,56933.10000002384,57519.80000001192,57898.10000002384,58305.80000001192,59115.80000001192,59518.19999998808,60324],"honeypot":0,"survey":"mace","page":8,"trial_type":"survey-mace","trial_index":16,"time_elapsed":548976,"internal_node_id":"0.0-16.0","task_version":"prescreen-v0.3","browser_interactions":0},{"responses":{"01":"No","02":"Yes","02_ages_13":"13","02_ages_14":"14","03":"Yes","03_ages_1":"1","03_ages_2":"2","03_ages_3":"3","03_ages_4":"4","03_ages_5":"5","03_ages_6":"6","03_ages_7":"7","03_ages_8":"8","03_ages_9":"9","03_ages_10":"10","03_ages_11":"11","03_ages_12":"12","03_ages_13":"13","03_ages_14":"14","03_ages_15":"15","03_ages_16":"16","03_ages_17":"17","03_ages_18":"18","04":"Yes","04_ages_1":"1","04_ages_2":"2","04_ages_3":"3","04_ages_4":"4","04_ages_5":"5","04_ages_6":"6","04_ages_7":"7","04_ages_8":"8","04_ages_9":"9","04_ages_10":"10","04_ages_11":"11","04_ages_12":"12","04_ages_13":"13","04_ages_14":"14","04_ages_15":"15","04_ages_16":"16","04_ages_17":"17","04_ages_18":"18"},"rt":51512.69999998808,"item_order":[0,1,2,3],"radio_events":[9999.399999976158,12565.600000023842,28405.30000001192,41624],"checkbox_events":[15563.300000011921,16451.30000001192,24945.399999976158,25601.5,29804.399999976158,30235.399999976158,30611.80000001192,31029.399999976158,31542.899999976158,31872.19999998808,32337.399999976158,32790.60000002384,33405.5,33873.5,34825.5,35207.30000001192,36043.80000001192,36543,36939.5,37365.60000002384,37843.39999997616,38282.80000001192,42477.69999998808,42865.10000002384,43331.80000001192,43943.30000001192,44423.69999998808,44841.5,45426,45977.5,46429.5,46945.80000001192,47287.5,47857,48319.30000001192,48725.30000001192,49131.5,49903.10000002384,50357.30000001192,50841.30000001192],"key_events":[],"mouse_events":[9999.399999976158,12565.600000023842,15563.300000011921,16451.30000001192,24945.399999976158,25601.5,28405.30000001192,29804.399999976158,30235.399999976158,30611.80000001192,31029.399999976158,31542.899999976158,31872.19999998808,32337.399999976158,32790.60000002384,33405.5,33873.5,34398.60000002384,34825.5,35207.30000001192,36043.80000001192,36543,36939.5,37365.60000002384,37843.39999997616,38282.80000001192,40815.39999997616,41624,42477.69999998808,42865.10000002384,43331.80000001192,43943.30000001192,44423.69999998808,44841.5,45426,45977.5,46429.5,46945.80000001192,47287.5,47857,48319.30000001192,48725.30000001192,49131.5,49903.10000002384,50357.30000001192,50841.30000001192,51509.39999997616],"honeypot":0,"survey":"mace","page":9,"trial_type":"survey-mace","trial_index":17,"time_elapsed":600499,"internal_node_id":"0.0-17.0","task_version":"prescreen-v0.3","browser_interactions":0},{"responses":{"01":"No","02":"No","03":"No","04":"Yes","04_ages_10":"10","04_ages_11":"11","04_ages_12":"12","04_ages_13":"13","04_ages_14":"14","04_ages_15":"15","04_ages_16":"16","04_ages_17":"17","04_ages_18":"18","05":"No","06":"Yes","06_ages_17":"17","07":"Yes","07_ages_1":"1","07_ages_2":"2","07_ages_3":"3","07_ages_4":"4","07_ages_5":"5","07_ages_6":"6","07_ages_7":"7","07_ages_8":"8","07_ages_9":"9","07_ages_10":"10","07_ages_11":"11","07_ages_12":"12","07_ages_13":"13","07_ages_14":"14","07_ages_15":"15","07_ages_16":"16","07_ages_17":"17","07_ages_18":"18","08":"Yes","08_ages_1":"1","08_ages_2":"2","08_ages_3":"3","08_ages_4":"4","08_ages_5":"5","08_ages_6":"6","08_ages_7":"7","08_ages_8":"8","08_ages_9":"9","08_ages_10":"10","08_ages_11":"11","08_ages_12":"12","08_ages_13":"13","08_ages_14":"14","08_ages_15":"15","08_ages_16":"16","08_ages_17":"17","08_ages_18":"18"},"rt":56093.799999952316,"item_order":[0,1,2,3,4,5,6,7],"radio_events":[2215,3507.199999988079,5974.299999952316,7879.899999976158,9256.899999976158,22692,24476.69999998808,30322.099999964237,44689.299999952316],"checkbox_events":[13076.399999976158,13589,14100.399999976158,14676.399999976158,17238.299999952316,17702.5,18132.399999976158,18556.599999964237,18997.5,25910.399999976158,32621.5,33164.19999998808,33788.19999998808,34928,35626,36050,36988.19999998808,37572.09999996424,38122,38676.19999998808,39656.19999998808,40185.69999998808,40731.19999998808,41337.799999952316,41747,42195.09999996424,42611.19999998808,43384.39999997616,45501,46082.19999998808,46888.299999952316,47408.59999996424,47976.5,48572.39999997616,48924.69999998808,49437.299999952316,50504.59999996424,50890.69999998808,51300.19999998808,51760.69999998808,52368.09999996424,52788.5,53178.19999998808,53606.5,54021.19999998808,54400.299999952316],"key_events":[],"mouse_events":[2215,3507.199999988079,5974.299999952316,7879.899999976158,9256.899999976158,13076.399999976158,13589,14100.399999976158,14676.399999976158,17238.299999952316,17702.5,18132.399999976158,18556.599999964237,18997.5,22692,24476.69999998808,25910.399999976158,30322.099999964237,32621.5,33164.19999998808,33788.19999998808,34928,35626,36050,36488.299999952316,36988.19999998808,37572.09999996424,38122,38676.19999998808,39656.19999998808,40185.69999998808,40731.19999998808,41337.799999952316,41747,42195.09999996424,42611.19999998808,42960.39999997616,43384.39999997616,44689.299999952316,45501,46082.19999998808,46458.09999996424,46888.299999952316,47408.59999996424,47976.5,48572.39999997616,48924.69999998808,49437.299999952316,50504.59999996424,50890.69999998808,51300.19999998808,51760.69999998808,52368.09999996424,52788.5,53178.19999998808,53606.5,54021.19999998808,54400.299999952316,56084.19999998808],"honeypot":0,"survey":"mace","page":10,"trial_type":"survey-mace","trial_index":18,"time_elapsed":656605,"internal_node_id":"0.0-18.0","task_version":"prescreen-v0.3","browser_interactions":0,"instructed":0},{"rt":7535.5,"trial_type":"mental-health-alert","trial_index":19,"time_elapsed":664143,"internal_node_id":"0.0-19.0","task_version":"prescreen-v0.3","interactions":"[]"}]