[{"view_history":[{"page_index":0,"viewing_time":2081.100000023842},{"page_index":1,"viewing_time":793.7000000476837},{"page_index":2,"viewing_time":600.3999999761581},{"page_index":3,"viewing_time":843.6000000238419}],"rt":4320.600000023842,"trial_type":"instructions","trial_index":0,"time_elapsed":4345,"internal_node_id":"0.0-0.0","task_version":"prescreen-v0.3"},{"rt":32430.5,"responses":{"age":"25","gender-categorical":"Female","gender-free-response":"","ethnicity":"Rather not say","race":["Black or African American"],"education":"Bachelor degree"},"trial_type":"survey-demo","trial_index":1,"time_elapsed":36784,"internal_node_id":"0.0-1.0","task_version":"prescreen-v0.3"},{"responses":{"Q08":"1","Q21":"2","Q20":"1","Q06":"1","Q01":"2","Q12":"2","Q19":"1","Q10":"2","Q07":"2","Q04":"1","Q02":"2","Q03":"1","Q17":"1","Q11":"1","Q09":"1","Q18":"1","Q14":"1","Q05":"1","Q15":"2","Q16":"2","Q13":"1"},"rt":240957.80000007153,"item_order":[7,20,19,5,0,11,18,9,6,3,1,2,16,10,8,17,13,4,14,15,12],"radio_events":[26969.700000047684,30473.400000095367,31641.5,37090.10000002384,39028.300000071526,173729.80000007153,181167.40000009537,189868.40000009537,191418,195596.10000002384,202991.60000002384,205588.5,211021.40000009537,213057.10000002384,217518.70000004768,218977.70000004768,223997.40000009537,224524.90000009537,225392.80000007153,229253.90000009537,239817.20000004768],"key_events":[],"mouse_events":[25008.100000023842,26969.700000047684,30473.400000095367,31641.5,37090.10000002384,39028.300000071526,173008.20000004768,173729.80000007153,179626.90000009537,180583.5,181167.40000009537,188660.60000002384,189868.40000009537,191418,192431.90000009537,193955.5,195596.10000002384,200995.70000004768,202991.60000002384,203803.30000007153,204825.70000004768,205588.5,207525.60000002384,211021.40000009537,213057.10000002384,214276.70000004768,215279.80000007153,216091.20000004768,216869.60000002384,217518.70000004768,218053.90000009537,218977.70000004768,220129.80000007153,220795.30000007153,222400.70000004768,222894.60000002384,223414.20000004768,223997.40000009537,224524.90000009537,225392.80000007153,226252.40000009537,229253.90000009537,231006.60000002384,235202.10000002384,238664.80000007153,239273.10000002384,239817.20000004768,240951.60000002384],"straightlining":0.6190476190476191,"zigzagging":0.5,"honeypot":0,"survey":"sns","trial_type":"survey-template","trial_index":2,"time_elapsed":277749,"internal_node_id":"0.0-2.0","task_version":"prescreen-v0.3","browser_interactions":4,"infrequency":0.5},{"responses":{"Q08":"2","Q13":"0","Q07":"1","Q01":"2","Q02":"1","Q06":"2","Q12":"2","Q10":"2","Q03":"1","Q11":"2","Q09":"1","Q04":"2","Q05":"2"},"rt":128290.10000002384,"item_order":[7,12,6,0,1,5,11,9,2,10,8,3,4],"radio_events":[17757.5,20280.199999928474,26272.899999976158,28421.399999976158,34541.89999997616,66796.89999997616,107450.5,112487.29999995232,120006.5,122925.19999992847,125464.79999995232,126778.69999992847,127468],"key_events":[],"mouse_events":[16406.199999928474,17757.5,20280.199999928474,24779.5,26272.899999976158,27197.199999928474,28421.399999976158,34541.89999997616,66123.89999997616,66796.89999997616,106801,107450.5,112487.29999995232,120006.5,122925.19999992847,124531.79999995232,125464.79999995232,126778.69999992847,127468,128287.29999995232],"straightlining":0.6153846153846154,"zigzagging":0.6666666666666666,"honeypot":0,"survey":"bisbas","trial_type":"survey-template","trial_index":3,"time_elapsed":406046,"internal_node_id":"0.0-3.0","task_version":"prescreen-v0.3","browser_interactions":4,"infrequency":0},{"responses":{"Q01":"3","Q02":"3","Q03":"3"},"rt":33791.60000002384,"radio_events":[3963.7999999523163,9366.399999976158,32962.299999952316],"key_events":[],"mouse_events":[3307.2000000476837,3963.7999999523163,6827.299999952316,8692,9366.399999976158,10931.899999976158,13026.100000023842,13547.200000047684,21648.399999976158,22424.899999976158,24006.899999976158,25499.200000047684,26433,29960.600000023842,30812.700000047684,32223.700000047684,32962.299999952316,33790],"survey":"map","page":1,"trial_type":"survey-map","trial_index":4,"time_elapsed":439843,"internal_node_id":"0.0-4.0","task_version":"prescreen-v0.3","browser_interactions":0},{"responses":{"Q04":"2","Q05":"1","Q06":"2"},"rt":16874.800000071526,"radio_events":[10035.5,11195.100000023842,15924.100000023842],"key_events":[],"mouse_events":[2987,9224.700000047684,10035.5,11195.100000023842,13733.700000047684,15924.100000023842,16873.5],"survey":"map","page":2,"trial_type":"survey-map","trial_index":5,"time_elapsed":456722,"internal_node_id":"0.0-5.0","task_version":"prescreen-v0.3","browser_interactions":0},{"responses":{"Q07":"3","Q08":"3","Q09":"3"},"rt":11781,"radio_events":[3660.2999999523163,5469.299999952316,8454.100000023842,10392.5],"key_events":[],"mouse_events":[3660.2999999523163,4593.399999976158,5469.299999952316,7773,8454.100000023842,9289.399999976158,10392.5,11779.600000023842],"survey":"map","page":3,"trial_type":"survey-map","trial_index":6,"time_elapsed":468508,"internal_node_id":"0.0-6.0","task_version":"prescreen-v0.3","browser_interactions":0},{"responses":{"Q10":"3","Q11":"2","Q12":"1","Q13":"2","Q16":"3","Q14":"2","Q15":"2"},"rt":15121.5,"radio_events":[4794.899999976158,7082.799999952316,8761.399999976158,10465.799999952316,12492.600000023842,13344.5,14210.299999952316],"key_events":[],"mouse_events":[4794.899999976158,5938.899999976158,7082.799999952316,8761.399999976158,10465.799999952316,12492.600000023842,13344.5,14210.299999952316,15119.5],"survey":"map","page":4,"trial_type":"survey-map","trial_index":7,"time_elapsed":483634,"internal_node_id":"0.0-7.0","task_version":"prescreen-v0.3","browser_interactions":0,"infrequency":1},{"view_history":[{"page_index":0,"viewing_time":2372.2999999523163},{"page_index":1,"viewing_time":4793.700000047684}],"rt":7168.100000023842,"trial_type":"instructions","trial_index":8,"time_elapsed":490804,"internal_node_id":"0.0-8.0","task_version":"prescreen-v0.3"},{"responses":{"01":"Yes","01_ages_12":"12","01_ages_13":"13","01_ages_14":"14","01_ages_15":"15","01_ages_16":"16","01_ages_17":"17","01_ages_18":"18","02":"Yes","02_ages_16":"16","02_ages_17":"17","02_ages_18":"18","03":"No","04":"No","05":"No","06":"No"},"rt":38106,"item_order":[0,1,2,3,4,5],"radio_events":[6204.099999904633,20401.099999904633,32689.099999904633,33895.09999990463,36281.89999997616,37312.199999928474],"checkbox_events":[11135.899999976158,11679.599999904633,12330.599999904633,14674.199999928474,15185.299999952316,16318.199999928474,16798.799999952316,21398.399999976158,22345.399999976158,23134.099999904633],"key_events":[],"mouse_events":[0.2999999523162842,6204.099999904633,11135.899999976158,11679.599999904633,12330.599999904633,14000.899999976158,14674.199999928474,15185.299999952316,16318.199999928474,16798.799999952316,19378.299999952316,20401.099999904633,21398.399999976158,22345.399999976158,23134.099999904633,31869.699999928474,32689.099999904633,33895.09999990463,36281.89999997616,37312.199999928474,38099.699999928474],"honeypot":0,"survey":"mace","page":1,"trial_type":"survey-mace","trial_index":9,"time_elapsed":528926,"internal_node_id":"0.0-9.0","task_version":"prescreen-v0.3","browser_interactions":0},{"responses":{"01":"No","02":"No","03":"No","04":"No","05":"No","06":"No","07":"No","08":"No"},"rt":28442.399999976158,"item_order":[0,1,2,3,4,5,6,7],"radio_events":[15155.399999976158,18188.799999952316,19048.599999904633,22958.5,23639.299999952316,25058.299999952316,26908.599999904633,27695.099999904633],"checkbox_events":[],"key_events":[],"mouse_events":[15155.399999976158,16850.399999976158,18188.799999952316,19048.599999904633,20946.399999976158,22958.5,23639.299999952316,25058.299999952316,25878.699999928474,26908.599999904633,27695.099999904633,28433.899999976158],"honeypot":0,"survey":"mace","page":2,"trial_type":"survey-mace","trial_index":10,"time_elapsed":557375,"internal_node_id":"0.0-10.0","task_version":"prescreen-v0.3","browser_interactions":0},{"responses":{"01":"No","02":"No","03":"No","04":"No"},"rt":10838.299999952316,"item_order":[0,1,2,3],"radio_events":[2929.100000023842,5346.899999976158,7179.799999952316,10157.200000047684],"checkbox_events":[],"key_events":[],"mouse_events":[2929.100000023842,3610.5,4511.100000023842,5346.899999976158,6352.399999976158,7179.799999952316,8429.399999976158,8997.100000023842,9751.799999952316,10157.200000047684,10836.600000023842],"honeypot":0,"survey":"mace","page":3,"trial_type":"survey-mace","trial_index":11,"time_elapsed":568218,"internal_node_id":"0.0-11.0","task_version":"prescreen-v0.3","browser_interactions":0},{"responses":{"01":"No","02":"No"},"rt":4664.799999952316,"item_order":[0,1],"radio_events":[1944.2999999523163,3104.399999976158],"checkbox_events":[],"key_events":[],"mouse_events":[1944.2999999523163,3104.399999976158,4662.299999952316],"honeypot":0,"survey":"mace","page":4,"trial_type":"survey-mace","trial_index":12,"time_elapsed":572886,"internal_node_id":"0.0-12.0","task_version":"prescreen-v0.3","browser_interactions":0},{"responses":{"01":"No","02":"No","03":"No","04":"No","05":"No"},"rt":11012.899999976158,"item_order":[0,1,2,3,4],"radio_events":[2799,5119,6238.299999952316,8849.799999952316,10137.399999976158],"checkbox_events":[],"key_events":[],"mouse_events":[2068.7999999523163,2799,3691.6999999284744,4460.100000023842,5119,6238.299999952316,7382.600000023842,8371.5,8849.799999952316,10137.399999976158,11007.5],"honeypot":0,"survey":"mace","page":5,"trial_type":"survey-mace","trial_index":13,"time_elapsed":583904,"internal_node_id":"0.0-13.0","task_version":"prescreen-v0.3","browser_interactions":0},{"responses":{"01":"No","02":"No","03":"No","04":"No","05":"No"},"rt":7969.100000023842,"item_order":[0,1,2,3,4],"radio_events":[1661.3999999761581,2651.100000023842,4418.199999928474,5246.199999928474,6292.699999928474],"checkbox_events":[],"key_events":[],"mouse_events":[1661.3999999761581,2651.100000023842,3940.1999999284744,4418.199999928474,5246.199999928474,6292.699999928474,7963.299999952316],"honeypot":0,"survey":"mace","page":6,"trial_type":"survey-mace","trial_index":14,"time_elapsed":591879,"internal_node_id":"0.0-14.0","task_version":"prescreen-v0.3","browser_interactions":0},{"responses":{"01":"No","02":"No","03":"No","04":"No","05":"No","06":"No","07":"No"},"rt":16154.899999976158,"item_order":[0,1,2,3,4,5,6],"radio_events":[2299.600000023842,3054,6363.200000047684,7182.800000071526,12766.5,13876.600000023842,15586.899999976158],"checkbox_events":[],"key_events":[],"mouse_events":[1561.7000000476837,2299.600000023842,3054,4262.399999976158,5430.700000047684,6363.200000047684,7182.800000071526,12766.5,13876.600000023842,14785.200000047684,15586.899999976158,16147.5],"honeypot":0,"survey":"mace","page":7,"trial_type":"survey-mace","trial_index":15,"time_elapsed":608040,"internal_node_id":"0.0-15.0","task_version":"prescreen-v0.3","browser_interactions":0},{"responses":{"01":"No","02":"No","03":"No","04":"No"},"rt":8265.900000095367,"item_order":[0,1,2,3],"radio_events":[1771.5,2582.600000023842,3337.4000000953674,7328.300000071526],"checkbox_events":[],"key_events":[],"mouse_events":[1260.3000000715256,1771.5,2582.600000023842,3337.4000000953674,4326.400000095367,5705.600000023842,7328.300000071526,8261.100000023842],"honeypot":0,"survey":"mace","page":8,"trial_type":"survey-mace","trial_index":16,"time_elapsed":616311,"internal_node_id":"0.0-16.0","task_version":"prescreen-v0.3","browser_interactions":0},{"responses":{"01":"Yes","01_ages_1":"1","01_ages_2":"2","01_ages_3":"3","01_ages_4":"4","01_ages_5":"5","01_ages_6":"6","01_ages_7":"7","01_ages_8":"8","01_ages_9":"9","01_ages_10":"10","01_ages_11":"11","01_ages_12":"12","01_ages_13":"13","01_ages_14":"14","01_ages_15":"15","01_ages_16":"16","01_ages_17":"17","01_ages_18":"18","02":"Yes","02_ages_1":"1","02_ages_2":"2","02_ages_3":"3","02_ages_4":"4","02_ages_5":"5","02_ages_6":"6","02_ages_7":"7","02_ages_8":"8","02_ages_9":"9","02_ages_10":"10","02_ages_11":"11","02_ages_12":"12","02_ages_13":"13","02_ages_14":"14","02_ages_15":"15","02_ages_16":"16","02_ages_17":"17","02_ages_18":"18","03":"Yes","03_ages_1":"1","03_ages_2":"2","03_ages_3":"3","03_ages_4":"4","03_ages_5":"5","03_ages_6":"6","03_ages_7":"7","03_ages_8":"8","03_ages_9":"9","03_ages_10":"10","03_ages_11":"11","03_ages_12":"12","03_ages_13":"13","03_ages_14":"14","03_ages_15":"15","03_ages_16":"16","03_ages_17":"17","03_ages_18":"18","04":"Yes","04_ages_1":"1","04_ages_2":"2","04_ages_3":"3","04_ages_4":"4","04_ages_5":"5","04_ages_6":"6","04_ages_7":"7","04_ages_8":"8","04_ages_9":"9","04_ages_10":"10","04_ages_11":"11","04_ages_12":"12","04_ages_13":"13","04_ages_14":"14","04_ages_15":"15","04_ages_16":"16","04_ages_17":"17","04_ages_18":"18"},"rt":90230.10000002384,"item_order":[0,1,2,3],"radio_events":[4661.700000047684,24976.100000023842,58911,73952.10000002384],"checkbox_events":[6738.600000023842,7209.100000023842,7727.800000071526,8962.100000023842,9950.900000095367,12474.100000023842,13026.600000023842,14640,15524.400000095367,16043.900000095367,17161.700000047684,17842.900000095367,18453.400000095367,18988.700000047684,19702.300000071526,20521.600000023842,21211.400000095367,22874.800000071526,27190.5,30890,33380.40000009537,34314,38565.200000047684,39416.800000071526,40560.90000009537,42224.10000002384,43254.10000002384,43797.800000071526,44812.10000002384,45599,46199.200000047684,46742.700000047684,48024.40000009537,48462.700000047684,49995.60000002384,50555.10000002384,60428.10000002384,61514.90000009537,62099.200000047684,62667.300000071526,63600.40000009537,64071.10000002384,64655.40000009537,65263.5,65913.30000007153,67007.90000009537,67551.30000007153,68687.30000007153,69189.90000009537,69855.5,70918,71396.80000007153,71988.80000007153,72905.40000009537,75542.5,76004.30000007153,76507.80000007153,76993.90000009537,78040.40000009537,78486.90000009537,78989.60000002384,79631,80076.70000004768,80782.30000007153,82794.70000004768,83281.20000004768,83849.5,85390.20000004768,85909.5,86485.30000007153,87888.80000007153,89276],"key_events":[],"mouse_events":[3794.9000000953674,4661.700000047684,6738.600000023842,7209.100000023842,7727.800000071526,8295.900000095367,8962.100000023842,9504.400000095367,9950.900000095367,10445.700000047684,11354.200000047684,11848.700000047684,12474.100000023842,13026.600000023842,13698.700000047684,14193.700000047684,14640,15524.400000095367,16043.900000095367,16661.100000023842,17161.700000047684,17842.900000095367,18453.400000095367,18988.700000047684,19702.300000071526,20521.600000023842,21211.400000095367,21852.800000071526,22266.100000023842,22874.800000071526,24976.100000023842,26103.5,27190.5,29421.600000023842,30890,33380.40000009537,34314,38565.200000047684,39416.800000071526,40560.90000009537,41664.5,42224.10000002384,42832.800000071526,43254.10000002384,43797.800000071526,44812.10000002384,45599,46199.200000047684,46742.700000047684,47366.60000002384,48024.40000009537,48462.700000047684,49086.90000009537,49476.40000009537,49995.60000002384,50555.10000002384,55487.700000047684,56452.5,57426.200000047684,58911,60428.10000002384,60979.10000002384,61514.90000009537,62099.200000047684,62667.300000071526,63218.700000047684,63600.40000009537,64071.10000002384,64655.40000009537,65263.5,65913.30000007153,66553.70000004768,67007.90000009537,67551.30000007153,68135.5,68687.30000007153,69189.90000009537,69855.5,70504.5,70918,71396.80000007153,71988.80000007153,72905.40000009537,73952.10000002384,75542.5,76004.30000007153,76507.80000007153,76993.90000009537,77553.90000009537,78040.40000009537,78486.90000009537,78989.60000002384,79631,80076.70000004768,80782.30000007153,81415.10000002384,81845.30000007153,82429.40000009537,82794.70000004768,83281.20000004768,83849.5,84335.80000007153,84920.5,85390.20000004768,85909.5,86485.30000007153,87231.30000007153,87888.80000007153,88425,88837.60000002384,89276,90225.5],"honeypot":0,"survey":"mace","page":9,"trial_type":"survey-mace","trial_index":17,"time_elapsed":706546,"internal_node_id":"0.0-17.0","task_version":"prescreen-v0.3","browser_interactions":0},{"responses":{"01":"No","02":"No","03":"Yes","03_ages_14":"14","03_ages_15":"15","03_ages_16":"16","03_ages_17":"17","03_ages_18":"18","04":"No","05":"No","06":"Yes","06_ages_17":"17","07":"Yes","07_ages_1":"1","07_ages_2":"2","07_ages_3":"3","07_ages_4":"4","07_ages_5":"5","07_ages_6":"6","07_ages_7":"7","07_ages_8":"8","07_ages_9":"9","07_ages_10":"10","07_ages_11":"11","07_ages_12":"12","07_ages_13":"13","07_ages_14":"14","07_ages_15":"15","07_ages_16":"16","07_ages_17":"17","07_ages_18":"18","08":"Yes","08_ages_1":"1","08_ages_2":"2","08_ages_3":"3","08_ages_4":"4","08_ages_5":"5","08_ages_6":"6","08_ages_7":"7","08_ages_8":"8","08_ages_9":"9","08_ages_10":"10","08_ages_11":"11","08_ages_12":"12","08_ages_13":"13","08_ages_14":"14","08_ages_15":"15","08_ages_16":"16","08_ages_17":"17","08_ages_18":"18"},"rt":58581.10000002384,"item_order":[0,1,2,3,4,5,6,7],"radio_events":[7454.600000023842,10228.700000047684,11112.899999976158,17076.5,20022.5,22058,27308.700000047684,44348],"checkbox_events":[13271,13838.5,14983.300000071526,15607.600000023842,16151.399999976158,23973,29093.899999976158,29620.600000023842,31592.800000071526,32470,33556.800000071526,34489.60000002384,35065.700000047684,36355.89999997616,36799.800000071526,37799.800000071526,38392,38951.700000047684,39536.200000047684,40096.39999997616,40752.200000047684,41320.60000002384,42010.200000047684,42546.10000002384,45955.10000002384,46408.800000071526,47033.300000071526,47487.89999997616,48526.200000047684,49077.200000047684,49994.700000047684,51115,51609.89999997616,52170.10000002384,52681.89999997616,53411.39999997616,53979.10000002384,54478,55050.60000002384,56162.300000071526,56786.700000047684,57395.60000002384],"key_events":[],"mouse_events":[6618.5,7454.600000023842,8477.399999976158,10228.700000047684,11112.899999976158,12711.600000023842,13271,13838.5,14505.200000047684,14983.300000071526,15607.600000023842,16151.399999976158,17076.5,20022.5,22058,23973,27308.700000047684,29093.899999976158,29620.600000023842,30148.600000023842,30773.399999976158,31592.800000071526,31974.200000047684,32470,32996.800000071526,33556.800000071526,34124.60000002384,34489.60000002384,35065.700000047684,35625.60000002384,36355.89999997616,36799.800000071526,37395.10000002384,37799.800000071526,38392,38951.700000047684,39536.200000047684,40096.39999997616,40752.200000047684,41320.60000002384,42010.200000047684,42546.10000002384,44348,45955.10000002384,46408.800000071526,47033.300000071526,47487.89999997616,48154.10000002384,48526.200000047684,49077.200000047684,49648.200000047684,49994.700000047684,50530.39999997616,51115,51609.89999997616,52170.10000002384,52681.89999997616,53411.39999997616,53979.10000002384,54478,55050.60000002384,55748.10000002384,56162.300000071526,56786.700000047684,57395.60000002384,58573.300000071526],"honeypot":0,"survey":"mace","page":10,"trial_type":"survey-mace","trial_index":18,"time_elapsed":765134,"internal_node_id":"0.0-18.0","task_version":"prescreen-v0.3","browser_interactions":0,"instructed":0},{"rt":3645.7000000476837,"trial_type":"mental-health-alert","trial_index":19,"time_elapsed":768782,"internal_node_id":"0.0-19.0","task_version":"prescreen-v0.3","interactions":"[{\"event\":\"blur\",\"trial\":2,\"time\":42229},{\"event\":\"focus\",\"trial\":2,\"time\":56802},{\"event\":\"blur\",\"trial\":2,\"time\":118340},{\"event\":\"focus\",\"trial\":2,\"time\":203400},{\"event\":\"blur\",\"trial\":3,\"time\":349097},{\"event\":\"focus\",\"trial\":3,\"time\":350424},{\"event\":\"blur\",\"trial\":3,\"time\":352453},{\"event\":\"focus\",\"trial\":3,\"time\":365566}]"}]