[{"view_history":[{"page_index":0,"viewing_time":7577.699999988079},{"page_index":1,"viewing_time":5250.800000011921},{"page_index":2,"viewing_time":5339.600000023842},{"page_index":3,"viewing_time":2679.899999976158}],"rt":20849.400000035763,"trial_type":"instructions","trial_index":0,"time_elapsed":20878,"internal_node_id":"0.0-0.0","task_version":"prescreen-v0.3"},{"rt":33552.5,"responses":{"age":"19","gender-categorical":"Female","gender-free-response":"","ethnicity":"Hispanic or Latino","race":["White"],"education":"Some college"},"trial_type":"survey-demo","trial_index":1,"time_elapsed":54440,"internal_node_id":"0.0-1.0","task_version":"prescreen-v0.3"},{"responses":{"Q09":"2","Q01":"2","Q19":"1","Q02":"1","Q16":"1","Q17":"0","Q07":"0","Q03":"0","Q04":"1","Q08":"1","Q14":"2","Q18":"1","Q05":"1","Q15":"2","Q11":"3","Q06":"2","Q10":"2","Q20":"0","Q21":"3","Q12":"2","Q13":"2"},"rt":130780.80000001192,"item_order":[8,0,18,1,15,16,6,2,3,7,13,17,4,14,10,5,9,19,20,11,12],"radio_events":[11981.099999964237,13683.899999976158,19855.80000001192,24032.899999976158,29715.599999964237,33288.89999997616,36424.80000001192,44383.89999997616,49706.89999997616,53656.09999996424,56879.30000001192,59652.59999996424,60928.69999998808,89826.30000001192,94327.80000001192,99296.19999998808,103088.89999997616,108892.69999998808,112608.80000001192,115869.5,121335.5,126404.19999998808,129822.80000001192],"key_events":[],"mouse_events":[11981.099999964237,13683.899999976158,19855.80000001192,24032.899999976158,29715.599999964237,33288.89999997616,34725.89999997616,36424.80000001192,44383.89999997616,49706.89999997616,53656.09999996424,56879.30000001192,59652.59999996424,60928.69999998808,89826.30000001192,94327.80000001192,98384.69999998808,99296.19999998808,103088.89999997616,108892.69999998808,112608.80000001192,115869.5,121335.5,126404.19999998808,129822.80000001192,130776.80000001192],"straightlining":0.38095238095238093,"zigzagging":0.5,"honeypot":0,"survey":"sns","trial_type":"survey-template","trial_index":2,"time_elapsed":185230,"internal_node_id":"0.0-2.0","task_version":"prescreen-v0.3","browser_interactions":0,"infrequency":0},{"responses":{"Q05":"3","Q06":"2","Q09":"1","Q12":"1","Q01":"3","Q07":"3","Q08":"3","Q13":"0","Q03":"2","Q11":"2","Q04":"3","Q10":"1","Q02":"2"},"rt":51091.40000003576,"item_order":[4,5,8,11,0,6,7,12,2,10,3,9,1],"radio_events":[5223,8529,16285.199999988079,17508.69999998808,20406,22279.600000023842,26868.600000023842,30352.600000023842,36136.10000002384,42485.40000003576,45312.40000003576,48075.90000003576,50042.60000002384],"key_events":[],"mouse_events":[5223,8529,11829.100000023842,16285.199999988079,17508.69999998808,20406,22279.600000023842,26868.600000023842,30352.600000023842,36136.10000002384,42485.40000003576,45312.40000003576,48075.90000003576,50042.60000002384,51089.10000002384],"straightlining":0.38461538461538464,"zigzagging":0.4166666666666667,"honeypot":0,"survey":"bisbas","trial_type":"survey-template","trial_index":3,"time_elapsed":236328,"internal_node_id":"0.0-3.0","task_version":"prescreen-v0.3","browser_interactions":0,"infrequency":0},{"responses":{"Q01":"3","Q02":"2","Q03":"3"},"rt":27695.099999964237,"radio_events":[5319.599999964237,15910.599999964237,20719.599999964237,26350.599999964237],"key_events":[],"mouse_events":[5319.599999964237,15910.599999964237,20719.599999964237,26350.599999964237,27693.899999976158],"survey":"map","page":1,"trial_type":"survey-map","trial_index":4,"time_elapsed":264030,"internal_node_id":"0.0-4.0","task_version":"prescreen-v0.3","browser_interactions":0},{"responses":{"Q04":"2","Q05":"2","Q06":"2"},"rt":47490.30000001192,"radio_events":[5215.199999988079,9223.100000023842,46419.80000001192],"key_events":[],"mouse_events":[5215.199999988079,9223.100000023842,46419.80000001192,47489.30000001192],"survey":"map","page":2,"trial_type":"survey-map","trial_index":5,"time_elapsed":311526,"internal_node_id":"0.0-5.0","task_version":"prescreen-v0.3","browser_interactions":0},{"responses":{"Q07":"3","Q08":"3","Q09":"4"},"rt":17353.900000035763,"radio_events":[5125.800000011921,9983.800000011921,13869.100000023842,15802.300000011921],"key_events":[],"mouse_events":[5125.800000011921,9983.800000011921,13869.100000023842,14975.900000035763,15802.300000011921,16970.400000035763,17353],"survey":"map","page":3,"trial_type":"survey-map","trial_index":6,"time_elapsed":328883,"internal_node_id":"0.0-6.0","task_version":"prescreen-v0.3","browser_interactions":0},{"responses":{"Q10":"4","Q11":"2","Q12":"1","Q13":"3","Q16":"0","Q14":"1","Q15":"1"},"rt":81390,"radio_events":[6063.300000011921,9081,17348.099999964237,18634.19999998808,24886.899999976158,32722.5,73798.19999998808,78687.09999996424,79885],"key_events":[],"mouse_events":[6063.300000011921,9081,10938.199999988079,11796.599999964237,17348.099999964237,18634.19999998808,19767.099999964237,24886.899999976158,32722.5,73798.19999998808,78687.09999996424,79885,81388],"survey":"map","page":4,"trial_type":"survey-map","trial_index":7,"time_elapsed":410278,"internal_node_id":"0.0-7.0","task_version":"prescreen-v0.3","browser_interactions":0,"infrequency":0},{"view_history":[{"page_index":0,"viewing_time":3812.699999988079},{"page_index":1,"viewing_time":3846.199999988079}],"rt":7659.5,"trial_type":"instructions","trial_index":8,"time_elapsed":417941,"internal_node_id":"0.0-8.0","task_version":"prescreen-v0.3"},{"responses":{"01":"Yes","01_ages_10":"10","01_ages_11":"11","01_ages_12":"12","01_ages_13":"13","01_ages_14":"14","01_ages_15":"15","01_ages_16":"16","02":"Yes","02_ages_11":"11","02_ages_12":"12","02_ages_13":"13","02_ages_14":"14","02_ages_15":"15","02_ages_16":"16","02_ages_17":"17","02_ages_18":"18","03":"No","04":"No","05":"No","06":"No"},"rt":89831.80000001192,"item_order":[0,1,2,3,4,5],"radio_events":[26782.899999976158,46176.19999998808,66530.39999997616,72386.30000001192,73580.60000002384,87505.80000001192],"checkbox_events":[32397.19999998808,33506.89999997616,35196.30000001192,36426.89999997616,37333.39999997616,38074.5,40247.5,50063,50960.60000002384,52720.39999997616,54573.19999998808,56972.60000002384,59760,60575.10000002384,61843.5],"key_events":[],"mouse_events":[0.10000002384185791,26782.899999976158,32397.19999998808,33506.89999997616,35196.30000001192,36426.89999997616,37333.39999997616,38074.5,39151.19999998808,40247.5,44747.60000002384,46176.19999998808,50063,50960.60000002384,51823.80000001192,52720.39999997616,53573.69999998808,54573.19999998808,55778.30000001192,56972.60000002384,58318.30000001192,59760,60575.10000002384,61843.5,66530.39999997616,69926.30000001192,72386.30000001192,73580.60000002384,87505.80000001192,89826.69999998808],"honeypot":0,"survey":"mace","page":1,"trial_type":"survey-mace","trial_index":9,"time_elapsed":507783,"internal_node_id":"0.0-9.0","task_version":"prescreen-v0.3","browser_interactions":0},{"responses":{"01":"No","02":"No","03":"Yes","03_ages_6":"6","03_ages_7":"7","03_ages_8":"8","03_ages_9":"9","03_ages_10":"10","04":"No","05":"Yes","05_ages_6":"6","05_ages_7":"7","05_ages_8":"8","05_ages_9":"9","06":"No","07":"No","08":"No"},"rt":46322.80000001192,"item_order":[0,1,2,3,4,5,6,7],"radio_events":[8819.399999976158,13173.100000023842,15906,28125.80000001192,30886.19999998808,41216.10000002384,44036,45415.80000001192],"checkbox_events":[18516.30000001192,20402.80000001192,21335.899999976158,22265.80000001192,23619.69999998808,33435.69999998808,34813.10000002384,36146.69999998808,36955.69999998808],"key_events":[],"mouse_events":[8819.399999976158,13173.100000023842,15906,18516.30000001192,19596.100000023842,20402.80000001192,21335.899999976158,22265.80000001192,23619.69999998808,28125.80000001192,30886.19999998808,33435.69999998808,34813.10000002384,35749.10000002384,36146.69999998808,36955.69999998808,41216.10000002384,44036,45415.80000001192,46316.30000001192],"honeypot":0,"survey":"mace","page":2,"trial_type":"survey-mace","trial_index":10,"time_elapsed":554115,"internal_node_id":"0.0-10.0","task_version":"prescreen-v0.3","browser_interactions":0},{"responses":{"01":"No","02":"No","03":"No","04":"No"},"rt":18816.600000023842,"item_order":[0,1,2,3],"radio_events":[12217.800000011921,15365.199999988079,17004.80000001192,18012],"checkbox_events":[],"key_events":[],"mouse_events":[12217.800000011921,14287.100000023842,15365.199999988079,17004.80000001192,18012,18812.80000001192],"honeypot":0,"survey":"mace","page":3,"trial_type":"survey-mace","trial_index":11,"time_elapsed":572938,"internal_node_id":"0.0-11.0","task_version":"prescreen-v0.3","browser_interactions":0},{"responses":{"01":"No","02":"No"},"rt":6852.699999988079,"item_order":[0,1],"radio_events":[3294.399999976158,6072.399999976158],"checkbox_events":[],"key_events":[],"mouse_events":[3294.399999976158,5215.399999976158,6072.399999976158,6850.699999988079],"honeypot":0,"survey":"mace","page":4,"trial_type":"survey-mace","trial_index":12,"time_elapsed":579794,"internal_node_id":"0.0-12.0","task_version":"prescreen-v0.3","browser_interactions":0},{"responses":{"01":"No","02":"No","03":"No","04":"No","05":"No"},"rt":24165.69999998808,"item_order":[0,1,2,3,4],"radio_events":[12164.599999964237,14969.5,17434.599999964237,21759.899999976158,23236.399999976158],"checkbox_events":[],"key_events":[],"mouse_events":[12164.599999964237,14969.5,17434.599999964237,21759.899999976158,23236.399999976158,24161.599999964237],"honeypot":0,"survey":"mace","page":5,"trial_type":"survey-mace","trial_index":13,"time_elapsed":603965,"internal_node_id":"0.0-13.0","task_version":"prescreen-v0.3","browser_interactions":0},{"responses":{"01":"No","02":"Yes","02_ages_9":"9","02_ages_10":"10","02_ages_11":"11","02_ages_12":"12","02_ages_13":"13","02_ages_14":"14","02_ages_15":"15","03":"No","04":"Yes","04_ages_14":"14","04_ages_15":"15","05":"No"},"rt":48572.69999998808,"item_order":[0,1,2,3,4],"radio_events":[16504.30000001192,18094.80000001192,32928.30000001192,36501.30000001192,47488.19999998808],"checkbox_events":[20881.600000023842,21734.30000001192,22887.80000001192,23884.19999998808,24935,25717.600000023842,26619,42481,44441.5],"key_events":[],"mouse_events":[16504.30000001192,18094.80000001192,20881.600000023842,21734.30000001192,22887.80000001192,23884.19999998808,24935,25717.600000023842,26619,32928.30000001192,36501.30000001192,42481,43285,44441.5,47488.19999998808,48568.30000001192],"honeypot":0,"survey":"mace","page":6,"trial_type":"survey-mace","trial_index":14,"time_elapsed":652545,"internal_node_id":"0.0-14.0","task_version":"prescreen-v0.3","browser_interactions":0},{"responses":{"01":"No","02":"No","03":"No","04":"No","05":"No","06":"No","07":"No"},"rt":19450.400000035763,"item_order":[0,1,2,3,4,5,6],"radio_events":[4303,6372.800000011921,10366.5,11969.900000035763,14770.100000023842,16060.699999988079,18403.900000035763],"checkbox_events":[],"key_events":[],"mouse_events":[4303,6372.800000011921,10366.5,11969.900000035763,14770.100000023842,16060.699999988079,17420,18403.900000035763,19444.19999998808],"honeypot":0,"survey":"mace","page":7,"trial_type":"survey-mace","trial_index":15,"time_elapsed":671997,"internal_node_id":"0.0-15.0","task_version":"prescreen-v0.3","browser_interactions":0},{"responses":{"01":"No","02":"Yes","02_ages_11":"11","02_ages_12":"12","02_ages_13":"13","02_ages_14":"14","02_ages_15":"15","02_ages_16":"16","02_ages_17":"17","02_ages_18":"18","03":"Yes","03_ages_10":"10","03_ages_11":"11","03_ages_12":"12","03_ages_13":"13","03_ages_14":"14","03_ages_15":"15","03_ages_16":"16","03_ages_17":"17","03_ages_18":"18","04":"Yes","04_ages_11":"11","04_ages_12":"12","04_ages_13":"13","04_ages_14":"14","04_ages_15":"15","04_ages_16":"16","04_ages_17":"17","04_ages_18":"18"},"rt":67720.89999997616,"item_order":[0,1,2,3],"radio_events":[15041.199999988079,19076.69999998808,38887.5,55021.799999952316],"checkbox_events":[25917.399999976158,26823,27723.799999952316,29406.399999976158,30257.299999952316,31003.5,32623.5,33596.69999998808,42077.5,42995.69999998808,44090.09999996424,44896.299999952316,46163.799999952316,47146.69999998808,48193.39999997616,48933.59999996424,49704.19999998808,58580.09999996424,59416.89999997616,60901.5,61286.39999997616,62260.09999996424,63220.19999998808,64083.299999952316,65030.19999998808,65953.79999995232,66672.69999998808],"key_events":[],"mouse_events":[15041.199999988079,19076.69999998808,25917.399999976158,26823,27723.799999952316,28517.099999964237,29406.399999976158,30257.299999952316,31003.5,31820.69999998808,32623.5,33596.69999998808,38887.5,40606.19999998808,42077.5,42995.69999998808,44090.09999996424,44896.299999952316,46163.799999952316,47146.69999998808,48193.39999997616,48933.59999996424,49704.19999998808,55021.799999952316,58580.09999996424,59416.89999997616,60901.5,61286.39999997616,62260.09999996424,63220.19999998808,64083.299999952316,65030.19999998808,65953.79999995232,66672.69999998808,67717.29999995232],"honeypot":0,"survey":"mace","page":8,"trial_type":"survey-mace","trial_index":16,"time_elapsed":739730,"internal_node_id":"0.0-16.0","task_version":"prescreen-v0.3","browser_interactions":0},{"responses":{"01":"Yes","01_ages_1":"1","01_ages_2":"2","01_ages_3":"3","01_ages_4":"4","01_ages_5":"5","01_ages_6":"6","01_ages_7":"7","01_ages_8":"8","01_ages_9":"9","01_ages_10":"10","01_ages_11":"11","01_ages_12":"12","01_ages_13":"13","01_ages_14":"14","01_ages_15":"15","01_ages_16":"16","01_ages_17":"17","01_ages_18":"18","02":"No","03":"Yes","03_ages_1":"1","03_ages_2":"2","03_ages_3":"3","03_ages_4":"4","03_ages_5":"5","03_ages_6":"6","03_ages_7":"7","03_ages_8":"8","03_ages_9":"9","03_ages_10":"10","03_ages_11":"11","03_ages_12":"12","03_ages_13":"13","03_ages_14":"14","03_ages_15":"15","03_ages_16":"16","03_ages_17":"17","03_ages_18":"18","04":"Yes","04_ages_1":"1","04_ages_2":"2","04_ages_3":"3","04_ages_4":"4","04_ages_5":"5","04_ages_6":"6","04_ages_7":"7","04_ages_8":"8","04_ages_9":"9","04_ages_10":"10","04_ages_11":"11","04_ages_12":"12","04_ages_13":"13","04_ages_14":"14","04_ages_15":"15","04_ages_16":"16","04_ages_17":"17","04_ages_18":"18"},"rt":131039.30000001192,"item_order":[0,1,2,3],"radio_events":[41665.90000003576,46029.19999998808,48439.60000002384,52886.40000003576,57453,83546,86223.19999998808,108312.60000002384],"checkbox_events":[60108.19999998808,62476.60000002384,63347.5,65278.60000002384,66261,67205.69999998808,67995.5,68775.30000001192,69822.30000001192,71056.19999998808,71812.60000002384,72569.69999998808,73539.5,74409.40000003576,75203.19999998808,75989.30000001192,77619.40000003576,78769.40000003576,87646.30000001192,88383,89203,90056.80000001192,90762.30000001192,91516.19999998808,93336.10000002384,94295.19999998808,95336.30000001192,96119.19999998808,96933.69999998808,97976.10000002384,98803.5,99623.10000002384,100403,101238.90000003576,102028.60000002384,102773,113119.40000003576,113922.80000001192,115582.80000001192,116346.90000003576,117253.30000001192,119072.30000001192,120086,121147.40000003576,121902.19999998808,122712.5,123583.19999998808,124380.40000003576,125996.5,126685.5,127462.30000001192,128293.80000001192,129169,130022.5],"key_events":[],"mouse_events":[41665.90000003576,46029.19999998808,48439.60000002384,52886.40000003576,57453,60108.19999998808,62096.10000002384,62476.60000002384,63347.5,64239.10000002384,65278.60000002384,66261,67205.69999998808,67995.5,68775.30000001192,69822.30000001192,71056.19999998808,71812.60000002384,72569.69999998808,73539.5,74409.40000003576,75203.19999998808,75989.30000001192,77223.5,77619.40000003576,78769.40000003576,83546,86223.19999998808,87646.30000001192,88383,89203,90056.80000001192,90762.30000001192,91516.19999998808,92647.80000001192,93336.10000002384,94295.19999998808,95336.30000001192,96119.19999998808,96933.69999998808,97976.10000002384,98803.5,99623.10000002384,100403,101238.90000003576,102028.60000002384,102773,108312.60000002384,109944.69999998808,112285.80000001192,113119.40000003576,113922.80000001192,114768.90000003576,115582.80000001192,116346.90000003576,117253.30000001192,118474.80000001192,119072.30000001192,120086,121147.40000003576,121902.19999998808,122712.5,123583.19999998808,124380.40000003576,125236.40000003576,125996.5,126685.5,127462.30000001192,128293.80000001192,129169,130022.5,131035.69999998808],"honeypot":0,"survey":"mace","page":9,"trial_type":"survey-mace","trial_index":17,"time_elapsed":870777,"internal_node_id":"0.0-17.0","task_version":"prescreen-v0.3","browser_interactions":0},{"responses":{"01":"No","02":"No","03":"No","04":"No","05":"No","06":"Yes","06_ages_17":"17","07":"No","08":"No"},"rt":66679.59999996424,"item_order":[0,1,2,3,4,5,6,7],"radio_events":[6792.699999988079,8277.799999952316,13505.599999964237,15546.199999988079,19706.299999952316,22970.5,60572.59999996424,62256.19999998808,65953.5],"checkbox_events":[25505.69999998808],"key_events":[],"mouse_events":[6792.699999988079,8277.799999952316,13505.599999964237,15546.199999988079,19706.299999952316,22970.5,25505.69999998808,60572.59999996424,62256.19999998808,65953.5,66672.79999995232],"honeypot":0,"survey":"mace","page":10,"trial_type":"survey-mace","trial_index":18,"time_elapsed":937465,"internal_node_id":"0.0-18.0","task_version":"prescreen-v0.3","browser_interactions":0,"instructed":0},{"rt":4810.699999988079,"trial_type":"mental-health-alert","trial_index":19,"time_elapsed":942280,"internal_node_id":"0.0-19.0","task_version":"prescreen-v0.3","interactions":"[]"}]