[{"view_history":[{"page_index":0,"viewing_time":5356.009999999515},{"page_index":1,"viewing_time":3710.880000000543},{"page_index":2,"viewing_time":3117.389999999432},{"page_index":3,"viewing_time":1973.3400000004622}],"rt":14161.535000000185,"trial_type":"instructions","trial_index":0,"time_elapsed":14222,"internal_node_id":"0.0-0.0","task_version":"prescreen-v0.3"},{"rt":24512.29500000045,"responses":{"age":"23","gender-categorical":"Female","gender-free-response":"","ethnicity":"Not Hispanic or Latino","race":["White"],"education":"Some college"},"trial_type":"survey-demo","trial_index":1,"time_elapsed":38762,"internal_node_id":"0.0-1.0","task_version":"prescreen-v0.3"},{"responses":{"Q04":"2","Q01":"1","Q06":"0","Q19":"0","Q12":"2","Q18":"2","Q10":"0","Q02":"1","Q05":"0","Q21":"3","Q03":"0","Q20":"0","Q13":"3","Q16":"2","Q14":"2","Q08":"1","Q15":"2","Q09":"0","Q07":"0","Q17":"0","Q11":"0"},"rt":143655.5450000005,"item_order":[3,0,5,18,11,17,9,1,4,20,2,19,12,15,13,7,14,8,6,16,10],"radio_events":[10702.300000000832,21029.22000000035,23296.72500000015,29499.575000000725,36397.060000000245,51289.795000000595,56007.675000000745,57995.585000000574,58287.420000000566,59896.190000000395,60241.05000000054,68555.12500000077,75246.55500000062,83650.60500000072,88966.1500000002,91975.94000000025,94977.355,99521.55000000038,109773.26500000073,115686.57500000064,117534.8100000001,123251.59000000077,128050.79000000023,133437.12000000052,137404.5050000004,139554.05500000052],"key_events":[57995.585000000574,58287.420000000566,59896.190000000395,60241.05000000054],"mouse_events":[10702.300000000832,21029.22000000035,23296.72500000015,29499.575000000725,36397.060000000245,51289.795000000595,56007.675000000745,68555.12500000077,75246.55500000062,83650.60500000072,88966.1500000002,91975.94000000025,94977.355,99521.55000000038,109773.26500000073,115686.57500000064,117534.8100000001,123251.59000000077,128050.79000000023,133437.12000000052,137404.5050000004,139554.05500000052,143649.79500000027],"straightlining":0.47619047619047616,"zigzagging":0.5,"honeypot":0,"survey":"sns","trial_type":"survey-template","trial_index":2,"time_elapsed":182432,"internal_node_id":"0.0-2.0","task_version":"prescreen-v0.3","browser_interactions":0,"infrequency":0},{"responses":{"Q05":"3","Q12":"0","Q07":"3","Q10":"1","Q08":"3","Q03":"3","Q04":"3","Q09":"0","Q02":"3","Q13":"0","Q11":"0","Q01":"3","Q06":"3"},"rt":79746.39000000025,"item_order":[4,11,6,9,7,2,3,8,1,12,10,0,5],"radio_events":[7188.1149999999325,11744.359999999695,14285.079999999667,17997.37499999994,20510.465000000317,25915.00999999972,30733.330000000016,35719.790000000095,52255.0799999999,55627.42999999956,59273.930000000284,66586.44000000006,71424.79499999993,76538.31999999966,78149.64499999952],"key_events":[],"mouse_events":[7188.1149999999325,11744.359999999695,14285.079999999667,17997.37499999994,20510.465000000317,25915.00999999972,30733.330000000016,35719.790000000095,52255.0799999999,55627.42999999956,59273.930000000284,66586.44000000006,71424.79499999993,76538.31999999966,78149.64499999952,79744.70000000019],"straightlining":0.6153846153846154,"zigzagging":0.5,"honeypot":0,"survey":"bisbas","trial_type":"survey-template","trial_index":3,"time_elapsed":262185,"internal_node_id":"0.0-3.0","task_version":"prescreen-v0.3","browser_interactions":0,"infrequency":0},{"responses":{"Q01":"3","Q02":"2","Q03":"3"},"rt":30115.300000000396,"radio_events":[11288.16000000009,21034.25500000047,26516.44000000035],"key_events":[],"mouse_events":[11288.16000000009,21034.25500000047,26516.44000000035,30113.82500000036],"survey":"map","page":1,"trial_type":"survey-map","trial_index":4,"time_elapsed":292307,"internal_node_id":"0.0-4.0","task_version":"prescreen-v0.3","browser_interactions":0},{"responses":{"Q04":"3","Q05":"1","Q06":"3"},"rt":49225.02999999962,"radio_events":[16038.349999999802,23321.3399999995,25834.65999999951,48118.29500000022],"key_events":[],"mouse_events":[16038.349999999802,23321.3399999995,25834.65999999951,46651.3649999997,48118.29500000022,49223.40499999974],"survey":"map","page":2,"trial_type":"survey-map","trial_index":5,"time_elapsed":341537,"internal_node_id":"0.0-5.0","task_version":"prescreen-v0.3","browser_interactions":0},{"responses":{"Q07":"2","Q08":"4","Q09":"0"},"rt":118921.82999999926,"radio_events":[68555.04999999993,72171.77999999962,117601.09999999986],"key_events":[],"mouse_events":[67606.21999999962,68555.04999999993,72171.77999999962,117601.09999999986,118920.44499999972],"survey":"map","page":3,"trial_type":"survey-map","trial_index":6,"time_elapsed":460463,"internal_node_id":"0.0-6.0","task_version":"prescreen-v0.3","browser_interactions":2},{"responses":{"Q10":"1","Q11":"1","Q12":"0","Q13":"0","Q16":"0","Q14":"2","Q15":"2"},"rt":58326.16000000056,"radio_events":[9057.850000000151,13966.47500000021,24675.229999999865,32674.105000000098,46207.08000000013,52142.26500000042,56026.75999999978],"key_events":[],"mouse_events":[9057.850000000151,13966.47500000021,24675.229999999865,32674.105000000098,44025.92499999993,44956.22000000003,46207.08000000013,52142.26500000042,56026.75999999978,58323.460000000545],"survey":"map","page":4,"trial_type":"survey-map","trial_index":7,"time_elapsed":518796,"internal_node_id":"0.0-7.0","task_version":"prescreen-v0.3","browser_interactions":0,"infrequency":0},{"view_history":[{"page_index":0,"viewing_time":3719.4700000000303},{"page_index":1,"viewing_time":5454.569999999891}],"rt":9174.560000000405,"trial_type":"instructions","trial_index":8,"time_elapsed":527973,"internal_node_id":"0.0-8.0","task_version":"prescreen-v0.3"},{"responses":{"01":"Yes","01_ages_12":"12","01_ages_13":"13","01_ages_14":"14","01_ages_15":"15","01_ages_16":"16","01_ages_17":"17","02":"Yes","02_ages_12":"12","02_ages_13":"13","02_ages_14":"14","02_ages_15":"15","02_ages_16":"16","02_ages_17":"17","03":"Yes","03_ages_12":"12","03_ages_13":"13","03_ages_14":"14","04":"Yes","04_ages_11":"11","04_ages_12":"12","04_ages_13":"13","05":"No","06":"Yes","06_ages_12":"12","06_ages_13":"13"},"rt":78638.21000000008,"item_order":[0,1,2,3,4,5],"radio_events":[8056.994999999879,30186.854999999865,45445.77500000014,55509.32999999984,59726.57999999949,70680.53499999945],"checkbox_events":[15461.075000000186,17435.94500000018,20486.675000000047,21385.569999999483,22138.98499999952,23146.469999999623,31929.269999999553,33150.28999999957,34305.08499999996,35400.63499999989,36213.27500000002,37739.01000000024,46775.77999999991,47744.16000000015,48779.630000000005,61897.5499999997,63442.53000000026,64861.72999999963,72246.07000000007,73536.84499999962],"key_events":[],"mouse_events":[0.43499999993946403,8056.994999999879,15461.075000000186,17435.94500000018,20486.675000000047,21385.569999999483,22138.98499999952,23146.469999999623,30186.854999999865,31929.269999999553,33150.28999999957,34305.08499999996,35400.63499999989,36213.27500000002,37739.01000000024,45445.77500000014,46775.77999999991,47744.16000000015,48779.630000000005,55509.32999999984,59726.57999999949,61897.5499999997,63442.53000000026,64861.72999999963,70680.53499999945,72246.07000000007,73536.84499999962,78632.79999999935],"honeypot":0,"survey":"mace","page":1,"trial_type":"survey-mace","trial_index":9,"time_elapsed":606626,"internal_node_id":"0.0-9.0","task_version":"prescreen-v0.3","browser_interactions":0},{"responses":{"01":"No","02":"No","03":"No","04":"No","05":"No","06":"Yes","06_ages_12":"12","06_ages_13":"13","07":"No","08":"No"},"rt":46565.05000000016,"item_order":[0,1,2,3,4,5,6,7],"radio_events":[7223.8699999997625,16810.80500000005,18699.284999999683,21116.245000000228,25724.229999999865,26977.31500000006,43415.91999999946,45420.309999999474],"checkbox_events":[30360.834999999497,31338.36499999964],"key_events":[],"mouse_events":[7223.8699999997625,16810.80500000005,18699.284999999683,21116.245000000228,25724.229999999865,26977.31500000006,30360.834999999497,31338.36499999964,43415.91999999946,45420.309999999474,46557.32999999961],"honeypot":0,"survey":"mace","page":2,"trial_type":"survey-mace","trial_index":10,"time_elapsed":653201,"internal_node_id":"0.0-10.0","task_version":"prescreen-v0.3","browser_interactions":0},{"responses":{"01":"No","02":"No","03":"No","04":"No"},"rt":11217.179999999702,"item_order":[0,1,2,3],"radio_events":[3828.0699999995995,7144.875,9121.869999999995,10247.839999999967],"checkbox_events":[],"key_events":[],"mouse_events":[3828.0699999995995,7144.875,9121.869999999995,10247.839999999967,11214.060000000289],"honeypot":0,"survey":"mace","page":3,"trial_type":"survey-mace","trial_index":11,"time_elapsed":664427,"internal_node_id":"0.0-11.0","task_version":"prescreen-v0.3","browser_interactions":0},{"responses":{"01":"No","02":"No"},"rt":6569.960000000661,"item_order":[0,1],"radio_events":[4092.520000000135,5148.5800000000745],"checkbox_events":[],"key_events":[],"mouse_events":[4092.520000000135,5148.5800000000745,6568.185000000056],"honeypot":0,"survey":"mace","page":4,"trial_type":"survey-mace","trial_index":12,"time_elapsed":671002,"internal_node_id":"0.0-12.0","task_version":"prescreen-v0.3","browser_interactions":0},{"responses":{"01":"No","02":"No","03":"No","04":"No","05":"No"},"rt":29035.73999999941,"item_order":[0,1,2,3,4],"radio_events":[11313.59499999974,14737.679999999353,17839.00499999989,20802.24499999988,25733.854999999516],"checkbox_events":[],"key_events":[],"mouse_events":[11313.59499999974,14737.679999999353,17839.00499999989,20802.24499999988,25733.854999999516,29031.619999999763],"honeypot":0,"survey":"mace","page":5,"trial_type":"survey-mace","trial_index":13,"time_elapsed":700046,"internal_node_id":"0.0-13.0","task_version":"prescreen-v0.3","browser_interactions":0},{"responses":{"01":"Yes","01_ages_11":"11","01_ages_12":"12","01_ages_13":"13","02":"Yes","02_ages_11":"11","02_ages_12":"12","02_ages_13":"13","03":"Yes","03_ages_11":"11","03_ages_12":"12","03_ages_13":"13","04":"Yes","04_ages_11":"11","04_ages_12":"12","04_ages_13":"13","05":"No"},"rt":58768.43499999994,"item_order":[0,1,2,3,4],"radio_events":[19351.849999999977,31192.66499999957,41402.014999999665,50210.25999999978,57402.51499999978],"checkbox_events":[22396.160000000265,23528.92499999958,28503.81500000006,32759.495000000228,33640.87000000023,35529.59499999997,42938.30999999959,44660.47499999963,46598.18499999982,51423.23000000033,52479.655000000144,53410.11499999964],"key_events":[],"mouse_events":[19351.849999999977,22396.160000000265,23528.92499999958,28503.81500000006,31192.66499999957,32759.495000000228,33640.87000000023,34737.06500000029,35529.59499999997,41402.014999999665,42938.30999999959,43857.42500000016,44660.47499999963,46598.18499999982,50210.25999999978,51423.23000000033,52479.655000000144,53410.11499999964,57402.51499999978,58762.77000000025],"honeypot":0,"survey":"mace","page":6,"trial_type":"survey-mace","trial_index":14,"time_elapsed":758822,"internal_node_id":"0.0-14.0","task_version":"prescreen-v0.3","browser_interactions":0},{"responses":{"01":"No","02":"No","03":"Yes","03_ages_8":"8","03_ages_9":"9","03_ages_10":"10","04":"No","05":"No","06":"Yes","06_ages_10":"10","07":"Yes","07_ages_10":"10"},"rt":84962.9299999997,"item_order":[0,1,2,3,4,5,6],"radio_events":[6513.6849999999395,10289.060000000056,17415.425000000163,42052.46999999962,44950.17499999993,53054.36999999988,59416.854999999516,67826.18000000005],"checkbox_events":[57673.154999999446,60533.23999999976,75836.98499999987,76714.37499999953,77910.28000000003],"key_events":[],"mouse_events":[6513.6849999999395,10289.060000000056,17415.425000000163,42052.46999999962,44950.17499999993,53054.36999999988,57673.154999999446,59416.854999999516,60533.23999999976,67826.18000000005,75836.98499999987,76714.37499999953,77910.28000000003,84957.59499999986],"honeypot":0,"survey":"mace","page":7,"trial_type":"survey-mace","trial_index":15,"time_elapsed":843796,"internal_node_id":"0.0-15.0","task_version":"prescreen-v0.3","browser_interactions":0},{"responses":{"01":"Yes","01_ages_11":"11","01_ages_12":"12","01_ages_13":"13","01_ages_14":"14","02":"No","03":"Yes","03_ages_11":"11","03_ages_12":"12","03_ages_13":"13","03_ages_14":"14","03_ages_15":"15","03_ages_16":"16","03_ages_17":"17","03_ages_18":"18","04":"Yes","04_ages_11":"11","04_ages_12":"12","04_ages_13":"13","04_ages_14":"14","04_ages_15":"15","04_ages_16":"16","04_ages_17":"17","04_ages_18":"18"},"rt":141493.4299999996,"item_order":[0,1,2,3],"radio_events":[19702.28499999945,22647.66499999957,101781.36499999987,126446.00499999977],"checkbox_events":[26604.279999999562,27671.379999999772,29619.699999999255,30775.38999999978,108243.41499999992,112501.70499999973,113412.86499999929,114852.75499999989,116106.4900000001,117114.93999999948,118163.53999999957,118878.29499999958,119651.50999999966,120543.52500000002,129473.79999999981,131666.44499999983,132656.50999999978,133322.96499999939,134916.8099999997,135820.1749999998,136710.26999999955,137660.3449999994],"key_events":[],"mouse_events":[19702.28499999945,22647.66499999957,26604.279999999562,27671.379999999772,29619.699999999255,30775.38999999978,101781.36499999987,108243.41499999992,110559.95999999961,110974.54500000004,112501.70499999973,113412.86499999929,114103.78499999933,114158.43499999936,114852.75499999989,116106.4900000001,117114.93999999948,118163.53999999957,118878.29499999958,119651.50999999966,120543.52500000002,126446.00499999977,129473.79999999981,131666.44499999983,132656.50999999978,133322.96499999939,134190.81499999994,134916.8099999997,135820.1749999998,136710.26999999955,137660.3449999994,141489.34000000008],"honeypot":0,"survey":"mace","page":8,"trial_type":"survey-mace","trial_index":16,"time_elapsed":985297,"internal_node_id":"0.0-16.0","task_version":"prescreen-v0.3","browser_interactions":0},{"responses":{"01":"Yes","01_ages_1":"1","01_ages_2":"2","01_ages_3":"3","01_ages_4":"4","01_ages_5":"5","01_ages_6":"6","01_ages_7":"7","01_ages_8":"8","01_ages_9":"9","01_ages_10":"10","02":"Yes","02_ages_1":"1","02_ages_2":"2","02_ages_3":"3","02_ages_4":"4","02_ages_5":"5","02_ages_6":"6","02_ages_7":"7","02_ages_8":"8","02_ages_9":"9","02_ages_10":"10","03":"Yes","03_ages_1":"1","03_ages_2":"2","03_ages_3":"3","03_ages_4":"4","03_ages_5":"5","03_ages_6":"6","03_ages_7":"7","03_ages_8":"8","03_ages_9":"9","03_ages_10":"10","03_ages_14":"14","03_ages_15":"15","03_ages_16":"16","03_ages_17":"17","03_ages_18":"18","04":"Yes","04_ages_1":"1","04_ages_2":"2","04_ages_3":"3","04_ages_4":"4","04_ages_5":"5","04_ages_6":"6","04_ages_7":"7","04_ages_8":"8","04_ages_9":"9","04_ages_10":"10","04_ages_14":"14","04_ages_15":"15","04_ages_16":"16","04_ages_17":"17","04_ages_18":"18"},"rt":126344.61999999976,"item_order":[0,1,2,3],"radio_events":[23607.530000000144,62381.87500000012,88682.13999999978,108392.94499999948],"checkbox_events":[28741.39000000013,29778.739999999758,30924.97999999975,31756.910000000033,32676.02499999979,33421.4599999995,34294.51499999955,35233.07000000018,35997.48499999987,36810.150000000256,40776.51499999955,41667.41499999992,42692.91999999946,43438.54000000004,44329.794999999576,71992.29999999993,72923.72499999974,73785.0900000002,74500.2999999997,76066.40499999945,76820.82499999984,77946.49000000034,78710.38500000036,79846.33000000019,80767.79499999981,82070.27999999991,82910.92500000016,83833.30500000005,84489.23999999987,85195.3000000004,90828.4249999997,92513.80999999947,93346.22500000021,95500.48999999941,96441.02999999991,97784.16000000003,98674.75000000012,99968.5899999995,100908.80000000016,101614.88999999978,110077.53499999933,111096.95000000007,111812.51499999955,112702.45999999961,113525.86999999953,114271.245,115955.92500000016,116867.3650000001,117621.005,119142.85999999999],"key_events":[],"mouse_events":[23607.530000000144,28741.39000000013,29778.739999999758,30924.97999999975,31756.910000000033,32676.02499999979,33421.4599999995,34294.51499999955,35233.07000000018,35997.48499999987,36810.150000000256,40776.51499999955,41667.41499999992,42692.91999999946,43438.54000000004,44329.794999999576,62381.87500000012,71992.29999999993,72923.72499999974,73785.0900000002,74500.2999999997,76066.40499999945,76820.82499999984,77946.49000000034,78710.38500000036,79846.33000000019,80767.79499999981,82070.27999999991,82910.92500000016,83833.30500000005,84489.23999999987,85195.3000000004,88682.13999999978,90828.4249999997,92513.80999999947,93346.22500000021,94805.60999999952,95500.48999999941,96441.02999999991,97784.16000000003,98674.75000000012,99968.5899999995,100908.80000000016,101614.88999999978,108392.94499999948,110077.53499999933,111096.95000000007,111812.51499999955,112702.45999999961,113525.86999999953,114271.245,115181.30000000016,115955.92500000016,116867.3650000001,117621.005,118424.57999999996,119142.85999999999,126340.10999999999],"honeypot":0,"survey":"mace","page":9,"trial_type":"survey-mace","trial_index":17,"time_elapsed":1111649,"internal_node_id":"0.0-17.0","task_version":"prescreen-v0.3","browser_interactions":0},{"responses":{"01":"No","02":"No","03":"Yes","03_ages_14":"14","03_ages_15":"15","03_ages_16":"16","03_ages_17":"17","03_ages_18":"18","04":"Yes","04_ages_1":"1","04_ages_2":"2","04_ages_3":"3","04_ages_4":"4","04_ages_5":"5","04_ages_6":"6","04_ages_7":"7","04_ages_8":"8","04_ages_9":"9","04_ages_10":"10","04_ages_11":"11","04_ages_12":"12","04_ages_13":"13","04_ages_14":"14","04_ages_15":"15","05":"Yes","05_ages_12":"12","05_ages_13":"13","06":"Yes","06_ages_17":"17","07":"No","08":"No"},"rt":169400.07499999972,"item_order":[0,1,2,3,4,5,6,7],"radio_events":[7185.050000000047,13740.324999999953,38867.134999999544,47241.739999999525,73022.14500000002,74546.24499999965,78730.79999999935,87999.39999999967,89626.66999999969,103794.32000000007,115218.69999999949,148989.70500000007,149347.8999999999],"checkbox_events":[17913.199999999953,18804.22499999986,19744.60499999998,20470.264999999898,21341.690000000177,22282.23499999987,23066.224999999627,24074.73999999999,24849.06499999948,25514.95499999984,26249.595000000205,26935.45499999984,27797.029999999795,29453.509999999544,30511.310000000056,49388.34499999951,92996.84999999963,94672.41000000015,125367.86500000022,128042.98999999999,151459.2050000003,154829.89500000002,157291.38999999943,158946.8449999995,160319.02000000002,161023.90500000003,166343.8049999997],"key_events":[],"mouse_events":[7185.050000000047,13740.324999999953,17913.199999999953,18804.22499999986,19744.60499999998,20470.264999999898,21341.690000000177,22282.23499999987,23066.224999999627,24074.73999999999,24849.06499999948,25514.95499999984,26249.595000000205,26935.45499999984,27797.029999999795,29453.509999999544,30511.310000000056,38867.134999999544,47241.739999999525,49388.34499999951,73022.14500000002,74546.24499999965,78730.79999999935,87999.39999999967,89626.66999999969,92996.84999999963,94672.41000000015,103794.32000000007,115218.69999999949,125367.86500000022,128042.98999999999,142103.01999999955,148989.70500000007,149347.8999999999,151459.2050000003,154829.89500000002,157291.38999999943,158102.95499999938,158946.8449999995,160319.02000000002,161023.90500000003,166343.8049999997,169392.97499999986],"honeypot":0,"survey":"mace","page":10,"trial_type":"survey-mace","trial_index":18,"time_elapsed":1281060,"internal_node_id":"0.0-18.0","task_version":"prescreen-v0.3","browser_interactions":0,"instructed":0},{"rt":15232.095000000205,"trial_type":"mental-health-alert","trial_index":19,"time_elapsed":1296296,"internal_node_id":"0.0-19.0","task_version":"prescreen-v0.3","interactions":"[{\"event\":\"blur\",\"trial\":6,\"time\":424148},{\"event\":\"focus\",\"trial\":6,\"time\":425507}]"}]