[{"view_history":[{"page_index":0,"viewing_time":9126},{"page_index":1,"viewing_time":7447},{"page_index":2,"viewing_time":8632},{"page_index":3,"viewing_time":2072}],"rt":27277,"trial_type":"instructions","trial_index":0,"time_elapsed":27281,"internal_node_id":"0.0-0.0","task_version":"prescreen-v0.3"},{"rt":20869,"responses":{"age":"37","gender-categorical":"Male","gender-free-response":"","ethnicity":"Not Hispanic or Latino","race":["White"],"education":"Bachelor degree","siblings":"1"},"trial_type":"survey-demo","trial_index":1,"time_elapsed":48169,"internal_node_id":"0.0-1.0","task_version":"prescreen-v0.3"},{"responses":{"Q12":"0","Q16":"2","Q14":"2","Q15":"2","Q11":"1","Q19":"2","Q08":"1","Q09":"2","Q04":"1","Q05":"2","Q02":"1","Q18":"1","Q03":"1","Q13":"1","Q06":"1","Q17":"2","Q01":"1","Q07":"1","Q20":"1","Q21":"3","Q10":"0"},"rt":164308,"item_order":[11,15,13,14,10,18,7,8,3,4,1,17,2,12,5,16,0,6,19,20,9],"radio_events":[8421,13555,21467,27466,31210,41146,45146,46538,54386,59438,70833,74474,94465,99722,113153,122208,125504,131889,140088,148503,152656,159367],"key_events":[],"mouse_events":[8421,13555,21467,27466,31210,41146,45146,46538,54386,59438,70833,74474,94465,99722,113153,122208,125504,131889,139442,140088,148503,152656,159367,162127,164308],"straightlining":0.5238095238095238,"zigzagging":0.5,"honeypot":0,"survey":"sns","trial_type":"survey-template","trial_index":2,"time_elapsed":212494,"internal_node_id":"0.0-2.0","task_version":"prescreen-v0.3","browser_interactions":0,"infrequency":0},{"responses":{"Q11":"2","Q09":"2","Q01":"2","Q07":"2","Q03":"2","Q12":"2","Q02":"2","Q08":"2","Q10":"2","Q06":"2","Q13":"0","Q05":"2","Q04":"3"},"rt":75983,"item_order":[10,8,0,6,2,11,1,7,9,5,12,4,3],"radio_events":[7093,12853,17333,19678,27221,35781,38300,42324,48836,53244,58387,66355,73331,74907],"key_events":[],"mouse_events":[7093,12853,17333,19678,27221,35781,38300,42324,48836,53244,58387,66355,73331,74907,75983],"straightlining":0.8461538461538461,"zigzagging":0.08333333333333333,"honeypot":0,"survey":"bisbas","trial_type":"survey-template","trial_index":3,"time_elapsed":288488,"internal_node_id":"0.0-3.0","task_version":"prescreen-v0.3","browser_interactions":0,"infrequency":0},{"responses":{"Q01":"2","Q02":"2","Q03":"2"},"rt":47548,"radio_events":[9541,17476,46019],"key_events":[],"mouse_events":[9541,17476,46019,47548],"survey":"map","page":1,"trial_type":"survey-map","trial_index":4,"time_elapsed":336046,"internal_node_id":"0.0-4.0","task_version":"prescreen-v0.3","browser_interactions":0},{"responses":{"Q04":"2","Q05":"2","Q06":"2"},"rt":61312,"radio_events":[47055,53487,60574],"key_events":[],"mouse_events":[47055,53487,60574,61312],"survey":"map","page":2,"trial_type":"survey-map","trial_index":5,"time_elapsed":397361,"internal_node_id":"0.0-5.0","task_version":"prescreen-v0.3","browser_interactions":0},{"responses":{"Q07":"1","Q08":"0","Q09":"2"},"rt":26908,"radio_events":[9035,15532,25843],"key_events":[],"mouse_events":[9035,15532,25843,26908],"survey":"map","page":3,"trial_type":"survey-map","trial_index":6,"time_elapsed":424273,"internal_node_id":"0.0-6.0","task_version":"prescreen-v0.3","browser_interactions":0},{"responses":{"Q10":"1","Q11":"2","Q12":"0","Q13":"0","Q16":"0","Q14":"1","Q15":"1"},"rt":75611,"radio_events":[10427,18981,29492,53866,61105,66722,72425,74674],"key_events":[],"mouse_events":[10427,17844,18981,29492,53866,61105,66722,72425,74674,75611],"survey":"map","page":4,"trial_type":"survey-map","trial_index":7,"time_elapsed":499888,"internal_node_id":"0.0-7.0","task_version":"prescreen-v0.3","browser_interactions":0,"infrequency":0},{"view_history":[{"page_index":0,"viewing_time":4643},{"page_index":1,"viewing_time":6040}],"rt":10684,"trial_type":"instructions","trial_index":8,"time_elapsed":510573,"internal_node_id":"0.0-8.0","task_version":"prescreen-v0.3"},{"responses":{"01":"No","02":"No","03":"No","04":"No","05":"No","06":"No"},"rt":38396,"item_order":[0,1,2,3,4,5],"radio_events":[15583,21175,25134,27983,30223,37207],"checkbox_events":[],"key_events":[],"mouse_events":[1,15583,21175,25134,27231,27983,29150,30223,37207,38395],"honeypot":0,"survey":"mace","page":1,"trial_type":"survey-mace","trial_index":9,"time_elapsed":548980,"internal_node_id":"0.0-9.0","task_version":"prescreen-v0.3","browser_interactions":0},{"responses":{"01":"No","02":"No","03":"No","04":"No","05":"No","06":"No","07":"No","08":"No"},"rt":69896,"item_order":[0,1,2,3,4,5,6,7],"radio_events":[6101,10156,17365,25982,31150,35716,62004,63821,64476],"checkbox_events":[],"key_events":[],"mouse_events":[6101,10156,17365,25982,31150,35716,62004,63821,64476,69895],"honeypot":0,"survey":"mace","page":2,"trial_type":"survey-mace","trial_index":10,"time_elapsed":618889,"internal_node_id":"0.0-10.0","task_version":"prescreen-v0.3","browser_interactions":0},{"responses":{"01":"No","02":"No","03":"No","04":"No"},"rt":13693,"item_order":[0,1,2,3],"radio_events":[6714,7217,8785,10417],"checkbox_events":[],"key_events":[],"mouse_events":[6714,7217,8785,10417,13693],"honeypot":0,"survey":"mace","page":3,"trial_type":"survey-mace","trial_index":11,"time_elapsed":632591,"internal_node_id":"0.0-11.0","task_version":"prescreen-v0.3","browser_interactions":0},{"responses":{"01":"No","02":"No"},"rt":12992,"item_order":[0,1],"radio_events":[8501,11325],"checkbox_events":[],"key_events":[],"mouse_events":[8501,11325,12991],"honeypot":0,"survey":"mace","page":4,"trial_type":"survey-mace","trial_index":12,"time_elapsed":645590,"internal_node_id":"0.0-12.0","task_version":"prescreen-v0.3","browser_interactions":0},{"responses":{"01":"No","02":"No","03":"No","04":"No","05":"No"},"rt":27371,"item_order":[0,1,2,3,4],"radio_events":[9868,13212,17508,21571,23932],"checkbox_events":[],"key_events":[],"mouse_events":[9155,9868,12500,13212,17508,20700,21571,22572,23932,27370],"honeypot":0,"survey":"mace","page":5,"trial_type":"survey-mace","trial_index":13,"time_elapsed":672970,"internal_node_id":"0.0-13.0","task_version":"prescreen-v0.3","browser_interactions":0},{"responses":{"01":"Yes","01_ages_16":"16","01_ages_17":"17","02":"Yes","02_ages_16":"16","02_ages_17":"17","03":"Yes","03_ages_16":"16","03_ages_17":"17","04":"Yes","04_ages_16":"16","04_ages_17":"17","05":"Yes","05_ages_16":"16","05_ages_17":"17"},"rt":53927,"item_order":[0,1,2,3,4],"radio_events":[22401,34752,39976,44704,50200],"checkbox_events":[27776,28904,35968,36456,41168,41655,45968,46535,51439,52324],"key_events":[],"mouse_events":[22401,27776,28904,34752,35968,36456,39976,41168,41655,44704,45968,46535,50200,51439,51815,52324,53927],"honeypot":0,"survey":"mace","page":6,"trial_type":"survey-mace","trial_index":14,"time_elapsed":726914,"internal_node_id":"0.0-14.0","task_version":"prescreen-v0.3","browser_interactions":0},{"responses":{"01":"No","02":"No","03":"No","04":"No","05":"No","06":"No","07":"No"},"rt":31686,"item_order":[0,1,2,3,4,5,6],"radio_events":[6377,15289,16161,20105,26617,29417,31056],"checkbox_events":[],"key_events":[],"mouse_events":[6377,15289,16161,16795,17480,20105,26617,29417,31056,31686],"honeypot":0,"survey":"mace","page":7,"trial_type":"survey-mace","trial_index":15,"time_elapsed":758614,"internal_node_id":"0.0-15.0","task_version":"prescreen-v0.3","browser_interactions":0},{"responses":{"01":"No","02":"Yes","02_ages_12":"12","02_ages_13":"13","02_ages_14":"14","02_ages_15":"15","03":"No","04":"No"},"rt":55469,"item_order":[0,1,2,3],"radio_events":[13627,24828,48683,53699],"checkbox_events":[29899,30762,33883,41555],"key_events":[],"mouse_events":[13627,24828,29899,30762,33883,41555,48683,53699,55469],"honeypot":0,"survey":"mace","page":8,"trial_type":"survey-mace","trial_index":16,"time_elapsed":814100,"internal_node_id":"0.0-16.0","task_version":"prescreen-v0.3","browser_interactions":0},{"responses":{"01":"Yes","01_ages_1":"1","01_ages_2":"2","01_ages_3":"3","01_ages_4":"4","01_ages_5":"5","01_ages_6":"6","01_ages_7":"7","01_ages_8":"8","01_ages_9":"9","01_ages_10":"10","01_ages_11":"11","01_ages_12":"12","01_ages_13":"13","01_ages_14":"14","01_ages_15":"15","01_ages_16":"16","01_ages_17":"17","01_ages_18":"18","02":"Yes","02_ages_1":"1","02_ages_2":"2","02_ages_3":"3","02_ages_4":"4","02_ages_5":"5","02_ages_6":"6","02_ages_7":"7","02_ages_8":"8","02_ages_9":"9","02_ages_10":"10","02_ages_11":"11","02_ages_12":"12","02_ages_13":"13","02_ages_14":"14","02_ages_15":"15","02_ages_16":"16","02_ages_17":"17","02_ages_18":"18","03":"Yes","03_ages_1":"1","03_ages_2":"2","03_ages_3":"3","03_ages_4":"4","03_ages_5":"5","03_ages_6":"6","03_ages_7":"7","03_ages_8":"8","03_ages_9":"9","03_ages_10":"10","03_ages_11":"11","03_ages_12":"12","03_ages_13":"13","03_ages_14":"14","03_ages_15":"15","03_ages_16":"16","03_ages_17":"17","03_ages_18":"18","04":"Yes","04_ages_1":"1","04_ages_2":"2","04_ages_3":"3","04_ages_4":"4","04_ages_5":"5","04_ages_6":"6","04_ages_7":"7","04_ages_8":"8","04_ages_9":"9","04_ages_10":"10","04_ages_11":"11","04_ages_12":"12","04_ages_13":"13","04_ages_14":"14","04_ages_15":"15","04_ages_16":"16","04_ages_17":"17","04_ages_18":"18"},"rt":98735,"item_order":[0,1,2,3],"radio_events":[6115,28114,52770,74856],"checkbox_events":[8698,9474,13810,15441,15858,16786,17498,18162,18818,19170,20521,21233,21818,22418,22798,23426,23819,24538,29234,29948,30650,31945,32529,33297,33905,34474,35282,35890,36785,38091,40817,41546,41978,42545,43201,43730,54153,54665,55825,56241,57328,58033,58641,59465,59897,60401,60897,61545,62490,64392,65352,65913,66608,67712,81456,82201,82712,83137,84840,85552,86920,87504,87952,88480,89152,89696,90137,92136,93168,93680,97176,97936],"key_events":[],"mouse_events":[6115,8698,9474,13810,15441,15858,16353,16786,17114,17498,18162,18818,19170,19690,20521,21233,21818,22418,22798,23426,23819,24538,28114,29234,29657,29948,30650,31025,31945,32529,33297,33905,34474,35282,35890,36785,38091,40817,41546,41978,42545,43201,43730,52770,54153,54665,55505,55825,56241,56712,57328,58033,58641,59465,59897,60401,60897,61545,62097,62490,64392,65352,65913,66608,66984,67712,74856,81456,82201,82712,83137,83929,84840,85297,85552,86920,87504,87952,88480,89152,89696,90137,92136,93168,93680,97176,97936,98734],"honeypot":0,"survey":"mace","page":9,"trial_type":"survey-mace","trial_index":17,"time_elapsed":912865,"internal_node_id":"0.0-17.0","task_version":"prescreen-v0.3","browser_interactions":0},{"responses":{"01":"No","02":"No","03":"No","04":"No","05":"No","06":"Yes","06_ages_17":"17","07":"Yes","07_ages_1":"1","07_ages_2":"2","07_ages_3":"3","07_ages_4":"4","07_ages_5":"5","07_ages_6":"6","07_ages_7":"7","07_ages_8":"8","07_ages_9":"9","07_ages_10":"10","07_ages_11":"11","07_ages_12":"12","07_ages_13":"13","07_ages_14":"14","07_ages_15":"15","07_ages_16":"16","07_ages_17":"17","07_ages_18":"18","08":"Yes","08_ages_1":"1","08_ages_2":"2","08_ages_3":"3","08_ages_4":"4","08_ages_5":"5","08_ages_6":"6","08_ages_7":"7","08_ages_8":"8","08_ages_9":"9","08_ages_10":"10","08_ages_11":"11","08_ages_12":"12","08_ages_13":"13","08_ages_14":"14","08_ages_15":"15","08_ages_16":"16","08_ages_17":"17","08_ages_18":"18"},"rt":62962,"item_order":[0,1,2,3,4,5,6,7],"radio_events":[6439,7958,12597,17261,21381,24510,30381,47876],"checkbox_events":[26461,32763,33221,33605,34013,34725,35133,36301,36789,37901,38622,39381,39973,40461,40885,42149,42790,43357,45333,50964,51397,52733,53124,53621,54189,54620,54973,55533,55908,57117,58508,59292,60045,60684,61388,61821,62348],"key_events":[],"mouse_events":[6439,7958,12597,17261,21381,24021,24510,26461,30381,32763,33221,33605,34013,34406,34725,35133,35645,36301,36789,37461,37901,38622,39381,39973,40461,40885,41389,42149,42790,43357,44157,45333,47876,50964,51397,52348,52733,53124,53621,54189,54620,54973,55533,55908,56420,56847,57117,58508,59292,59764,60045,60684,61388,61821,62348,62962],"honeypot":0,"survey":"mace","page":10,"trial_type":"survey-mace","trial_index":18,"time_elapsed":975848,"internal_node_id":"0.0-18.0","task_version":"prescreen-v0.3","browser_interactions":0,"instructed":0},{"rt":23314,"trial_type":"mental-health-alert","trial_index":19,"time_elapsed":999173,"internal_node_id":"0.0-19.0","task_version":"prescreen-v0.3","interactions":"[{\"event\":\"focus\",\"trial\":0,\"time\":2}]"}]