[{"view_history":[{"page_index":0,"viewing_time":4998.399999976158},{"page_index":1,"viewing_time":5520.5},{"page_index":2,"viewing_time":5727.300000011921},{"page_index":3,"viewing_time":1240.300000011921}],"rt":17487.30000001192,"trial_type":"instructions","trial_index":0,"time_elapsed":17503,"internal_node_id":"0.0-0.0","task_version":"prescreen-v0.3"},{"rt":40147.40000003576,"responses":{"age":"24","gender-categorical":"Female","gender-free-response":"","ethnicity":"Not Hispanic or Latino","race":["Black or African American"],"education":"Master degree or higher"},"trial_type":"survey-demo","trial_index":1,"time_elapsed":57656,"internal_node_id":"0.0-1.0","task_version":"prescreen-v0.3"},{"responses":{"Q10":"0","Q17":"1","Q15":"2","Q13":"1","Q03":"1","Q01":"2","Q06":"1","Q20":"1","Q04":"1","Q11":"1","Q16":"1","Q12":"2","Q09":"1","Q18":"1","Q21":"3","Q07":"0","Q08":"2","Q14":"2","Q05":"2","Q19":"1","Q02":"2"},"rt":296765.1999999881,"item_order":[9,16,14,12,2,0,5,19,3,10,15,11,8,17,20,6,7,13,4,18,1],"radio_events":[32947.59999996424,34235.39999997616,44363.39999997616,52235.39999997616,65235.5,70811.69999998808,75827.5,80427.5,102435.80000001192,115547.5,121315.30000001192,129891.39999997616,143147.39999997616,150795.30000001192,160452,166627.30000001192,174587.59999996424,201147.69999998808,206507.39999997616,214323.59999996424,220235.59999996424,237179.09999996424,256803.59999996424,272931.8000000119,295780.3000000119],"key_events":[],"mouse_events":[7203.399999976158,11283.199999988079,32947.59999996424,34235.39999997616,44363.39999997616,52235.39999997616,65235.5,70811.69999998808,75827.5,80427.5,102435.80000001192,115547.5,121315.30000001192,129891.39999997616,143147.39999997616,150795.30000001192,160452,166627.30000001192,174587.59999996424,196491.39999997616,201147.69999998808,206507.39999997616,214323.59999996424,220235.59999996424,237179.09999996424,256803.59999996424,272931.8000000119,295780.3000000119,296763.6999999881],"straightlining":0.5238095238095238,"zigzagging":0.5,"honeypot":0,"survey":"sns","trial_type":"survey-template","trial_index":2,"time_elapsed":354425,"internal_node_id":"0.0-2.0","task_version":"prescreen-v0.3","browser_interactions":0,"infrequency":0},{"responses":{"Q01":"3","Q10":"2","Q07":"2","Q03":"3","Q12":"1","Q11":"3","Q09":"2","Q02":"2","Q06":"3","Q13":"0","Q04":"3","Q08":"3","Q05":"3"},"rt":141915.69999998808,"item_order":[0,9,6,2,11,10,8,1,5,12,3,7,4],"radio_events":[12985.5,18065.69999998808,25378.099999964237,31705.399999976158,46913.5,62625.5,73122.19999998808,79458.19999998808,94922.09999996424,112617.5,116201.5,126513.39999997616,139897.5,140881.5],"key_events":[],"mouse_events":[12985.5,18065.69999998808,25378.099999964237,31705.399999976158,46913.5,62625.5,73122.19999998808,79458.19999998808,94922.09999996424,112617.5,116201.5,126041.5,126513.39999997616,137306,139897.5,140377.5,140881.5,141914.29999995232],"straightlining":0.5384615384615384,"zigzagging":0.5,"honeypot":0,"survey":"bisbas","trial_type":"survey-template","trial_index":3,"time_elapsed":496345,"internal_node_id":"0.0-3.0","task_version":"prescreen-v0.3","browser_interactions":0,"infrequency":0},{"responses":{"Q01":"3","Q02":"3","Q03":"2"},"rt":50488.5,"radio_events":[11432.400000035763,12760,33455.90000003576,37696.10000002384,47832.19999998808],"key_events":[],"mouse_events":[11432.400000035763,12512.100000023842,12760,33455.90000003576,37696.10000002384,47832.19999998808,50488.10000002384],"survey":"map","page":1,"trial_type":"survey-map","trial_index":4,"time_elapsed":546838,"internal_node_id":"0.0-4.0","task_version":"prescreen-v0.3","browser_interactions":0},{"responses":{"Q04":"2","Q05":"2","Q06":"2"},"rt":32406.5,"radio_events":[3526.100000023842,5621.900000035763,16973.900000035763,18693.30000001192,21742.69999998808,31485.80000001192],"key_events":[],"mouse_events":[981.5,3526.100000023842,5621.900000035763,16973.900000035763,18693.30000001192,21742.69999998808,31485.80000001192,32406],"survey":"map","page":2,"trial_type":"survey-map","trial_index":5,"time_elapsed":579246,"internal_node_id":"0.0-5.0","task_version":"prescreen-v0.3","browser_interactions":0},{"responses":{"Q07":"4","Q08":"0","Q09":"3"},"rt":32925.5,"radio_events":[18069.30000001192,25269.19999998808,30709.80000001192],"key_events":[],"mouse_events":[18069.30000001192,25269.19999998808,30709.80000001192,32925.10000002384],"survey":"map","page":3,"trial_type":"survey-map","trial_index":6,"time_elapsed":612174,"internal_node_id":"0.0-6.0","task_version":"prescreen-v0.3","browser_interactions":0},{"responses":{"Q10":"2","Q11":"2","Q12":"1","Q13":"2","Q16":"0","Q14":"2","Q15":"2"},"rt":49510.69999998808,"radio_events":[6054.699999988079,10877.900000035763,17045.900000035763,28845.900000035763,36230,42174.10000002384,47709.90000003576],"key_events":[],"mouse_events":[6054.699999988079,10877.900000035763,17045.900000035763,28845.900000035763,36230,42174.10000002384,47709.90000003576,49509.90000003576],"survey":"map","page":4,"trial_type":"survey-map","trial_index":7,"time_elapsed":661685,"internal_node_id":"0.0-7.0","task_version":"prescreen-v0.3","browser_interactions":0,"infrequency":0},{"view_history":[{"page_index":0,"viewing_time":2981.199999988079},{"page_index":1,"viewing_time":4983.900000035763}],"rt":7965.800000011921,"trial_type":"instructions","trial_index":8,"time_elapsed":669651,"internal_node_id":"0.0-8.0","task_version":"prescreen-v0.3"},{"responses":{"01":"Yes","01_ages_6":"6","01_ages_7":"7","01_ages_8":"8","01_ages_9":"9","01_ages_10":"10","01_ages_11":"11","01_ages_12":"12","01_ages_13":"13","01_ages_14":"14","01_ages_15":"15","01_ages_16":"16","02":"Yes","02_ages_6":"6","02_ages_7":"7","02_ages_8":"8","02_ages_9":"9","02_ages_10":"10","02_ages_11":"11","02_ages_12":"12","02_ages_13":"13","02_ages_14":"14","02_ages_15":"15","02_ages_16":"16","03":"Yes","03_ages_9":"9","03_ages_10":"10","03_ages_14":"14","03_ages_15":"15","03_ages_16":"16","04":"No","05":"No","06":"Yes","06_ages_6":"6","06_ages_7":"7","06_ages_8":"8","06_ages_9":"9","06_ages_10":"10","06_ages_11":"11","06_ages_12":"12","06_ages_13":"13","06_ages_14":"14","06_ages_15":"15"},"rt":150262.80000001192,"item_order":[0,1,2,3,4,5],"radio_events":[10420.199999988079,41436.19999998808,84036.5,87181,98508.19999998808,102860.10000002384],"checkbox_events":[17300.80000001192,18117.100000023842,18644.5,19572.399999976158,22044,23508.19999998808,24124.5,24588.30000001192,27364.19999998808,31740.30000001192,45572.39999997616,48012,48812,59204.39999997616,61708.19999998808,63028.19999998808,65268.60000002384,66788.69999998808,73596.80000001192,74140.19999998808,75308,76612.60000002384,107164.60000002384,107820.30000001192,112548.39999997616,113036.19999998808,122116.19999998808,123532.10000002384,126276.5,139380.89999997616,139876.69999998808,140412.69999998808,140989.19999998808,141364.60000002384,141820.80000001192,142229.19999998808,143108,143531.89999997616,143948,144508.19999998808,145892.19999998808],"key_events":[],"mouse_events":[0.10000002384185791,10420.199999988079,17300.80000001192,18117.100000023842,18644.5,19076.100000023842,19572.399999976158,22044,23508.19999998808,24124.5,24588.30000001192,27364.19999998808,31740.30000001192,41436.19999998808,45572.39999997616,48012,48812,59204.39999997616,61708.19999998808,63028.19999998808,65268.60000002384,66101.30000001192,66788.69999998808,73596.80000001192,74140.19999998808,74588.30000001192,74932.19999998808,75308,76396.89999997616,76612.60000002384,84036.5,87181,98508.19999998808,102860.10000002384,107164.60000002384,107820.30000001192,112548.39999997616,113036.19999998808,122116.19999998808,123532.10000002384,126276.5,139380.89999997616,139876.69999998808,140412.69999998808,140989.19999998808,141364.60000002384,141820.80000001192,142229.19999998808,142652.10000002384,143108,143531.89999997616,143948,144508.19999998808,145892.19999998808,150261],"honeypot":0,"survey":"mace","page":1,"trial_type":"survey-mace","trial_index":9,"time_elapsed":819913,"internal_node_id":"0.0-9.0","task_version":"prescreen-v0.3","browser_interactions":0},{"responses":{"01":"No","02":"No","03":"Yes","03_ages_5":"5","03_ages_6":"6","03_ages_7":"7","03_ages_8":"8","03_ages_9":"9","03_ages_10":"10","03_ages_11":"11","03_ages_12":"12","03_ages_13":"13","03_ages_14":"14","03_ages_15":"15","04":"No","05":"No","06":"No","07":"No","08":"No"},"rt":62268.799999952316,"item_order":[0,1,2,3,4,5,6,7],"radio_events":[6842.299999952316,14306,17218.5,36434.299999952316,43746.799999952316,45410.69999998808,47802.19999998808,50210.799999952316],"checkbox_events":[19154.5,19618.299999952316,21834,22810.099999964237,23418.799999952316,24314.69999998808,24785.899999976158,25250.19999998808,26154.099999964237,26914.299999952316,59602.19999998808],"key_events":[],"mouse_events":[6842.299999952316,14306,16386.099999964237,17218.5,19154.5,19618.299999952316,21531,21834,22810.099999964237,23418.799999952316,23810.099999964237,24314.69999998808,24785.899999976158,25250.19999998808,26154.099999964237,26914.299999952316,36434.299999952316,43746.799999952316,45410.69999998808,47802.19999998808,50210.799999952316,59602.19999998808,62266.299999952316],"honeypot":0,"survey":"mace","page":2,"trial_type":"survey-mace","trial_index":10,"time_elapsed":882179,"internal_node_id":"0.0-10.0","task_version":"prescreen-v0.3","browser_interactions":0},{"responses":{"01":"No","02":"No","03":"No","04":"No"},"rt":14043.400000035763,"item_order":[0,1,2,3],"radio_events":[5034.100000023842,9938.5,11097.700000047684,12745.800000011921],"checkbox_events":[],"key_events":[],"mouse_events":[5034.100000023842,9938.5,11097.700000047684,12745.800000011921,14042.100000023842],"honeypot":0,"survey":"mace","page":3,"trial_type":"survey-mace","trial_index":11,"time_elapsed":896226,"internal_node_id":"0.0-11.0","task_version":"prescreen-v0.3","browser_interactions":0},{"responses":{"01":"No","02":"No"},"rt":8348.899999976158,"item_order":[0,1],"radio_events":[3899.699999988079,7619.5],"checkbox_events":[],"key_events":[],"mouse_events":[3899.699999988079,7619.5,8347.699999988079],"honeypot":0,"survey":"mace","page":4,"trial_type":"survey-mace","trial_index":12,"time_elapsed":904577,"internal_node_id":"0.0-12.0","task_version":"prescreen-v0.3","browser_interactions":0},{"responses":{"01":"No","02":"No","03":"No","04":"Yes","04_ages_17":"17","05":"No"},"rt":50308.30000001192,"item_order":[0,1,2,3,4],"radio_events":[9474.5,13154.600000023842,19058.899999976158,22714.600000023842,49394.60000002384],"checkbox_events":[36906.5],"key_events":[],"mouse_events":[9474.5,13154.600000023842,19058.899999976158,22714.600000023842,36906.5,49394.60000002384,50306.69999998808],"honeypot":0,"survey":"mace","page":5,"trial_type":"survey-mace","trial_index":13,"time_elapsed":954887,"internal_node_id":"0.0-13.0","task_version":"prescreen-v0.3","browser_interactions":0},{"responses":{"01":"Yes","01_ages_13":"13","01_ages_14":"14","02":"Yes","02_ages_13":"13","02_ages_14":"14","03":"Yes","03_ages_13":"13","03_ages_14":"14","04":"No","05":"No"},"rt":99734,"item_order":[0,1,2,3,4],"radio_events":[15579.100000023842,24963.100000023842,74187.69999998808,85427.30000001192,94635.40000003576,97715],"checkbox_events":[30651.19999998808,31139,31563.100000023842,32267.30000001192,32707.5,33387.40000003576,34211,36355.30000001192,36860,38395.90000003576,38771.80000001192,39171.19999998808,47099.30000001192,47995.10000002384,51323.60000002384,51827,52650.80000001192,53211.19999998808,54108.19999998808,54698.80000001192,58307.40000003576,58803.30000001192,60955.30000001192,61507.60000002384,66667,67715.60000002384,75467.19999998808,75923.60000002384,86731,88651.5],"key_events":[],"mouse_events":[15579.100000023842,24963.100000023842,30651.19999998808,31139,31563.100000023842,32267.30000001192,32707.5,33387.40000003576,34211,36355.30000001192,36860,37514.80000001192,38395.90000003576,38771.80000001192,39171.19999998808,47099.30000001192,47995.10000002384,48818.90000003576,51323.60000002384,51827,52650.80000001192,53211.19999998808,54108.19999998808,54698.80000001192,58307.40000003576,58803.30000001192,59859,60523.60000002384,60955.30000001192,61507.60000002384,66667,67211,67715.60000002384,74187.69999998808,75467.19999998808,75923.60000002384,85427.30000001192,86731,87131,88651.5,94635.40000003576,97715,99731.10000002384],"honeypot":0,"survey":"mace","page":6,"trial_type":"survey-mace","trial_index":14,"time_elapsed":1054622,"internal_node_id":"0.0-14.0","task_version":"prescreen-v0.3","browser_interactions":0},{"responses":{"01":"No","02":"No","03":"No","04":"No","05":"No","06":"No","07":"No"},"rt":22322,"item_order":[0,1,2,3,4,5,6],"radio_events":[5807.800000011921,8751.800000011921,10696,15487.800000011921,18127.600000023842,20080.399999976158,21383.600000023842],"checkbox_events":[],"key_events":[],"mouse_events":[5807.800000011921,8751.800000011921,10696,15487.800000011921,18127.600000023842,20080.399999976158,21383.600000023842,22319.80000001192],"honeypot":0,"survey":"mace","page":7,"trial_type":"survey-mace","trial_index":15,"time_elapsed":1076946,"internal_node_id":"0.0-15.0","task_version":"prescreen-v0.3","browser_interactions":0},{"responses":{"01":"No","02":"No","03":"Yes","03_ages_12":"12","03_ages_13":"13","03_ages_14":"14","03_ages_15":"15","03_ages_16":"16","03_ages_17":"17","04":"No"},"rt":32948,"item_order":[0,1,2,3],"radio_events":[8010.899999976158,10634.599999964237,14858.599999964237,31474.599999964237],"checkbox_events":[20666.299999952316,22171.69999998808,22826.799999952316,23514.5,24666.899999976158,26994.5],"key_events":[],"mouse_events":[8010.899999976158,10634.599999964237,14858.599999964237,20666.299999952316,21090.399999976158,21562.5,22171.69999998808,22826.799999952316,23514.5,24666.899999976158,26658.5,26994.5,31474.599999964237,32946.59999996424],"honeypot":0,"survey":"mace","page":8,"trial_type":"survey-mace","trial_index":16,"time_elapsed":1109897,"internal_node_id":"0.0-16.0","task_version":"prescreen-v0.3","browser_interactions":0},{"responses":{"01":"Yes","01_ages_1":"1","01_ages_2":"2","01_ages_3":"3","01_ages_4":"4","01_ages_5":"5","01_ages_6":"6","01_ages_7":"7","01_ages_8":"8","01_ages_9":"9","01_ages_10":"10","01_ages_11":"11","01_ages_12":"12","01_ages_13":"13","01_ages_14":"14","01_ages_15":"15","01_ages_16":"16","01_ages_17":"17","01_ages_18":"18","02":"Yes","02_ages_1":"1","02_ages_2":"2","02_ages_3":"3","02_ages_4":"4","02_ages_5":"5","02_ages_6":"6","02_ages_7":"7","02_ages_8":"8","02_ages_9":"9","02_ages_10":"10","02_ages_11":"11","02_ages_12":"12","02_ages_13":"13","02_ages_14":"14","02_ages_15":"15","02_ages_16":"16","02_ages_17":"17","02_ages_18":"18","03":"Yes","03_ages_1":"1","03_ages_2":"2","03_ages_3":"3","03_ages_4":"4","03_ages_5":"5","03_ages_6":"6","03_ages_7":"7","03_ages_8":"8","03_ages_9":"9","03_ages_10":"10","03_ages_11":"11","03_ages_12":"12","03_ages_13":"13","03_ages_14":"14","03_ages_15":"15","03_ages_16":"16","03_ages_17":"17","03_ages_18":"18","04":"Yes","04_ages_1":"1","04_ages_2":"2","04_ages_3":"3","04_ages_4":"4","04_ages_5":"5","04_ages_6":"6","04_ages_7":"7","04_ages_8":"8","04_ages_9":"9","04_ages_10":"10","04_ages_11":"11","04_ages_12":"12","04_ages_13":"13","04_ages_14":"14","04_ages_15":"15","04_ages_16":"16","04_ages_17":"17","04_ages_18":"18"},"rt":71389.60000002384,"item_order":[0,1,2,3],"radio_events":[6308.199999988079,23644,39844.10000002384,58556.10000002384],"checkbox_events":[8812,10140,10948.100000023842,11652.600000023842,13108.199999988079,13716.100000023842,14364,15244,15892.100000023842,16476.100000023842,17044.100000023842,17595.900000035763,18724,19356,19780.5,20236.100000023842,20740,21243.900000035763,24724.19999998808,25324.30000001192,26196,26620.400000035763,27324.19999998808,27724.100000023842,28627.80000001192,29372.69999998808,29755.900000035763,30021.30000001192,30595.80000001192,31140.19999998808,31731.80000001192,32276.100000023842,32892.10000002384,33980,34804.5,35284.5,35716.40000003576,36244.10000002384,41485,42203.80000001192,42748.40000003576,43580,44132.69999998808,44676,45540.19999998808,45987.80000001192,46637.30000001192,47772.10000002384,48196,48620.90000003576,49212.10000002384,49732.40000003576,50204.5,50819.90000003576,51700.40000003576,52187.69999998808,52643.90000003576,53059.80000001192,59900.40000003576,60517.69999998808,61284.60000002384,61675.90000003576,62100.60000002384,62636.30000001192,63259.90000003576,63924.10000002384,64420.60000002384,65132.5,66100.19999998808,66885.10000002384,67268.5,67772,68620.30000001192,69268.80000001192,69875.90000003576,70659.90000003576],"key_events":[],"mouse_events":[6308.199999988079,8500.400000035763,8812,9292.199999988079,9724.100000023842,10140,10684.600000023842,10948.100000023842,11652.600000023842,12220.5,12620.600000023842,13108.199999988079,13716.100000023842,14364,15244,15892.100000023842,16476.100000023842,17044.100000023842,17595.900000035763,18052.5,18724,19356,19780.5,20236.100000023842,20740,21243.900000035763,23644,24724.19999998808,25324.30000001192,25724.100000023842,26196,26620.400000035763,27324.19999998808,27724.100000023842,28292.100000023842,28627.80000001192,29372.69999998808,29755.900000035763,30021.30000001192,30595.80000001192,31140.19999998808,31731.80000001192,32276.100000023842,32892.10000002384,33492.19999998808,33980,34459.90000003576,34804.5,35284.5,35716.40000003576,36244.10000002384,39844.10000002384,40932.30000001192,41485,41907.90000003576,42203.80000001192,42748.40000003576,43300.40000003576,43580,44132.69999998808,44676,45164,45540.19999998808,45987.80000001192,46637.30000001192,47364,47772.10000002384,48196,48620.90000003576,49212.10000002384,49732.40000003576,50204.5,50819.90000003576,51700.40000003576,52187.69999998808,52643.90000003576,53059.80000001192,58348.10000002384,58556.10000002384,59900.40000003576,60517.69999998808,60987.80000001192,61284.60000002384,61675.90000003576,62100.60000002384,62636.30000001192,63259.90000003576,63924.10000002384,64420.60000002384,65132.5,65691.90000003576,66100.19999998808,66563.60000002384,66885.10000002384,67268.5,67772,68620.30000001192,69268.80000001192,69875.90000003576,70659.90000003576,71035.69999998808,71388.19999998808],"honeypot":0,"survey":"mace","page":9,"trial_type":"survey-mace","trial_index":17,"time_elapsed":1181287,"internal_node_id":"0.0-17.0","task_version":"prescreen-v0.3","browser_interactions":0},{"responses":{"01":"No","02":"No","03":"Yes","03_ages_9":"9","03_ages_10":"10","03_ages_11":"11","03_ages_12":"12","03_ages_13":"13","03_ages_14":"14","03_ages_15":"15","03_ages_16":"16","03_ages_17":"17","04":"Yes","04_ages_5":"5","04_ages_6":"6","04_ages_7":"7","04_ages_8":"8","04_ages_9":"9","04_ages_10":"10","04_ages_11":"11","04_ages_12":"12","04_ages_13":"13","04_ages_14":"14","04_ages_15":"15","05":"Yes","05_ages_9":"9","05_ages_10":"10","05_ages_11":"11","05_ages_12":"12","05_ages_13":"13","05_ages_14":"14","05_ages_15":"15","05_ages_16":"16","05_ages_17":"17","05_ages_18":"18","06":"Yes","06_ages_17":"17","07":"Yes","07_ages_1":"1","07_ages_2":"2","07_ages_3":"3","07_ages_4":"4","07_ages_5":"5","07_ages_6":"6","07_ages_7":"7","07_ages_8":"8","07_ages_9":"9","07_ages_10":"10","07_ages_11":"11","07_ages_12":"12","07_ages_13":"13","07_ages_14":"14","07_ages_15":"15","07_ages_16":"16","07_ages_17":"17","07_ages_18":"18","08":"Yes","08_ages_1":"1","08_ages_2":"2","08_ages_3":"3","08_ages_4":"4","08_ages_5":"5","08_ages_6":"6","08_ages_7":"7","08_ages_8":"8","08_ages_9":"9","08_ages_10":"10","08_ages_11":"11","08_ages_12":"12","08_ages_13":"13","08_ages_14":"14","08_ages_15":"15","08_ages_16":"16","08_ages_17":"17","08_ages_18":"18"},"rt":116613.89999997616,"item_order":[0,1,2,3,4,5,6,7],"radio_events":[4835.300000011921,6987.800000011921,10475,23163.19999998808,47804.39999997616,49467.19999998808,65339.89999997616,88523.10000002384,105187.60000002384],"checkbox_events":[12619.300000011921,13643.199999988079,14107.5,14947.399999976158,15411.300000011921,15907.399999976158,16332.300000011921,16756.399999976158,17403.30000001192,17915.19999998808,19283.19999998808,25371.19999998808,25988.100000023842,26692.19999998808,27163.399999976158,27660.69999998808,29883.30000001192,30259.399999976158,30692.69999998808,31115.100000023842,32195.399999976158,33675.19999998808,51667.5,73404.39999997616,74123.19999998808,74829.69999998808,75740.80000001192,76363.19999998808,77915.19999998808,78843.39999997616,79780.39999997616,80187.60000002384,80987.19999998808,90843.30000001192,91923.5,92339.89999997616,92859.39999997616,93227.19999998808,93675.39999997616,94451.69999998808,94955.60000002384,95443.30000001192,95867.5,96323.10000002384,96941.10000002384,98619.10000002384,99010.89999997616,99603.69999998808,100459.39999997616,101059.39999997616,102035.60000002384,106667.69999998808,107179.10000002384,107971.80000001192,108363,108795.10000002384,109283.69999998808,109931.69999998808,110299.19999998808,110979.10000002384,111579.19999998808,112123,113052,113443.39999997616,113994.80000001192,114403.69999998808,114851.89999997616,115379.10000002384,115995],"key_events":[],"mouse_events":[4027.899999976158,4835.300000011921,6987.800000011921,10475,12619.300000011921,13275.899999976158,13643.199999988079,14107.5,14603.100000023842,14947.399999976158,15411.300000011921,15907.399999976158,16332.300000011921,16756.399999976158,17403.30000001192,17915.19999998808,19283.19999998808,23163.19999998808,25371.19999998808,25988.100000023842,26692.19999998808,27163.399999976158,27660.69999998808,29139.100000023842,29883.30000001192,30259.399999976158,30692.69999998808,31115.100000023842,32195.399999976158,33675.19999998808,41963.39999997616,47804.39999997616,48747.19999998808,49467.19999998808,51667.5,65339.89999997616,66483.30000001192,73404.39999997616,73844.60000002384,74123.19999998808,74829.69999998808,75299.30000001192,75740.80000001192,76363.19999998808,77915.19999998808,78843.39999997616,79475.69999998808,79780.39999997616,80187.60000002384,80987.19999998808,88523.10000002384,90843.30000001192,91923.5,92339.89999997616,92859.39999997616,93227.19999998808,93675.39999997616,94451.69999998808,94955.60000002384,95443.30000001192,95867.5,96323.10000002384,96941.10000002384,97507.10000002384,98619.10000002384,99010.89999997616,99603.69999998808,100051.69999998808,100459.39999997616,101059.39999997616,101587.39999997616,102035.60000002384,105187.60000002384,106667.69999998808,107179.10000002384,107547.30000001192,107971.80000001192,108363,108795.10000002384,109283.69999998808,109931.69999998808,110299.19999998808,110979.10000002384,111579.19999998808,112123,113052,113443.39999997616,113994.80000001192,114403.69999998808,114851.89999997616,115379.10000002384,115995,116611.5],"honeypot":0,"survey":"mace","page":10,"trial_type":"survey-mace","trial_index":18,"time_elapsed":1297899,"internal_node_id":"0.0-18.0","task_version":"prescreen-v0.3","browser_interactions":0,"instructed":0},{"rt":8602.899999976158,"trial_type":"mental-health-alert","trial_index":19,"time_elapsed":1306501,"internal_node_id":"0.0-19.0","task_version":"prescreen-v0.3","interactions":"[]"}]