[{"view_history":[{"page_index":0,"viewing_time":4845.199999988079},{"page_index":1,"viewing_time":8247.70000000298},{"page_index":2,"viewing_time":3535.2999999970198},{"page_index":3,"viewing_time":1428.6000000089407}],"rt":18059.69999998808,"trial_type":"instructions","trial_index":0,"time_elapsed":18131,"internal_node_id":"0.0-0.0","task_version":"prescreen-v0.3"},{"rt":22821.20000000298,"responses":{"age":"45","gender-categorical":"Male","gender-free-response":"","ethnicity":"Not Hispanic or Latino","race":["White"],"education":"High school","siblings":"2"},"trial_type":"survey-demo","trial_index":1,"time_elapsed":40982,"internal_node_id":"0.0-1.0","task_version":"prescreen-v0.3"},{"responses":{"Q15":"1","Q18":"1","Q14":"1","Q03":"1","Q16":"1","Q09":"1","Q01":"1","Q10":"1","Q13":"1","Q19":"1","Q12":"1","Q02":"0","Q21":"2","Q11":"1","Q07":"1","Q08":"1","Q17":"1","Q04":"1","Q20":"1","Q05":"1","Q06":"1"},"rt":78704.90000000596,"item_order":[14,17,13,2,15,8,0,9,12,18,11,1,20,10,6,7,16,3,19,4,5],"radio_events":[4167,10899.300000011921,11827.20000000298,14863.10000000894,16867.20000000298,21775.60000000894,23895.70000000298,28801.90000000596,31302.60000000894,36062.90000000596,38662.90000000596,44734.90000000596,47331,49914.90000000596,57558.90000000596,61179.20000000298,63158.80000001192,65499.10000000894,70194.80000001192,72370.90000000596,74654.80000001192,77666.80000001192],"key_events":[],"mouse_events":[4167,7067.20000000298,9695.40000000596,10899.300000011921,11827.20000000298,14863.10000000894,16867.20000000298,21775.60000000894,23895.70000000298,28801.90000000596,31302.60000000894,36062.90000000596,38662.90000000596,41819.20000000298,44734.90000000596,47331,49914.90000000596,57558.90000000596,59174.70000000298,61179.20000000298,63158.80000001192,65499.10000000894,70194.80000001192,72370.90000000596,74654.80000001192,76963.20000000298,77666.80000001192,78695.40000000596],"straightlining":0.9047619047619048,"zigzagging":0.1,"honeypot":0,"survey":"sns","trial_type":"survey-template","trial_index":2,"time_elapsed":119713,"internal_node_id":"0.0-2.0","task_version":"prescreen-v0.3","browser_interactions":0,"infrequency":0.5},{"responses":{"Q09":"2","Q13":"0","Q05":"2","Q11":"2","Q06":"2","Q10":"2","Q07":"2","Q03":"1","Q12":"1","Q01":"1","Q02":"1","Q04":"1","Q08":"2"},"rt":56760.79999999702,"item_order":[8,12,4,10,5,9,6,2,11,0,1,3,7],"radio_events":[3574.2999999970198,26541.70000000298,28513.70000000298,30050.70000000298,32590.89999999106,37422.59999999404,39252.39999999106,44530.70000000298,46967.09999999404,48294.89999999106,50226.39999999106,53150.70000000298,55554.59999999404],"key_events":[],"mouse_events":[3574.2999999970198,22916.5,24273.89999999106,25339,26095.39999999106,26541.70000000298,28513.70000000298,30050.70000000298,32590.89999999106,37422.59999999404,39252.39999999106,44530.70000000298,46967.09999999404,48294.89999999106,50226.39999999106,53150.70000000298,55554.59999999404,56755.09999999404],"straightlining":0.5384615384615384,"zigzagging":0.16666666666666666,"honeypot":0,"survey":"bisbas","trial_type":"survey-template","trial_index":3,"time_elapsed":176489,"internal_node_id":"0.0-3.0","task_version":"prescreen-v0.3","browser_interactions":3,"infrequency":0},{"responses":{"Q01":"2","Q02":"3","Q03":"3"},"rt":14882.59999999404,"radio_events":[5752.0999999940395,9723.90000000596,14143.59999999404],"key_events":[],"mouse_events":[5752.0999999940395,9723.90000000596,14143.59999999404,14880],"survey":"map","page":1,"trial_type":"survey-map","trial_index":4,"time_elapsed":191385,"internal_node_id":"0.0-4.0","task_version":"prescreen-v0.3","browser_interactions":0},{"responses":{"Q04":"2","Q05":"3","Q06":"3"},"rt":13826.70000000298,"radio_events":[9616.39999999106,11229.09999999404,12190.70000000298],"key_events":[],"mouse_events":[9616.39999999106,11229.09999999404,12190.70000000298,13825.29999999702],"survey":"map","page":2,"trial_type":"survey-map","trial_index":5,"time_elapsed":205220,"internal_node_id":"0.0-5.0","task_version":"prescreen-v0.3","browser_interactions":0},{"responses":{"Q07":"3","Q08":"2","Q09":"2"},"rt":9789.70000000298,"radio_events":[4824.29999999702,7084.600000008941,7997],"key_events":[],"mouse_events":[4824.29999999702,6136.70000000298,7084.600000008941,7997,9788.5],"survey":"map","page":3,"trial_type":"survey-map","trial_index":6,"time_elapsed":215016,"internal_node_id":"0.0-6.0","task_version":"prescreen-v0.3","browser_interactions":0},{"responses":{"Q10":"3","Q11":"3","Q12":"3","Q13":"2","Q16":"0","Q14":"3","Q15":"2"},"rt":34279.79999999702,"radio_events":[3289,5598.29999999702,8009.899999991059,9593.79999999702,11030.09999999404,12086.79999999702,13742,21062.19999998808],"key_events":[],"mouse_events":[3289,4249,5017.0999999940395,5598.29999999702,6846.199999988079,8009.899999991059,9593.79999999702,11030.09999999404,12086.79999999702,13742,21062.19999998808,34274.29999999702],"survey":"map","page":4,"trial_type":"survey-map","trial_index":7,"time_elapsed":249304,"internal_node_id":"0.0-7.0","task_version":"prescreen-v0.3","browser_interactions":0,"infrequency":0},{"view_history":[{"page_index":0,"viewing_time":2598.4000000059605},{"page_index":1,"viewing_time":3950.3999999910593}],"rt":6551.70000000298,"trial_type":"instructions","trial_index":8,"time_elapsed":255862,"internal_node_id":"0.0-8.0","task_version":"prescreen-v0.3"},{"responses":{"01":"No","02":"No","03":"No","04":"No","05":"No","06":"No"},"rt":19830.90000000596,"item_order":[0,1,2,3,4,5],"radio_events":[4320.5,6588,7451.9000000059605,11311.79999999702,12931.70000000298,14939.59999999404],"checkbox_events":[],"key_events":[],"mouse_events":[0.20000000298023224,4320.5,6588,7451.9000000059605,8979.70000000298,10831.70000000298,11311.79999999702,12208.09999999404,12931.70000000298,14035.70000000298,14939.59999999404,19817.79999999702],"honeypot":0,"survey":"mace","page":1,"trial_type":"survey-mace","trial_index":9,"time_elapsed":275729,"internal_node_id":"0.0-9.0","task_version":"prescreen-v0.3","browser_interactions":0},{"responses":{"01":"No","02":"No","03":"No","04":"No","05":"No","06":"No","07":"No","08":"No"},"rt":16360.29999999702,"item_order":[0,1,2,3,4,5,6,7],"radio_events":[3402.5999999940395,6726.4000000059605,7626.4000000059605,8954.29999999702,10606.5,12246.09999999404,13970.5,15586.29999999702],"checkbox_events":[],"key_events":[],"mouse_events":[3402.5999999940395,5926.20000000298,6726.4000000059605,7626.4000000059605,8954.29999999702,10606.5,12246.09999999404,13970.5,15122.29999999702,15586.29999999702,16342.20000000298],"honeypot":0,"survey":"mace","page":2,"trial_type":"survey-mace","trial_index":10,"time_elapsed":292106,"internal_node_id":"0.0-10.0","task_version":"prescreen-v0.3","browser_interactions":0},{"responses":{"01":"No","02":"No","03":"No","04":"No"},"rt":11388.70000000298,"item_order":[0,1,2,3],"radio_events":[5691,6623,9235.09999999404,10018.89999999106],"checkbox_events":[],"key_events":[],"mouse_events":[4667.0999999940395,5691,6623,7854.79999999702,9235.09999999404,10018.89999999106,11379.89999999106],"honeypot":0,"survey":"mace","page":3,"trial_type":"survey-mace","trial_index":11,"time_elapsed":303504,"internal_node_id":"0.0-11.0","task_version":"prescreen-v0.3","browser_interactions":0},{"responses":{"01":"No","02":"No"},"rt":5439.70000000298,"item_order":[0,1],"radio_events":[3003.6000000089407,4403.4000000059605],"checkbox_events":[],"key_events":[],"mouse_events":[3003.6000000089407,4403.4000000059605,5435.20000000298],"honeypot":0,"survey":"mace","page":4,"trial_type":"survey-mace","trial_index":12,"time_elapsed":308954,"internal_node_id":"0.0-12.0","task_version":"prescreen-v0.3","browser_interactions":0},{"responses":{"01":"No","02":"No","03":"No","04":"No","05":"No"},"rt":15615.90000000596,"item_order":[0,1,2,3,4],"radio_events":[4430.100000008941,5366.29999999702,10185.29999999702,13987.20000000298,14753.79999999702],"checkbox_events":[],"key_events":[],"mouse_events":[2338,3741.5,4430.100000008941,5366.29999999702,10185.29999999702,13987.20000000298,14753.79999999702,15601.70000000298],"honeypot":0,"survey":"mace","page":5,"trial_type":"survey-mace","trial_index":13,"time_elapsed":324584,"internal_node_id":"0.0-13.0","task_version":"prescreen-v0.3","browser_interactions":0},{"responses":{"01":"No","02":"No","03":"No","04":"No","05":"No"},"rt":11409.10000000894,"item_order":[0,1,2,3,4],"radio_events":[2817.1000000089407,4181.29999999702,5685,8257,9353.10000000894],"checkbox_events":[],"key_events":[],"mouse_events":[2817.1000000089407,4181.29999999702,5685,8257,9353.10000000894,11397.90000000596],"honeypot":0,"survey":"mace","page":6,"trial_type":"survey-mace","trial_index":14,"time_elapsed":336007,"internal_node_id":"0.0-14.0","task_version":"prescreen-v0.3","browser_interactions":0},{"responses":{"01":"No","02":"No","03":"No","04":"No","05":"No","06":"No","07":"No"},"rt":14911.90000000596,"item_order":[0,1,2,3,4,5,6],"radio_events":[5043.9000000059605,7062.9000000059605,8423.40000000596,10091.300000011921,11476,12511,13983.20000000298],"checkbox_events":[],"key_events":[],"mouse_events":[5043.9000000059605,7062.9000000059605,8423.40000000596,10091.300000011921,11476,12511,13983.20000000298,14895.300000011921],"honeypot":0,"survey":"mace","page":7,"trial_type":"survey-mace","trial_index":15,"time_elapsed":350936,"internal_node_id":"0.0-15.0","task_version":"prescreen-v0.3","browser_interactions":0},{"responses":{"01":"No","02":"No","03":"No","04":"No"},"rt":16532.10000000894,"item_order":[0,1,2,3],"radio_events":[7956.4000000059605,8965.10000000894,11265,15400.40000000596],"checkbox_events":[],"key_events":[],"mouse_events":[4304.29999999702,6612.4000000059605,7501.20000000298,7956.4000000059605,8965.10000000894,11265,15400.40000000596,16520.5],"honeypot":0,"survey":"mace","page":8,"trial_type":"survey-mace","trial_index":16,"time_elapsed":367482,"internal_node_id":"0.0-16.0","task_version":"prescreen-v0.3","browser_interactions":0},{"responses":{"01":"Yes","01_ages_1":"1","01_ages_2":"2","01_ages_3":"3","01_ages_4":"4","01_ages_5":"5","01_ages_6":"6","01_ages_7":"7","01_ages_8":"8","01_ages_9":"9","01_ages_10":"10","01_ages_11":"11","01_ages_12":"12","01_ages_13":"13","01_ages_14":"14","01_ages_15":"15","01_ages_16":"16","01_ages_17":"17","01_ages_18":"18","02":"Yes","02_ages_1":"1","02_ages_2":"2","02_ages_3":"3","02_ages_4":"4","02_ages_5":"5","02_ages_6":"6","02_ages_7":"7","02_ages_8":"8","02_ages_9":"9","02_ages_10":"10","02_ages_11":"11","02_ages_12":"12","02_ages_13":"13","02_ages_14":"14","02_ages_15":"15","02_ages_16":"16","02_ages_17":"17","02_ages_18":"18","03":"Yes","03_ages_1":"1","03_ages_2":"2","03_ages_3":"3","03_ages_4":"4","03_ages_5":"5","03_ages_6":"6","03_ages_7":"7","03_ages_8":"8","03_ages_9":"9","03_ages_10":"10","03_ages_11":"11","03_ages_12":"12","03_ages_13":"13","03_ages_14":"14","03_ages_15":"15","03_ages_16":"16","03_ages_17":"17","03_ages_18":"18","04":"Yes","04_ages_1":"1","04_ages_2":"2","04_ages_3":"3","04_ages_4":"4","04_ages_5":"5","04_ages_6":"6","04_ages_7":"7","04_ages_8":"8","04_ages_9":"9","04_ages_10":"10","04_ages_11":"11","04_ages_12":"12","04_ages_13":"13","04_ages_14":"14","04_ages_15":"15","04_ages_16":"16","04_ages_17":"17","04_ages_18":"18"},"rt":81575.70000000298,"item_order":[0,1,2,3],"radio_events":[5962.79999999702,33419,46139.90000000596,63659.70000000298],"checkbox_events":[13336.29999999702,14264.10000000894,15548.10000000894,16219.29999999702,16714.70000000298,17259.90000000596,18462.90000000596,19408,21040,21780,22707.90000000596,23235.10000000894,23763.60000000894,24259.79999999702,25798.70000000298,27190.79999999702,28794.70000000298,29468.40000000596,35098.79999999702,35594.60000000894,36079.10000000894,36606.79999999702,37022.70000000298,37487,37951.10000000894,38432.10000000894,38959,39411.70000000298,39906.79999999702,40436.70000000298,41010.79999999702,41763.90000000596,42280,42808,43639.90000000596,44135.79999999702,47211,47771.79999999702,48287.20000000298,48687.60000000894,49202.40000000596,49632.20000000298,50079.90000000596,50479.90000000596,52085.10000000894,52517.70000000298,52947.70000000298,53731.90000000596,55215.20000000298,55680,57460.20000000298,58291.79999999702,59203,60231.40000000596,65491.60000000894,66003.90000000596,67511.60000000894,68311.90000000596,68807.70000000298,69595.60000000894,70043.79999999702,70955.70000000298,72920.20000000298,74111.79999999702,75635.70000000298,76085.60000000894,76868.20000000298,77625.70000000298,78518.79999999702,79095.79999999702,79864.60000000894,80359.79999999702],"key_events":[],"mouse_events":[4607.79999999702,5962.79999999702,13336.29999999702,13942.5,14264.10000000894,14807.70000000298,15548.10000000894,16219.29999999702,16714.70000000298,17259.90000000596,17852.40000000596,18462.90000000596,19408,20143.10000000894,21040,21780,22707.90000000596,23235.10000000894,23763.60000000894,24259.79999999702,24759.70000000298,25798.70000000298,26406.70000000298,26743.90000000596,27190.79999999702,27738.70000000298,28155.79999999702,28794.70000000298,29468.40000000596,33419,35098.79999999702,35594.60000000894,36079.10000000894,36606.79999999702,37022.70000000298,37487,37951.10000000894,38432.10000000894,38959,39411.70000000298,39906.79999999702,40436.70000000298,41010.79999999702,41763.90000000596,42280,42808,43303.79999999702,43639.90000000596,44135.79999999702,46139.90000000596,47211,47771.79999999702,48287.20000000298,48687.60000000894,49202.40000000596,49632.20000000298,50079.90000000596,50479.90000000596,50977.70000000298,51764.10000000894,52085.10000000894,52517.70000000298,52947.70000000298,53731.90000000596,54184.5,54518.20000000298,55215.20000000298,55680,56191.60000000894,56735.10000000894,57023.70000000298,57460.20000000298,58003.70000000298,58291.79999999702,59203,60231.40000000596,63659.70000000298,65491.60000000894,66003.90000000596,66503.5,67511.60000000894,67976.20000000298,68311.90000000596,68807.70000000298,69595.60000000894,70043.79999999702,70955.70000000298,72068.20000000298,72473,72920.20000000298,74111.79999999702,75635.70000000298,76085.60000000894,76868.20000000298,77625.70000000298,78518.79999999702,79095.79999999702,79864.60000000894,80359.79999999702,81565.10000000894],"honeypot":0,"survey":"mace","page":9,"trial_type":"survey-mace","trial_index":17,"time_elapsed":449071,"internal_node_id":"0.0-17.0","task_version":"prescreen-v0.3","browser_interactions":0},{"responses":{"01":"No","02":"No","03":"No","04":"No","05":"No","06":"Yes","06_ages_17":"17","07":"Yes","07_ages_1":"1","07_ages_2":"2","07_ages_3":"3","07_ages_4":"4","07_ages_5":"5","07_ages_6":"6","07_ages_7":"7","07_ages_8":"8","07_ages_9":"9","07_ages_10":"10","07_ages_11":"11","07_ages_12":"12","07_ages_13":"13","07_ages_14":"14","07_ages_15":"15","07_ages_16":"16","07_ages_17":"17","07_ages_18":"18","08":"Yes","08_ages_1":"1","08_ages_2":"2","08_ages_3":"3","08_ages_4":"4","08_ages_5":"5","08_ages_6":"6","08_ages_7":"7","08_ages_8":"8","08_ages_9":"9","08_ages_10":"10","08_ages_11":"11","08_ages_12":"12","08_ages_13":"13","08_ages_14":"14","08_ages_15":"15","08_ages_16":"16","08_ages_17":"17","08_ages_18":"18"},"rt":62050.20000000298,"item_order":[0,1,2,3,4,5,6,7],"radio_events":[4135.800000011921,5003.9000000059605,7451.600000008941,8142.800000011921,10015.70000000298,12140,17914.90000000596,36386.20000000298],"checkbox_events":[13679.40000000596,20278.90000000596,22395.40000000596,23435.5,24027.5,24571.60000000894,25083.30000001192,25582.40000000596,26126.40000000596,26609,27086.40000000596,27650.90000000596,28867.30000001192,29427.5,29987.70000000298,31672.10000000894,32679.30000001192,33511.30000001192,34219.40000000596,47839.70000000298,48642.60000000894,49359.40000000596,50159.70000000298,51059.5,51859.30000001192,52435.40000000596,53347.60000000894,54040,54711.40000000596,55287.40000000596,55935.70000000298,56675.70000000298,57459.90000000596,58283.5,58923.60000000894,59615.40000000596,60751.40000000596],"key_events":[],"mouse_events":[4135.800000011921,5003.9000000059605,5579.70000000298,6563.5,7451.600000008941,8142.800000011921,9351.90000000596,10015.70000000298,12140,13679.40000000596,17914.90000000596,20278.90000000596,20695.70000000298,21531.20000000298,22395.40000000596,22892.30000001192,23435.5,24027.5,24571.60000000894,25083.30000001192,25582.40000000596,26126.40000000596,26609,27086.40000000596,27650.90000000596,28227.40000000596,28867.30000001192,29427.5,29987.70000000298,30436.5,31159.5,31672.10000000894,32343.5,32679.30000001192,33511.30000001192,34219.40000000596,36386.20000000298,47839.70000000298,48642.60000000894,49359.40000000596,50159.70000000298,51059.5,51859.30000001192,52435.40000000596,53347.60000000894,54040,54711.40000000596,55287.40000000596,55935.70000000298,56675.70000000298,57459.90000000596,58283.5,58923.60000000894,59615.40000000596,60751.40000000596,62032.20000000298],"honeypot":0,"survey":"mace","page":10,"trial_type":"survey-mace","trial_index":18,"time_elapsed":511141,"internal_node_id":"0.0-18.0","task_version":"prescreen-v0.3","browser_interactions":0,"instructed":0},{"rt":3016.8999999910593,"trial_type":"mental-health-alert","trial_index":19,"time_elapsed":514164,"internal_node_id":"0.0-19.0","task_version":"prescreen-v0.3","interactions":"[{\"event\":\"blur\",\"trial\":3,\"time\":135732},{\"event\":\"focus\",\"trial\":3,\"time\":137424},{\"event\":\"focus\",\"trial\":3,\"time\":137425}]"}]