[{"view_history":[{"page_index":0,"viewing_time":4413.5},{"page_index":1,"viewing_time":3523.5},{"page_index":2,"viewing_time":6372.399999976158},{"page_index":3,"viewing_time":1685.1000000238419}],"rt":15995,"trial_type":"instructions","trial_index":0,"time_elapsed":16024,"internal_node_id":"0.0-0.0","task_version":"prescreen-v0.3"},{"rt":13208.699999988079,"responses":{"age":"33","gender-categorical":"Male","gender-free-response":"","ethnicity":"Not Hispanic or Latino","race":["American Indian/Alaska Native","White"],"education":"Master degree or higher"},"trial_type":"survey-demo","trial_index":1,"time_elapsed":29236,"internal_node_id":"0.0-1.0","task_version":"prescreen-v0.3"},{"responses":{"Q18":"2","Q03":"1","Q04":"1","Q10":"0","Q16":"1","Q14":"2","Q01":"1","Q21":"3","Q09":"0","Q20":"0","Q06":"1","Q07":"0","Q19":"1","Q17":"1","Q05":"1","Q08":"1","Q12":"0","Q13":"0","Q15":"2","Q11":"0","Q02":"1"},"rt":127579,"item_order":[17,2,3,9,15,13,0,20,8,19,5,6,18,16,4,7,11,12,14,10,1],"radio_events":[7800.300000011921,11869.899999976158,16721.899999976158,20113.5,26252.80000001192,32026.69999998808,35509.5,40739.19999998808,50158,51909,59076,66728.69999998808,69060.89999997616,77491.69999998808,80740.5,86185.69999998808,91940.30000001192,102494.39999997616,105425.5,107722.39999997616,111313.69999998808,124755.89999997616],"key_events":[],"mouse_events":[7800.300000011921,11869.899999976158,16721.899999976158,20113.5,26252.80000001192,32026.69999998808,34856.19999998808,35509.5,40739.19999998808,50158,51909,59076,66728.69999998808,69060.89999997616,77491.69999998808,80740.5,86185.69999998808,90331.80000001192,91940.30000001192,102494.39999997616,105425.5,107722.39999997616,111313.69999998808,112937.89999997616,117593.5,124755.89999997616,127577.60000002384],"straightlining":0.47619047619047616,"zigzagging":0.55,"honeypot":0,"survey":"sns","trial_type":"survey-template","trial_index":2,"time_elapsed":156819,"internal_node_id":"0.0-2.0","task_version":"prescreen-v0.3","browser_interactions":0,"infrequency":0},{"responses":{"Q06":"2","Q10":"2","Q05":"2","Q13":"0","Q09":"2","Q12":"1","Q04":"3","Q02":"2","Q01":"3","Q11":"2","Q08":"2","Q07":"3","Q03":"3"},"rt":72890.90000003576,"item_order":[5,9,4,12,8,11,3,1,0,10,7,6,2],"radio_events":[7480.600000023842,12488.5,16252.100000023842,18877.80000001192,25299.100000023842,29559.30000001192,36722.200000047684,44912.30000001192,47408,57072.200000047684,60126.30000001192,62815.90000003576,70069.30000001192],"key_events":[],"mouse_events":[7480.600000023842,12488.5,16252.100000023842,18877.80000001192,25299.100000023842,29559.30000001192,36722.200000047684,44912.30000001192,47408,54736.60000002384,55504.5,57072.200000047684,60126.30000001192,62815.90000003576,69647.70000004768,70069.30000001192,72032.30000001192,72890.10000002384],"straightlining":0.5384615384615384,"zigzagging":0.4166666666666667,"honeypot":0,"survey":"bisbas","trial_type":"survey-template","trial_index":3,"time_elapsed":229713,"internal_node_id":"0.0-3.0","task_version":"prescreen-v0.3","browser_interactions":0,"infrequency":0},{"responses":{"Q01":"4","Q02":"3","Q03":"4"},"rt":29404.69999998808,"radio_events":[12013.199999988079,17334.599999964237,26754.5],"key_events":[],"mouse_events":[12013.199999988079,17334.599999964237,26754.5,28169.399999976158,29404.30000001192],"survey":"map","page":1,"trial_type":"survey-map","trial_index":4,"time_elapsed":259120,"internal_node_id":"0.0-4.0","task_version":"prescreen-v0.3","browser_interactions":0},{"responses":{"Q04":"3","Q05":"2","Q06":"3"},"rt":19682.599999964237,"radio_events":[4801.399999976158,10347.299999952316,11401.899999976158,18019.19999998808],"key_events":[],"mouse_events":[4801.399999976158,10347.299999952316,11401.899999976158,15660.199999988079,18019.19999998808,19682.19999998808],"survey":"map","page":2,"trial_type":"survey-map","trial_index":5,"time_elapsed":278804,"internal_node_id":"0.0-5.0","task_version":"prescreen-v0.3","browser_interactions":0},{"responses":{"Q07":"3","Q08":"4","Q09":"4"},"rt":25024.100000023842,"radio_events":[11087.199999988079,16757.900000035763,22024.600000023842],"key_events":[],"mouse_events":[11087.199999988079,16757.900000035763,22024.600000023842,25023.80000001192],"survey":"map","page":3,"trial_type":"survey-map","trial_index":6,"time_elapsed":303829,"internal_node_id":"0.0-6.0","task_version":"prescreen-v0.3","browser_interactions":0},{"responses":{"Q10":"3","Q11":"3","Q12":"3","Q13":"4","Q16":"0","Q14":"2","Q15":"2"},"rt":42788.10000002384,"radio_events":[5448,9064.100000023842,10652.800000011921,19620.30000001192,22099.5,23233.80000001192,29462.19999998808,37523.19999998808,41176.19999998808],"key_events":[],"mouse_events":[5448,9064.100000023842,10652.800000011921,16402.30000001192,19620.30000001192,22099.5,23233.80000001192,29462.19999998808,37523.19999998808,41176.19999998808,42787.39999997616],"survey":"map","page":4,"trial_type":"survey-map","trial_index":7,"time_elapsed":346619,"internal_node_id":"0.0-7.0","task_version":"prescreen-v0.3","browser_interactions":0,"infrequency":0},{"view_history":[{"page_index":0,"viewing_time":57219.39999997616},{"page_index":1,"viewing_time":4462.600000023842}],"rt":61682.299999952316,"trial_type":"instructions","trial_index":8,"time_elapsed":408303,"internal_node_id":"0.0-8.0","task_version":"prescreen-v0.3"},{"responses":{"01":"No","01_ages_11":"11","01_ages_12":"12","01_ages_13":"13","01_ages_14":"14","01_ages_15":"15","01_ages_16":"16","01_ages_17":"17","01_ages_18":"18","02":"Yes","02_ages_10":"10","02_ages_11":"11","02_ages_12":"12","02_ages_13":"13","02_ages_14":"14","02_ages_15":"15","02_ages_16":"16","02_ages_17":"17","02_ages_18":"18","03":"No","04":"No","05":"No","06":"No"},"rt":68569.69999998808,"item_order":[0,1,2,3,4,5],"radio_events":[11711.899999976158,34310.19999998808,37414.39999997616,50577.10000002384,51316,53543.19999998808,58357.80000001192],"checkbox_events":[22264.19999998808,22740.899999976158,23326.69999998808,24163.19999998808,26867.69999998808,27418.899999976158,27969.69999998808,28592.69999998808,41107.30000001192,41577.30000001192,42043.80000001192,42490.60000002384,43360.5,44639.10000002384,44998.5,45424.80000001192,46372.39999997616],"key_events":[],"mouse_events":[0.10000002384185791,11711.899999976158,22264.19999998808,22740.899999976158,23326.69999998808,24163.19999998808,26867.69999998808,27418.899999976158,27969.69999998808,28592.69999998808,34310.19999998808,37414.39999997616,41107.30000001192,41577.30000001192,42043.80000001192,42490.60000002384,43360.5,43967.69999998808,44639.10000002384,44998.5,45424.80000001192,46372.39999997616,50577.10000002384,51316,53543.19999998808,58357.80000001192,67302.10000002384,68568],"honeypot":0,"survey":"mace","page":1,"trial_type":"survey-mace","trial_index":9,"time_elapsed":476877,"internal_node_id":"0.0-9.0","task_version":"prescreen-v0.3","browser_interactions":0},{"responses":{"01":"No","02":"No","03":"Yes","03_ages_2":"2","03_ages_3":"3","03_ages_4":"4","03_ages_5":"5","04":"Yes","04_ages_2":"2","04_ages_3":"3","04_ages_4":"4","04_ages_5":"5","05":"No","06":"No","07":"No","08":"No"},"rt":35105.40000003576,"item_order":[0,1,2,3,4,5,6,7],"radio_events":[2225.400000035763,3634.600000023842,7438.699999988079,17585.400000035763,19280.600000023842,26709.100000023842,28417,31159.30000001192,32182.30000001192],"checkbox_events":[9298.800000011921,9894.699999988079,10598.100000023842,11169.900000035763,12319.100000023842,20868.600000023842,21395.900000035763,21830.600000023842,22863,24416.30000001192],"key_events":[],"mouse_events":[2225.400000035763,3634.600000023842,7438.699999988079,9298.800000011921,9894.699999988079,10598.100000023842,11169.900000035763,12319.100000023842,17585.400000035763,19280.600000023842,20868.600000023842,21395.900000035763,21830.600000023842,22863,24416.30000001192,26709.100000023842,28417,31159.30000001192,32182.30000001192,35102.90000003576],"honeypot":0,"survey":"mace","page":2,"trial_type":"survey-mace","trial_index":10,"time_elapsed":511985,"internal_node_id":"0.0-10.0","task_version":"prescreen-v0.3","browser_interactions":0},{"responses":{"01":"No","02":"No","03":"No","04":"No"},"rt":14638.100000023842,"item_order":[0,1,2,3],"radio_events":[7165.700000047684,9862,11494.100000023842,12190.300000011921],"checkbox_events":[],"key_events":[],"mouse_events":[7165.700000047684,9862,11494.100000023842,12190.300000011921,14636.800000011921],"honeypot":0,"survey":"mace","page":3,"trial_type":"survey-mace","trial_index":11,"time_elapsed":526626,"internal_node_id":"0.0-11.0","task_version":"prescreen-v0.3","browser_interactions":0},{"responses":{"01":"No","02":"No"},"rt":6661.300000011921,"item_order":[0,1],"radio_events":[5524.5,6024.800000011921],"checkbox_events":[],"key_events":[],"mouse_events":[5524.5,6024.800000011921,6660.700000047684],"honeypot":0,"survey":"mace","page":4,"trial_type":"survey-mace","trial_index":12,"time_elapsed":533289,"internal_node_id":"0.0-12.0","task_version":"prescreen-v0.3","browser_interactions":0},{"responses":{"01":"No","02":"No","03":"No","04":"No","05":"No"},"rt":16846.19999998808,"item_order":[0,1,2,3,4],"radio_events":[7800.199999988079,9861.899999976158,11828.899999976158,15079.5,15776.699999988079],"checkbox_events":[],"key_events":[],"mouse_events":[7800.199999988079,9861.899999976158,11828.899999976158,13995.800000011921,15079.5,15776.699999988079,16844.599999964237],"honeypot":0,"survey":"mace","page":5,"trial_type":"survey-mace","trial_index":13,"time_elapsed":550137,"internal_node_id":"0.0-13.0","task_version":"prescreen-v0.3","browser_interactions":0},{"responses":{"01":"Yes","01_ages_6":"6","01_ages_7":"7","01_ages_8":"8","01_ages_9":"9","01_ages_10":"10","02":"Yes","02_ages_6":"6","02_ages_7":"7","02_ages_8":"8","02_ages_9":"9","02_ages_10":"10","02_ages_11":"11","03":"Yes","03_ages_15":"15","03_ages_16":"16","03_ages_17":"17","03_ages_18":"18","04":"No","05":"No"},"rt":47387.89999997616,"item_order":[0,1,2,3,4],"radio_events":[9491.600000023842,19197.19999998808,32339.80000001192,43448.5,46028.69999998808],"checkbox_events":[11736,12251,12824.699999988079,13787.300000011921,14678.199999988079,23783.80000001192,25452.399999976158,26895.30000001192,27498.69999998808,28062.5,28651.600000023842,35419.89999997616,36082.89999997616,36894.30000001192,41395.39999997616],"key_events":[],"mouse_events":[9491.600000023842,11736,12251,12824.699999988079,13787.300000011921,14678.199999988079,19197.19999998808,23783.80000001192,24535.30000001192,25452.399999976158,26143.899999976158,26895.30000001192,27498.69999998808,28062.5,28651.600000023842,32339.80000001192,35419.89999997616,36082.89999997616,36894.30000001192,41395.39999997616,43448.5,44910.89999997616,46028.69999998808,47386.30000001192],"honeypot":0,"survey":"mace","page":6,"trial_type":"survey-mace","trial_index":14,"time_elapsed":597527,"internal_node_id":"0.0-14.0","task_version":"prescreen-v0.3","browser_interactions":0},{"responses":{"01":"No","02":"No","03":"No","04":"No","05":"No","06":"No","07":"No"},"rt":19699.80000001192,"item_order":[0,1,2,3,4,5,6],"radio_events":[7419.399999976158,8885.5,11759.699999988079,13392.699999988079,15838.899999976158,17775.100000023842,18473],"checkbox_events":[],"key_events":[],"mouse_events":[6393.399999976158,7419.399999976158,8277.600000023842,8885.5,11759.699999988079,13392.699999988079,14589.399999976158,15838.899999976158,17775.100000023842,18473,19697.600000023842],"honeypot":0,"survey":"mace","page":7,"trial_type":"survey-mace","trial_index":15,"time_elapsed":617230,"internal_node_id":"0.0-15.0","task_version":"prescreen-v0.3","browser_interactions":0},{"responses":{"01":"No","02":"Yes","02_ages_9":"9","02_ages_10":"10","02_ages_11":"11","02_ages_12":"12","02_ages_13":"13","02_ages_14":"14","02_ages_15":"15","02_ages_16":"16","02_ages_17":"17","02_ages_18":"18","03":"Yes","03_ages_7":"7","03_ages_8":"8","03_ages_9":"9","03_ages_10":"10","03_ages_11":"11","03_ages_12":"12","03_ages_13":"13","03_ages_14":"14","03_ages_15":"15","03_ages_16":"16","03_ages_17":"17","03_ages_18":"18","04":"Yes","04_ages_16":"16","04_ages_17":"17","04_ages_18":"18"},"rt":50367.30000001192,"item_order":[0,1,2,3],"radio_events":[8728.599999964237,9762.5,25261.599999964237,40149.80000001192,42000.80000001192],"checkbox_events":[13986.399999976158,14656.899999976158,15134.599999964237,15689.300000011921,16187,17935.5,19694.399999976158,20916.099999964237,21459,21949.599999964237,22664,23296.899999976158,27197,27809.899999976158,28344.899999976158,29175.19999998808,29750.80000001192,30974.599999964237,31829.899999976158,32597.5,33595.80000001192,34362.59999996424,34995.09999996424,35882.39999997616,43520.30000001192,43993.59999996424,44509.39999997616],"key_events":[],"mouse_events":[8728.599999964237,9762.5,13986.399999976158,14656.899999976158,15134.599999964237,15689.300000011921,16187,17935.5,19694.399999976158,20104.30000001192,20916.099999964237,21459,21949.599999964237,22664,23296.899999976158,25261.599999964237,27197,27809.899999976158,28344.899999976158,29175.19999998808,29750.80000001192,30198.19999998808,30974.599999964237,31829.899999976158,32597.5,33595.80000001192,34362.59999996424,34995.09999996424,35882.39999997616,40149.80000001192,42000.80000001192,43520.30000001192,43993.59999996424,44509.39999997616,50365.89999997616],"honeypot":0,"survey":"mace","page":8,"trial_type":"survey-mace","trial_index":16,"time_elapsed":667600,"internal_node_id":"0.0-16.0","task_version":"prescreen-v0.3","browser_interactions":0},{"responses":{"01":"Yes","01_ages_1":"1","01_ages_2":"2","01_ages_3":"3","01_ages_4":"4","01_ages_5":"5","01_ages_6":"6","01_ages_7":"7","01_ages_8":"8","01_ages_9":"9","01_ages_10":"10","01_ages_11":"11","01_ages_12":"12","01_ages_13":"13","01_ages_14":"14","01_ages_15":"15","01_ages_16":"16","01_ages_17":"17","01_ages_18":"18","02":"Yes","02_ages_1":"1","02_ages_2":"2","02_ages_3":"3","02_ages_4":"4","02_ages_5":"5","02_ages_6":"6","02_ages_7":"7","02_ages_8":"8","02_ages_9":"9","02_ages_10":"10","02_ages_11":"11","02_ages_12":"12","02_ages_13":"13","02_ages_14":"14","02_ages_15":"15","02_ages_16":"16","02_ages_17":"17","02_ages_18":"18","03":"Yes","03_ages_1":"1","03_ages_2":"2","03_ages_3":"3","03_ages_4":"4","03_ages_5":"5","03_ages_6":"6","03_ages_7":"7","03_ages_8":"8","03_ages_9":"9","03_ages_10":"10","03_ages_11":"11","03_ages_12":"12","03_ages_13":"13","03_ages_14":"14","03_ages_15":"15","03_ages_16":"16","03_ages_17":"17","03_ages_18":"18","04":"Yes","04_ages_1":"1","04_ages_2":"2","04_ages_3":"3","04_ages_4":"4","04_ages_5":"5","04_ages_6":"6","04_ages_7":"7","04_ages_8":"8","04_ages_9":"9","04_ages_10":"10","04_ages_11":"11","04_ages_12":"12","04_ages_13":"13","04_ages_14":"14","04_ages_15":"15","04_ages_16":"16","04_ages_17":"17","04_ages_18":"18"},"rt":76821.10000002384,"item_order":[0,1,2,3],"radio_events":[6234.700000047684,24039.5,25878.700000047684,41612.5,42514.200000047684,61764.200000047684],"checkbox_events":[8803.600000023842,11282.5,11968.400000035763,13366.100000023842,13862.100000023842,14317.100000023842,14788.900000035763,15389,16179,17068,17544.700000047684,18107.400000035763,18599.600000023842,19021.80000001192,19644.700000047684,20178.30000001192,21695.600000023842,22725.100000023842,26788.30000001192,27289.200000047684,27833.400000035763,28747.600000023842,29169.400000035763,29952.200000047684,31342.100000023842,32780.200000047684,33284.60000002384,33904.5,34857.40000003576,35376.40000003576,35832.5,36350.200000047684,36959.200000047684,37976.80000001192,38482.700000047684,39325.200000047684,43820.700000047684,44657.10000002384,45317,45920.30000001192,46527.5,47903.90000003576,48848.90000003576,50035.5,51137.700000047684,51952.80000001192,52712.700000047684,53424.700000047684,53916.700000047684,55019.40000003576,55543.5,56141.10000002384,56724.200000047684,57191.30000001192,63163.200000047684,63848.200000047684,64561.40000003576,65240.5,65755.90000003576,66203.80000001192,66786.30000001192,68263,68739.10000002384,69303.60000002384,69856.70000004768,70864.30000001192,71388.80000001192,72311.20000004768,72809.30000001192,73474.30000001192,74126.40000003576,74786.10000002384],"key_events":[],"mouse_events":[5161.800000011921,6234.700000047684,7365.600000023842,8045.400000035763,8803.600000023842,11282.5,11968.400000035763,13366.100000023842,13862.100000023842,14317.100000023842,14788.900000035763,15389,16179,17068,17544.700000047684,18107.400000035763,18599.600000023842,19021.80000001192,19644.700000047684,20178.30000001192,21695.600000023842,22725.100000023842,24039.5,25878.700000047684,26788.30000001192,27289.200000047684,27833.400000035763,28747.600000023842,29169.400000035763,29952.200000047684,30333.30000001192,31342.100000023842,31765.600000023842,32780.200000047684,33284.60000002384,33904.5,34857.40000003576,35376.40000003576,35832.5,36350.200000047684,36959.200000047684,37473.60000002384,37976.80000001192,38482.700000047684,39325.200000047684,41612.5,42514.200000047684,43820.700000047684,44657.10000002384,45317,45920.30000001192,46527.5,47013.90000003576,47903.90000003576,48380.80000001192,48848.90000003576,50035.5,51137.700000047684,51952.80000001192,52712.700000047684,53424.700000047684,53916.700000047684,55019.40000003576,55543.5,56141.10000002384,56724.200000047684,57191.30000001192,61764.200000047684,63163.200000047684,63848.200000047684,64561.40000003576,65240.5,65755.90000003576,66203.80000001192,66786.30000001192,67564.10000002384,68263,68739.10000002384,69303.60000002384,69856.70000004768,70864.30000001192,71388.80000001192,72311.20000004768,72809.30000001192,73474.30000001192,74126.40000003576,74786.10000002384,76819.70000004768],"honeypot":0,"survey":"mace","page":9,"trial_type":"survey-mace","trial_index":17,"time_elapsed":744424,"internal_node_id":"0.0-17.0","task_version":"prescreen-v0.3","browser_interactions":0},{"responses":{"01":"No","02":"No","03":"Yes","03_ages_13":"13","03_ages_14":"14","03_ages_15":"15","03_ages_16":"16","03_ages_17":"17","03_ages_18":"18","04":"Yes","04_ages_12":"12","04_ages_13":"13","04_ages_17":"17","04_ages_18":"18","05":"Yes","05_ages_12":"12","05_ages_13":"13","05_ages_14":"14","05_ages_15":"15","05_ages_16":"16","05_ages_17":"17","05_ages_18":"18","06":"Yes","06_ages_17":"17","07":"Yes","07_ages_1":"1","07_ages_2":"2","07_ages_3":"3","07_ages_4":"4","07_ages_5":"5","07_ages_6":"6","07_ages_7":"7","07_ages_8":"8","07_ages_9":"9","07_ages_10":"10","07_ages_11":"11","07_ages_12":"12","07_ages_13":"13","07_ages_14":"14","07_ages_15":"15","07_ages_16":"16","07_ages_17":"17","07_ages_18":"18","08":"Yes","08_ages_1":"1","08_ages_2":"2","08_ages_3":"3","08_ages_4":"4","08_ages_5":"5","08_ages_6":"6","08_ages_7":"7","08_ages_8":"8","08_ages_9":"9","08_ages_10":"10","08_ages_11":"11","08_ages_12":"12","08_ages_13":"13","08_ages_14":"14","08_ages_15":"15","08_ages_16":"16","08_ages_17":"17","08_ages_18":"18"},"rt":97772.30000001192,"item_order":[0,1,2,3,4,5,6,7],"radio_events":[3247.7000000476837,5152.400000035763,9011,20680.700000047684,37024.10000002384,52837,58036.60000002384,78257.60000002384],"checkbox_events":[12701.100000023842,13414.100000023842,14173.900000035763,14641,15489.300000011921,16097,23024.100000023842,23502.30000001192,23992.100000023842,25203.30000001192,26087.80000001192,26509.200000047684,26956,31993.400000035763,32876.200000047684,34030.700000047684,40121,40610.5,41116.5,42472.10000002384,42992.90000003576,44053.200000047684,46009.5,46658.200000047684,47710.90000003576,48220.700000047684,48698.90000003576,54654.60000002384,59625.10000002384,60092.30000001192,60571.200000047684,61160.60000002384,62139.10000002384,62639.700000047684,63162.30000001192,63663.80000001192,64122.30000001192,66328.30000001192,70469.90000003576,71341.70000004768,72849.70000004768,73329,73991.70000004768,75015.40000003576,75697.70000004768,76303.70000004768,80943.10000002384,81584.20000004768,82449.90000003576,83052.20000004768,83614.10000002384,84238.5,85223.60000002384,85669.80000001192,86702.5,87214.80000001192,88277.20000004768,89130.40000003576,89747.80000001192,90325.20000004768,91606.30000001192,94629.10000002384,95325.90000003576,95818.90000003576],"key_events":[],"mouse_events":[3247.7000000476837,3879.300000011921,5152.400000035763,9011,12701.100000023842,13414.100000023842,14173.900000035763,14641,15489.300000011921,16097,20680.700000047684,23024.100000023842,23502.30000001192,23992.100000023842,25203.30000001192,26087.80000001192,26509.200000047684,26956,31079.200000047684,31993.400000035763,32876.200000047684,34030.700000047684,37024.10000002384,40121,40610.5,41116.5,42472.10000002384,42992.90000003576,44053.200000047684,44655.90000003576,46009.5,46658.200000047684,47710.90000003576,48220.700000047684,48698.90000003576,52837,54654.60000002384,58036.60000002384,59625.10000002384,60092.30000001192,60571.200000047684,61160.60000002384,61633,62139.10000002384,62639.700000047684,63162.30000001192,63663.80000001192,64122.30000001192,66328.30000001192,70469.90000003576,71341.70000004768,71877.90000003576,72849.70000004768,73329,73991.70000004768,75015.40000003576,75697.70000004768,76303.70000004768,78257.60000002384,80943.10000002384,81584.20000004768,82449.90000003576,83052.20000004768,83614.10000002384,84238.5,85223.60000002384,85669.80000001192,86702.5,87214.80000001192,88277.20000004768,89130.40000003576,89747.80000001192,90325.20000004768,91606.30000001192,94629.10000002384,95325.90000003576,95818.90000003576,97769.80000001192],"honeypot":0,"survey":"mace","page":10,"trial_type":"survey-mace","trial_index":18,"time_elapsed":842200,"internal_node_id":"0.0-18.0","task_version":"prescreen-v0.3","browser_interactions":0,"instructed":0},{"rt":7643.199999988079,"trial_type":"mental-health-alert","trial_index":19,"time_elapsed":849844,"internal_node_id":"0.0-19.0","task_version":"prescreen-v0.3","interactions":"[{\"event\":\"blur\",\"trial\":8,\"time\":356488},{\"event\":\"focus\",\"trial\":8,\"time\":360944},{\"event\":\"blur\",\"trial\":8,\"time\":363289},{\"event\":\"focus\",\"trial\":8,\"time\":401892}]"}]