[{"view_history":[{"page_index":0,"viewing_time":1850.2999999523163},{"page_index":1,"viewing_time":2706.2000000476837},{"page_index":2,"viewing_time":3090.7999999523163},{"page_index":3,"viewing_time":1074.3999999761581}],"rt":8723,"trial_type":"instructions","trial_index":0,"time_elapsed":8731,"internal_node_id":"0.0-0.0","task_version":"prescreen-v0.3"},{"rt":13904.5,"responses":{"age":"26","gender-categorical":"Female","gender-free-response":"","ethnicity":"Not Hispanic or Latino","race":["White"],"education":"Bachelor degree"},"trial_type":"survey-demo","trial_index":1,"time_elapsed":22642,"internal_node_id":"0.0-1.0","task_version":"prescreen-v0.3"},{"responses":{"Q12":"2","Q08":"2","Q02":"0","Q19":"1","Q06":"0","Q09":"0","Q05":"0","Q01":"2","Q11":"0","Q17":"1","Q10":"0","Q20":"0","Q15":"2","Q21":"3","Q14":"2","Q18":"1","Q04":"0","Q03":"0","Q13":"1","Q07":"0","Q16":"1"},"rt":118534.30000007153,"item_order":[11,7,1,18,5,8,4,0,10,16,9,19,14,20,13,17,3,2,12,6,15],"radio_events":[8309.5,11712.800000071526,14291.800000071526,17438.200000047684,23945.800000071526,28602.300000071526,32686.800000071526,34829.39999997616,42367,49044.10000002384,51495.10000002384,56313.89999997616,62190.5,64358.60000002384,65896,67715.30000007153,74062.39999997616,75750.89999997616,80303.5,81711.60000002384,90751.70000004768,91849.60000002384,98376.60000002384,101466,103762.60000002384,108935.39999997616,113633.89999997616,117031.70000004768],"key_events":[],"mouse_events":[8309.5,11712.800000071526,14291.800000071526,17438.200000047684,23945.800000071526,28602.300000071526,32686.800000071526,34829.39999997616,42367,49044.10000002384,51495.10000002384,56313.89999997616,62190.5,64358.60000002384,65896,67715.30000007153,74062.39999997616,75750.89999997616,80303.5,81711.60000002384,90751.70000004768,91849.60000002384,98376.60000002384,101466,103762.60000002384,108935.39999997616,113633.89999997616,117031.70000004768,118527.80000007153],"straightlining":0.47619047619047616,"zigzagging":0.55,"honeypot":0,"survey":"sns","trial_type":"survey-template","trial_index":2,"time_elapsed":141181,"internal_node_id":"0.0-2.0","task_version":"prescreen-v0.3","browser_interactions":0,"infrequency":0},{"responses":{"Q11":"1","Q12":"1","Q02":"2","Q05":"2","Q01":"3","Q08":"2","Q06":"2","Q07":"2","Q13":"0","Q03":"3","Q10":"2","Q09":"2","Q04":"2"},"rt":56401.200000047684,"item_order":[10,11,1,4,0,7,5,6,12,2,9,8,3],"radio_events":[10845.299999952316,16974.700000047684,19836.600000023842,22393.5,24308.600000023842,27147.700000047684,31888.5,33805.39999997616,36198.5,45357.5,48210.799999952316,53087.39999997616,55458.5],"key_events":[],"mouse_events":[10845.299999952316,16974.700000047684,19836.600000023842,22393.5,24308.600000023842,27147.700000047684,31888.5,33805.39999997616,36198.5,45357.5,48210.799999952316,52189,53087.39999997616,55458.5,56396.10000002384],"straightlining":0.6153846153846154,"zigzagging":0.4166666666666667,"honeypot":0,"survey":"bisbas","trial_type":"survey-template","trial_index":3,"time_elapsed":197587,"internal_node_id":"0.0-3.0","task_version":"prescreen-v0.3","browser_interactions":0,"infrequency":0},{"responses":{"Q01":"3","Q02":"3","Q03":"3"},"rt":16127.399999976158,"radio_events":[5206.600000023842,9176.100000023842,15321.200000047684],"key_events":[],"mouse_events":[5206.600000023842,8537.399999976158,9176.100000023842,14909.799999952316,15321.200000047684,16124.899999976158],"survey":"map","page":1,"trial_type":"survey-map","trial_index":4,"time_elapsed":213719,"internal_node_id":"0.0-4.0","task_version":"prescreen-v0.3","browser_interactions":0},{"responses":{"Q04":"4","Q05":"2","Q06":"3"},"rt":19821.899999976158,"radio_events":[5123.599999904633,9864.899999976158,14534.799999952316,18044.699999928474],"key_events":[],"mouse_events":[5123.599999904633,9102.599999904633,9864.899999976158,14534.799999952316,18044.699999928474,19819.299999952316],"survey":"map","page":2,"trial_type":"survey-map","trial_index":5,"time_elapsed":233544,"internal_node_id":"0.0-5.0","task_version":"prescreen-v0.3","browser_interactions":0},{"responses":{"Q07":"3","Q08":"0","Q09":"3"},"rt":15106.699999928474,"radio_events":[6062.899999976158,9604.5,14277.199999928474],"key_events":[],"mouse_events":[6062.899999976158,9604.5,14277.199999928474,15104.299999952316],"survey":"map","page":3,"trial_type":"survey-map","trial_index":6,"time_elapsed":248654,"internal_node_id":"0.0-6.0","task_version":"prescreen-v0.3","browser_interactions":0},{"responses":{"Q10":"2","Q11":"3","Q12":"1","Q13":"3","Q16":"0","Q14":"2","Q15":"1"},"rt":36713.5,"radio_events":[4092.4000000953674,6419.600000023842,15045.200000047684,18285.300000071526,22904.100000023842,32581.600000023842,35167.800000071526],"key_events":[],"mouse_events":[4092.4000000953674,6419.600000023842,15045.200000047684,18285.300000071526,22904.100000023842,32581.600000023842,35167.800000071526,36710.200000047684],"survey":"map","page":4,"trial_type":"survey-map","trial_index":7,"time_elapsed":285371,"internal_node_id":"0.0-7.0","task_version":"prescreen-v0.3","browser_interactions":0,"infrequency":0},{"view_history":[{"page_index":0,"viewing_time":1908.1000000238419},{"page_index":1,"viewing_time":2619.0999999046326}],"rt":4528.299999952316,"trial_type":"instructions","trial_index":8,"time_elapsed":289901,"internal_node_id":"0.0-8.0","task_version":"prescreen-v0.3"},{"responses":{"01":"Yes","01_ages_10":"10","01_ages_11":"11","01_ages_12":"12","01_ages_13":"13","01_ages_14":"14","01_ages_15":"15","01_ages_16":"16","01_ages_17":"17","01_ages_18":"18","02":"Yes","02_ages_5":"5","02_ages_6":"6","02_ages_7":"7","02_ages_8":"8","02_ages_9":"9","02_ages_10":"10","02_ages_11":"11","02_ages_12":"12","02_ages_13":"13","02_ages_14":"14","02_ages_15":"15","02_ages_16":"16","02_ages_17":"17","02_ages_18":"18","03":"Yes","03_ages_8":"8","03_ages_9":"9","03_ages_10":"10","03_ages_11":"11","03_ages_12":"12","03_ages_13":"13","03_ages_14":"14","03_ages_15":"15","04":"Yes","04_ages_10":"10","05":"No","06":"Yes","06_ages_7":"7","06_ages_8":"8","06_ages_9":"9","06_ages_10":"10"},"rt":62942.60000002384,"item_order":[0,1,2,3,4,5],"radio_events":[3072.899999976158,23820.700000047684,37040.800000071526,51087.39999997616,54630.39999997616,56213.200000047684],"checkbox_events":[8683.100000023842,9192.899999976158,9628.5,10381.100000023842,11077.100000023842,12330.300000071526,12646.200000047684,13138.399999976158,15524.100000023842,16268.100000023842,16794.800000071526,17243.899999976158,18766.300000071526,19130.700000047684,20101.899999976158,20512.600000023842,21062.200000047684,25356.700000047684,25695.600000023842,26117.700000047684,26673.800000071526,27063.5,27508,28252,29117.700000047684,29537.899999976158,30565.200000047684,31131.300000071526,31509.800000071526,33556.60000002384,34000.89999997616,38609.5,39458.89999997616,40502.10000002384,41035.89999997616,42644.800000071526,44560.5,44958.89999997616,47690.200000047684,52001.300000071526,57564.700000047684,58032.200000047684,58421.200000047684,59246],"key_events":[],"mouse_events":[0.10000002384185791,2392.3000000715256,3072.899999976158,8683.100000023842,9192.899999976158,9628.5,10381.100000023842,11077.100000023842,11603.800000071526,11958.100000023842,12330.300000071526,12646.200000047684,13138.399999976158,13720.399999976158,14237.800000071526,15151.5,15524.100000023842,15894.5,16268.100000023842,16794.800000071526,17243.899999976158,17837.200000047684,18262.200000047684,18766.300000071526,19130.700000047684,20101.899999976158,20512.600000023842,21062.200000047684,23304.100000023842,23820.700000047684,25356.700000047684,25695.600000023842,26117.700000047684,26673.800000071526,27063.5,27508,28252,29117.700000047684,29537.899999976158,29934.100000023842,30565.200000047684,31131.300000071526,31509.800000071526,32613.5,33119.300000071526,33556.60000002384,34000.89999997616,37040.800000071526,38609.5,39458.89999997616,40502.10000002384,41035.89999997616,41996.700000047684,42644.800000071526,44560.5,44958.89999997616,47690.200000047684,51087.39999997616,52001.300000071526,54630.39999997616,56213.200000047684,57564.700000047684,58032.200000047684,58421.200000047684,58786.89999997616,59246,62935.300000071526],"honeypot":0,"survey":"mace","page":1,"trial_type":"survey-mace","trial_index":9,"time_elapsed":352853,"internal_node_id":"0.0-9.0","task_version":"prescreen-v0.3","browser_interactions":0},{"responses":{"01":"Yes","01_ages_8":"8","01_ages_9":"9","01_ages_10":"10","01_ages_11":"11","01_ages_12":"12","02":"No","03":"Yes","03_ages_5":"5","03_ages_6":"6","03_ages_7":"7","03_ages_8":"8","03_ages_9":"9","03_ages_10":"10","03_ages_11":"11","03_ages_12":"12","03_ages_13":"13","04":"Yes","04_ages_5":"5","04_ages_6":"6","04_ages_7":"7","04_ages_8":"8","04_ages_9":"9","04_ages_10":"10","04_ages_11":"11","04_ages_12":"12","04_ages_13":"13","05":"Yes","05_ages_10":"10","05_ages_11":"11","05_ages_12":"12","06":"No","07":"No","08":"No"},"rt":54757.5,"item_order":[0,1,2,3,4,5,6,7],"radio_events":[8006.400000095367,17679.100000023842,18982.5,34064.200000047684,44900.10000002384,51297.60000002384,52736.5,54159.5],"checkbox_events":[9405.100000023842,9874.700000047684,10327.600000023842,11557.300000071526,12276,12623.5,13013.600000023842,23349.700000047684,24157.700000047684,25161,26084.100000023842,26510,27077.400000095367,27514.300000071526,28104.800000071526,28873.300000071526,35672.700000047684,36070.10000002384,36449.300000071526,37193.40000009537,37735,38917,39344.200000047684,39902.60000002384,40323,45838.10000002384,46200.700000047684,46613],"key_events":[],"mouse_events":[8006.400000095367,9405.100000023842,9874.700000047684,10327.600000023842,10755,11557.300000071526,12276,12623.5,13013.600000023842,17679.100000023842,18982.5,23349.700000047684,23736.800000071526,24157.700000047684,24505.600000023842,25161,25671.5,26084.100000023842,26510,27077.400000095367,27514.300000071526,28104.800000071526,28873.300000071526,34064.200000047684,35672.700000047684,36070.10000002384,36449.300000071526,37193.40000009537,37735,38221.700000047684,38917,39344.200000047684,39902.60000002384,40323,44900.10000002384,45838.10000002384,46200.700000047684,46613,51297.60000002384,52736.5,54159.5,54747.10000002384],"honeypot":0,"survey":"mace","page":2,"trial_type":"survey-mace","trial_index":10,"time_elapsed":407616,"internal_node_id":"0.0-10.0","task_version":"prescreen-v0.3","browser_interactions":0},{"responses":{"01":"No","02":"No","03":"No","04":"No"},"rt":13832.100000023842,"item_order":[0,1,2,3],"radio_events":[6761.399999976158,8160.899999976158,11783,13141],"checkbox_events":[],"key_events":[],"mouse_events":[6761.399999976158,8160.899999976158,11783,13141,13826.899999976158],"honeypot":0,"survey":"mace","page":3,"trial_type":"survey-mace","trial_index":11,"time_elapsed":421454,"internal_node_id":"0.0-11.0","task_version":"prescreen-v0.3","browser_interactions":0},{"responses":{"01":"No","02":"No"},"rt":6374,"item_order":[0,1],"radio_events":[3072.7000000476837,4535.899999976158],"checkbox_events":[],"key_events":[],"mouse_events":[3072.7000000476837,4535.899999976158,6370.100000023842],"honeypot":0,"survey":"mace","page":4,"trial_type":"survey-mace","trial_index":12,"time_elapsed":427832,"internal_node_id":"0.0-12.0","task_version":"prescreen-v0.3","browser_interactions":0},{"responses":{"01":"No","02":"No","03":"No","04":"No","05":"No"},"rt":16453.700000047684,"item_order":[0,1,2,3,4],"radio_events":[3912.4000000953674,7154,8772.900000095367,10527.600000023842,13699.5],"checkbox_events":[],"key_events":[],"mouse_events":[3912.4000000953674,7154,8772.900000095367,10527.600000023842,13699.5,16447.200000047684],"honeypot":0,"survey":"mace","page":5,"trial_type":"survey-mace","trial_index":13,"time_elapsed":444293,"internal_node_id":"0.0-13.0","task_version":"prescreen-v0.3","browser_interactions":0},{"responses":{"01":"Yes","01_ages_10":"10","01_ages_11":"11","01_ages_12":"12","01_ages_13":"13","01_ages_14":"14","01_ages_15":"15","01_ages_16":"16","01_ages_17":"17","01_ages_18":"18","02":"Yes","02_ages_8":"8","02_ages_9":"9","02_ages_10":"10","02_ages_11":"11","02_ages_12":"12","02_ages_13":"13","02_ages_14":"14","02_ages_15":"15","02_ages_16":"16","02_ages_17":"17","02_ages_18":"18","03":"Yes","03_ages_13":"13","03_ages_14":"14","03_ages_15":"15","03_ages_16":"16","03_ages_17":"17","03_ages_18":"18","04":"Yes","04_ages_8":"8","04_ages_9":"9","04_ages_10":"10","04_ages_11":"11","04_ages_12":"12","04_ages_13":"13","04_ages_14":"14","04_ages_15":"15","05":"No"},"rt":39821.700000047684,"item_order":[0,1,2,3,4],"radio_events":[4545.700000047684,14233.100000023842,23962.799999952316,30941,38379],"checkbox_events":[7966.299999952316,8482.399999976158,8961,9518.899999976158,10020.5,10441.899999976158,10830.299999952316,11816.799999952316,12535,15090.799999952316,15924.5,17079.700000047684,17443.399999976158,18518.899999976158,18899,19303.899999976158,19764.799999952316,20466.5,21326.100000023842,22232.299999952316,26387.700000047684,26751.299999952316,27245.899999976158,27656.799999952316,28174.899999976158,28618.200000047684,32121.399999976158,32476.399999976158,32849.200000047684,33753.200000047684,34070,34684,35403.299999952316,35759.60000002384],"key_events":[],"mouse_events":[4545.700000047684,7966.299999952316,8482.399999976158,8961,9518.899999976158,10020.5,10441.899999976158,10830.299999952316,11321.799999952316,11816.799999952316,12535,14233.100000023842,15090.799999952316,15543,15924.5,16448.799999952316,17079.700000047684,17443.399999976158,18518.899999976158,18899,19303.899999976158,19764.799999952316,20466.5,20937,21326.100000023842,21803.700000047684,22232.299999952316,23962.799999952316,26387.700000047684,26751.299999952316,27245.899999976158,27656.799999952316,28174.899999976158,28618.200000047684,30941,32121.399999976158,32476.399999976158,32849.200000047684,33753.200000047684,34070,34684,35071.10000002384,35403.299999952316,35759.60000002384,38379,39815.700000047684],"honeypot":0,"survey":"mace","page":6,"trial_type":"survey-mace","trial_index":14,"time_elapsed":484123,"internal_node_id":"0.0-14.0","task_version":"prescreen-v0.3","browser_interactions":0},{"responses":{"01":"No","02":"Yes","02_ages_13":"13","02_ages_18":"18","03":"Yes","03_ages_13":"13","04":"Yes","04_ages_13":"13","05":"No","06":"No","06_ages_18":"18","07":"No"},"rt":33922.700000047684,"item_order":[0,1,2,3,4,5,6],"radio_events":[3863.5,6673.299999952316,11770.899999976158,14667.100000023842,18233.5,20724,24637.399999976158,26763],"checkbox_events":[7672.700000047684,9353,12654.100000023842,15668.299999952316,21774.399999976158],"key_events":[],"mouse_events":[3863.5,6673.299999952316,7672.700000047684,9353,11244.100000023842,11770.899999976158,12654.100000023842,14667.100000023842,15668.299999952316,18233.5,20724,21774.399999976158,24637.399999976158,26763,33911.799999952316],"honeypot":0,"survey":"mace","page":7,"trial_type":"survey-mace","trial_index":15,"time_elapsed":518053,"internal_node_id":"0.0-15.0","task_version":"prescreen-v0.3","browser_interactions":0},{"responses":{"01":"No","02":"Yes","02_ages_10":"10","02_ages_11":"11","02_ages_12":"12","02_ages_13":"13","02_ages_14":"14","03":"Yes","03_ages_10":"10","03_ages_11":"11","03_ages_12":"12","03_ages_13":"13","03_ages_14":"14","03_ages_15":"15","03_ages_16":"16","03_ages_17":"17","03_ages_18":"18","04":"No"},"rt":29360.100000023842,"item_order":[0,1,2,3],"radio_events":[6490.5,10024.700000047684,20035.100000023842,28606.600000023842],"checkbox_events":[11907.899999976158,12450.5,13088.800000071526,14447.399999976158,17479.399999976158,22525.700000047684,22865.100000023842,23318.600000023842,23812.600000023842,24232.200000047684,24814.399999976158,25274.800000071526,25751.100000023842,26116.899999976158],"key_events":[],"mouse_events":[6490.5,10024.700000047684,11907.899999976158,12450.5,13088.800000071526,14447.399999976158,17479.399999976158,20035.100000023842,22525.700000047684,22865.100000023842,23318.600000023842,23812.600000023842,24232.200000047684,24814.399999976158,25274.800000071526,25751.100000023842,26116.899999976158,28606.600000023842,29355.200000047684],"honeypot":0,"survey":"mace","page":8,"trial_type":"survey-mace","trial_index":16,"time_elapsed":547419,"internal_node_id":"0.0-16.0","task_version":"prescreen-v0.3","browser_interactions":0},{"responses":{"01":"Yes","01_ages_1":"1","01_ages_2":"2","01_ages_3":"3","01_ages_4":"4","01_ages_5":"5","01_ages_6":"6","01_ages_7":"7","01_ages_8":"8","01_ages_9":"9","01_ages_10":"10","01_ages_11":"11","01_ages_12":"12","01_ages_13":"13","01_ages_14":"14","01_ages_15":"15","01_ages_16":"16","01_ages_17":"17","01_ages_18":"18","02":"Yes","02_ages_1":"1","02_ages_2":"2","02_ages_3":"3","02_ages_4":"4","02_ages_5":"5","02_ages_6":"6","02_ages_7":"7","02_ages_8":"8","02_ages_9":"9","02_ages_10":"10","02_ages_11":"11","02_ages_12":"12","02_ages_13":"13","02_ages_14":"14","02_ages_15":"15","02_ages_16":"16","02_ages_17":"17","02_ages_18":"18","03":"Yes","03_ages_1":"1","03_ages_2":"2","03_ages_3":"3","03_ages_4":"4","03_ages_5":"5","03_ages_6":"6","03_ages_7":"7","03_ages_8":"8","03_ages_9":"9","03_ages_10":"10","03_ages_11":"11","03_ages_12":"12","03_ages_13":"13","03_ages_14":"14","03_ages_15":"15","03_ages_16":"16","03_ages_17":"17","03_ages_18":"18","04":"Yes","04_ages_1":"1","04_ages_2":"2","04_ages_3":"3","04_ages_4":"4","04_ages_5":"5","04_ages_6":"6","04_ages_7":"7","04_ages_8":"8","04_ages_9":"9","04_ages_10":"10","04_ages_11":"11","04_ages_12":"12","04_ages_13":"13","04_ages_14":"14","04_ages_15":"15","04_ages_16":"16","04_ages_17":"17","04_ages_18":"18"},"rt":60906.700000047684,"item_order":[0,1,2,3],"radio_events":[3663.100000023842,18128.799999952316,32822.89999997616,45434.5],"checkbox_events":[5385.100000023842,5749.700000047684,6962.600000023842,7365.799999952316,7981.600000023842,8370.399999976158,8911.700000047684,9299.5,9825.200000047684,10189.600000023842,10747,11257.700000047684,12218.700000047684,12704.899999976158,13181.299999952316,14451.299999952316,15364.799999952316,15938.899999976158,19269.899999976158,19714.799999952316,20797.299999952316,21259.100000023842,21694.799999952316,22641.799999952316,23061.600000023842,23983.600000023842,24824.299999952316,25325.299999952316,25900.5,26530.299999952316,27089.5,27549.700000047684,28446.899999976158,28852,29474.399999976158,29991,33597.39999997616,33979,34519.10000002384,34995.10000002384,35901.700000047684,36265.60000002384,36765.89999997616,37162.89999997616,37729.200000047684,38214.5,39144.60000002384,39589.700000047684,40074.799999952316,40552,41053.299999952316,41496.60000002384,42419.10000002384,42774.299999952316,47829.799999952316,48629.10000002384,49640.299999952316,50327,50795.799999952316,51183.700000047684,53140.799999952316,53512.799999952316,54047.299999952316,54564.10000002384,54927.799999952316,55413.299999952316,55792.10000002384,56562.799999952316,56933.60000002384,57984.39999997616,58445.200000047684,58972.10000002384,59399.799999952316,60006.799999952316],"key_events":[],"mouse_events":[3663.100000023842,5385.100000023842,5749.700000047684,6291.399999976158,6962.600000023842,7365.799999952316,7981.600000023842,8370.399999976158,8911.700000047684,9299.5,9825.200000047684,10189.600000023842,10747,11257.700000047684,11678,12218.700000047684,12704.899999976158,13181.299999952316,13836.299999952316,14451.299999952316,14959.600000023842,15364.799999952316,15938.899999976158,18128.799999952316,19269.899999976158,19714.799999952316,20335.899999976158,20797.299999952316,21259.100000023842,21694.799999952316,22196.100000023842,22641.799999952316,23061.600000023842,23563.399999976158,23983.600000023842,24412.600000023842,24824.299999952316,25325.299999952316,25900.5,26530.299999952316,27089.5,27549.700000047684,28083.899999976158,28446.899999976158,28852,29474.399999976158,29991,30862.799999952316,32822.89999997616,33597.39999997616,33979,34519.10000002384,34995.10000002384,35425.299999952316,35901.700000047684,36265.60000002384,36765.89999997616,37162.89999997616,37729.200000047684,38214.5,38733.10000002384,39144.60000002384,39589.700000047684,40074.799999952316,40552,41053.299999952316,41496.60000002384,42080.799999952316,42419.10000002384,42774.299999952316,44933.89999997616,45434.5,47197.60000002384,47829.799999952316,48629.10000002384,49640.299999952316,49987.60000002384,50327,50795.799999952316,51183.700000047684,51637.39999997616,52017.60000002384,52462.700000047684,52689.10000002384,53140.799999952316,53512.799999952316,54047.299999952316,54564.10000002384,54927.799999952316,55413.299999952316,55792.10000002384,56562.799999952316,56933.60000002384,57572.799999952316,57984.39999997616,58445.200000047684,58972.10000002384,59399.799999952316,60006.799999952316,60901.60000002384],"honeypot":0,"survey":"mace","page":9,"trial_type":"survey-mace","trial_index":17,"time_elapsed":608331,"internal_node_id":"0.0-17.0","task_version":"prescreen-v0.3","browser_interactions":0},{"responses":{"01":"No","02":"No","03":"No","04":"Yes","04_ages_7":"7","04_ages_8":"8","04_ages_9":"9","04_ages_10":"10","04_ages_11":"11","04_ages_12":"12","04_ages_13":"13","04_ages_14":"14","04_ages_15":"15","05":"Yes","05_ages_12":"12","05_ages_13":"13","06":"Yes","06_ages_17":"17","07":"Yes","07_ages_1":"1","07_ages_2":"2","07_ages_3":"3","07_ages_4":"4","07_ages_5":"5","07_ages_6":"6","07_ages_7":"7","07_ages_8":"8","07_ages_9":"9","07_ages_10":"10","07_ages_11":"11","07_ages_12":"12","07_ages_13":"13","07_ages_14":"14","07_ages_15":"15","07_ages_16":"16","07_ages_17":"17","07_ages_18":"18","08":"Yes","08_ages_1":"1","08_ages_2":"2","08_ages_3":"3","08_ages_4":"4","08_ages_5":"5","08_ages_6":"6","08_ages_7":"7","08_ages_8":"8","08_ages_9":"9","08_ages_10":"10","08_ages_11":"11","08_ages_12":"12","08_ages_13":"13","08_ages_14":"14","08_ages_15":"15","08_ages_16":"16","08_ages_17":"17","08_ages_18":"18"},"rt":61602.299999952316,"item_order":[0,1,2,3,4,5,6,7],"radio_events":[2416.6999999284744,5044.399999976158,6136,8610.299999952316,16219.799999952316,23029.600000023842,32861.299999952316,50361.10000002384],"checkbox_events":[9661.100000023842,10049.600000023842,10444.899999976158,10939.899999976158,11327.399999976158,11772.699999928474,12234.5,12685.299999952316,13212.100000023842,17254.799999952316,18096.899999976158,24992.799999952316,33896.199999928474,34252.199999928474,34625,35828.10000002384,36193.39999997616,36573.5,37430.89999997616,37931.799999952316,38919,39492.799999952316,39897.10000002384,40429.5,40843.39999997616,41407.89999997616,41836.89999997616,42404.199999928474,42817.10000002384,43777.5,51613.89999997616,52106.5,52682.60000002384,53117.89999997616,53658.799999952316,54047,54734.10000002384,55276.39999997616,55956,56320.39999997616,56779.799999952316,57717.799999952316,58082.39999997616,58664.299999952316,59087,59610.10000002384,60071.89999997616,60605.799999952316],"key_events":[],"mouse_events":[2416.6999999284744,3604.1999999284744,5044.399999976158,6136,8610.299999952316,9661.100000023842,10049.600000023842,10444.899999976158,10939.899999976158,11327.399999976158,11772.699999928474,12234.5,12685.299999952316,13212.100000023842,16219.799999952316,17254.799999952316,18096.899999976158,23029.600000023842,24992.799999952316,32861.299999952316,33896.199999928474,34252.199999928474,34625,35005,35402.199999928474,35828.10000002384,36193.39999997616,36573.5,37057.39999997616,37430.89999997616,37931.799999952316,38538,38919,39492.799999952316,39897.10000002384,40429.5,40843.39999997616,41407.89999997616,41836.89999997616,42404.199999928474,42817.10000002384,43244.299999952316,43777.5,50361.10000002384,51613.89999997616,52106.5,52682.60000002384,53117.89999997616,53658.799999952316,54047,54734.10000002384,55276.39999997616,55956,56320.39999997616,56779.799999952316,57717.799999952316,58082.39999997616,58664.299999952316,59087,59610.10000002384,60071.89999997616,60605.799999952316,61593.799999952316],"honeypot":0,"survey":"mace","page":10,"trial_type":"survey-mace","trial_index":18,"time_elapsed":669940,"internal_node_id":"0.0-18.0","task_version":"prescreen-v0.3","browser_interactions":0,"instructed":0},{"rt":4994.300000071526,"trial_type":"mental-health-alert","trial_index":19,"time_elapsed":674937,"internal_node_id":"0.0-19.0","task_version":"prescreen-v0.3","interactions":"[]"}]