[{"view_history":[{"page_index":0,"viewing_time":13109.700000047684},{"page_index":1,"viewing_time":8253.200000047684},{"page_index":2,"viewing_time":3335.0999999046326},{"page_index":3,"viewing_time":1262.6000000238419}],"rt":25962,"trial_type":"instructions","trial_index":0,"time_elapsed":25974,"internal_node_id":"0.0-0.0","task_version":"prescreen-v0.3"},{"rt":15216.5,"responses":{"age":"22","gender-categorical":"Female","gender-free-response":"","ethnicity":"Hispanic or Latino","race":["American Indian/Alaska Native","White"],"education":"Bachelor degree"},"trial_type":"survey-demo","trial_index":1,"time_elapsed":41198,"internal_node_id":"0.0-1.0","task_version":"prescreen-v0.3"},{"responses":{"Q11":"2","Q19":"0","Q14":"3","Q20":"1","Q02":"1","Q21":"3","Q06":"0","Q03":"0","Q18":"1","Q15":"2","Q04":"1","Q16":"2","Q10":"1","Q08":"3","Q05":"1","Q13":"2","Q09":"1","Q07":"0","Q12":"3","Q01":"1","Q17":"1"},"rt":91925,"item_order":[10,18,13,19,1,20,5,2,17,14,3,15,9,7,4,12,8,6,11,0,16],"radio_events":[6459.200000047684,13088.899999976158,16791.399999976158,18365.899999976158,21777.399999976158,26393.200000047684,33921.39999997616,43667.10000002384,44897.10000002384,48525.799999952316,52675.10000002384,56143.10000002384,60400.39999997616,62536.200000047684,69034.70000004768,71363.60000002384,73745.89999997616,78839,83230.5,88457.29999995232,90171.39999997616],"key_events":[],"mouse_events":[6459.200000047684,13088.899999976158,16791.399999976158,18365.899999976158,21777.399999976158,26393.200000047684,33921.39999997616,43667.10000002384,44897.10000002384,48525.799999952316,52675.10000002384,56143.10000002384,60400.39999997616,62536.200000047684,69034.70000004768,71363.60000002384,73745.89999997616,78839,83230.5,88457.29999995232,90171.39999997616,91922.29999995232],"straightlining":0.42857142857142855,"zigzagging":0.55,"honeypot":0,"survey":"sns","trial_type":"survey-template","trial_index":2,"time_elapsed":133132,"internal_node_id":"0.0-2.0","task_version":"prescreen-v0.3","browser_interactions":0,"infrequency":0},{"responses":{"Q01":"3","Q11":"2","Q09":"2","Q12":"2","Q10":"1","Q07":"3","Q08":"2","Q05":"3","Q02":"3","Q06":"2","Q13":"0","Q04":"3","Q03":"3"},"rt":51237.299999952316,"item_order":[0,10,8,11,9,6,7,4,1,5,12,3,2],"radio_events":[5896.199999928474,11673.699999928474,14542.199999928474,18741.299999952316,21812.399999976158,23665.599999904633,29434.899999976158,33186.39999997616,35597.39999997616,38164.59999990463,44138.09999990463,47807.89999997616,50513.59999990463],"key_events":[],"mouse_events":[5896.199999928474,11673.699999928474,14542.199999928474,18741.299999952316,21812.399999976158,23665.599999904633,29434.899999976158,33186.39999997616,35597.39999997616,38164.59999990463,44138.09999990463,47807.89999997616,50513.59999990463,51235.299999952316],"straightlining":0.46153846153846156,"zigzagging":0.5,"honeypot":0,"survey":"bisbas","trial_type":"survey-template","trial_index":3,"time_elapsed":184375,"internal_node_id":"0.0-3.0","task_version":"prescreen-v0.3","browser_interactions":0,"infrequency":0},{"responses":{"Q01":"3","Q02":"2","Q03":"4"},"rt":42315.60000002384,"radio_events":[27116.299999952316,35651.89999997616,41354.699999928474],"key_events":[],"mouse_events":[27116.299999952316,35651.89999997616,41354.699999928474,42314.5],"survey":"map","page":1,"trial_type":"survey-map","trial_index":4,"time_elapsed":226696,"internal_node_id":"0.0-4.0","task_version":"prescreen-v0.3","browser_interactions":0},{"responses":{"Q04":"2","Q05":"2","Q06":"3"},"rt":38783.299999952316,"radio_events":[29082.199999928474,34301.199999928474,37790.5],"key_events":[],"mouse_events":[29082.199999928474,34301.199999928474,37790.5,38782.199999928474],"survey":"map","page":2,"trial_type":"survey-map","trial_index":5,"time_elapsed":265483,"internal_node_id":"0.0-5.0","task_version":"prescreen-v0.3","browser_interactions":0},{"responses":{"Q07":"3","Q08":"0","Q09":"3"},"rt":26815.899999976158,"radio_events":[9300.299999952316,19470.699999928474,23518.199999928474,24699.099999904633],"key_events":[],"mouse_events":[9300.299999952316,19470.699999928474,23518.199999928474,24699.099999904633,26814.699999928474],"survey":"map","page":3,"trial_type":"survey-map","trial_index":6,"time_elapsed":292302,"internal_node_id":"0.0-6.0","task_version":"prescreen-v0.3","browser_interactions":0},{"responses":{"Q10":"2","Q11":"1","Q12":"1","Q13":"2","Q16":"0","Q14":"2","Q15":"2"},"rt":55050.700000047684,"radio_events":[11484.800000071526,12739.800000071526,18779.899999976158,22572.5,35157.39999997616,52630.89999997616,54041.39999997616],"key_events":[],"mouse_events":[11484.800000071526,12739.800000071526,18779.899999976158,22572.5,35157.39999997616,52630.89999997616,54041.39999997616,55049.200000047684],"survey":"map","page":4,"trial_type":"survey-map","trial_index":7,"time_elapsed":347358,"internal_node_id":"0.0-7.0","task_version":"prescreen-v0.3","browser_interactions":0,"infrequency":0},{"view_history":[{"page_index":0,"viewing_time":4071},{"page_index":1,"viewing_time":5748.399999976158}],"rt":9820.600000023842,"trial_type":"instructions","trial_index":8,"time_elapsed":357180,"internal_node_id":"0.0-8.0","task_version":"prescreen-v0.3"},{"responses":{"01":"Yes","01_ages_6":"6","01_ages_7":"7","01_ages_8":"8","01_ages_9":"9","01_ages_10":"10","01_ages_11":"11","01_ages_12":"12","01_ages_13":"13","01_ages_14":"14","01_ages_15":"15","01_ages_16":"16","01_ages_17":"17","01_ages_18":"18","02":"Yes","02_ages_9":"9","02_ages_10":"10","02_ages_11":"11","02_ages_12":"12","02_ages_13":"13","02_ages_14":"14","02_ages_15":"15","02_ages_16":"16","02_ages_17":"17","02_ages_18":"18","03":"Yes","03_ages_14":"14","03_ages_15":"15","03_ages_16":"16","03_ages_17":"17","03_ages_18":"18","04":"Yes","04_ages_13":"13","04_ages_14":"14","04_ages_15":"15","04_ages_16":"16","04_ages_17":"17","04_ages_18":"18","05":"No","06":"No"},"rt":91078.30000007153,"item_order":[0,1,2,3,4,5],"radio_events":[24639.600000023842,44048.10000002384,67780.40000009537,77777.20000004768,86813.70000004768,89302.60000002384],"checkbox_events":[29391.300000071526,30169.200000047684,30866.900000095367,31432.700000047684,32289.400000095367,33256.90000009537,33896.60000002384,34585.300000071526,35216.90000009537,35840.300000071526,36434.40000009537,37082.5,38673.40000009537,47816.90000009537,48923.90000009537,49526.800000071526,50116.10000002384,50822.200000047684,52044.300000071526,52790.10000002384,53372.5,54016,54778.90000009537,70129.80000007153,70662.90000009537,71269.80000007153,71868.30000007153,72516,80003.30000007153,80593.30000007153,81323.20000004768,81864.90000009537,83631.80000007153,84492.80000007153],"key_events":[],"mouse_events":[0.10000002384185791,24639.600000023842,29391.300000071526,30169.200000047684,30866.900000095367,31432.700000047684,32289.400000095367,33256.90000009537,33896.60000002384,34585.300000071526,35216.90000009537,35840.300000071526,36434.40000009537,37082.5,38673.40000009537,44048.10000002384,47816.90000009537,48448.10000002384,48923.90000009537,49526.800000071526,50116.10000002384,50822.200000047684,51429.300000071526,52044.300000071526,52790.10000002384,53372.5,54016,54778.90000009537,67780.40000009537,70129.80000007153,70662.90000009537,71269.80000007153,71868.30000007153,72516,77777.20000004768,80003.30000007153,80593.30000007153,81323.20000004768,81864.90000009537,82508.60000002384,83082.70000004768,83631.80000007153,84492.80000007153,86813.70000004768,89302.60000002384,91074.40000009537],"honeypot":0,"survey":"mace","page":1,"trial_type":"survey-mace","trial_index":9,"time_elapsed":448269,"internal_node_id":"0.0-9.0","task_version":"prescreen-v0.3","browser_interactions":0},{"responses":{"01":"No","02":"No","03":"Yes","03_ages_2":"2","03_ages_3":"3","03_ages_4":"4","03_ages_5":"5","03_ages_6":"6","03_ages_7":"7","04":"No","05":"No","06":"No","07":"No","08":"No"},"rt":42923.89999997616,"item_order":[0,1,2,3,4,5,6,7],"radio_events":[5814.699999928474,9623.399999976158,11497.199999928474,24113.799999952316,24835.5,39256.09999990463,40149.89999997616,41572.5],"checkbox_events":[13481.5,14030.599999904633,14498.199999928474,15146.299999952316,15797.899999976158,16371.699999928474],"key_events":[],"mouse_events":[5814.699999928474,9623.399999976158,11497.199999928474,13481.5,14030.599999904633,14498.199999928474,15146.299999952316,15797.899999976158,16371.699999928474,24113.799999952316,24835.5,39256.09999990463,40149.89999997616,41572.5,42917.5],"honeypot":0,"survey":"mace","page":2,"trial_type":"survey-mace","trial_index":10,"time_elapsed":491200,"internal_node_id":"0.0-10.0","task_version":"prescreen-v0.3","browser_interactions":0},{"responses":{"01":"No","02":"No","03":"No","04":"No"},"rt":12436.799999952316,"item_order":[0,1,2,3],"radio_events":[6779.599999904633,8501.199999928474,10186.299999952316,11334.299999952316],"checkbox_events":[],"key_events":[],"mouse_events":[6779.599999904633,8501.199999928474,10186.299999952316,11334.299999952316,12433.299999952316],"honeypot":0,"survey":"mace","page":3,"trial_type":"survey-mace","trial_index":11,"time_elapsed":503642,"internal_node_id":"0.0-11.0","task_version":"prescreen-v0.3","browser_interactions":0},{"responses":{"01":"No","02":"No"},"rt":11358.800000071526,"item_order":[0,1],"radio_events":[9402.200000047684,10464.5],"checkbox_events":[],"key_events":[],"mouse_events":[9402.200000047684,10464.5,11357.5],"honeypot":0,"survey":"mace","page":4,"trial_type":"survey-mace","trial_index":12,"time_elapsed":515003,"internal_node_id":"0.0-12.0","task_version":"prescreen-v0.3","browser_interactions":0},{"responses":{"01":"No","02":"No","03":"No","04":"No","05":"No"},"rt":33084.10000002384,"item_order":[0,1,2,3,4],"radio_events":[20566.800000071526,22961.5,25262.300000071526,28189.800000071526,29132.900000095367],"checkbox_events":[],"key_events":[],"mouse_events":[20566.800000071526,22961.5,25262.300000071526,28189.800000071526,29132.900000095367,33080.90000009537],"honeypot":0,"survey":"mace","page":5,"trial_type":"survey-mace","trial_index":13,"time_elapsed":548093,"internal_node_id":"0.0-13.0","task_version":"prescreen-v0.3","browser_interactions":0},{"responses":{"01":"Yes","01_ages_10":"10","01_ages_11":"11","01_ages_12":"12","01_ages_13":"13","01_ages_14":"14","02":"Yes","02_ages_9":"9","02_ages_10":"10","02_ages_11":"11","02_ages_12":"12","02_ages_13":"13","02_ages_14":"14","02_ages_15":"15","02_ages_16":"16","02_ages_17":"17","02_ages_18":"18","03":"Yes","03_ages_9":"9","03_ages_10":"10","03_ages_11":"11","03_ages_12":"12","03_ages_13":"13","03_ages_14":"14","03_ages_15":"15","03_ages_16":"16","03_ages_17":"17","03_ages_18":"18","04":"No","05":"No"},"rt":113821.20000004768,"item_order":[0,1,2,3,4],"radio_events":[15528.899999976158,33208.5,45140,65486.700000047684,112678],"checkbox_events":[17677.300000071526,18443.800000071526,18985.300000071526,20190.399999976158,21813.899999976158,35143.800000071526,35955.200000047684,36754.300000071526,37328.89999997616,37960.39999997616,38460.39999997616,39494,40100.800000071526,40998.5,41687.39999997616,47870.800000071526,48703.39999997616,49392,50228.39999997616,51909.300000071526,53032.700000047684,53848.800000071526,54726.5,55669.200000047684,56678],"key_events":[],"mouse_events":[15528.899999976158,17677.300000071526,18443.800000071526,18985.300000071526,20190.399999976158,21813.899999976158,33208.5,35143.800000071526,35955.200000047684,36754.300000071526,37328.89999997616,37960.39999997616,38460.39999997616,39494,40100.800000071526,40998.5,41687.39999997616,45140,47870.800000071526,48703.39999997616,49392,50228.39999997616,50687.5,51343.60000002384,51909.300000071526,52467,53032.700000047684,53848.800000071526,54726.5,55669.200000047684,56678,65486.700000047684,112678,113817.89999997616],"honeypot":0,"survey":"mace","page":6,"trial_type":"survey-mace","trial_index":14,"time_elapsed":661921,"internal_node_id":"0.0-14.0","task_version":"prescreen-v0.3","browser_interactions":0},{"responses":{"01":"No","02":"No","03":"Yes","03_ages_12":"12","03_ages_13":"13","03_ages_14":"14","04":"No","05":"No","06":"No","07":"No"},"rt":47224.799999952316,"item_order":[0,1,2,3,4,5,6],"radio_events":[11082.5,22277.899999976158,24627.199999928474,35234.5,36895,41884.699999928474,46272.199999928474],"checkbox_events":[31367.599999904633,32159,32848.09999990463],"key_events":[],"mouse_events":[11082.5,22277.899999976158,24627.199999928474,31367.599999904633,32159,32848.09999990463,35234.5,36895,41884.699999928474,46272.199999928474,47219.299999952316],"honeypot":0,"survey":"mace","page":7,"trial_type":"survey-mace","trial_index":15,"time_elapsed":709153,"internal_node_id":"0.0-15.0","task_version":"prescreen-v0.3","browser_interactions":0},{"responses":{"01":"No","02":"Yes","02_ages_11":"11","02_ages_12":"12","02_ages_13":"13","02_ages_14":"14","02_ages_15":"15","02_ages_16":"16","02_ages_17":"17","02_ages_18":"18","03":"Yes","03_ages_12":"12","03_ages_13":"13","03_ages_14":"14","03_ages_15":"15","03_ages_16":"16","03_ages_17":"17","03_ages_18":"18","04":"No"},"rt":67742.40000009537,"item_order":[0,1,2,3],"radio_events":[21492.5,49485.200000047684,52806.40000009537,66850.40000009537],"checkbox_events":[34835.200000047684,35491.300000071526,36585.90000009537,37266.300000071526,38152.40000009537,38955.60000002384,39873.800000071526,40570.700000047684,59129.200000047684,59981.90000009537,60629.90000009537,61277.700000047684,61925.5,62593.90000009537,63332.10000002384],"key_events":[],"mouse_events":[21492.5,34835.200000047684,35491.300000071526,35974.700000047684,36585.90000009537,37266.300000071526,38152.40000009537,38955.60000002384,39873.800000071526,40570.700000047684,49485.200000047684,52806.40000009537,59129.200000047684,59981.90000009537,60629.90000009537,61277.700000047684,61925.5,62593.90000009537,63332.10000002384,66850.40000009537,67740],"honeypot":0,"survey":"mace","page":8,"trial_type":"survey-mace","trial_index":16,"time_elapsed":776900,"internal_node_id":"0.0-16.0","task_version":"prescreen-v0.3","browser_interactions":0},{"responses":{"01":"Yes","01_ages_1":"1","01_ages_2":"2","01_ages_3":"3","01_ages_4":"4","01_ages_5":"5","01_ages_6":"6","01_ages_7":"7","01_ages_8":"8","01_ages_9":"9","01_ages_10":"10","01_ages_11":"11","01_ages_12":"12","01_ages_13":"13","01_ages_14":"14","01_ages_15":"15","01_ages_16":"16","01_ages_17":"17","01_ages_18":"18","02":"Yes","02_ages_10":"10","02_ages_11":"11","02_ages_12":"12","02_ages_13":"13","02_ages_14":"14","02_ages_15":"15","02_ages_16":"16","02_ages_17":"17","02_ages_18":"18","03":"Yes","03_ages_1":"1","03_ages_2":"2","03_ages_3":"3","03_ages_4":"4","03_ages_5":"5","03_ages_6":"6","03_ages_7":"7","03_ages_8":"8","03_ages_9":"9","03_ages_10":"10","03_ages_11":"11","03_ages_12":"12","03_ages_13":"13","03_ages_14":"14","03_ages_15":"15","03_ages_16":"16","03_ages_17":"17","03_ages_18":"18","04":"Yes","04_ages_6":"6","04_ages_7":"7","04_ages_15":"15","04_ages_16":"16"},"rt":140742.30000007153,"item_order":[0,1,2,3],"radio_events":[49171.89999997616,70227.30000007153,93778.60000002384,131555.20000004768],"checkbox_events":[57054.700000047684,57579,58231.10000002384,59133.39999997616,59715,60387.300000071526,60977.89999997616,61814.39999997616,62473.800000071526,63048,63761.200000047684,65434,65991.80000007153,66717.70000004768,67447.30000007153,82027.60000002384,82773.30000007153,83396.5,84110.30000007153,84799,85479.89999997616,86394.20000004768,89502.10000002384,90141.5,95164.20000004768,95795.5,96652.80000007153,97250.39999997616,97882.5,98637.39999997616,99276.89999997616,100391.80000007153,101109.89999997616,101724.89999997616,103340.10000002384,104291.5,105234.5,106178.10000002384,106862.39999997616,107584.10000002384,108183,108814.10000002384,112197.60000002384,112722.30000007153,113205.30000007153,134093.30000007153,134904.70000004768,139148.70000004768,139829.30000007153],"key_events":[],"mouse_events":[49171.89999997616,57054.700000047684,57579,58231.10000002384,59133.39999997616,59715,60387.300000071526,60977.89999997616,61814.39999997616,62473.800000071526,63048,63761.200000047684,64458.5,65434,65991.80000007153,66717.70000004768,67447.30000007153,70227.30000007153,82027.60000002384,82773.30000007153,83396.5,84110.30000007153,84799,85479.89999997616,86394.20000004768,89502.10000002384,90141.5,93778.60000002384,95164.20000004768,95795.5,96652.80000007153,97250.39999997616,97882.5,98637.39999997616,99276.89999997616,99809.89999997616,100391.80000007153,101109.89999997616,101724.89999997616,103340.10000002384,104291.5,105234.5,105751.10000002384,106178.10000002384,106862.39999997616,107584.10000002384,108183,108814.10000002384,112197.60000002384,112722.30000007153,113205.30000007153,131555.20000004768,134093.30000007153,134904.70000004768,139148.70000004768,139829.30000007153,140739.70000004768],"honeypot":0,"survey":"mace","page":9,"trial_type":"survey-mace","trial_index":17,"time_elapsed":917651,"internal_node_id":"0.0-17.0","task_version":"prescreen-v0.3","browser_interactions":0},{"responses":{"01":"No","02":"No","03":"Yes","03_ages_7":"7","03_ages_8":"8","03_ages_9":"9","03_ages_10":"10","03_ages_11":"11","03_ages_16":"16","03_ages_17":"17","03_ages_18":"18","04":"Yes","04_ages_16":"16","04_ages_17":"17","04_ages_18":"18","05":"Yes","05_ages_10":"10","05_ages_11":"11","05_ages_12":"12","05_ages_13":"13","05_ages_14":"14","05_ages_15":"15","05_ages_16":"16","05_ages_17":"17","05_ages_18":"18","06":"Yes","06_ages_17":"17","07":"Yes","07_ages_6":"6","07_ages_7":"7","07_ages_8":"8","07_ages_9":"9","07_ages_10":"10","07_ages_11":"11","07_ages_12":"12","07_ages_13":"13","07_ages_14":"14","07_ages_15":"15","07_ages_16":"16","07_ages_17":"17","07_ages_18":"18","08":"Yes","08_ages_7":"7","08_ages_8":"8","08_ages_9":"9","08_ages_10":"10","08_ages_13":"13","08_ages_16":"16","08_ages_17":"17","08_ages_18":"18"},"rt":168279.89999997616,"item_order":[0,1,2,3,4,5,6,7],"radio_events":[33355.799999952316,34905.39999997616,39051,58941.700000047684,66501.79999995232,79757.5,100553.20000004768,147535],"checkbox_events":[41182.700000047684,41699.200000047684,42818.39999997616,43999.39999997616,45950.799999952316,51217,51856.200000047684,52651.60000002384,53266.5,54037.299999952316,60614,70433.70000004768,71438.10000002384,72020.5,72643.60000002384,73250.70000004768,73890.10000002384,74890.39999997616,75685.89999997616,76243.20000004768,80807.10000002384,81450.39999997616,82254.10000002384,116043.70000004768,116961.79999995232,117511.10000002384,118130.39999997616,118810.79999995232,119401.20000004768,120007.39999997616,120737.20000004768,121360.10000002384,121983.5,122938.70000004768,123554,124865.5,149818.79999995232,151089.5,151941.79999995232,159493,160899.39999997616,165113.39999997616,165588.79999995232,167241],"key_events":[],"mouse_events":[33355.799999952316,34905.39999997616,35709.200000047684,39051,41182.700000047684,41699.200000047684,42818.39999997616,43999.39999997616,45950.799999952316,51217,51856.200000047684,52651.60000002384,53266.5,54037.299999952316,58941.700000047684,60614,66501.79999995232,70433.70000004768,70917.70000004768,71438.10000002384,72020.5,72643.60000002384,73250.70000004768,73890.10000002384,74890.39999997616,75685.89999997616,76243.20000004768,79757.5,80807.10000002384,81450.39999997616,82254.10000002384,100553.20000004768,116043.70000004768,116961.79999995232,117511.10000002384,118130.39999997616,118810.79999995232,119401.20000004768,120007.39999997616,120737.20000004768,121360.10000002384,121983.5,122938.70000004768,123554,124865.5,147535,149818.79999995232,151089.5,151941.79999995232,159493,160899.39999997616,165113.39999997616,165588.79999995232,167241,168274.89999997616],"honeypot":0,"survey":"mace","page":10,"trial_type":"survey-mace","trial_index":18,"time_elapsed":1085942,"internal_node_id":"0.0-18.0","task_version":"prescreen-v0.3","browser_interactions":0,"instructed":0},{"rt":6228.300000071526,"trial_type":"mental-health-alert","trial_index":19,"time_elapsed":1092173,"internal_node_id":"0.0-19.0","task_version":"prescreen-v0.3","interactions":"[]"}]