[{"view_history":[{"page_index":0,"viewing_time":23958},{"page_index":1,"viewing_time":4580},{"page_index":2,"viewing_time":4746},{"page_index":3,"viewing_time":26666}],"rt":59951,"trial_type":"instructions","trial_index":0,"time_elapsed":59978,"internal_node_id":"0.0-0.0","task_version":"prescreen-v0.3"},{"rt":17533,"responses":{"age":"39","gender-categorical":"Male","gender-free-response":"","ethnicity":"Not Hispanic or Latino","race":["White"],"education":"Master degree or higher"},"trial_type":"survey-demo","trial_index":1,"time_elapsed":77532,"internal_node_id":"0.0-1.0","task_version":"prescreen-v0.3"},{"responses":{"Q08":"2","Q02":"3","Q06":"2","Q01":"1","Q13":"2","Q03":"3","Q09":"2","Q04":"2","Q14":"1","Q19":"2","Q12":"3","Q16":"2","Q18":"2","Q20":"0","Q15":"2","Q05":"3","Q07":"2","Q17":"2","Q11":"2","Q21":"3","Q10":"1"},"rt":76842,"item_order":[7,1,5,0,12,2,8,3,13,18,11,15,17,19,14,4,6,16,10,20,9],"radio_events":[21738,23882,24814,25536,26766,28658,29769,55925,57161,58193,59409,61063,62096,63448,65325,66422,67896,69544,71290,72474,73372],"key_events":[],"mouse_events":[21738,23014,23882,24814,25536,26766,28658,29769,55925,57161,58193,59409,61063,62096,63448,65325,66422,67896,69544,71290,72474,73372,76842],"straightlining":0.5714285714285714,"zigzagging":0.65,"honeypot":0,"survey":"sns","trial_type":"survey-template","trial_index":2,"time_elapsed":154382,"internal_node_id":"0.0-2.0","task_version":"prescreen-v0.3","browser_interactions":4,"infrequency":0},{"responses":{"Q11":"2","Q06":"3","Q01":"2","Q05":"2","Q07":"3","Q02":"2","Q12":"1","Q09":"2","Q04":"3","Q08":"2","Q03":"1","Q10":"2","Q13":"0"},"rt":65764,"item_order":[10,5,0,4,6,1,11,8,3,7,2,9,12],"radio_events":[38808,41768,45656,48688,49666,50434,51330,59578,60461,61152,61918,63270,64305],"key_events":[],"mouse_events":[38808,41768,43211,44593,45656,48688,49666,50434,51330,58478,59578,60461,61152,61918,63270,64305,65764],"straightlining":0.5384615384615384,"zigzagging":0.8333333333333334,"honeypot":0,"survey":"bisbas","trial_type":"survey-template","trial_index":3,"time_elapsed":220149,"internal_node_id":"0.0-3.0","task_version":"prescreen-v0.3","browser_interactions":4,"infrequency":0},{"responses":{"Q01":"3","Q02":"2","Q03":"3"},"rt":10215,"radio_events":[7062,8368,9645],"key_events":[],"mouse_events":[7062,8368,9645,10215],"survey":"map","page":1,"trial_type":"survey-map","trial_index":4,"time_elapsed":230373,"internal_node_id":"0.0-4.0","task_version":"prescreen-v0.3","browser_interactions":0},{"responses":{"Q04":"3","Q05":"4","Q06":"3"},"rt":7505,"radio_events":[3031,4394,6482],"key_events":[],"mouse_events":[3031,4394,6482,7505],"survey":"map","page":2,"trial_type":"survey-map","trial_index":5,"time_elapsed":237882,"internal_node_id":"0.0-5.0","task_version":"prescreen-v0.3","browser_interactions":0},{"responses":{"Q07":"3","Q08":"2","Q09":"3"},"rt":6498,"radio_events":[1751,3117,5382],"key_events":[],"mouse_events":[1751,3117,5382,6498],"survey":"map","page":3,"trial_type":"survey-map","trial_index":6,"time_elapsed":244384,"internal_node_id":"0.0-6.0","task_version":"prescreen-v0.3","browser_interactions":0},{"responses":{"Q10":"3","Q11":"4","Q12":"3","Q13":"4","Q16":"3","Q14":"2","Q15":"3"},"rt":13524,"radio_events":[1812,3268,4871,7865,8912,10417,12620],"key_events":[],"mouse_events":[1812,3268,4871,7865,8912,10417,12021,12620,13524],"survey":"map","page":4,"trial_type":"survey-map","trial_index":7,"time_elapsed":257912,"internal_node_id":"0.0-7.0","task_version":"prescreen-v0.3","browser_interactions":0,"infrequency":1},{"view_history":[{"page_index":0,"viewing_time":2170},{"page_index":1,"viewing_time":4177}],"rt":6347,"trial_type":"instructions","trial_index":8,"time_elapsed":264259,"internal_node_id":"0.0-8.0","task_version":"prescreen-v0.3"},{"responses":{"01":"No","02":"No","03":"No","04":"No","05":"No","06":"No"},"rt":18053,"item_order":[0,1,2,3,4,5],"radio_events":[3582,4957,9542,11944,13054,14722,15483],"checkbox_events":[],"key_events":[],"mouse_events":[1,3582,4957,9542,11944,13054,14722,15483,18053],"honeypot":0,"survey":"mace","page":1,"trial_type":"survey-mace","trial_index":9,"time_elapsed":282324,"internal_node_id":"0.0-9.0","task_version":"prescreen-v0.3","browser_interactions":0},{"responses":{"01":"No","02":"No","03":"No","04":"No","05":"No","06":"No","07":"No","08":"No"},"rt":19815,"item_order":[0,1,2,3,4,5,6,7],"radio_events":[4167,5096,6614,11962,12711,14739,16045,16913,18508,19260],"checkbox_events":[],"key_events":[],"mouse_events":[4167,5096,6614,11962,12711,14739,15492,16045,16913,18508,19260,19815],"honeypot":0,"survey":"mace","page":2,"trial_type":"survey-mace","trial_index":10,"time_elapsed":302147,"internal_node_id":"0.0-10.0","task_version":"prescreen-v0.3","browser_interactions":2},{"responses":{"01":"No","02":"No","03":"No","04":"No"},"rt":6602,"item_order":[0,1,2,3],"radio_events":[2187,3072,4588,6076],"checkbox_events":[],"key_events":[],"mouse_events":[2187,3072,4588,6076,6602],"honeypot":0,"survey":"mace","page":3,"trial_type":"survey-mace","trial_index":11,"time_elapsed":308753,"internal_node_id":"0.0-11.0","task_version":"prescreen-v0.3","browser_interactions":0},{"responses":{"01":"No","02":"No"},"rt":3116,"item_order":[0,1],"radio_events":[1826,2442],"checkbox_events":[],"key_events":[],"mouse_events":[1826,2442,3116],"honeypot":0,"survey":"mace","page":4,"trial_type":"survey-mace","trial_index":12,"time_elapsed":311872,"internal_node_id":"0.0-12.0","task_version":"prescreen-v0.3","browser_interactions":0},{"responses":{"01":"No","02":"No","03":"No","04":"No","05":"No"},"rt":8797,"item_order":[0,1,2,3,4],"radio_events":[2546,3526,6002,7263,7908],"checkbox_events":[],"key_events":[],"mouse_events":[2546,3526,6002,6934,7263,7908,8797],"honeypot":0,"survey":"mace","page":5,"trial_type":"survey-mace","trial_index":13,"time_elapsed":320675,"internal_node_id":"0.0-13.0","task_version":"prescreen-v0.3","browser_interactions":0},{"responses":{"01":"No","02":"No","03":"No","04":"No","05":"No"},"rt":7289,"item_order":[0,1,2,3,4],"radio_events":[1991,2934,4650,5320,6403],"checkbox_events":[],"key_events":[],"mouse_events":[1991,2934,4650,5320,6403,7289],"honeypot":0,"survey":"mace","page":6,"trial_type":"survey-mace","trial_index":14,"time_elapsed":327970,"internal_node_id":"0.0-14.0","task_version":"prescreen-v0.3","browser_interactions":0},{"responses":{"01":"No","02":"No","03":"No","04":"No","05":"No","06":"No","07":"No"},"rt":8164,"item_order":[0,1,2,3,4,5,6],"radio_events":[1751,2472,3223,4675,5321,6628,7546],"checkbox_events":[],"key_events":[],"mouse_events":[1751,2472,3223,4675,5321,6628,7546,8164],"honeypot":0,"survey":"mace","page":7,"trial_type":"survey-mace","trial_index":15,"time_elapsed":336141,"internal_node_id":"0.0-15.0","task_version":"prescreen-v0.3","browser_interactions":0},{"responses":{"01":"No","02":"No","03":"No","04":"No"},"rt":8266,"item_order":[0,1,2,3],"radio_events":[2979,4109,5590,7185],"checkbox_events":[],"key_events":[],"mouse_events":[2979,4109,5590,7185,8266],"honeypot":0,"survey":"mace","page":8,"trial_type":"survey-mace","trial_index":16,"time_elapsed":344412,"internal_node_id":"0.0-16.0","task_version":"prescreen-v0.3","browser_interactions":0},{"responses":{"01":"No","02":"No","03":"No","04":"No"},"rt":7891,"item_order":[0,1,2,3],"radio_events":[2606,3462,5022,5897],"checkbox_events":[],"key_events":[],"mouse_events":[1543,2606,3462,5022,5897,7891],"honeypot":0,"survey":"mace","page":9,"trial_type":"survey-mace","trial_index":17,"time_elapsed":352309,"internal_node_id":"0.0-17.0","task_version":"prescreen-v0.3","browser_interactions":0},{"responses":{"01":"No","02":"No","03":"No","04":"No","05":"No","06":"Yes","06_ages_17":"17","07":"Yes","07_ages_18":"18","08":"Yes","08_ages_18":"18"},"rt":27758,"item_order":[0,1,2,3,4,5,6,7],"radio_events":[1345,2053,3611,6106,8310,9574,14605,15608,18195,23627],"checkbox_events":[11871,22366,26271],"key_events":[],"mouse_events":[1345,2053,3611,6106,8310,9574,11871,14605,15608,18195,22366,23627,26271,27758],"honeypot":0,"survey":"mace","page":10,"trial_type":"survey-mace","trial_index":18,"time_elapsed":380076,"internal_node_id":"0.0-18.0","task_version":"prescreen-v0.3","browser_interactions":0,"instructed":0},{"rt":3385,"trial_type":"mental-health-alert","trial_index":19,"time_elapsed":383465,"internal_node_id":"0.0-19.0","task_version":"prescreen-v0.3","interactions":"[{\"event\":\"blur\",\"trial\":0,\"time\":215},{\"event\":\"focus\",\"trial\":0,\"time\":19620},{\"event\":\"blur\",\"trial\":0,\"time\":35542},{\"event\":\"focus\",\"trial\":0,\"time\":58426},{\"event\":\"blur\",\"trial\":2,\"time\":81146},{\"event\":\"focus\",\"trial\":2,\"time\":94818},{\"event\":\"blur\",\"trial\":2,\"time\":108162},{\"event\":\"focus\",\"trial\":2,\"time\":129303},{\"event\":\"blur\",\"trial\":3,\"time\":159986},{\"event\":\"focus\",\"trial\":3,\"time\":164013},{\"event\":\"blur\",\"trial\":3,\"time\":165689},{\"event\":\"focus\",\"trial\":3,\"time\":191245},{\"event\":\"blur\",\"trial\":10,\"time\":283045},{\"event\":\"focus\",\"trial\":10,\"time\":284464}]"}]