[{"view_history":[{"page_index":0,"viewing_time":1295.9000000059605},{"page_index":1,"viewing_time":879.0999999940395},{"page_index":2,"viewing_time":1876.2000000029802},{"page_index":3,"viewing_time":953.8999999910593}],"rt":5005.9000000059605,"trial_type":"instructions","trial_index":0,"time_elapsed":5014,"internal_node_id":"0.0-0.0","task_version":"prescreen-v0.3"},{"rt":10984.29999999702,"responses":{"age":"20","gender-categorical":"Female","gender-free-response":"","ethnicity":"Not Hispanic or Latino","race":["White"],"education":"Some college"},"trial_type":"survey-demo","trial_index":1,"time_elapsed":16004,"internal_node_id":"0.0-1.0","task_version":"prescreen-v0.3"},{"responses":{"Q18":"2","Q02":"2","Q10":"2","Q21":"2","Q06":"2","Q20":"0","Q01":"2","Q07":"1","Q08":"1","Q04":"1","Q15":"1","Q05":"2","Q19":"2","Q03":"0","Q17":"2","Q13":"2","Q12":"2","Q16":"2","Q09":"2","Q11":"2","Q14":"2"},"rt":94229.10000000894,"item_order":[17,1,9,20,5,19,0,6,7,3,14,4,18,2,16,12,11,15,8,10,13],"radio_events":[5164.600000008941,6433.800000011921,8242.70000000298,10523.90000000596,11969.5,13715.5,15163.40000000596,20214.40000000596,22874.40000000596,23609.40000000596,25898.5,28367.10000000894,30424.90000000596,34118.80000001192,38104,38968.40000000596,39421.20000000298,40498.90000000596,46601.40000000596,47458.30000001192,48072.60000000894],"key_events":[],"mouse_events":[1997.5,2571.300000011921,3321.4000000059605,4582.800000011921,5164.600000008941,6433.800000011921,8242.70000000298,10523.90000000596,11969.5,13715.5,15163.40000000596,18032.90000000596,19714.90000000596,20214.40000000596,22874.40000000596,23609.40000000596,25898.5,28367.10000000894,30424.90000000596,34118.80000001192,38104,38968.40000000596,39421.20000000298,40018.10000000894,40498.90000000596,41215.30000001192,45519.30000001192,46601.40000000596,47458.30000001192,48072.60000000894,94221.60000000894],"straightlining":0.7142857142857143,"zigzagging":0.1,"honeypot":0,"survey":"sns","trial_type":"survey-template","trial_index":2,"time_elapsed":110240,"internal_node_id":"0.0-2.0","task_version":"prescreen-v0.3","browser_interactions":0,"infrequency":0.5},{"responses":{"Q11":"2","Q05":"2","Q02":"2","Q10":"2","Q04":"2","Q13":"0","Q01":"2","Q06":"2","Q07":"2","Q08":"2","Q09":"2","Q03":"2","Q12":"2"},"rt":16458.20000000298,"item_order":[10,4,1,9,3,12,0,5,6,7,8,2,11],"radio_events":[2663.7000000029802,3326.1000000089407,4062.6000000089407,4651.9000000059605,5485.100000008941,7544.5,9227.5,10230.20000000298,10682.70000000298,11192.60000000894,14271,14886,15467.20000000298],"key_events":[],"mouse_events":[1499.2000000029802,2663.7000000029802,3326.1000000089407,4062.6000000089407,4651.9000000059605,5485.100000008941,6107.4000000059605,7544.5,9227.5,10230.20000000298,10682.70000000298,11192.60000000894,11983.40000000596,12501,13041.70000000298,13770.40000000596,14271,14886,15467.20000000298,16454.40000000596],"straightlining":0.9230769230769231,"zigzagging":0,"honeypot":0,"survey":"bisbas","trial_type":"survey-template","trial_index":3,"time_elapsed":126703,"internal_node_id":"0.0-3.0","task_version":"prescreen-v0.3","browser_interactions":0,"infrequency":0},{"responses":{"Q01":"3","Q02":"3","Q03":"3"},"rt":5342.29999999702,"radio_events":[2990.5,3644.0999999940395,4742.199999988079],"key_events":[],"mouse_events":[2990.5,3644.0999999940395,4742.199999988079,5341.199999988079],"survey":"map","page":1,"trial_type":"survey-map","trial_index":4,"time_elapsed":132048,"internal_node_id":"0.0-4.0","task_version":"prescreen-v0.3","browser_interactions":0},{"responses":{"Q04":"3","Q05":"3","Q06":"3"},"rt":3749.7999999970198,"radio_events":[1063.5999999940395,2082.5,2962.3999999910593],"key_events":[],"mouse_events":[1063.5999999940395,1645.5,2082.5,2962.3999999910593,3748.0999999940395],"survey":"map","page":2,"trial_type":"survey-map","trial_index":5,"time_elapsed":135802,"internal_node_id":"0.0-5.0","task_version":"prescreen-v0.3","browser_interactions":0},{"responses":{"Q07":"3","Q08":"3","Q09":"3"},"rt":45598,"radio_events":[2265.800000011921,3592,5943.300000011921],"key_events":[],"mouse_events":[979.8000000119209,2265.800000011921,3592,4414.5,5361.800000011921,5943.300000011921,45596.90000000596],"survey":"map","page":3,"trial_type":"survey-map","trial_index":6,"time_elapsed":181403,"internal_node_id":"0.0-6.0","task_version":"prescreen-v0.3","browser_interactions":2},{"responses":{"Q10":"3","Q11":"3","Q12":"3","Q13":"3","Q16":"3","Q14":"3","Q15":"3"},"rt":9240.20000000298,"radio_events":[1403.2000000029802,2042.2000000029802,3926.2000000029802,4621.4000000059605,6730.5,7442,8590.5],"key_events":[],"mouse_events":[1403.2000000029802,2042.2000000029802,2640.2000000029802,3926.2000000029802,4621.4000000059605,5898.70000000298,6730.5,7442,8590.5,9236.90000000596],"survey":"map","page":4,"trial_type":"survey-map","trial_index":7,"time_elapsed":190646,"internal_node_id":"0.0-7.0","task_version":"prescreen-v0.3","browser_interactions":0,"infrequency":1},{"view_history":[{"page_index":0,"viewing_time":1343.3999999910593},{"page_index":1,"viewing_time":1373.800000011921}],"rt":2717.7999999970198,"trial_type":"instructions","trial_index":8,"time_elapsed":193366,"internal_node_id":"0.0-8.0","task_version":"prescreen-v0.3"},{"responses":{"01":"No","02":"No","02_ages_5":"5","02_ages_6":"6","02_ages_7":"7","03":"No","04":"No","05":"No","06":"No"},"rt":19198.80000001192,"item_order":[0,1,2,3,4,5],"radio_events":[4252.800000011921,5586,12491.20000000298,13758.800000011921,14607.300000011921,15940.40000000596,17727.80000001192],"checkbox_events":[8617.70000000298,9563.5,10921.10000000894],"key_events":[],"mouse_events":[0.20000000298023224,2701.300000011921,4252.800000011921,5586,8617.70000000298,9061.800000011921,9563.5,10057,10921.10000000894,11947.20000000298,12491.20000000298,13758.800000011921,14607.300000011921,15156.300000011921,15940.40000000596,16636.60000000894,17727.80000001192,19192.70000000298],"honeypot":0,"survey":"mace","page":1,"trial_type":"survey-mace","trial_index":9,"time_elapsed":212572,"internal_node_id":"0.0-9.0","task_version":"prescreen-v0.3","browser_interactions":0},{"responses":{"01":"No","02":"No","03":"No","04":"No","05":"No","06":"No","07":"No","08":"No"},"rt":12332.70000000298,"item_order":[0,1,2,3,4,5,6,7],"radio_events":[3998.5,5032.70000000298,6730.100000008941,7522.4000000059605,8313.90000000596,8944.300000011921,10068.60000000894,11240,11701.70000000298],"checkbox_events":[],"key_events":[],"mouse_events":[3998.5,5032.70000000298,6730.100000008941,7522.4000000059605,8313.90000000596,8944.300000011921,10068.60000000894,11240,11701.70000000298,12323.90000000596],"honeypot":0,"survey":"mace","page":2,"trial_type":"survey-mace","trial_index":10,"time_elapsed":224908,"internal_node_id":"0.0-10.0","task_version":"prescreen-v0.3","browser_interactions":0},{"responses":{"01":"No","02":"No","03":"No","04":"No"},"rt":7970.899999991059,"item_order":[0,1,2,3],"radio_events":[1046.7999999970198,1895.8999999910593,3617.3999999910593,6769.399999991059],"checkbox_events":[],"key_events":[],"mouse_events":[1046.7999999970198,1895.8999999910593,2623.3999999910593,3617.3999999910593,4224.29999999702,6236.199999988079,6769.399999991059,7538.0999999940395,7966.29999999702],"honeypot":0,"survey":"mace","page":3,"trial_type":"survey-mace","trial_index":11,"time_elapsed":232882,"internal_node_id":"0.0-11.0","task_version":"prescreen-v0.3","browser_interactions":0},{"responses":{"01":"No","02":"No"},"rt":2985.7000000029802,"item_order":[0,1],"radio_events":[1696.9000000059605,2391.2000000029802],"checkbox_events":[],"key_events":[],"mouse_events":[937.6000000089407,1696.9000000059605,2391.2000000029802,2982.7999999970198],"honeypot":0,"survey":"mace","page":4,"trial_type":"survey-mace","trial_index":12,"time_elapsed":235871,"internal_node_id":"0.0-12.0","task_version":"prescreen-v0.3","browser_interactions":0},{"responses":{"01":"No","02":"No","03":"No","04":"No","05":"No"},"rt":7036.199999988079,"item_order":[0,1,2,3,4],"radio_events":[2102.8999999910593,2952,4423.0999999940395,5206.79999999702,6055.29999999702],"checkbox_events":[],"key_events":[],"mouse_events":[971.5999999940395,1609.7999999970198,2102.8999999910593,2952,3751.7999999970198,4423.0999999940395,5206.79999999702,6055.29999999702,7033.399999991059],"honeypot":0,"survey":"mace","page":5,"trial_type":"survey-mace","trial_index":13,"time_elapsed":242910,"internal_node_id":"0.0-13.0","task_version":"prescreen-v0.3","browser_interactions":0},{"responses":{"01":"No","02":"No","03":"No","04":"No","05":"No"},"rt":6675.4000000059605,"item_order":[0,1,2,3,4],"radio_events":[1263.7000000029802,3478.5,4514.70000000298,5347,6065.79999999702],"checkbox_events":[],"key_events":[],"mouse_events":[1263.7000000029802,1878.2999999970198,3478.5,4514.70000000298,5347,6065.79999999702,6670.20000000298],"honeypot":0,"survey":"mace","page":6,"trial_type":"survey-mace","trial_index":14,"time_elapsed":249589,"internal_node_id":"0.0-14.0","task_version":"prescreen-v0.3","browser_interactions":0},{"responses":{"01":"No","02":"No","03":"No","04":"No","05":"No","06":"No","07":"No"},"rt":10912.5,"item_order":[0,1,2,3,4,5,6],"radio_events":[1195.7999999970198,2037.4000000059605,3880.9000000059605,4526.4000000059605,6475,9416.59999999404,10063.70000000298],"checkbox_events":[],"key_events":[],"mouse_events":[1195.7999999970198,2037.4000000059605,2570.0999999940395,3880.9000000059605,4526.4000000059605,5197.4000000059605,6475,7606.5,8859.29999999702,9416.59999999404,10063.70000000298,10905.20000000298],"honeypot":0,"survey":"mace","page":7,"trial_type":"survey-mace","trial_index":15,"time_elapsed":260504,"internal_node_id":"0.0-15.0","task_version":"prescreen-v0.3","browser_interactions":0},{"responses":{"01":"No","02":"No","03":"No","04":"No"},"rt":4778.5999999940395,"item_order":[0,1,2,3],"radio_events":[1403.2999999970198,2365.5999999940395,3206.2000000029802,3909],"checkbox_events":[],"key_events":[],"mouse_events":[1403.2999999970198,2365.5999999940395,3206.2000000029802,3909,4773.70000000298],"honeypot":0,"survey":"mace","page":8,"trial_type":"survey-mace","trial_index":16,"time_elapsed":265285,"internal_node_id":"0.0-16.0","task_version":"prescreen-v0.3","browser_interactions":0},{"responses":{"01":"Yes","01_ages_12":"12","01_ages_13":"13","01_ages_14":"14","01_ages_15":"15","01_ages_16":"16","01_ages_17":"17","02":"Yes","02_ages_12":"12","02_ages_13":"13","02_ages_14":"14","02_ages_15":"15","02_ages_16":"16","02_ages_17":"17","03":"Yes","03_ages_12":"12","03_ages_13":"13","03_ages_14":"14","03_ages_15":"15","03_ages_16":"16","03_ages_17":"17","03_ages_18":"18","04":"Yes","04_ages_12":"12","04_ages_13":"13","04_ages_14":"14","04_ages_15":"15","04_ages_16":"16","04_ages_17":"17","04_ages_18":"18"},"rt":32525.20000000298,"item_order":[0,1,2,3],"radio_events":[2912.4000000059605,5523,11318,16542.5,24712.79999999702],"checkbox_events":[7833.29999999702,8223.29999999702,8709.09999999404,9144,9629.20000000298,10082.29999999702,12327.90000000596,12846,13396,14148,14720.29999999702,15165,18325.59999999404,19377.90000000596,20218.5,21332.29999999702,22133.20000000298,22644,25958.29999999702,26548.09999999404,27105.79999999702,27687.79999999702,28277.40000000596,28737,30636.09999999404,31389.20000000298],"key_events":[],"mouse_events":[1004,2912.4000000059605,5523,7833.29999999702,8223.29999999702,8709.09999999404,9144,9629.20000000298,10082.29999999702,11318,12327.90000000596,12846,13396,13791.90000000596,14148,14720.29999999702,15165,16542.5,17947.40000000596,18325.59999999404,18780.09999999404,19377.90000000596,19838.09999999404,20218.5,20824.5,21332.29999999702,21722.09999999404,22133.20000000298,22644,24712.79999999702,25958.29999999702,26548.09999999404,27105.79999999702,27687.79999999702,28277.40000000596,28737,30636.09999999404,31389.20000000298,32522.09999999404],"honeypot":0,"survey":"mace","page":9,"trial_type":"survey-mace","trial_index":17,"time_elapsed":297812,"internal_node_id":"0.0-17.0","task_version":"prescreen-v0.3","browser_interactions":0},{"responses":{"01":"No","02":"No","03":"No","04":"No","05":"No","06":"No","07":"No","08":"No"},"rt":10945.29999999702,"item_order":[0,1,2,3,4,5,6,7],"radio_events":[3872.7000000029802,4769.70000000298,6605,7203.20000000298,7850,9135.70000000298,9765.5,10338.79999999702],"checkbox_events":[],"key_events":[],"mouse_events":[3872.7000000029802,4769.70000000298,5457.100000008941,5909.20000000298,6605,7203.20000000298,7850,9135.70000000298,9765.5,10338.79999999702,10937.90000000596],"honeypot":0,"survey":"mace","page":10,"trial_type":"survey-mace","trial_index":18,"time_elapsed":308760,"internal_node_id":"0.0-18.0","task_version":"prescreen-v0.3","browser_interactions":2,"instructed":1},{"rt":2665.9000000059605,"trial_type":"mental-health-alert","trial_index":19,"time_elapsed":311428,"internal_node_id":"0.0-19.0","task_version":"prescreen-v0.3","interactions":"[{\"event\":\"blur\",\"trial\":6,\"time\":147216},{\"event\":\"focus\",\"trial\":6,\"time\":180434},{\"event\":\"blur\",\"trial\":18,\"time\":298394},{\"event\":\"focus\",\"trial\":18,\"time\":299241}]"}]