[{"view_history":[{"page_index":0,"viewing_time":3416.900000035763},{"page_index":1,"viewing_time":3097.5},{"page_index":2,"viewing_time":3627.399999976158},{"page_index":3,"viewing_time":1242.300000011921}],"rt":11385.400000035763,"trial_type":"instructions","trial_index":0,"time_elapsed":11483,"internal_node_id":"0.0-0.0","task_version":"prescreen-v0.3"},{"rt":23503.599999964237,"responses":{"age":"30","gender-categorical":"Female","gender-free-response":"","ethnicity":"Not Hispanic or Latino","race":["White"],"education":"Master degree or higher"},"trial_type":"survey-demo","trial_index":1,"time_elapsed":34995,"internal_node_id":"0.0-1.0","task_version":"prescreen-v0.3"},{"responses":{"Q18":"2","Q02":"2","Q14":"2","Q15":"2","Q21":"3","Q03":"2","Q06":"1","Q08":"1","Q10":"2","Q19":"2","Q04":"2","Q09":"2","Q20":"2","Q12":"2","Q01":"2","Q11":"3","Q16":"1","Q13":"2","Q07":"1","Q05":"1","Q17":"1"},"rt":84707.79999995232,"item_order":[17,1,13,14,20,2,5,7,9,18,3,8,19,11,0,10,15,12,6,4,16],"radio_events":[5821.299999952316,9305.399999976158,11030.399999976158,15377.899999976158,19913.899999976158,23037.599999964237,24029.69999998808,29458.099999964237,33422.799999952316,36497.09999996424,45822.799999952316,47084.5,49063.09999996424,51853,53165,55713.09999996424,58709,60929.09999996424,65568.59999996424,67396.29999995232,71261.29999995232,81221.29999995232,83711.79999995232],"key_events":[],"mouse_events":[5821.299999952316,9305.399999976158,11030.399999976158,15377.899999976158,18374.69999998808,19913.899999976158,23037.599999964237,24029.69999998808,29458.099999964237,33422.799999952316,36497.09999996424,40881.69999998808,45822.799999952316,47084.5,49063.09999996424,51853,53165,55713.09999996424,58709,60929.09999996424,65568.59999996424,67396.29999995232,71261.29999995232,81221.29999995232,83711.79999995232,84705.19999998808],"straightlining":0.6190476190476191,"zigzagging":0.35,"honeypot":0,"survey":"sns","trial_type":"survey-template","trial_index":2,"time_elapsed":119713,"internal_node_id":"0.0-2.0","task_version":"prescreen-v0.3","browser_interactions":0,"infrequency":0},{"responses":{"Q05":"2","Q06":"2","Q08":"2","Q13":"0","Q03":"3","Q11":"3","Q02":"3","Q10":"2","Q04":"3","Q07":"2","Q09":"2","Q12":"2","Q01":"3"},"rt":44278,"item_order":[4,5,7,12,2,10,1,9,3,6,8,11,0],"radio_events":[7072.699999988079,9670.599999964237,12173.599999964237,14801.699999988079,20797.899999976158,25481.30000001192,30525.30000001192,33225.69999998808,35927.5,37753.80000001192,39753.39999997616,41495.89999997616,43532.89999997616],"key_events":[],"mouse_events":[5889,7072.699999988079,9670.599999964237,12173.599999964237,14801.699999988079,20797.899999976158,25481.30000001192,30525.30000001192,33225.69999998808,35927.5,37753.80000001192,39753.39999997616,41495.89999997616,43532.89999997616,44275.39999997616],"straightlining":0.5384615384615384,"zigzagging":0.4166666666666667,"honeypot":0,"survey":"bisbas","trial_type":"survey-template","trial_index":3,"time_elapsed":164000,"internal_node_id":"0.0-3.0","task_version":"prescreen-v0.3","browser_interactions":0,"infrequency":0},{"responses":{"Q01":"2","Q02":"2","Q03":"2"},"rt":15682.400000035763,"radio_events":[5350,11183,14618.400000035763],"key_events":[],"mouse_events":[5350,11183,14618.400000035763,15681.300000011921],"survey":"map","page":1,"trial_type":"survey-map","trial_index":4,"time_elapsed":179690,"internal_node_id":"0.0-4.0","task_version":"prescreen-v0.3","browser_interactions":0},{"responses":{"Q04":"2","Q05":"2","Q06":"2"},"rt":13133.199999988079,"radio_events":[5640,7735.899999976158,11934.599999964237],"key_events":[],"mouse_events":[5640,7735.899999976158,11934.599999964237,13131.800000011921],"survey":"map","page":2,"trial_type":"survey-map","trial_index":5,"time_elapsed":192831,"internal_node_id":"0.0-5.0","task_version":"prescreen-v0.3","browser_interactions":0},{"responses":{"Q07":"3","Q08":"3","Q09":"2"},"rt":14152.199999988079,"radio_events":[4780.600000023842,7614.699999988079,13159],"key_events":[],"mouse_events":[4780.600000023842,7614.699999988079,11116.300000011921,13159,14151.300000011921],"survey":"map","page":3,"trial_type":"survey-map","trial_index":6,"time_elapsed":206989,"internal_node_id":"0.0-6.0","task_version":"prescreen-v0.3","browser_interactions":0},{"responses":{"Q10":"1","Q11":"1","Q12":"1","Q13":"2","Q16":"0","Q14":"1","Q15":"2"},"rt":34553,"radio_events":[3581.899999976158,7805.199999988079,11944.099999964237,16614.5,20301.799999952316,29105.299999952316,33520.19999998808],"key_events":[],"mouse_events":[3581.899999976158,7805.199999988079,11944.099999964237,16614.5,20301.799999952316,29105.299999952316,32472,33520.19999998808,34550.89999997616],"survey":"map","page":4,"trial_type":"survey-map","trial_index":7,"time_elapsed":241550,"internal_node_id":"0.0-7.0","task_version":"prescreen-v0.3","browser_interactions":0,"infrequency":0},{"view_history":[{"page_index":0,"viewing_time":2563.399999976158},{"page_index":1,"viewing_time":3292.399999976158}],"rt":5856.899999976158,"trial_type":"instructions","trial_index":8,"time_elapsed":247411,"internal_node_id":"0.0-8.0","task_version":"prescreen-v0.3"},{"responses":{"01":"No","02":"No","03":"No","04":"No","05":"No","06":"No"},"rt":20555.80000001192,"item_order":[0,1,2,3,4,5],"radio_events":[9693.899999976158,12243.599999964237,14073,15853.399999976158,17004.399999976158,19498.5],"checkbox_events":[],"key_events":[],"mouse_events":[0.09999996423721313,9693.899999976158,12243.599999964237,14073,15853.399999976158,17004.399999976158,19498.5,20549.19999998808],"honeypot":0,"survey":"mace","page":1,"trial_type":"survey-mace","trial_index":9,"time_elapsed":267977,"internal_node_id":"0.0-9.0","task_version":"prescreen-v0.3","browser_interactions":0},{"responses":{"01":"No","02":"No","03":"No","04":"No","05":"No","06":"No","07":"No","08":"No"},"rt":15162.100000023842,"item_order":[0,1,2,3,4,5,6,7],"radio_events":[2378.900000035763,4909.200000047684,6543.600000023842,8483.200000047684,9741.600000023842,11978.400000035763,13089.200000047684,14223.600000023842],"checkbox_events":[],"key_events":[],"mouse_events":[2378.900000035763,4909.200000047684,6543.600000023842,8483.200000047684,9741.600000023842,11978.400000035763,13089.200000047684,14223.600000023842,15155.300000011921],"honeypot":0,"survey":"mace","page":2,"trial_type":"survey-mace","trial_index":10,"time_elapsed":283147,"internal_node_id":"0.0-10.0","task_version":"prescreen-v0.3","browser_interactions":0},{"responses":{"01":"No","02":"No","03":"No","04":"No"},"rt":15071,"item_order":[0,1,2,3],"radio_events":[7246.5,9089.100000023842,13235.100000023842,14175.100000023842],"checkbox_events":[],"key_events":[],"mouse_events":[7246.5,9089.100000023842,10793.600000023842,11961.399999976158,13235.100000023842,14175.100000023842,15066.800000011921],"honeypot":0,"survey":"mace","page":3,"trial_type":"survey-mace","trial_index":11,"time_elapsed":298227,"internal_node_id":"0.0-11.0","task_version":"prescreen-v0.3","browser_interactions":0},{"responses":{"01":"No","02":"No"},"rt":5579.300000011921,"item_order":[0,1],"radio_events":[2723.7000000476837,4741],"checkbox_events":[],"key_events":[],"mouse_events":[2723.7000000476837,3933,4741,5578],"honeypot":0,"survey":"mace","page":4,"trial_type":"survey-mace","trial_index":12,"time_elapsed":303812,"internal_node_id":"0.0-12.0","task_version":"prescreen-v0.3","browser_interactions":0},{"responses":{"01":"No","02":"No","03":"No","04":"No","05":"No"},"rt":17165.899999976158,"item_order":[0,1,2,3,4],"radio_events":[7765.699999988079,9407.300000011921,12119.800000011921,14269.599999964237,16046],"checkbox_events":[],"key_events":[],"mouse_events":[7765.699999988079,9407.300000011921,12119.800000011921,14269.599999964237,16046,17162.80000001192],"honeypot":0,"survey":"mace","page":5,"trial_type":"survey-mace","trial_index":13,"time_elapsed":320986,"internal_node_id":"0.0-13.0","task_version":"prescreen-v0.3","browser_interactions":0},{"responses":{"01":"Yes","01_ages_7":"7","01_ages_8":"8","01_ages_9":"9","01_ages_10":"10","01_ages_11":"11","01_ages_12":"12","02":"Yes","02_ages_7":"7","02_ages_8":"8","02_ages_9":"9","02_ages_10":"10","02_ages_11":"11","02_ages_12":"12","03":"Yes","03_ages_10":"10","04":"No","05":"No"},"rt":74682.69999998808,"item_order":[0,1,2,3,4],"radio_events":[17952.30000001192,21564.100000023842,23429.30000001192,37308.60000002384,48509.10000002384,63571.80000001192,70027.60000002384,73374.5],"checkbox_events":[40659.60000002384,41353,42081.19999998808,43518.10000002384,44354.60000002384,46064.30000001192,52828.19999998808,53899.19999998808,55551.69999998808,56267.19999998808,57265.19999998808,60667.10000002384,65269.30000001192],"key_events":[],"mouse_events":[17.30000001192093,17952.30000001192,21564.100000023842,23429.30000001192,37308.60000002384,40659.60000002384,41353,42081.19999998808,43026.30000001192,43518.10000002384,44354.60000002384,46064.30000001192,48509.10000002384,50898.10000002384,51806.40000003576,52828.19999998808,53899.19999998808,54834.80000001192,55551.69999998808,56267.19999998808,57265.19999998808,60667.10000002384,63571.80000001192,65269.30000001192,70027.60000002384,73374.5,74679.80000001192],"honeypot":0,"survey":"mace","page":6,"trial_type":"survey-mace","trial_index":14,"time_elapsed":395679,"internal_node_id":"0.0-14.0","task_version":"prescreen-v0.3","browser_interactions":0},{"responses":{"01":"No","02":"No","03":"No","04":"No","05":"No","06":"No","07":"No"},"rt":15759.100000023842,"item_order":[0,1,2,3,4,5,6],"radio_events":[3804.899999976158,5242.600000023842,8027.699999988079,10922.899999976158,12859.100000023842,13914.300000011921,14929.199999988079],"checkbox_events":[],"key_events":[],"mouse_events":[3804.899999976158,5242.600000023842,8027.699999988079,10922.899999976158,12859.100000023842,13914.300000011921,14929.199999988079,15755.100000023842],"honeypot":0,"survey":"mace","page":7,"trial_type":"survey-mace","trial_index":15,"time_elapsed":411447,"internal_node_id":"0.0-15.0","task_version":"prescreen-v0.3","browser_interactions":0},{"responses":{"01":"No","02":"No","03":"No","04":"No"},"rt":16768.399999976158,"item_order":[0,1,2,3],"radio_events":[7120.600000023842,10371.600000023842,12156.199999988079,15819.100000023842],"checkbox_events":[],"key_events":[],"mouse_events":[7120.600000023842,10371.600000023842,12156.199999988079,14680.100000023842,15819.100000023842,16764.100000023842],"honeypot":0,"survey":"mace","page":8,"trial_type":"survey-mace","trial_index":16,"time_elapsed":428223,"internal_node_id":"0.0-16.0","task_version":"prescreen-v0.3","browser_interactions":0},{"responses":{"01":"Yes","01_ages_1":"1","01_ages_2":"2","01_ages_3":"3","01_ages_4":"4","01_ages_5":"5","01_ages_6":"6","01_ages_7":"7","01_ages_8":"8","01_ages_9":"9","01_ages_10":"10","01_ages_11":"11","01_ages_12":"12","01_ages_13":"13","01_ages_14":"14","01_ages_15":"15","01_ages_16":"16","01_ages_17":"17","01_ages_18":"18","02":"Yes","02_ages_1":"1","02_ages_2":"2","02_ages_3":"3","02_ages_4":"4","02_ages_5":"5","02_ages_6":"6","02_ages_7":"7","02_ages_8":"8","02_ages_9":"9","02_ages_10":"10","02_ages_11":"11","02_ages_12":"12","02_ages_13":"13","02_ages_14":"14","02_ages_15":"15","02_ages_16":"16","02_ages_17":"17","02_ages_18":"18","03":"Yes","03_ages_1":"1","03_ages_2":"2","03_ages_3":"3","03_ages_4":"4","03_ages_5":"5","03_ages_6":"6","03_ages_7":"7","03_ages_8":"8","03_ages_9":"9","03_ages_10":"10","03_ages_11":"11","03_ages_12":"12","03_ages_13":"13","03_ages_14":"14","03_ages_15":"15","03_ages_16":"16","03_ages_17":"17","03_ages_18":"18","04":"Yes","04_ages_1":"1","04_ages_2":"2","04_ages_3":"3","04_ages_4":"4","04_ages_5":"5","04_ages_6":"6","04_ages_7":"7","04_ages_8":"8","04_ages_9":"9","04_ages_10":"10","04_ages_11":"11","04_ages_12":"12","04_ages_13":"13","04_ages_14":"14","04_ages_15":"15","04_ages_16":"16","04_ages_17":"17","04_ages_18":"18"},"rt":85313.30000001192,"item_order":[0,1,2,3],"radio_events":[6871.399999976158,27613.5,45505.59999996424,64967.80000001192],"checkbox_events":[9245.099999964237,9944.899999976158,11970.800000011921,13354.300000011921,14021.800000011921,14752.300000011921,16650.69999998808,17599.599999964237,18397.80000001192,19173.19999998808,19934,20774,21767,22637.80000001192,23384,24115.19999998808,24864,25638.399999976158,29183.80000001192,30004.80000001192,30766.399999976158,31416.599999964237,32054.69999998808,33497.39999997616,34225.09999996424,35140.39999997616,35818.89999997616,36605.30000001192,37332.39999997616,37995.59999996424,38790.5,39474.89999997616,40283.80000001192,41051.69999998808,41831.89999997616,42690.39999997616,46939.30000001192,47592.89999997616,48353.89999997616,49194.69999998808,49834.30000001192,50534.89999997616,51343.5,51996.89999997616,52712.5,53449.59999996424,54248.30000001192,54993.89999997616,55749,56463,57176.59999996424,57909.59999996424,58613.09999996424,59314.39999997616,68794,69498.19999998808,70184.09999996424,70881.30000001192,71563.69999998808,72214.5,73459.19999998808,74112.19999998808,74946,77204.30000001192,78047.19999998808,79540.30000001192,80467.5,81295.30000001192,82026.09999996424,82867.89999997616,83754.19999998808,84544.5],"key_events":[],"mouse_events":[6871.399999976158,9245.099999964237,9944.899999976158,11260.699999988079,11970.800000011921,13354.300000011921,14021.800000011921,14752.300000011921,16650.69999998808,17599.599999964237,18397.80000001192,19173.19999998808,19934,20774,21767,22637.80000001192,23384,24115.19999998808,24864,25638.399999976158,27613.5,29183.80000001192,30004.80000001192,30766.399999976158,31416.599999964237,32054.69999998808,33072.69999998808,33497.39999997616,34225.09999996424,35140.39999997616,35818.89999997616,36605.30000001192,37332.39999997616,37995.59999996424,38790.5,39474.89999997616,40283.80000001192,41051.69999998808,41831.89999997616,42690.39999997616,45505.59999996424,46939.30000001192,47592.89999997616,48353.89999997616,49194.69999998808,49834.30000001192,50534.89999997616,51343.5,51996.89999997616,52712.5,53449.59999996424,54248.30000001192,54993.89999997616,55749,56463,57176.59999996424,57909.59999996424,58613.09999996424,59314.39999997616,64967.80000001192,68794,69498.19999998808,70184.09999996424,70881.30000001192,71563.69999998808,72214.5,73084.5,73459.19999998808,74112.19999998808,74946,75969.69999998808,76374.69999998808,77204.30000001192,78047.19999998808,79172.69999998808,79540.30000001192,80467.5,81295.30000001192,82026.09999996424,82867.89999997616,83754.19999998808,84544.5,85309.09999996424],"honeypot":0,"survey":"mace","page":9,"trial_type":"survey-mace","trial_index":17,"time_elapsed":513543,"internal_node_id":"0.0-17.0","task_version":"prescreen-v0.3","browser_interactions":0},{"responses":{"01":"No","02":"No","03":"No","04":"No","05":"No","06":"Yes","06_ages_17":"17","07":"Yes","07_ages_1":"1","07_ages_2":"2","07_ages_3":"3","07_ages_4":"4","07_ages_5":"5","07_ages_6":"6","07_ages_7":"7","07_ages_8":"8","07_ages_9":"9","07_ages_10":"10","07_ages_11":"11","07_ages_12":"12","07_ages_13":"13","07_ages_14":"14","07_ages_15":"15","07_ages_16":"16","07_ages_17":"17","07_ages_18":"18","08":"Yes","08_ages_1":"1","08_ages_2":"2","08_ages_3":"3","08_ages_4":"4","08_ages_5":"5","08_ages_6":"6","08_ages_7":"7","08_ages_8":"8","08_ages_9":"9","08_ages_10":"10","08_ages_11":"11","08_ages_12":"12","08_ages_13":"13","08_ages_14":"14","08_ages_15":"15","08_ages_16":"16","08_ages_17":"17","08_ages_18":"18"},"rt":58189,"item_order":[0,1,2,3,4,5,6,7],"radio_events":[5389.099999964237,6466.199999988079,7590.599999964237,9376.800000011921,12597.300000011921,15549.699999988079,20736,40440.59999996424],"checkbox_events":[17396,23144.399999976158,23795.5,24462.399999976158,25140.099999964237,25796.69999998808,26479.5,27115.599999964237,27813.69999998808,28594.599999964237,30021.19999998808,30827.19999998808,31616.19999998808,32498.399999976158,33413.59999996424,34287.80000001192,35014.69999998808,36579.69999998808,36970.89999997616,37949.09999996424,38694.89999997616,41776.5,42382,43829.19999998808,44674.09999996424,45752.80000001192,46514.39999997616,47232.09999996424,47965.59999996424,48777.69999998808,49549.80000001192,50301.69999998808,51065.69999998808,51874.5,52672,53409.30000001192,54245.39999997616,55021.30000001192,57390.59999996424],"key_events":[],"mouse_events":[3545.599999964237,5389.099999964237,6466.199999988079,7590.599999964237,9376.800000011921,12597.300000011921,15549.699999988079,17396,20736,23144.399999976158,23795.5,24462.399999976158,25140.099999964237,25796.69999998808,26479.5,27115.599999964237,27813.69999998808,28594.599999964237,29681.19999998808,30021.19999998808,30827.19999998808,31616.19999998808,32498.399999976158,33413.59999996424,34287.80000001192,35014.69999998808,36579.69999998808,36970.89999997616,37949.09999996424,38694.89999997616,40440.59999996424,41776.5,42382,43829.19999998808,44674.09999996424,45752.80000001192,46514.39999997616,47232.09999996424,47965.59999996424,48777.69999998808,49549.80000001192,50301.69999998808,51065.69999998808,51874.5,52672,53409.30000001192,54245.39999997616,55021.30000001192,56020.30000001192,57390.59999996424,58184.19999998808],"honeypot":0,"survey":"mace","page":10,"trial_type":"survey-mace","trial_index":18,"time_elapsed":571743,"internal_node_id":"0.0-18.0","task_version":"prescreen-v0.3","browser_interactions":0,"instructed":0},{"rt":10001.100000023842,"trial_type":"mental-health-alert","trial_index":19,"time_elapsed":581750,"internal_node_id":"0.0-19.0","task_version":"prescreen-v0.3","interactions":"[]"}]