[{"view_history":[{"page_index":0,"viewing_time":3695},{"page_index":1,"viewing_time":3952},{"page_index":2,"viewing_time":5536},{"page_index":3,"viewing_time":2233}],"rt":15416,"trial_type":"instructions","trial_index":0,"time_elapsed":15418,"internal_node_id":"0.0-0.0","task_version":"prescreen-v0.3"},{"rt":19918,"responses":{"age":"38","gender-categorical":"Male","gender-free-response":"","ethnicity":"Not Hispanic or Latino","race":["White"],"education":"Bachelor degree","siblings":"0"},"trial_type":"survey-demo","trial_index":1,"time_elapsed":35340,"internal_node_id":"0.0-1.0","task_version":"prescreen-v0.3"},{"responses":{"Q18":"3","Q08":"3","Q02":"2","Q16":"3","Q04":"3","Q12":"1","Q09":"1","Q13":"3","Q05":"1","Q21":"3","Q14":"3","Q10":"1","Q17":"1","Q19":"3","Q07":"1","Q11":"1","Q01":"2","Q06":"2","Q20":"1","Q15":"3","Q03":"2"},"rt":117167,"item_order":[17,7,1,15,3,11,8,12,4,20,13,9,16,18,6,10,0,5,19,14,2],"radio_events":[4923,8331,12771,19884,24716,35580,37740,40963,48892,57133,61188,66404,69725,77157,85652,88805,91357,97916,105366,110294,114743],"key_events":[],"mouse_events":[4923,8331,12771,18803,19884,24716,31900,35580,37060,37740,40963,48892,55260,57133,61188,65565,66404,69725,77157,84709,85652,88805,91357,96845,97916,104389,105366,110294,114743,117167],"straightlining":0.42857142857142855,"zigzagging":0.25,"honeypot":0,"survey":"sns","trial_type":"survey-template","trial_index":2,"time_elapsed":152512,"internal_node_id":"0.0-2.0","task_version":"prescreen-v0.3","browser_interactions":0,"infrequency":0},{"responses":{"Q08":"1","Q03":"2","Q01":"2","Q13":"0","Q02":"2","Q10":"1","Q11":"1","Q07":"2","Q05":"2","Q04":"3","Q06":"1","Q09":"1","Q12":"1"},"rt":68757,"item_order":[7,2,0,12,1,9,10,6,4,3,5,8,11],"radio_events":[7035,11818,13731,15827,22587,25516,27475,32980,39891,50708,55795,62196,64420,67220],"key_events":[],"mouse_events":[5378,6282,7035,11818,13731,15827,22587,25516,27475,32980,39891,49388,50708,55795,62196,64420,66196,67220,68757],"straightlining":0.46153846153846156,"zigzagging":0.3333333333333333,"honeypot":0,"survey":"bisbas","trial_type":"survey-template","trial_index":3,"time_elapsed":221273,"internal_node_id":"0.0-3.0","task_version":"prescreen-v0.3","browser_interactions":0,"infrequency":0},{"responses":{"Q01":"0","Q02":"0","Q03":"0"},"rt":15605,"radio_events":[8245,11412,13300],"key_events":[],"mouse_events":[8245,10805,11412,13300,15605],"survey":"map","page":1,"trial_type":"survey-map","trial_index":4,"time_elapsed":236880,"internal_node_id":"0.0-4.0","task_version":"prescreen-v0.3","browser_interactions":0},{"responses":{"Q04":"1","Q05":"1","Q06":"0"},"rt":18286,"radio_events":[7989,14053,16485],"key_events":[],"mouse_events":[7989,14053,16485,18286],"survey":"map","page":2,"trial_type":"survey-map","trial_index":5,"time_elapsed":255168,"internal_node_id":"0.0-5.0","task_version":"prescreen-v0.3","browser_interactions":0},{"responses":{"Q07":"2","Q08":"0","Q09":"0"},"rt":15886,"radio_events":[8709,12510,14334],"key_events":[],"mouse_events":[8245,8709,12510,14334,15886],"survey":"map","page":3,"trial_type":"survey-map","trial_index":6,"time_elapsed":271057,"internal_node_id":"0.0-6.0","task_version":"prescreen-v0.3","browser_interactions":0},{"responses":{"Q10":"0","Q11":"0","Q12":"0","Q13":"0","Q16":"0","Q14":"0","Q15":"0"},"rt":36544,"radio_events":[5054,7686,9871,12165,19118,22718,28598],"key_events":[],"mouse_events":[5054,6901,7686,9871,12165,19118,22718,28598,36544],"survey":"map","page":4,"trial_type":"survey-map","trial_index":7,"time_elapsed":307602,"internal_node_id":"0.0-7.0","task_version":"prescreen-v0.3","browser_interactions":0,"infrequency":0},{"view_history":[{"page_index":0,"viewing_time":2117},{"page_index":1,"viewing_time":5352}],"rt":7469,"trial_type":"instructions","trial_index":8,"time_elapsed":315072,"internal_node_id":"0.0-8.0","task_version":"prescreen-v0.3"},{"responses":{"01":"No","02":"No","03":"No","04":"No","05":"No","06":"Yes","06_ages_8":"8","06_ages_12":"12"},"rt":66893,"item_order":[0,1,2,3,4,5],"radio_events":[13843,28180,30555,34827,39059,44372],"checkbox_events":[60764,65124],"key_events":[],"mouse_events":[0,5539,13843,28180,30555,34827,39059,44372,60764,65124,66893],"honeypot":0,"survey":"mace","page":1,"trial_type":"survey-mace","trial_index":9,"time_elapsed":381973,"internal_node_id":"0.0-9.0","task_version":"prescreen-v0.3","browser_interactions":0},{"responses":{"01":"No","02":"No","03":"Yes","03_ages_8":"8","04":"No","05":"No","06":"No","07":"No","08":"No"},"rt":96973,"item_order":[0,1,2,3,4,5,6,7],"radio_events":[3161,68467,72691,85611,88835,90227,91291,92979],"checkbox_events":[79898],"key_events":[],"mouse_events":[3161,68467,72691,79898,85611,88835,90227,91291,92002,92979,96973],"honeypot":0,"survey":"mace","page":2,"trial_type":"survey-mace","trial_index":10,"time_elapsed":478952,"internal_node_id":"0.0-10.0","task_version":"prescreen-v0.3","browser_interactions":0},{"responses":{"01":"No","02":"No","03":"No","04":"No"},"rt":16331,"item_order":[0,1,2,3],"radio_events":[3066,12114,14857,15457],"checkbox_events":[],"key_events":[],"mouse_events":[3066,12114,13322,14857,15457,16331],"honeypot":0,"survey":"mace","page":3,"trial_type":"survey-mace","trial_index":11,"time_elapsed":495286,"internal_node_id":"0.0-11.0","task_version":"prescreen-v0.3","browser_interactions":0},{"responses":{"01":"No","02":"No"},"rt":9909,"item_order":[0,1],"radio_events":[6324,8044],"checkbox_events":[],"key_events":[],"mouse_events":[6324,7299,8044,9908],"honeypot":0,"survey":"mace","page":4,"trial_type":"survey-mace","trial_index":12,"time_elapsed":505198,"internal_node_id":"0.0-12.0","task_version":"prescreen-v0.3","browser_interactions":0},{"responses":{"01":"Yes","01_ages_1":"1","02":"Yes","02_ages_1":"1","03":"No","04":"No","05":"No"},"rt":57526,"item_order":[0,1,2,3,4],"radio_events":[21764,41429,49789,53677,55533],"checkbox_events":[25437,42726],"key_events":[],"mouse_events":[21764,25437,40685,41429,42726,49789,53677,55533,57526],"honeypot":0,"survey":"mace","page":5,"trial_type":"survey-mace","trial_index":13,"time_elapsed":562729,"internal_node_id":"0.0-13.0","task_version":"prescreen-v0.3","browser_interactions":0},{"responses":{"01":"Yes","01_ages_9":"9","01_ages_10":"10","01_ages_11":"11","02":"Yes","02_ages_9":"9","02_ages_10":"10","02_ages_11":"11","03":"No","04":"No","05":"No"},"rt":86454,"item_order":[0,1,2,3,4],"radio_events":[10787,53387,66933,72700,73780],"checkbox_events":[34754,37867,39867,56772,57755,59517],"key_events":[],"mouse_events":[10787,34754,37867,39867,53387,56772,57755,59517,66933,72700,73780,86454],"honeypot":0,"survey":"mace","page":6,"trial_type":"survey-mace","trial_index":14,"time_elapsed":649188,"internal_node_id":"0.0-14.0","task_version":"prescreen-v0.3","browser_interactions":0},{"responses":{"01":"No","02":"No","03":"No","04":"No","05":"No","06":"No","07":"No"},"rt":18994,"item_order":[0,1,2,3,4,5,6],"radio_events":[3608,4872,9656,12985,14761,16809,18089],"checkbox_events":[],"key_events":[],"mouse_events":[3608,4872,9656,10816,12465,12985,14761,16809,18089,18994],"honeypot":0,"survey":"mace","page":7,"trial_type":"survey-mace","trial_index":15,"time_elapsed":668188,"internal_node_id":"0.0-15.0","task_version":"prescreen-v0.3","browser_interactions":0},{"responses":{"01":"No","02":"No","03":"No","04":"No"},"rt":47667,"item_order":[0,1,2,3],"radio_events":[14066,27346,34050,41083,45003],"checkbox_events":[],"key_events":[],"mouse_events":[13354,14066,26827,27346,34050,41083,45003,47667],"honeypot":0,"survey":"mace","page":8,"trial_type":"survey-mace","trial_index":16,"time_elapsed":715860,"internal_node_id":"0.0-16.0","task_version":"prescreen-v0.3","browser_interactions":0},{"responses":{"01":"Yes","01_ages_1":"1","01_ages_2":"2","01_ages_3":"3","01_ages_4":"4","01_ages_5":"5","01_ages_6":"6","01_ages_7":"7","01_ages_8":"8","01_ages_9":"9","01_ages_10":"10","01_ages_11":"11","01_ages_12":"12","01_ages_13":"13","01_ages_14":"14","01_ages_15":"15","01_ages_16":"16","01_ages_17":"17","01_ages_18":"18","02":"No","03":"Yes","03_ages_1":"1","03_ages_2":"2","03_ages_3":"3","03_ages_4":"4","03_ages_5":"5","03_ages_6":"6","03_ages_7":"7","03_ages_8":"8","03_ages_9":"9","03_ages_10":"10","03_ages_11":"11","03_ages_12":"12","03_ages_13":"13","03_ages_14":"14","03_ages_15":"15","03_ages_16":"16","03_ages_17":"17","03_ages_18":"18","04":"Yes","04_ages_1":"1","04_ages_2":"2","04_ages_3":"3","04_ages_4":"4","04_ages_5":"5","04_ages_6":"6","04_ages_7":"7","04_ages_8":"8","04_ages_9":"9","04_ages_10":"10","04_ages_11":"11","04_ages_12":"12","04_ages_13":"13","04_ages_14":"14","04_ages_15":"15","04_ages_16":"16","04_ages_17":"17","04_ages_18":"18"},"rt":66854,"item_order":[0,1,2,3],"radio_events":[5426,30963,35387,53052],"checkbox_events":[10499,11787,13268,13875,15947,16307,17434,18187,18747,19163,19563,20067,21396,22108,22875,23427,24682,26852,36844,38595,39164,39675,40484,41099,41587,42132,42715,43235,43787,44372,45028,45612,46172,46716,47403,47908,54507,55068,56029,57620,58092,58532,59020,59524,59973,60356,60803,61292,61756,63253,63733,64228,64780,65220],"key_events":[],"mouse_events":[4730,5426,10499,11787,13268,13875,14475,15947,16307,16683,17434,18187,18747,19163,19563,20067,21396,22108,22875,23427,24682,24971,26852,30963,35387,36844,38595,39164,39675,40484,41099,41587,42132,42715,43235,43787,44372,45028,45612,46172,46716,47403,47908,53052,54507,55068,56029,56548,57620,58092,58532,59020,59524,59973,60356,60803,61292,61756,63253,63733,64228,64780,65220,66854],"honeypot":0,"survey":"mace","page":9,"trial_type":"survey-mace","trial_index":17,"time_elapsed":782719,"internal_node_id":"0.0-17.0","task_version":"prescreen-v0.3","browser_interactions":0},{"responses":{"01":"No","02":"No","03":"No","04":"Yes","04_ages_10":"10","04_ages_11":"11","04_ages_12":"12","04_ages_13":"13","04_ages_14":"14","04_ages_15":"15","04_ages_16":"16","04_ages_17":"17","04_ages_18":"18","05":"No","06":"Yes","06_ages_17":"17","07":"No","08":"No"},"rt":120669,"item_order":[0,1,2,3,4,5,6,7],"radio_events":[3040,4240,13177,39113,44161,57417,61058,86770,112627,117299],"checkbox_events":[45738,74650,75186,76777,77290,77762,78266,78770,79226,79690],"key_events":[],"mouse_events":[3040,4240,13177,39113,44161,45738,57417,61058,74650,75186,75970,76777,77290,77762,78266,78770,79226,79690,86770,112627,117299,120669],"honeypot":0,"survey":"mace","page":10,"trial_type":"survey-mace","trial_index":18,"time_elapsed":903394,"internal_node_id":"0.0-18.0","task_version":"prescreen-v0.3","browser_interactions":0,"instructed":0},{"rt":10972,"trial_type":"mental-health-alert","trial_index":19,"time_elapsed":914367,"internal_node_id":"0.0-19.0","task_version":"prescreen-v0.3","interactions":"[{\"event\":\"focus\",\"trial\":0,\"time\":2}]"}]