[{"view_history":[{"page_index":0,"viewing_time":3013.3000000715256},{"page_index":1,"viewing_time":3368.399999976158},{"page_index":2,"viewing_time":3528.600000023842},{"page_index":3,"viewing_time":993.8999999761581}],"rt":10905.200000047684,"trial_type":"instructions","trial_index":0,"time_elapsed":10914,"internal_node_id":"0.0-0.0","task_version":"prescreen-v0.3"},{"rt":18668,"responses":{"age":"20","gender-categorical":"Female","gender-free-response":"","ethnicity":"Not Hispanic or Latino","race":["White"],"education":"Some college"},"trial_type":"survey-demo","trial_index":1,"time_elapsed":29587,"internal_node_id":"0.0-1.0","task_version":"prescreen-v0.3"},{"responses":{"Q18":"2","Q13":"1","Q15":"1","Q14":"1","Q10":"0","Q21":"3","Q02":"1","Q04":"1","Q20":"1","Q17":"1","Q19":"1","Q05":"2","Q03":"1","Q11":"1","Q09":"1","Q12":"1","Q08":"1","Q16":"1","Q07":"0","Q01":"1","Q06":"0"},"rt":117671.70000004768,"item_order":[17,12,14,13,9,20,1,3,19,16,18,4,2,10,8,11,7,15,6,0,5],"radio_events":[10912.100000023842,15157.100000023842,23853.600000023842,25609.899999976158,26341.899999976158,34606.60000002384,38393.39999997616,42844.300000071526,48687.700000047684,53274.39999997616,55579.700000047684,58616.10000002384,64046,70388.60000002384,76218.30000007153,79111.30000007153,84105,89587,91836.10000002384,94284.39999997616,101831.39999997616,107953.80000007153,110052.20000004768,115020.39999997616],"key_events":[],"mouse_events":[10912.100000023842,15157.100000023842,23853.600000023842,25609.899999976158,26341.899999976158,34606.60000002384,38393.39999997616,42844.300000071526,48687.700000047684,53274.39999997616,55579.700000047684,58616.10000002384,64046,70388.60000002384,76218.30000007153,79111.30000007153,84105,89587,91836.10000002384,93664.5,94284.39999997616,101831.39999997616,107953.80000007153,110052.20000004768,115020.39999997616,117667.80000007153],"straightlining":0.7142857142857143,"zigzagging":0.4,"honeypot":0,"survey":"sns","trial_type":"survey-template","trial_index":2,"time_elapsed":147265,"internal_node_id":"0.0-2.0","task_version":"prescreen-v0.3","browser_interactions":0,"infrequency":0},{"responses":{"Q11":"2","Q06":"3","Q02":"2","Q09":"2","Q01":"3","Q12":"2","Q10":"2","Q13":"0","Q03":"2","Q04":"2","Q08":"2","Q07":"2","Q05":"3"},"rt":59959.700000047684,"item_order":[10,5,1,8,0,11,9,12,2,3,7,6,4],"radio_events":[8119.299999952316,12096.700000047684,16711.200000047684,18659.100000023842,23863.5,26294.299999952316,29117.799999952316,31358.799999952316,34776.799999952316,42526.700000047684,45936.60000002384,53582.5,55975.10000002384,59050.799999952316],"key_events":[],"mouse_events":[8119.299999952316,12096.700000047684,16711.200000047684,18659.100000023842,23863.5,26294.299999952316,29117.799999952316,31358.799999952316,34776.799999952316,42526.700000047684,45936.60000002384,53582.5,55975.10000002384,59050.799999952316,59957.200000047684],"straightlining":0.6923076923076923,"zigzagging":0.4166666666666667,"honeypot":0,"survey":"bisbas","trial_type":"survey-template","trial_index":3,"time_elapsed":207228,"internal_node_id":"0.0-3.0","task_version":"prescreen-v0.3","browser_interactions":0,"infrequency":0},{"responses":{"Q01":"3","Q02":"4","Q03":"4"},"rt":27665.299999952316,"radio_events":[15505.600000023842,16442.699999928474,20663.699999928474,22380.299999952316,27155.100000023842],"key_events":[],"mouse_events":[15505.600000023842,16442.699999928474,20663.699999928474,22380.299999952316,27155.100000023842,27664],"survey":"map","page":1,"trial_type":"survey-map","trial_index":4,"time_elapsed":234896,"internal_node_id":"0.0-4.0","task_version":"prescreen-v0.3","browser_interactions":0},{"responses":{"Q04":"3","Q05":"3","Q06":"3"},"rt":11795.300000071526,"radio_events":[5655.200000047684,8734,11102.800000071526],"key_events":[],"mouse_events":[5655.200000047684,8734,11102.800000071526,11794.200000047684],"survey":"map","page":2,"trial_type":"survey-map","trial_index":5,"time_elapsed":246694,"internal_node_id":"0.0-5.0","task_version":"prescreen-v0.3","browser_interactions":0},{"responses":{"Q07":"3","Q08":"4","Q09":"3"},"rt":12269.700000047684,"radio_events":[4328,6848.399999976158,8827.600000023842,11672.899999976158],"key_events":[],"mouse_events":[4328,6848.399999976158,8827.600000023842,11672.899999976158,12268.600000023842],"survey":"map","page":3,"trial_type":"survey-map","trial_index":6,"time_elapsed":258966,"internal_node_id":"0.0-6.0","task_version":"prescreen-v0.3","browser_interactions":0},{"responses":{"Q10":"2","Q11":"3","Q12":"3","Q13":"3","Q16":"0","Q14":"2","Q15":"2"},"rt":36911.200000047684,"radio_events":[5036.5,8430.400000095367,9503.5,18226.900000095367,23887.5,27806.5,31821.200000047684,35939.40000009537],"key_events":[],"mouse_events":[5036.5,8430.400000095367,9503.5,18226.900000095367,23291.300000071526,23887.5,27806.5,31821.200000047684,35939.40000009537,36909],"survey":"map","page":4,"trial_type":"survey-map","trial_index":7,"time_elapsed":295879,"internal_node_id":"0.0-7.0","task_version":"prescreen-v0.3","browser_interactions":0,"infrequency":0},{"view_history":[{"page_index":0,"viewing_time":3008.7999999523163},{"page_index":1,"viewing_time":5614.800000071526}],"rt":8624.199999928474,"trial_type":"instructions","trial_index":8,"time_elapsed":304505,"internal_node_id":"0.0-8.0","task_version":"prescreen-v0.3"},{"responses":{"01":"No","02":"No","03":"No","04":"No","05":"No","06":"No"},"rt":24898.600000023842,"item_order":[0,1,2,3,4,5],"radio_events":[12044.899999976158,15416.200000047684,19105.5,20512.600000023842,22579.600000023842,24224.600000023842],"checkbox_events":[],"key_events":[],"mouse_events":[0,12044.899999976158,15416.200000047684,19105.5,20512.600000023842,22579.600000023842,24224.600000023842,24892.700000047684],"honeypot":0,"survey":"mace","page":1,"trial_type":"survey-mace","trial_index":9,"time_elapsed":329409,"internal_node_id":"0.0-9.0","task_version":"prescreen-v0.3","browser_interactions":0},{"responses":{"01":"No","02":"No","03":"No","04":"No","05":"No","06":"No","07":"No","08":"No"},"rt":20857.799999952316,"item_order":[0,1,2,3,4,5,6,7],"radio_events":[3201.7000000476837,7510.799999952316,10722,11540.899999976158,15118.5,16906.799999952316,18059.700000047684,19411.5],"checkbox_events":[],"key_events":[],"mouse_events":[3201.7000000476837,7510.799999952316,8710.899999976158,10722,11540.899999976158,15118.5,16906.799999952316,18059.700000047684,19411.5,20850.299999952316],"honeypot":0,"survey":"mace","page":2,"trial_type":"survey-mace","trial_index":10,"time_elapsed":350271,"internal_node_id":"0.0-10.0","task_version":"prescreen-v0.3","browser_interactions":0},{"responses":{"01":"No","02":"No","03":"No","04":"No"},"rt":14025.799999952316,"item_order":[0,1,2,3],"radio_events":[4218.299999952316,8552.5,12455.099999904633,13544.099999904633],"checkbox_events":[],"key_events":[],"mouse_events":[4218.299999952316,8552.5,10316.199999928474,11332.899999976158,12455.099999904633,13544.099999904633,14021.199999928474],"honeypot":0,"survey":"mace","page":3,"trial_type":"survey-mace","trial_index":11,"time_elapsed":364300,"internal_node_id":"0.0-11.0","task_version":"prescreen-v0.3","browser_interactions":0},{"responses":{"01":"No","02":"No"},"rt":7261.600000023842,"item_order":[0,1],"radio_events":[2664,5160.5],"checkbox_events":[],"key_events":[],"mouse_events":[2664,5160.5,7259.199999928474],"honeypot":0,"survey":"mace","page":4,"trial_type":"survey-mace","trial_index":12,"time_elapsed":371564,"internal_node_id":"0.0-12.0","task_version":"prescreen-v0.3","browser_interactions":0},{"responses":{"01":"No","02":"No","03":"No","04":"No","05":"No"},"rt":17032.200000047684,"item_order":[0,1,2,3,4],"radio_events":[4764.799999952316,7452.399999976158,12176.799999952316,14275.5,15985.100000023842],"checkbox_events":[],"key_events":[],"mouse_events":[4764.799999952316,7452.399999976158,12176.799999952316,14275.5,15985.100000023842,17026.799999952316],"honeypot":0,"survey":"mace","page":5,"trial_type":"survey-mace","trial_index":13,"time_elapsed":388599,"internal_node_id":"0.0-13.0","task_version":"prescreen-v0.3","browser_interactions":0},{"responses":{"01":"Yes","01_ages_7":"7","01_ages_8":"8","01_ages_9":"9","01_ages_10":"10","01_ages_11":"11","01_ages_12":"12","01_ages_13":"13","01_ages_14":"14","02":"Yes","02_ages_7":"7","02_ages_8":"8","02_ages_9":"9","02_ages_10":"10","02_ages_11":"11","02_ages_12":"12","02_ages_13":"13","02_ages_14":"14","02_ages_15":"15","03":"No","04":"No","05":"No"},"rt":51125.200000047684,"item_order":[0,1,2,3,4],"radio_events":[14212.300000071526,33539.60000002384,45673.700000047684,47516.5,50373.10000002384],"checkbox_events":[22139.800000071526,22712.399999976158,23443.600000023842,24023.800000071526,25541.800000071526,26726.600000023842,28889.200000047684,31250.100000023842,36012.10000002384,36496.39999997616,37061.700000047684,37586.300000071526,38158.5,38715,40376.700000047684,41087.89999997616,42192.39999997616],"key_events":[],"mouse_events":[14212.300000071526,22139.800000071526,22712.399999976158,23443.600000023842,24023.800000071526,25541.800000071526,26726.600000023842,28889.200000047684,31250.100000023842,33539.60000002384,36012.10000002384,36496.39999997616,37061.700000047684,37586.300000071526,38158.5,38715,39207.800000071526,39796,40376.700000047684,41087.89999997616,42192.39999997616,45673.700000047684,47516.5,49904,50373.10000002384,51120.10000002384],"honeypot":0,"survey":"mace","page":6,"trial_type":"survey-mace","trial_index":14,"time_elapsed":439728,"internal_node_id":"0.0-14.0","task_version":"prescreen-v0.3","browser_interactions":0},{"responses":{"01":"No","02":"No","03":"No","04":"No","05":"No","06":"No","07":"No"},"rt":18355.399999976158,"item_order":[0,1,2,3,4,5,6],"radio_events":[5230.399999976158,7090.899999976158,10279.199999928474,11511.399999976158,13268.599999904633,15184.299999952316,17680.799999952316],"checkbox_events":[],"key_events":[],"mouse_events":[4412.199999928474,5230.399999976158,7090.899999976158,10279.199999928474,11511.399999976158,13268.599999904633,15184.299999952316,16941.199999928474,17680.799999952316,18348.5],"honeypot":0,"survey":"mace","page":7,"trial_type":"survey-mace","trial_index":15,"time_elapsed":458087,"internal_node_id":"0.0-15.0","task_version":"prescreen-v0.3","browser_interactions":0},{"responses":{"01":"No","02":"No","03":"No","04":"No"},"rt":23237.399999976158,"item_order":[0,1,2,3],"radio_events":[13266.5,17875.199999928474,20737.299999952316,22597.799999952316],"checkbox_events":[],"key_events":[],"mouse_events":[13266.5,17875.199999928474,20737.299999952316,22597.799999952316,23233.199999928474],"honeypot":0,"survey":"mace","page":8,"trial_type":"survey-mace","trial_index":16,"time_elapsed":481327,"internal_node_id":"0.0-16.0","task_version":"prescreen-v0.3","browser_interactions":0},{"responses":{"01":"Yes","01_ages_1":"1","01_ages_2":"2","01_ages_3":"3","01_ages_4":"4","01_ages_5":"5","01_ages_6":"6","01_ages_7":"7","01_ages_8":"8","01_ages_9":"9","01_ages_10":"10","01_ages_11":"11","01_ages_12":"12","01_ages_13":"13","01_ages_14":"14","01_ages_15":"15","01_ages_16":"16","01_ages_17":"17","01_ages_18":"18","02":"Yes","02_ages_1":"1","02_ages_2":"2","02_ages_3":"3","02_ages_4":"4","02_ages_5":"5","02_ages_6":"6","02_ages_7":"7","02_ages_8":"8","02_ages_9":"9","02_ages_10":"10","02_ages_11":"11","02_ages_12":"12","02_ages_13":"13","02_ages_14":"14","02_ages_15":"15","02_ages_16":"16","02_ages_17":"17","02_ages_18":"18","03":"Yes","03_ages_1":"1","03_ages_2":"2","03_ages_3":"3","03_ages_4":"4","03_ages_5":"5","03_ages_6":"6","03_ages_7":"7","03_ages_8":"8","03_ages_9":"9","03_ages_10":"10","03_ages_11":"11","03_ages_12":"12","03_ages_13":"13","03_ages_14":"14","03_ages_15":"15","03_ages_16":"16","03_ages_17":"17","03_ages_18":"18","04":"Yes","04_ages_1":"1","04_ages_2":"2","04_ages_3":"3","04_ages_4":"4","04_ages_5":"5","04_ages_6":"6","04_ages_7":"7","04_ages_8":"8","04_ages_9":"9","04_ages_10":"10","04_ages_11":"11","04_ages_12":"12","04_ages_13":"13","04_ages_14":"14","04_ages_15":"15","04_ages_16":"16","04_ages_17":"17","04_ages_18":"18"},"rt":60700.300000071526,"item_order":[0,1,2,3],"radio_events":[3563.4000000953674,20822.5,37000.700000047684,50980.40000009537],"checkbox_events":[6337.700000047684,7299.100000023842,8547.700000047684,8945.5,9795.700000047684,10296.5,10805.700000047684,11274.600000023842,11974.300000071526,12490.200000047684,12991.400000095367,13723.200000047684,14749.300000071526,15837.900000095367,16648.600000023842,17197.300000071526,17714.100000023842,18230.900000095367,21998.900000095367,22389.200000047684,23271.200000047684,23786.700000047684,24384.100000023842,24797.900000095367,25338.200000047684,27691.400000095367,28240,28764.600000023842,29289.400000095367,30243.300000071526,30799.800000071526,31308.600000023842,31825.800000071526,32334.200000047684,32859.300000071526,33295.90000009537,38090.40000009537,38638.200000047684,39099.700000047684,39552.700000047684,40013.60000002384,40482.60000002384,40960,41432.800000071526,41901.40000009537,42371.10000002384,43276.60000002384,43722.10000002384,44183.300000071526,44644.300000071526,45487,46003.700000047684,46870.40000009537,47458.300000071526,52268,52665.90000009537,53087.10000002384,53675.300000071526,54096.90000009537,54526,54947.40000009537,55392.60000002384,55854.10000002384,56338.700000047684,56831.5,57300.60000002384,57753.800000071526,58262.5,58755.40000009537,59264.200000047684,59725.200000047684,60154.700000047684],"key_events":[],"mouse_events":[3563.4000000953674,6337.700000047684,7299.100000023842,8547.700000047684,8945.5,9358.300000071526,9795.700000047684,10296.5,10805.700000047684,11274.600000023842,11974.300000071526,12490.200000047684,12991.400000095367,13723.200000047684,14749.300000071526,15837.900000095367,16648.600000023842,17197.300000071526,17714.100000023842,18230.900000095367,20822.5,21998.900000095367,22389.200000047684,22833.800000071526,23271.200000047684,23786.700000047684,24384.100000023842,24797.900000095367,25338.200000047684,25767.200000047684,26300.200000047684,27039.600000023842,27691.400000095367,28240,28764.600000023842,29289.400000095367,29790.100000023842,30243.300000071526,30799.800000071526,31308.600000023842,31825.800000071526,32334.200000047684,32859.300000071526,33295.90000009537,37000.700000047684,38090.40000009537,38638.200000047684,39099.700000047684,39552.700000047684,40013.60000002384,40482.60000002384,40960,41432.800000071526,41901.40000009537,42371.10000002384,42847.90000009537,43276.60000002384,43722.10000002384,44183.300000071526,44644.300000071526,45487,46003.700000047684,46456.700000047684,46870.40000009537,47458.300000071526,50980.40000009537,52268,52665.90000009537,53087.10000002384,53675.300000071526,54096.90000009537,54526,54947.40000009537,55392.60000002384,55854.10000002384,56338.700000047684,56831.5,57300.60000002384,57753.800000071526,58262.5,58755.40000009537,59264.200000047684,59725.200000047684,60154.700000047684,60695.90000009537],"honeypot":0,"survey":"mace","page":9,"trial_type":"survey-mace","trial_index":17,"time_elapsed":542030,"internal_node_id":"0.0-17.0","task_version":"prescreen-v0.3","browser_interactions":0},{"responses":{"01":"No","02":"No","03":"No","04":"No","05":"No","06":"Yes","06_ages_17":"17","07":"Yes","07_ages_1":"1","07_ages_2":"2","07_ages_3":"3","07_ages_4":"4","07_ages_5":"5","07_ages_6":"6","07_ages_7":"7","07_ages_8":"8","07_ages_9":"9","07_ages_10":"10","07_ages_11":"11","07_ages_12":"12","07_ages_13":"13","07_ages_14":"14","07_ages_15":"15","07_ages_16":"16","07_ages_17":"17","07_ages_18":"18","08":"Yes","08_ages_1":"1","08_ages_2":"2","08_ages_3":"3","08_ages_4":"4","08_ages_5":"5","08_ages_6":"6","08_ages_7":"7","08_ages_8":"8","08_ages_9":"9","08_ages_10":"10","08_ages_11":"11","08_ages_12":"12","08_ages_13":"13","08_ages_14":"14","08_ages_15":"15","08_ages_16":"16","08_ages_17":"17","08_ages_18":"18"},"rt":54156.10000002384,"item_order":[0,1,2,3,4,5,6,7],"radio_events":[3784.100000023842,6088.5,11248.200000047684,11852.400000095367,18740.400000095367,20267.200000047684,27462,42596.200000047684],"checkbox_events":[22319.100000023842,30395.300000071526,30808.100000023842,31539.800000071526,32136.100000023842,32883.5,33781.90000009537,34210.90000009537,35012.5,35427.40000009537,35943.10000002384,36436.800000071526,37367.10000002384,37923.5,38488.40000009537,39409.90000009537,40014.300000071526,40650.300000071526,41405.300000071526,43901,44434.40000009537,44903.10000002384,45340.300000071526,45777.800000071526,46254.300000071526,46739.40000009537,47257.200000047684,47756.700000047684,48742.90000009537,49251.5,49847.5,50587.10000002384,51127.700000047684,51652.200000047684,52622.10000002384,53098.800000071526,53544],"key_events":[],"mouse_events":[3784.100000023842,5556.300000071526,6088.5,8243.100000023842,11248.200000047684,11852.400000095367,18740.400000095367,20267.200000047684,22319.100000023842,27462,30395.300000071526,30808.100000023842,31539.800000071526,32136.100000023842,32883.5,33344.300000071526,33781.90000009537,34210.90000009537,34645.60000002384,35012.5,35427.40000009537,35943.10000002384,36436.800000071526,36937.300000071526,37367.10000002384,37923.5,38488.40000009537,39044,39409.90000009537,40014.300000071526,40650.300000071526,41405.300000071526,42596.200000047684,43901,44434.40000009537,44903.10000002384,45340.300000071526,45777.800000071526,46254.300000071526,46739.40000009537,47257.200000047684,47756.700000047684,48289.60000002384,48742.90000009537,49251.5,49847.5,50587.10000002384,51127.700000047684,51652.200000047684,52152.90000009537,52622.10000002384,53098.800000071526,53544,54149],"honeypot":0,"survey":"mace","page":10,"trial_type":"survey-mace","trial_index":18,"time_elapsed":596191,"internal_node_id":"0.0-18.0","task_version":"prescreen-v0.3","browser_interactions":0,"instructed":0},{"rt":8869.299999952316,"trial_type":"mental-health-alert","trial_index":19,"time_elapsed":605062,"internal_node_id":"0.0-19.0","task_version":"prescreen-v0.3","interactions":"[]"}]