[{"view_history":[{"page_index":0,"viewing_time":1700},{"page_index":1,"viewing_time":1615.2000000178814},{"page_index":2,"viewing_time":1791.5},{"page_index":3,"viewing_time":1175.699999988079}],"rt":6283.800000011921,"trial_type":"instructions","trial_index":0,"time_elapsed":6309,"internal_node_id":"0.0-0.0","task_version":"prescreen-v0.3"},{"rt":11030.100000023842,"responses":{"age":"24","gender-categorical":"Female","gender-free-response":"","ethnicity":"Not Hispanic or Latino","race":["White"],"education":"Some college","siblings":"0"},"trial_type":"survey-demo","trial_index":1,"time_elapsed":17351,"internal_node_id":"0.0-1.0","task_version":"prescreen-v0.3"},{"responses":{"Q20":"0","Q10":"2","Q02":"0","Q09":"3","Q07":"3","Q05":"2","Q06":"1","Q18":"2","Q13":"1","Q14":"2","Q01":"0","Q21":"3","Q12":"0","Q19":"2","Q03":"3","Q15":"3","Q11":"2","Q16":"1","Q17":"2","Q04":"3","Q08":"3"},"rt":117560.40000000596,"item_order":[19,9,1,8,6,4,5,17,12,13,0,20,11,18,2,14,10,15,16,3,7],"radio_events":[4820.300000011921,6813.5,10037.5,10891.800000011921,15164.200000017881,19339.80000001192,26412.20000001788,30524.600000023842,34692.40000000596,41676.5,42628.60000002384,46556.10000002384,49836.10000002384,51845.20000001788,57197.5,61157.20000001788,62364.10000002384,63013.30000001192,66245.30000001192,69491.80000001192,71851.90000000596,97580.20000001788,100525.20000001788,115348.90000000596,117124.70000001788],"key_events":[],"mouse_events":[4820.300000011921,6813.5,10037.5,10555.5,10891.800000011921,14612.40000000596,15164.200000017881,18828,19339.80000001192,22987.90000000596,25844.40000000596,26412.20000001788,30101.70000001788,30524.600000023842,33868.40000000596,34692.40000000596,41676.5,42628.60000002384,46556.10000002384,49836.10000002384,51845.20000001788,56125.10000002384,56763.70000001788,57197.5,61157.20000001788,62364.10000002384,63013.30000001192,65685,66245.30000001192,69004,69491.80000001192,71851.90000000596,97580.20000001788,100525.20000001788,100851.70000001788,115348.90000000596,117124.70000001788,117557.5],"straightlining":0.3333333333333333,"zigzagging":0.65,"honeypot":0,"survey":"sns","trial_type":"survey-template","trial_index":2,"time_elapsed":134919,"internal_node_id":"0.0-2.0","task_version":"prescreen-v0.3","browser_interactions":0,"infrequency":0},{"responses":{"Q12":"2","Q08":"0","Q11":"0","Q03":"2","Q05":"2","Q04":"3","Q07":"3","Q09":"1","Q01":"3","Q06":"2","Q13":"0","Q02":"1","Q10":"1"},"rt":50463.59999999404,"item_order":[11,7,10,2,4,3,6,8,0,5,12,1,9],"radio_events":[5445.699999988079,8869.699999988079,11589.799999982119,12310.199999988079,17214.19999998808,22173,26469.59999999404,28597.19999998808,33853.59999999404,36213.59999999404,38758.5,41237.89999997616,44750.39999997616,45678.39999997616,49693.19999998808],"key_events":[],"mouse_events":[4997.799999982119,5445.699999988079,8438.699999988079,8869.699999988079,10639,11134,11589.799999982119,12310.199999988079,17214.19999998808,21932.899999976158,22173,25262.09999999404,25885.399999976158,26469.59999999404,28597.19999998808,31646.09999999404,33366,33853.59999999404,35797.59999999404,36213.59999999404,38758.5,41237.89999997616,44750.39999997616,45678.39999997616,48006.69999998808,48886.09999999404,49693.19999998808,50461.79999998212],"straightlining":0.3076923076923077,"zigzagging":0.25,"honeypot":0,"survey":"bisbas","trial_type":"survey-template","trial_index":3,"time_elapsed":185392,"internal_node_id":"0.0-3.0","task_version":"prescreen-v0.3","browser_interactions":0,"infrequency":0},{"responses":{"Q01":"2","Q02":"2","Q03":"3"},"rt":37352.90000000596,"radio_events":[21471.30000001192,23368.30000001192,26214.90000000596,34246.90000000596],"key_events":[],"mouse_events":[17614.90000000596,21471.30000001192,23368.30000001192,25776.19999998808,26214.90000000596,26799.59999999404,27103.19999998808,34246.90000000596,37351.30000001192],"survey":"map","page":1,"trial_type":"survey-map","trial_index":4,"time_elapsed":222748,"internal_node_id":"0.0-4.0","task_version":"prescreen-v0.3","browser_interactions":0},{"responses":{"Q04":"1","Q05":"1","Q06":"2"},"rt":21533,"radio_events":[13099,15707,20170.90000000596],"key_events":[],"mouse_events":[13099,15707,19386.09999999404,19738.5,20170.90000000596,21531.79999998212],"survey":"map","page":2,"trial_type":"survey-map","trial_index":5,"time_elapsed":244285,"internal_node_id":"0.0-5.0","task_version":"prescreen-v0.3","browser_interactions":0},{"responses":{"Q07":"1","Q08":"4","Q09":"0"},"rt":16394.90000000596,"radio_events":[4890.300000011921,8459.199999988079,10922.300000011921,14426.199999988079,15274.699999988079],"key_events":[],"mouse_events":[4411.199999988079,4890.300000011921,8459.199999988079,10922.300000011921,14066.09999999404,14426.199999988079,15274.699999988079,16394],"survey":"map","page":3,"trial_type":"survey-map","trial_index":6,"time_elapsed":260683,"internal_node_id":"0.0-6.0","task_version":"prescreen-v0.3","browser_interactions":0},{"responses":{"Q10":"1","Q11":"0","Q12":"1","Q13":"2","Q16":"0","Q14":"2","Q15":"2"},"rt":72485.30000001192,"radio_events":[4972.200000017881,9643.800000011921,18085.20000001788,20428.20000001788,23173.40000000596,25436.70000001788,30012.20000001788,57691.60000002384,71693],"key_events":[],"mouse_events":[3603.9000000059605,4019.5,4555.200000017881,4972.200000017881,9236.600000023842,9643.800000011921,18085.20000001788,19484.40000000596,20428.20000001788,23173.40000000596,25436.70000001788,28980.100000023842,29676.70000001788,30012.20000001788,57691.60000002384,58765.10000002384,71028.70000001788,71693,72483.80000001192],"survey":"map","page":4,"trial_type":"survey-map","trial_index":7,"time_elapsed":333171,"internal_node_id":"0.0-7.0","task_version":"prescreen-v0.3","browser_interactions":0,"infrequency":0},{"view_history":[{"page_index":0,"viewing_time":2147.800000011921},{"page_index":1,"viewing_time":2407.699999988079}],"rt":4556.9000000059605,"trial_type":"instructions","trial_index":8,"time_elapsed":337730,"internal_node_id":"0.0-8.0","task_version":"prescreen-v0.3"},{"responses":{"01":"Yes","01_ages_5":"5","01_ages_6":"6","01_ages_7":"7","01_ages_8":"8","01_ages_9":"9","01_ages_10":"10","01_ages_11":"11","01_ages_12":"12","01_ages_13":"13","01_ages_14":"14","01_ages_15":"15","01_ages_16":"16","01_ages_17":"17","01_ages_18":"18","02":"Yes","02_ages_5":"5","02_ages_6":"6","02_ages_7":"7","02_ages_8":"8","02_ages_9":"9","02_ages_10":"10","02_ages_11":"11","02_ages_12":"12","02_ages_13":"13","02_ages_14":"14","02_ages_15":"15","02_ages_16":"16","02_ages_17":"17","02_ages_18":"18","03":"Yes","03_ages_2":"2","03_ages_3":"3","03_ages_4":"4","03_ages_5":"5","03_ages_6":"6","03_ages_7":"7","03_ages_8":"8","03_ages_9":"9","03_ages_10":"10","03_ages_11":"11","03_ages_12":"12","03_ages_13":"13","03_ages_14":"14","03_ages_15":"15","03_ages_16":"16","04":"No","05":"No","06":"Yes","06_ages_2":"2","06_ages_3":"3","06_ages_4":"4","06_ages_5":"5","06_ages_6":"6","06_ages_7":"7","06_ages_8":"8","06_ages_9":"9","06_ages_10":"10","06_ages_11":"11","06_ages_12":"12","06_ages_13":"13","06_ages_14":"14","06_ages_15":"15","06_ages_16":"16"},"rt":68457.39999997616,"item_order":[0,1,2,3,4,5],"radio_events":[5412.799999982119,21589.5,34900.5,52230,54436.79999998212,56325.29999998212],"checkbox_events":[10844.59999999404,11245.09999999404,12157.699999988079,12533.09999999404,13605.399999976158,14037.699999988079,14485.199999988079,15148.59999999404,16092.5,16596.19999998808,17396.19999998808,17868.899999976158,18293.79999998212,18861.29999998212,23557,23997.399999976158,24485.29999998212,24900,25908,26310.5,26876.5,27469.69999998808,27942.09999999404,28420.5,28868.399999976158,29308.899999976158,29644.29999998212,30037.59999999404,30933.59999999404,32012.09999999404,39085.19999998808,40068.79999998212,40908.39999997616,41796.79999998212,42749.19999998808,43205.19999998808,44228.69999998808,44652.5,45196.69999998808,45732.59999999404,46172.69999998808,46669.59999999404,47070.29999998212,48244.09999999404,48669,58300.69999998808,58700,59155.89999997616,59556.29999998212,59972.79999998212,60860.59999999404,61228.29999998212,61636.79999998212,62028.19999998808,62405.5,63564.69999998808,64772.79999998212,65229.5,66652.69999998808,67492.59999999404],"key_events":[],"mouse_events":[0.19999998807907104,5412.799999982119,10844.59999999404,11245.09999999404,11765.5,12157.699999988079,12533.09999999404,12933,13605.399999976158,14037.699999988079,14485.199999988079,15148.59999999404,15627.799999982119,16092.5,16596.19999998808,17076.09999999404,17396.19999998808,17868.899999976158,18293.79999998212,18861.29999998212,21589.5,23557,23997.399999976158,24485.29999998212,24900,25397,25908,26310.5,26876.5,27469.69999998808,27942.09999999404,28420.5,28868.399999976158,29308.899999976158,29644.29999998212,30037.59999999404,30524,30933.59999999404,31636.5,32012.09999999404,34900.5,37324.5,39085.19999998808,40068.79999998212,40549,40908.39999997616,41796.79999998212,42749.19999998808,43205.19999998808,43637.59999999404,43997.59999999404,44228.69999998808,44652.5,45196.69999998808,45732.59999999404,46172.69999998808,46669.59999999404,47070.29999998212,47492.69999998808,48244.09999999404,48669,52230,54436.79999998212,56325.29999998212,58300.69999998808,58700,59155.89999997616,59556.29999998212,59972.79999998212,60365.59999999404,60860.59999999404,61228.29999998212,61636.79999998212,62028.19999998808,62405.5,62885.79999998212,63564.69999998808,64038.29999998212,64428.39999997616,64772.79999998212,65229.5,65733.69999998808,66077.19999998808,66341,66652.69999998808,67125.69999998808,67492.59999999404,68079.19999998808,68453.79999998212],"honeypot":0,"survey":"mace","page":1,"trial_type":"survey-mace","trial_index":9,"time_elapsed":406202,"internal_node_id":"0.0-9.0","task_version":"prescreen-v0.3","browser_interactions":0},{"responses":{"01":"Yes","01_ages_3":"3","01_ages_4":"4","01_ages_5":"5","01_ages_6":"6","01_ages_7":"7","01_ages_8":"8","01_ages_9":"9","01_ages_10":"10","01_ages_11":"11","01_ages_12":"12","01_ages_13":"13","01_ages_14":"14","01_ages_15":"15","01_ages_16":"16","02":"No","03":"Yes","03_ages_1":"1","03_ages_2":"2","03_ages_3":"3","03_ages_4":"4","03_ages_5":"5","03_ages_6":"6","03_ages_7":"7","03_ages_8":"8","03_ages_9":"9","03_ages_10":"10","03_ages_11":"11","03_ages_12":"12","03_ages_13":"13","03_ages_14":"14","04":"Yes","04_ages_1":"1","04_ages_2":"2","04_ages_3":"3","04_ages_4":"4","04_ages_5":"5","04_ages_6":"6","04_ages_7":"7","04_ages_8":"8","04_ages_9":"9","04_ages_10":"10","04_ages_11":"11","04_ages_12":"12","04_ages_13":"13","04_ages_14":"14","05":"Yes","05_ages_1":"1","05_ages_2":"2","05_ages_3":"3","05_ages_4":"4","05_ages_5":"5","05_ages_6":"6","05_ages_7":"7","05_ages_8":"8","05_ages_9":"9","05_ages_10":"10","05_ages_11":"11","05_ages_12":"12","05_ages_13":"13","05_ages_14":"14","05_ages_15":"15","06":"No","07":"Yes","07_ages_4":"4","08":"No"},"rt":113308.30000001192,"item_order":[0,1,2,3,4,5,6,7],"radio_events":[39084.19999998808,56644,59172.59999999404,72411.80000001192,84724.09999999404,104796.5,105661.30000001192,106837.40000000596,112724.59999999404],"checkbox_events":[44053.19999998808,44741.69999998808,45589.5,46364.30000001192,47548.40000000596,48093.59999999404,48580.59999999404,49557.19999998808,49947.30000001192,50852.19999998808,51309.69999998808,51821,52244.69999998808,52740.69999998808,60756.09999999404,61389.5,61899.90000000596,62788.59999999404,63324.5,63861.90000000596,64284.80000001192,65069.69999998808,65763.69999998808,66285.5,66756.59999999404,67588.40000000596,68020.69999998808,69964.59999999404,73540.40000000596,74491.80000001192,74957.19999998808,75388.30000001192,75892.30000001192,76477.59999999404,77243.90000000596,77773.69999998808,78325.80000001192,79357.69999998808,79916.90000000596,80379.90000000596,81477.59999999404,82020.30000001192,86012.09999999404,86845.80000001192,87333.5,88188.19999998808,88796.80000001192,89909.19999998808,90868.80000001192,91444,92092.69999998808,93405.09999999404,93957.59999999404,94796.5,95443.5,95916.80000001192,96428.09999999404,101300.59999999404,101772.69999998808,108941.40000000596],"key_events":[],"mouse_events":[39084.19999998808,44053.19999998808,44741.69999998808,45181.5,45589.5,46093.40000000596,46364.30000001192,46813.59999999404,47133,47548.40000000596,48093.59999999404,48580.59999999404,49197.69999998808,49557.19999998808,49947.30000001192,50852.19999998808,51309.69999998808,51821,52244.69999998808,52740.69999998808,56644,58531.5,58772.59999999404,59172.59999999404,60125.09999999404,60756.09999999404,61389.5,61899.90000000596,62357.19999998808,62788.59999999404,63324.5,63861.90000000596,64284.80000001192,65069.69999998808,65763.69999998808,66285.5,66756.59999999404,67212.59999999404,67588.40000000596,68020.69999998808,69964.59999999404,72411.80000001192,73540.40000000596,74181.59999999404,74491.80000001192,74957.19999998808,75388.30000001192,75892.30000001192,76477.59999999404,76949.5,77243.90000000596,77773.69999998808,78325.80000001192,79012.90000000596,79357.69999998808,79916.90000000596,80379.90000000596,81156.30000001192,81477.59999999404,82020.30000001192,84388.59999999404,84724.09999999404,86012.09999999404,86845.80000001192,87333.5,87789.59999999404,88188.19999998808,88796.80000001192,89380.59999999404,89909.19999998808,90868.80000001192,91444,92092.69999998808,92619.80000001192,93405.09999999404,93957.59999999404,94796.5,95443.5,95916.80000001192,96428.09999999404,101300.59999999404,101772.69999998808,104268.59999999404,104796.5,105661.30000001192,106837.40000000596,108941.40000000596,112724.59999999404,113301.59999999404],"honeypot":0,"survey":"mace","page":2,"trial_type":"survey-mace","trial_index":10,"time_elapsed":519517,"internal_node_id":"0.0-10.0","task_version":"prescreen-v0.3","browser_interactions":0},{"responses":{"01":"No","02":"No","03":"No","04":"No"},"rt":8909.5,"item_order":[0,1,2,3],"radio_events":[3370.399999976158,4593.0999999940395,6561.199999988079,7978.199999988079],"checkbox_events":[],"key_events":[],"mouse_events":[3370.399999976158,4057.2999999821186,4593.0999999940395,5401.699999988079,5985.5,6561.199999988079,7162.199999988079,7978.199999988079,8905.699999988079],"honeypot":0,"survey":"mace","page":3,"trial_type":"survey-mace","trial_index":11,"time_elapsed":528431,"internal_node_id":"0.0-11.0","task_version":"prescreen-v0.3","browser_interactions":0},{"responses":{"01":"No","02":"No"},"rt":7025.9000000059605,"item_order":[0,1],"radio_events":[5647.4000000059605,6272.100000023842],"checkbox_events":[],"key_events":[],"mouse_events":[5647.4000000059605,6272.100000023842,6719.200000017881,7024.100000023842],"honeypot":0,"survey":"mace","page":4,"trial_type":"survey-mace","trial_index":12,"time_elapsed":535462,"internal_node_id":"0.0-12.0","task_version":"prescreen-v0.3","browser_interactions":0},{"responses":{"01":"Yes","01_ages_8":"8","01_ages_9":"9","01_ages_10":"10","01_ages_11":"11","01_ages_12":"12","01_ages_13":"13","01_ages_14":"14","01_ages_15":"15","01_ages_16":"16","01_ages_17":"17","01_ages_18":"18","02":"Yes","02_ages_4":"4","02_ages_5":"5","02_ages_6":"6","02_ages_7":"7","02_ages_8":"8","02_ages_9":"9","02_ages_10":"10","02_ages_11":"11","02_ages_12":"12","02_ages_13":"13","02_ages_14":"14","02_ages_15":"15","02_ages_16":"16","02_ages_17":"17","02_ages_18":"18","03":"No","04":"Yes","04_ages_4":"4","04_ages_5":"5","04_ages_6":"6","04_ages_7":"7","04_ages_8":"8","04_ages_9":"9","04_ages_10":"10","04_ages_11":"11","04_ages_12":"12","04_ages_13":"13","04_ages_14":"14","04_ages_15":"15","04_ages_16":"16","04_ages_17":"17","05":"Yes","05_ages_4":"4","05_ages_5":"5","05_ages_6":"6","05_ages_7":"7","05_ages_8":"8","05_ages_9":"9","05_ages_10":"10","05_ages_11":"11","05_ages_12":"12","05_ages_13":"13","05_ages_14":"14","05_ages_15":"15","05_ages_16":"16","05_ages_17":"17","05_ages_18":"18"},"rt":81492.69999998808,"item_order":[0,1,2,3,4],"radio_events":[4345.300000011921,21144.40000000596,52609.90000000596,53521.69999998808,55418.59999999404,69792.90000000596],"checkbox_events":[8548.800000011921,9280.800000011921,9704.699999988079,10345.300000011921,11400.800000011921,12521,13113.59999999404,14385.09999999404,14913.90000000596,16137,19137.90000000596,22905,23354.5,24714.5,25122.90000000596,25529.30000001192,26208.59999999404,26968.59999999404,27552.59999999404,28633.5,29409.09999999404,29945.30000001192,30425.30000001192,30881.5,31320.80000001192,31713.90000000596,58697.40000000596,59096.5,59656.5,60152.80000001192,60618.69999998808,61089.59999999404,61616.5,62048.5,62561.09999999404,63664.09999999404,64122,64577.40000000596,64968.69999998808,65553.80000001192,72593.69999998808,73457.5,74360.69999998808,74841.80000001192,75456.80000001192,76248.90000000596,76657.5,77481.09999999404,77945.09999999404,78441,79297,79849.80000001192,80288.69999998808,80729.80000001192,81064.80000001192],"key_events":[],"mouse_events":[4345.300000011921,8548.800000011921,8984.59999999404,9280.800000011921,9704.699999988079,10345.300000011921,10849.90000000596,11400.800000011921,11872.699999988079,12200.699999988079,12521,13113.59999999404,13690.09999999404,13976.699999988079,14385.09999999404,14913.90000000596,16137,18760.90000000596,19137.90000000596,21144.40000000596,22905,23354.5,24714.5,25122.90000000596,25529.30000001192,26208.59999999404,26968.59999999404,27552.59999999404,28353.69999998808,28633.5,29138.09999999404,29409.09999999404,29945.30000001192,30425.30000001192,30881.5,31320.80000001192,31713.90000000596,48290,52609.90000000596,53521.69999998808,55418.59999999404,57872.59999999404,58224.69999998808,58697.40000000596,59096.5,59656.5,60152.80000001192,60618.69999998808,61089.59999999404,61616.5,62048.5,62561.09999999404,62993.5,63664.09999999404,64122,64577.40000000596,64968.69999998808,65553.80000001192,69433.40000000596,69792.90000000596,72593.69999998808,73097.69999998808,73457.5,74001.90000000596,74360.69999998808,74841.80000001192,75456.80000001192,75912.69999998808,76248.90000000596,76657.5,77114,77481.09999999404,77945.09999999404,78441,78921.40000000596,79297,79849.80000001192,80288.69999998808,80729.80000001192,81064.80000001192,81489.80000001192],"honeypot":0,"survey":"mace","page":5,"trial_type":"survey-mace","trial_index":13,"time_elapsed":616959,"internal_node_id":"0.0-13.0","task_version":"prescreen-v0.3","browser_interactions":0},{"responses":{"01":"Yes","01_ages_4":"4","01_ages_5":"5","01_ages_6":"6","01_ages_7":"7","01_ages_8":"8","01_ages_9":"9","01_ages_10":"10","01_ages_11":"11","01_ages_12":"12","01_ages_13":"13","01_ages_14":"14","01_ages_15":"15","01_ages_16":"16","01_ages_17":"17","02":"Yes","02_ages_4":"4","02_ages_5":"5","02_ages_6":"6","02_ages_7":"7","02_ages_8":"8","02_ages_9":"9","02_ages_10":"10","02_ages_11":"11","02_ages_12":"12","02_ages_13":"13","02_ages_14":"14","02_ages_15":"15","02_ages_16":"16","02_ages_17":"17","03":"No","04":"No","05":"Yes","05_ages_3":"3","05_ages_4":"4","05_ages_5":"5","05_ages_6":"6","05_ages_7":"7","05_ages_8":"8","05_ages_9":"9","05_ages_10":"10","05_ages_11":"11","05_ages_12":"12","05_ages_13":"13","05_ages_14":"14","05_ages_15":"15","05_ages_16":"16"},"rt":86031.90000000596,"item_order":[0,1,2,3,4],"radio_events":[37596.10000002384,50381.30000001192,69148.60000002384,70523.90000000596,71532,74532.40000000596],"checkbox_events":[39140.20000001788,39949.30000001192,40732.40000000596,41251.80000001192,42051.90000000596,42853.30000001192,43364.40000000596,43852,44429,44883.90000000596,45627.60000002384,46077,46525.20000001788,47316.30000001192,52052.20000001788,52475.70000001788,52917.90000000596,53308.80000001192,53723.90000000596,54492.20000001788,55287.80000001192,55852.30000001192,56580.90000000596,57468.30000001192,58044,58524.20000001788,58765.20000001788,59677.10000002384,60101.10000002384,60811.70000001788,76036.5,76788.20000001788,77437.20000001788,77908.40000000596,79373,80044.10000002384,81020.10000002384,81629.10000002384,82196.40000000596,82717,83156.70000001788,84644.20000001788,85109.10000002384,85596.5],"key_events":[],"mouse_events":[37596.10000002384,39140.20000001788,39644.10000002384,39949.30000001192,40388.80000001192,40732.40000000596,41251.80000001192,41764.90000000596,42051.90000000596,42853.30000001192,43364.40000000596,43852,44429,44883.90000000596,45308.70000001788,45627.60000002384,46077,46525.20000001788,46996.90000000596,47316.30000001192,50381.30000001192,52052.20000001788,52475.70000001788,52917.90000000596,53308.80000001192,53723.90000000596,54107.90000000596,54492.20000001788,54891.70000001788,55287.80000001192,55852.30000001192,56219.60000002384,56580.90000000596,57468.30000001192,58044,58524.20000001788,58765.20000001788,59156,59677.10000002384,60101.10000002384,60811.70000001788,68508.30000001192,69148.60000002384,70051.20000001788,70523.90000000596,71532,73531.70000001788,74051.70000001788,74532.40000000596,76036.5,76515.70000001788,76788.20000001788,77437.20000001788,77908.40000000596,78541.5,78835.40000000596,79373,80044.10000002384,80534.30000001192,81020.10000002384,81629.10000002384,82196.40000000596,82717,83156.70000001788,84221.20000001788,84644.20000001788,85109.10000002384,85596.5,86029],"honeypot":0,"survey":"mace","page":6,"trial_type":"survey-mace","trial_index":14,"time_elapsed":703002,"internal_node_id":"0.0-14.0","task_version":"prescreen-v0.3","browser_interactions":0},{"responses":{"01":"No","02":"Yes","02_ages_1":"1","02_ages_2":"2","02_ages_3":"3","02_ages_4":"4","02_ages_5":"5","02_ages_6":"6","02_ages_7":"7","02_ages_8":"8","02_ages_9":"9","02_ages_10":"10","02_ages_11":"11","02_ages_12":"12","02_ages_13":"13","02_ages_14":"14","02_ages_15":"15","02_ages_16":"16","02_ages_17":"17","02_ages_18":"18","03":"No","04":"No","05":"No","06":"No","07":"Yes","07_ages_16":"16","07_ages_17":"17","07_ages_18":"18"},"rt":47968.29999998212,"item_order":[0,1,2,3,4,5,6],"radio_events":[4364.299999982119,8564.59999999404,27604.29999998212,30227.5,31931.69999998808,34348.5,41996.69999998808,43101.29999998212],"checkbox_events":[10420.699999988079,10909.299999982119,11924.199999988079,12699.799999982119,13156.899999976158,13619.799999982119,14027.799999982119,14595.199999988079,15053.5,15467.799999982119,15868.699999988079,16316.799999982119,16740.79999998212,17148.79999998212,17547.5,17988.79999998212,18381.19999998808,19371.5,45460.19999998808,46108.89999997616,46644.5],"key_events":[],"mouse_events":[4364.299999982119,5949.0999999940395,8564.59999999404,10420.699999988079,10909.299999982119,11357.199999988079,11924.199999988079,12389.399999976158,12699.799999982119,13156.899999976158,13619.799999982119,14027.799999982119,14595.199999988079,15053.5,15467.799999982119,15868.699999988079,16316.799999982119,16740.79999998212,17148.79999998212,17547.5,17988.79999998212,18381.19999998808,18708.19999998808,19371.5,26891.5,27604.29999998212,30227.5,31931.69999998808,33740.09999999404,34348.5,41052.89999997616,41996.69999998808,42708.19999998808,43101.29999998212,45460.19999998808,46108.89999997616,46644.5,47587.59999999404,47964],"honeypot":0,"survey":"mace","page":7,"trial_type":"survey-mace","trial_index":15,"time_elapsed":750977,"internal_node_id":"0.0-15.0","task_version":"prescreen-v0.3","browser_interactions":0},{"responses":{"01":"Yes","01_ages_1":"1","01_ages_2":"2","01_ages_3":"3","01_ages_4":"4","01_ages_5":"5","01_ages_6":"6","01_ages_7":"7","01_ages_8":"8","01_ages_9":"9","01_ages_10":"10","01_ages_11":"11","01_ages_12":"12","01_ages_13":"13","01_ages_14":"14","01_ages_15":"15","01_ages_16":"16","01_ages_17":"17","01_ages_18":"18","02":"Yes","02_ages_1":"1","02_ages_2":"2","02_ages_3":"3","02_ages_4":"4","02_ages_5":"5","02_ages_6":"6","02_ages_7":"7","02_ages_8":"8","02_ages_9":"9","02_ages_10":"10","02_ages_11":"11","02_ages_12":"12","02_ages_13":"13","02_ages_14":"14","02_ages_15":"15","02_ages_16":"16","02_ages_17":"17","02_ages_18":"18","03":"Yes","03_ages_1":"1","03_ages_2":"2","03_ages_3":"3","03_ages_4":"4","03_ages_5":"5","03_ages_6":"6","03_ages_7":"7","03_ages_8":"8","03_ages_9":"9","03_ages_10":"10","03_ages_11":"11","03_ages_12":"12","03_ages_13":"13","03_ages_14":"14","03_ages_15":"15","03_ages_16":"16","03_ages_17":"17","03_ages_18":"18","04":"No"},"rt":79402.40000000596,"item_order":[0,1,2,3],"radio_events":[8336.300000011921,10223.200000017881,20165.70000001788,25389.70000001788],"checkbox_events":[28710.80000001192,29095.30000001192,29630.30000001192,31086,31559.30000001192,32094.09999999404,32517.70000001788,32991.09999999404,33646.90000000596,34070.59999999404,34470.09999999404,35279.59999999404,35894.59999999404,36422.40000000596,36861.59999999404,37309.80000001192,37782.5,38830.30000001192,40622.40000000596,41078.90000000596,41597.70000001788,42046.30000001192,42430.09999999404,42943.20000001788,43582.09999999404,44246.40000000596,45485.90000000596,45902.40000000596,46375,58287.30000001192,59117.70000001788,60559.30000001192,61461.59999999404,62606,63606.20000001788,64277.59999999404,65398.09999999404,66246.59999999404,66806.59999999404,67318.20000001788,67863.30000001192,68358.90000000596,69222.80000001192,69662.5,70422.80000001192,70862.59999999404,71399.20000001788,71878.59999999404,72615,73119.40000000596,73639.20000001788,74805.70000001788,76486.09999999404,78390.90000000596],"key_events":[],"mouse_events":[8336.300000011921,9326.5,9805.59999999404,10223.200000017881,19662.40000000596,20165.70000001788,23254.80000001192,23918.59999999404,25022.40000000596,25389.70000001788,28710.80000001192,29095.30000001192,29630.30000001192,30302.90000000596,31086,31559.30000001192,32094.09999999404,32517.70000001788,32991.09999999404,33646.90000000596,34070.59999999404,34470.09999999404,34855.20000001788,35279.59999999404,35894.59999999404,36422.40000000596,36861.59999999404,37309.80000001192,37782.5,38221.59999999404,38830.30000001192,39950.30000001192,40622.40000000596,41078.90000000596,41597.70000001788,42046.30000001192,42430.09999999404,42943.20000001788,43582.09999999404,44246.40000000596,45047.5,45485.90000000596,45902.40000000596,46375,58287.30000001192,58791,59117.70000001788,59702.90000000596,60559.30000001192,60998.80000001192,61461.59999999404,61885.90000000596,62335.20000001788,62606,63063.30000001192,63606.20000001788,64277.59999999404,65398.09999999404,65919.09999999404,66246.59999999404,66806.59999999404,67318.20000001788,67863.30000001192,68358.90000000596,68830.5,69222.80000001192,69662.5,70109.80000001192,70422.80000001192,70862.59999999404,71399.20000001788,71878.59999999404,72615,73119.40000000596,73639.20000001788,74247.30000001192,74805.70000001788,76190.40000000596,76486.09999999404,76846.70000001788,77349.80000001192,77702.70000001788,78046.09999999404,78390.90000000596,79400.09999999404],"honeypot":0,"survey":"mace","page":8,"trial_type":"survey-mace","trial_index":16,"time_elapsed":830385,"internal_node_id":"0.0-16.0","task_version":"prescreen-v0.3","browser_interactions":0},{"responses":{"01":"No","02":"No","03":"No","04":"No"},"rt":27351.30000001192,"item_order":[0,1,2,3],"radio_events":[21677.30000001192,23675.80000001192,25204.30000001192,25956.30000001192],"checkbox_events":[],"key_events":[],"mouse_events":[21677.30000001192,23092.30000001192,23675.80000001192,24612.30000001192,25204.30000001192,25956.30000001192,27348.70000001788],"honeypot":0,"survey":"mace","page":9,"trial_type":"survey-mace","trial_index":17,"time_elapsed":857742,"internal_node_id":"0.0-17.0","task_version":"prescreen-v0.3","browser_interactions":0},{"responses":{"01":"No","02":"No","03":"No","04":"No","05":"No","06":"Yes","06_ages_17":"17","07":"No","08":"No"},"rt":16137.800000011921,"item_order":[0,1,2,3,4,5,6,7],"radio_events":[2332.199999988079,3484.5999999940395,4253.5,5189.5999999940395,6780.800000011921,9605.09999999404,14420.699999988079,15653.40000000596],"checkbox_events":[11332.699999988079],"key_events":[],"mouse_events":[2332.199999988079,3061,3484.5999999940395,4253.5,5189.5999999940395,6277.199999988079,6780.800000011921,9605.09999999404,11004.40000000596,11332.699999988079,13684.90000000596,14420.699999988079,15332.5,15653.40000000596,16133.09999999404],"honeypot":0,"survey":"mace","page":10,"trial_type":"survey-mace","trial_index":18,"time_elapsed":873889,"internal_node_id":"0.0-18.0","task_version":"prescreen-v0.3","browser_interactions":0,"instructed":0},{"rt":7125.199999988079,"trial_type":"mental-health-alert","trial_index":19,"time_elapsed":881018,"internal_node_id":"0.0-19.0","task_version":"prescreen-v0.3","interactions":"[]"}]