[{"view_history":[{"page_index":0,"viewing_time":7819},{"page_index":1,"viewing_time":4759},{"page_index":2,"viewing_time":5317},{"page_index":3,"viewing_time":1841}],"rt":19740,"trial_type":"instructions","trial_index":0,"time_elapsed":19766,"internal_node_id":"0.0-0.0","task_version":"prescreen-v0.3"},{"rt":24455,"responses":{"age":"45","gender-categorical":"Male","gender-free-response":"","ethnicity":"Not Hispanic or Latino","race":["White"],"education":"Some college"},"trial_type":"survey-demo","trial_index":1,"time_elapsed":44250,"internal_node_id":"0.0-1.0","task_version":"prescreen-v0.3"},{"responses":{"Q02":"2","Q01":"2","Q05":"1","Q14":"1","Q03":"0","Q08":"1","Q06":"2","Q11":"0","Q09":"2","Q12":"0","Q04":"0","Q20":"0","Q13":"0","Q18":"1","Q07":"1","Q16":"2","Q15":"3","Q21":"3","Q10":"0","Q17":"1","Q19":"1"},"rt":261849,"item_order":[1,0,4,13,2,7,5,10,8,11,3,19,12,17,6,15,14,20,9,16,18],"radio_events":[69645,86967,92434,96922,101279,108029,113722,120176,131210,137232,143446,145458,150942,171421,198301,208416,214182,220534,227600,235438,243060,253155,258048],"key_events":[],"mouse_events":[69645,78139,86967,92434,96922,101279,108029,113722,120176,131210,137232,143446,145458,150942,169969,171421,196954,198301,208416,214182,220534,227600,233990,235438,241681,243060,244861,253155,257085,258048,261836],"straightlining":0.3333333333333333,"zigzagging":0.45,"honeypot":0,"survey":"sns","trial_type":"survey-template","trial_index":2,"time_elapsed":306129,"internal_node_id":"0.0-2.0","task_version":"prescreen-v0.3","browser_interactions":0,"infrequency":0},{"responses":{"Q07":"2","Q13":"0","Q02":"2","Q04":"3","Q06":"2","Q10":"2","Q09":"2","Q12":"1","Q05":"3","Q03":"3","Q11":"3","Q08":"3","Q01":"2"},"rt":111805,"item_order":[6,12,1,3,5,9,8,11,4,2,10,7,0],"radio_events":[11628,21226,46908,52724,55842,62976,72637,76333,81548,86992,94233,97044,107030],"key_events":[],"mouse_events":[6826,11628,21226,45436,46908,52724,55842,62976,72637,76333,81548,86992,94233,97044,98245,107030,111798],"straightlining":0.46153846153846156,"zigzagging":0.3333333333333333,"honeypot":0,"survey":"bisbas","trial_type":"survey-template","trial_index":3,"time_elapsed":417954,"internal_node_id":"0.0-3.0","task_version":"prescreen-v0.3","browser_interactions":0,"infrequency":0},{"responses":{"Q01":"2","Q02":"2","Q03":"2"},"rt":55119,"radio_events":[15016,23062,52251],"key_events":[],"mouse_events":[15016,23062,52251,55117],"survey":"map","page":1,"trial_type":"survey-map","trial_index":4,"time_elapsed":473090,"internal_node_id":"0.0-4.0","task_version":"prescreen-v0.3","browser_interactions":0},{"responses":{"Q04":"1","Q05":"2","Q06":"2"},"rt":28214,"radio_events":[9127,18205,25691],"key_events":[],"mouse_events":[9127,18205,25691,28211],"survey":"map","page":2,"trial_type":"survey-map","trial_index":5,"time_elapsed":501311,"internal_node_id":"0.0-5.0","task_version":"prescreen-v0.3","browser_interactions":0},{"responses":{"Q07":"1","Q08":"3","Q09":"1"},"rt":32433,"radio_events":[11624,20238,29748],"key_events":[],"mouse_events":[11624,20238,29748,32430],"survey":"map","page":3,"trial_type":"survey-map","trial_index":6,"time_elapsed":533754,"internal_node_id":"0.0-6.0","task_version":"prescreen-v0.3","browser_interactions":0},{"responses":{"Q10":"2","Q11":"3","Q12":"3","Q13":"1","Q16":"0","Q14":"1","Q15":"1"},"rt":108391,"radio_events":[57152,63438,70820,83541,92068,100525,106736],"key_events":[],"mouse_events":[57152,62178,63438,70820,83541,90912,92068,100525,106736,108384],"survey":"map","page":4,"trial_type":"survey-map","trial_index":7,"time_elapsed":642160,"internal_node_id":"0.0-7.0","task_version":"prescreen-v0.3","browser_interactions":0,"infrequency":0},{"view_history":[{"page_index":0,"viewing_time":3595},{"page_index":1,"viewing_time":9405}],"rt":13005,"trial_type":"instructions","trial_index":8,"time_elapsed":655172,"internal_node_id":"0.0-8.0","task_version":"prescreen-v0.3"},{"responses":{"01":"Yes","01_ages_9":"9","01_ages_10":"10","01_ages_11":"11","01_ages_12":"12","02":"Yes","02_ages_7":"7","02_ages_8":"8","02_ages_9":"9","02_ages_10":"10","02_ages_11":"11","03":"Yes","03_ages_7":"7","03_ages_8":"8","03_ages_9":"9","03_ages_10":"10","03_ages_11":"11","04":"No","05":"Yes","05_ages_1":"1","05_ages_2":"2","05_ages_3":"3","06":"Yes","06_ages_7":"7","06_ages_8":"8"},"rt":142429,"item_order":[0,1,2,3,4,5],"radio_events":[14244,57785,85915,99069,103920,125555],"checkbox_events":[39097,39803,41022,42742,61077,61749,65269,67187,81010,87539,88648,89604,92542,93865,110949,111569,112397,128081,128953],"key_events":[],"mouse_events":[0,14244,39097,39803,41022,42742,57785,59969,61077,61749,62317,65269,67187,70146,81010,85915,87539,88648,89604,90460,92542,93865,99069,103920,109277,110949,111569,112397,125555,128081,128953,142410],"honeypot":0,"survey":"mace","page":1,"trial_type":"survey-mace","trial_index":9,"time_elapsed":797633,"internal_node_id":"0.0-9.0","task_version":"prescreen-v0.3","browser_interactions":0},{"responses":{"01":"Yes","01_ages_6":"6","01_ages_7":"7","01_ages_8":"8","01_ages_9":"9","02":"No","03":"Yes","03_ages_4":"4","03_ages_5":"5","03_ages_6":"6","04":"Yes","04_ages_4":"4","04_ages_5":"5","04_ages_6":"6","05":"Yes","05_ages_4":"4","05_ages_5":"5","05_ages_6":"6","06":"No","07":"No","08":"No"},"rt":89903,"item_order":[0,1,2,3,4,5,6,7],"radio_events":[15155,38546,44879,62444,72657,82595,85015,88077],"checkbox_events":[22185,25873,27195,31376,50227,52067,53510,65579,66423,67111,75498,76670,77834],"key_events":[],"mouse_events":[15155,21465,22185,23305,25873,26485,27195,31376,38546,44879,50227,50964,52067,53510,62444,65579,66423,67111,72657,75498,76670,77834,82595,85015,88077,89883],"honeypot":0,"survey":"mace","page":2,"trial_type":"survey-mace","trial_index":10,"time_elapsed":887550,"internal_node_id":"0.0-10.0","task_version":"prescreen-v0.3","browser_interactions":0},{"responses":{"01":"No","02":"No","03":"No","04":"No"},"rt":15079,"item_order":[0,1,2,3],"radio_events":[7084,8328,12864,13644],"checkbox_events":[],"key_events":[],"mouse_events":[7084,8328,10060,12864,13644,15066],"honeypot":0,"survey":"mace","page":3,"trial_type":"survey-mace","trial_index":11,"time_elapsed":902642,"internal_node_id":"0.0-11.0","task_version":"prescreen-v0.3","browser_interactions":0},{"responses":{"01":"No","02":"No"},"rt":12324,"item_order":[0,1],"radio_events":[3504,5432],"checkbox_events":[],"key_events":[],"mouse_events":[3504,5432,12317],"honeypot":0,"survey":"mace","page":4,"trial_type":"survey-mace","trial_index":12,"time_elapsed":914979,"internal_node_id":"0.0-12.0","task_version":"prescreen-v0.3","browser_interactions":0},{"responses":{"01":"No","02":"No","03":"No","04":"Yes","04_ages_8":"8","04_ages_9":"9","04_ages_10":"10","04_ages_11":"11","04_ages_12":"12","04_ages_13":"13","04_ages_14":"14","04_ages_15":"15","04_ages_16":"16","05":"No"},"rt":85512,"item_order":[0,1,2,3,4],"radio_events":[12855,20439,24785,31699,81334],"checkbox_events":[46213,49211,50207,50955,51971,53679,61069,65336,66468],"key_events":[],"mouse_events":[12855,20439,24785,31699,46213,49211,50207,50955,51971,53679,61069,65336,66468,81334,85496],"honeypot":0,"survey":"mace","page":5,"trial_type":"survey-mace","trial_index":13,"time_elapsed":1000513,"internal_node_id":"0.0-13.0","task_version":"prescreen-v0.3","browser_interactions":0},{"responses":{"01":"Yes","01_ages_8":"8","01_ages_9":"9","01_ages_10":"10","01_ages_11":"11","01_ages_12":"12","01_ages_13":"13","01_ages_14":"14","01_ages_15":"15","01_ages_16":"16","02":"Yes","02_ages_11":"11","02_ages_12":"12","02_ages_13":"13","02_ages_14":"14","03":"No","04":"No","05":"No"},"rt":95450,"item_order":[0,1,2,3,4],"radio_events":[21404,69120,83168,85896,93027],"checkbox_events":[35636,37608,39310,39986,41391,42423,48196,49424,56742,72133,73141,74279,75687],"key_events":[],"mouse_events":[21404,35636,37608,38748,39310,39986,41391,42423,48196,49424,52052,56742,69120,72133,73141,74279,75687,83168,85896,93027,95434],"honeypot":0,"survey":"mace","page":6,"trial_type":"survey-mace","trial_index":14,"time_elapsed":1095982,"internal_node_id":"0.0-14.0","task_version":"prescreen-v0.3","browser_interactions":0},{"responses":{"01":"No","02":"No","03":"No","04":"No","05":"No","06":"No","07":"No"},"rt":44840,"item_order":[0,1,2,3,4,5,6],"radio_events":[5207,8254,25334,29043,35036,41038,43606],"checkbox_events":[],"key_events":[],"mouse_events":[5207,8254,25334,29043,35036,38610,41038,43606,44818],"honeypot":0,"survey":"mace","page":7,"trial_type":"survey-mace","trial_index":15,"time_elapsed":1140835,"internal_node_id":"0.0-15.0","task_version":"prescreen-v0.3","browser_interactions":0},{"responses":{"01":"No","02":"No","03":"No","04":"No"},"rt":136400,"item_order":[0,1,2,3],"radio_events":[24400,117324,119191,130357,134900],"checkbox_events":[27492,28508,30872,31828,32640,34203,35903,38257,39613,40673,42301,45695,46671,47579,48247,49735,52856,54413,77254,79472,80616,86379,86891,87897,88757,94646,100183,101763,103439,104335,105285,106045,109345,109556,110150,112582,113462,114608],"key_events":[],"mouse_events":[24400,27492,28508,29251,30872,31828,32640,34203,35903,38257,39613,40673,42301,45695,46671,47579,48247,49735,52856,54413,77254,78402,79472,80616,86379,86891,87897,88757,94646,95566,100183,101763,103439,104335,105285,106045,106717,107701,108285,108676,108992,109345,109556,110150,110789,112582,113462,114608,117324,119191,127998,130357,134900,136387],"honeypot":0,"survey":"mace","page":8,"trial_type":"survey-mace","trial_index":16,"time_elapsed":1277249,"internal_node_id":"0.0-16.0","task_version":"prescreen-v0.3","browser_interactions":0},{"responses":{"01":"Yes","01_ages_4":"4","01_ages_5":"5","01_ages_6":"6","01_ages_7":"7","02":"Yes","02_ages_4":"4","02_ages_5":"5","02_ages_6":"6","02_ages_7":"7","03":"Yes","03_ages_4":"4","03_ages_5":"5","03_ages_6":"6","03_ages_7":"7","03_ages_8":"8","03_ages_9":"9","03_ages_10":"10","03_ages_11":"11","03_ages_12":"12","03_ages_13":"13","03_ages_14":"14","03_ages_15":"15","03_ages_16":"16","03_ages_17":"17","03_ages_18":"18","04":"Yes","04_ages_14":"14"},"rt":97596,"item_order":[0,1,2,3],"radio_events":[5534,12425,32072,42810,83428],"checkbox_events":[18565,19213,20482,21390,34404,35052,36212,37052,54080,54830,55434,56034,57746,59270,59886,61347,63957,64565,67872,69352,70572,71954,73222,93794],"key_events":[],"mouse_events":[5534,12425,18565,19213,20482,21390,32072,34404,35052,36212,37052,42810,54080,54830,55434,56034,57746,59270,59886,61347,62395,63957,64565,67872,69352,70572,71954,73222,83428,93114,93794,97583],"honeypot":0,"survey":"mace","page":9,"trial_type":"survey-mace","trial_index":17,"time_elapsed":1374862,"internal_node_id":"0.0-17.0","task_version":"prescreen-v0.3","browser_interactions":0},{"responses":{"01":"No","02":"No","03":"No","04":"No","05":"No","06":"Yes","06_ages_17":"17","07":"Yes","07_ages_1":"1","07_ages_2":"2","07_ages_3":"3","07_ages_4":"4","07_ages_5":"5","07_ages_6":"6","07_ages_7":"7","07_ages_8":"8","07_ages_9":"9","07_ages_10":"10","07_ages_11":"11","07_ages_12":"12","07_ages_13":"13","07_ages_14":"14","07_ages_15":"15","07_ages_16":"16","07_ages_17":"17","07_ages_18":"18","08":"No"},"rt":99662,"item_order":[0,1,2,3,4,5,6,7],"radio_events":[9521,11160,17263,20634,25358,31748,39490,97864],"checkbox_events":[35739,46212,46720,48640,50500,51121,52479,53115,54251,55763,58214,58942,59694,60804,64000,65168,67968,69307,70299],"key_events":[],"mouse_events":[7647,9521,11160,17263,20634,25358,31748,35739,39490,46212,46720,47452,48640,49560,50500,51121,52479,53115,54251,55763,58214,58942,59694,60804,64000,65168,67968,69307,70299,97864,99637],"honeypot":0,"survey":"mace","page":10,"trial_type":"survey-mace","trial_index":18,"time_elapsed":1474544,"internal_node_id":"0.0-18.0","task_version":"prescreen-v0.3","browser_interactions":0,"instructed":0},{"rt":6113,"trial_type":"mental-health-alert","trial_index":19,"time_elapsed":1480666,"internal_node_id":"0.0-19.0","task_version":"prescreen-v0.3","interactions":"[]"}]