[{"view_history":[{"page_index":0,"viewing_time":3292.2000000476837},{"page_index":1,"viewing_time":2399},{"page_index":2,"viewing_time":2690},{"page_index":3,"viewing_time":831}],"rt":9212.700000047684,"trial_type":"instructions","trial_index":0,"time_elapsed":9226,"internal_node_id":"0.0-0.0","task_version":"prescreen-v0.3"},{"rt":16209,"responses":{"age":"19","gender-categorical":"Male","gender-free-response":"","ethnicity":"Not Hispanic or Latino","race":["Asian"],"education":"High school","siblings":"1"},"trial_type":"survey-demo","trial_index":1,"time_elapsed":25438,"internal_node_id":"0.0-1.0","task_version":"prescreen-v0.3"},{"responses":{"Q17":"1","Q19":"1","Q01":"2","Q11":"3","Q18":"0","Q03":"0","Q16":"2","Q12":"3","Q06":"1","Q05":"0","Q04":"0","Q14":"1","Q08":"2","Q13":"1","Q15":"2","Q07":"2","Q09":"3","Q20":"1","Q02":"0","Q10":"3","Q21":"3"},"rt":74640.80000001192,"item_order":[16,18,0,10,17,2,15,11,5,4,3,13,7,12,14,6,8,19,1,9,20],"radio_events":[4074.7000000476837,9669.800000011921,10789.700000047684,11535.600000023842,15051.700000047684,17365.400000035763,21635.700000047684,28597.600000023842,29481.700000047684,32681.600000023842,34587.90000003576,35492.40000003576,40075.5,43707.5,46626.40000003576,47922.30000001192,49332.60000002384,53491.5,59211.30000001192,63527.5,65743.5,69388.5,71742.5,73908.30000001192],"key_events":[],"mouse_events":[4074.7000000476837,5589.700000047684,6844.600000023842,8300.700000047684,9067.5,9669.800000011921,10789.700000047684,11535.600000023842,15051.700000047684,17365.400000035763,21635.700000047684,28597.600000023842,29481.700000047684,32681.600000023842,34587.90000003576,35492.40000003576,40075.5,43707.5,46626.40000003576,47922.30000001192,49332.60000002384,53491.5,59211.30000001192,63527.5,65743.5,69388.5,71742.5,73908.30000001192,74639.60000002384],"straightlining":0.2857142857142857,"zigzagging":0.6,"honeypot":0,"survey":"sns","trial_type":"survey-template","trial_index":2,"time_elapsed":100085,"internal_node_id":"0.0-2.0","task_version":"prescreen-v0.3","browser_interactions":0,"infrequency":0},{"responses":{"Q05":"2","Q08":"2","Q13":"0","Q01":"3","Q10":"1","Q03":"2","Q12":"0","Q09":"0","Q11":"1","Q02":"2","Q04":"2","Q06":"3","Q07":"2"},"rt":57141.40000003576,"item_order":[4,7,12,0,9,2,11,8,10,1,3,5,6],"radio_events":[9469.600000023842,10465.800000011921,12515.600000023842,14709.699999988079,17043.69999998808,18815.69999998808,27074.69999998808,29367.69999998808,31223.600000023842,40911.60000002384,45358.69999998808,48742.5,50836.5,54231.60000002384,55674.5,56465.60000002384],"key_events":[],"mouse_events":[9469.600000023842,10465.800000011921,12515.600000023842,14709.699999988079,16558.600000023842,17043.69999998808,18815.69999998808,27074.69999998808,29367.69999998808,31223.600000023842,40911.60000002384,44357.69999998808,45358.69999998808,48742.5,50836.5,54231.60000002384,55674.5,56465.60000002384,57140.60000002384],"straightlining":0.46153846153846156,"zigzagging":0.5,"honeypot":0,"survey":"bisbas","trial_type":"survey-template","trial_index":3,"time_elapsed":157231,"internal_node_id":"0.0-3.0","task_version":"prescreen-v0.3","browser_interactions":0,"infrequency":0},{"responses":{"Q01":"3","Q02":"2","Q03":"3"},"rt":25866.899999976158,"radio_events":[3189.800000011921,7287.699999988079,17392.80000001192,18773.80000001192,24060.5,25304.69999998808],"key_events":[],"mouse_events":[3189.800000011921,7287.699999988079,17392.80000001192,18773.80000001192,24060.5,24731.69999998808,25304.69999998808,25866.399999976158],"survey":"map","page":1,"trial_type":"survey-map","trial_index":4,"time_elapsed":183102,"internal_node_id":"0.0-4.0","task_version":"prescreen-v0.3","browser_interactions":0},{"responses":{"Q04":"3","Q05":"2","Q06":"3"},"rt":6465.5,"radio_events":[2117.300000011921,2657.400000035763,3261.5],"key_events":[],"mouse_events":[2117.300000011921,2657.400000035763,3261.5,6465.200000047684],"survey":"map","page":2,"trial_type":"survey-map","trial_index":5,"time_elapsed":189571,"internal_node_id":"0.0-5.0","task_version":"prescreen-v0.3","browser_interactions":0},{"responses":{"Q07":"4","Q08":"2","Q09":"4"},"rt":8637,"radio_events":[4020.400000035763,7089.5,8129.400000035763],"key_events":[],"mouse_events":[3350.5,4020.400000035763,7089.5,8129.400000035763,8636.400000035763],"survey":"map","page":3,"trial_type":"survey-map","trial_index":6,"time_elapsed":198211,"internal_node_id":"0.0-6.0","task_version":"prescreen-v0.3","browser_interactions":0},{"responses":{"Q10":"4","Q11":"3","Q12":"2","Q13":"2","Q16":"0","Q14":"3","Q15":"3"},"rt":25596.400000035763,"radio_events":[2627.900000035763,4661.700000047684,7930.600000023842,10526.900000035763,13178.900000035763,16808.600000023842,22804,24430.5],"key_events":[],"mouse_events":[2627.900000035763,4661.700000047684,7930.600000023842,10526.900000035763,13178.900000035763,16808.600000023842,22804,24430.5,25595.700000047684],"survey":"map","page":4,"trial_type":"survey-map","trial_index":7,"time_elapsed":223811,"internal_node_id":"0.0-7.0","task_version":"prescreen-v0.3","browser_interactions":0,"infrequency":0},{"view_history":[{"page_index":0,"viewing_time":2024.0999999642372},{"page_index":1,"viewing_time":3420}],"rt":5444.5,"trial_type":"instructions","trial_index":8,"time_elapsed":229259,"internal_node_id":"0.0-8.0","task_version":"prescreen-v0.3"},{"responses":{"01":"No","02":"No","03":"No","04":"No","05":"No","06":"No"},"rt":19609,"item_order":[0,1,2,3,4,5],"radio_events":[8171,12382.099999964237,14809,15693.099999964237,17332.899999976158,18336.099999964237],"checkbox_events":[],"key_events":[],"mouse_events":[0.09999996423721313,8171,12382.099999964237,14809,15693.099999964237,16215.099999964237,17332.899999976158,18336.099999964237,19607.19999998808],"honeypot":0,"survey":"mace","page":1,"trial_type":"survey-mace","trial_index":9,"time_elapsed":248873,"internal_node_id":"0.0-9.0","task_version":"prescreen-v0.3","browser_interactions":0},{"responses":{"01":"Yes","01_ages_8":"8","01_ages_9":"9","01_ages_10":"10","01_ages_11":"11","01_ages_12":"12","02":"No","03":"Yes","03_ages_9":"9","03_ages_12":"12","04":"Yes","04_ages_10":"10","04_ages_11":"11","04_ages_12":"12","05":"No","06":"No","07":"No","08":"No"},"rt":112534.39999997616,"item_order":[0,1,2,3,4,5,6,7],"radio_events":[6343.099999964237,32206.19999998808,39254.30000001192,84482.19999998808,93496.19999998808,105662.19999998808,106724.09999996424,110640.19999998808,112051.30000001192],"checkbox_events":[13015.699999988079,15647.199999988079,17222.099999964237,22427.099999964237,22808.399999976158,41241.19999998808,42271.39999997616,95035,95415.19999998808,95811.09999996424,97521.19999998808,98508.80000001192,98939.09999996424,101553.59999996424,101858.19999998808,102668,103024.89999997616,104580.09999996424],"key_events":[],"mouse_events":[6343.099999964237,13015.699999988079,15647.199999988079,15863.199999988079,17222.099999964237,22427.099999964237,22808.399999976158,31714.19999998808,32206.19999998808,39254.30000001192,41241.19999998808,42271.39999997616,84482.19999998808,93496.19999998808,95035,95415.19999998808,95811.09999996424,97521.19999998808,98508.80000001192,98939.09999996424,101553.59999996424,101858.19999998808,102668,103024.89999997616,104580.09999996424,105662.19999998808,106724.09999996424,107115.19999998808,110640.19999998808,111394.09999996424,112051.30000001192,112532.09999996424],"honeypot":0,"survey":"mace","page":2,"trial_type":"survey-mace","trial_index":10,"time_elapsed":361412,"internal_node_id":"0.0-10.0","task_version":"prescreen-v0.3","browser_interactions":2},{"responses":{"01":"Yes","01_ages_9":"9","01_ages_10":"10","01_ages_11":"11","02":"No","03":"No","04":"No"},"rt":14520.900000035763,"item_order":[0,1,2,3],"radio_events":[5493.300000011921,12561.400000035763,13226.400000035763,14003.5],"checkbox_events":[7676.600000023842,7981.300000011921,8234.5],"key_events":[],"mouse_events":[5493.300000011921,7676.600000023842,7981.300000011921,8234.5,11502.400000035763,12561.400000035763,13226.400000035763,14003.5,14519.800000011921],"honeypot":0,"survey":"mace","page":3,"trial_type":"survey-mace","trial_index":11,"time_elapsed":375937,"internal_node_id":"0.0-11.0","task_version":"prescreen-v0.3","browser_interactions":0},{"responses":{"01":"No","02":"No"},"rt":6507.400000035763,"item_order":[0,1],"radio_events":[2340.100000023842,3837.900000035763],"checkbox_events":[],"key_events":[],"mouse_events":[2340.100000023842,3837.900000035763,6506.800000011921],"honeypot":0,"survey":"mace","page":4,"trial_type":"survey-mace","trial_index":12,"time_elapsed":382447,"internal_node_id":"0.0-12.0","task_version":"prescreen-v0.3","browser_interactions":0},{"responses":{"01":"No","02":"No","03":"No","04":"No","05":"No"},"rt":12395.099999964237,"item_order":[0,1,2,3,4],"radio_events":[3406.699999988079,5541.699999988079,6281.599999964237,7416.799999952316,9082.799999952316],"checkbox_events":[],"key_events":[],"mouse_events":[3406.699999988079,5070.699999988079,5541.699999988079,6281.599999964237,7416.799999952316,9082.799999952316,12393.599999964237],"honeypot":0,"survey":"mace","page":5,"trial_type":"survey-mace","trial_index":13,"time_elapsed":394847,"internal_node_id":"0.0-13.0","task_version":"prescreen-v0.3","browser_interactions":0},{"responses":{"01":"No","02":"No","03":"No","04":"No","05":"No"},"rt":14140.299999952316,"item_order":[0,1,2,3,4],"radio_events":[3467.699999988079,5936.699999988079,7140.699999988079,8069.799999952316,9829.799999952316],"checkbox_events":[],"key_events":[],"mouse_events":[3467.699999988079,5936.699999988079,7140.699999988079,8069.799999952316,9829.799999952316,14138.699999988079],"honeypot":0,"survey":"mace","page":6,"trial_type":"survey-mace","trial_index":14,"time_elapsed":408991,"internal_node_id":"0.0-14.0","task_version":"prescreen-v0.3","browser_interactions":0},{"responses":{"01":"No","02":"No","03":"No","04":"No","05":"No","06":"No","07":"No"},"rt":9973.099999964237,"item_order":[0,1,2,3,4,5,6],"radio_events":[2177.2999999523163,3082.399999976158,4729.399999976158,5763.199999988079,6368.099999964237,7631.299999952316,9344.099999964237],"checkbox_events":[],"key_events":[],"mouse_events":[2177.2999999523163,3082.399999976158,4729.399999976158,5354,5763.199999988079,6368.099999964237,7631.299999952316,8509.099999964237,9344.099999964237,9971.099999964237],"honeypot":0,"survey":"mace","page":7,"trial_type":"survey-mace","trial_index":15,"time_elapsed":418968,"internal_node_id":"0.0-15.0","task_version":"prescreen-v0.3","browser_interactions":0},{"responses":{"01":"No","02":"No","03":"No","04":"No"},"rt":12725.599999964237,"item_order":[0,1,2,3],"radio_events":[6957.099999964237,8807,10850,12183.199999988079],"checkbox_events":[],"key_events":[],"mouse_events":[6957.099999964237,8807,10850,12183.199999988079,12724.199999988079],"honeypot":0,"survey":"mace","page":8,"trial_type":"survey-mace","trial_index":16,"time_elapsed":431698,"internal_node_id":"0.0-16.0","task_version":"prescreen-v0.3","browser_interactions":0},{"responses":{"01":"Yes","01_ages_1":"1","01_ages_2":"2","01_ages_3":"3","01_ages_4":"4","01_ages_5":"5","01_ages_6":"6","01_ages_7":"7","01_ages_8":"8","01_ages_9":"9","01_ages_10":"10","01_ages_11":"11","01_ages_12":"12","01_ages_13":"13","01_ages_14":"14","01_ages_15":"15","01_ages_16":"16","01_ages_17":"17","01_ages_18":"18","02":"Yes","02_ages_1":"1","02_ages_2":"2","02_ages_3":"3","02_ages_4":"4","02_ages_5":"5","02_ages_6":"6","02_ages_7":"7","02_ages_8":"8","02_ages_9":"9","02_ages_10":"10","02_ages_11":"11","02_ages_12":"12","02_ages_13":"13","02_ages_14":"14","02_ages_15":"15","02_ages_16":"16","02_ages_17":"17","02_ages_18":"18","03":"Yes","03_ages_1":"1","03_ages_2":"2","03_ages_3":"3","03_ages_4":"4","03_ages_5":"5","03_ages_6":"6","03_ages_7":"7","03_ages_8":"8","03_ages_9":"9","03_ages_10":"10","03_ages_11":"11","03_ages_12":"12","03_ages_13":"13","03_ages_14":"14","03_ages_15":"15","03_ages_16":"16","03_ages_17":"17","03_ages_18":"18","04":"Yes","04_ages_1":"1","04_ages_2":"2","04_ages_3":"3","04_ages_4":"4","04_ages_5":"5","04_ages_6":"6","04_ages_7":"7","04_ages_8":"8","04_ages_9":"9","04_ages_10":"10","04_ages_11":"11","04_ages_12":"12","04_ages_13":"13","04_ages_14":"14","04_ages_15":"15","04_ages_16":"16","04_ages_17":"17","04_ages_18":"18"},"rt":57134.69999998808,"item_order":[0,1,2,3],"radio_events":[3341.699999988079,21852.69999998808,31721.600000023842,42937.69999998808],"checkbox_events":[11494.5,11821.399999976158,12840.899999976158,13462.5,13712.699999988079,14031.399999976158,14373.600000023842,14696.600000023842,15178.800000011921,15510.5,15992.5,16346.800000011921,16716.69999998808,17605.69999998808,17943.69999998808,18323.69999998808,18668.600000023842,19058.600000023842,22948.5,23220.600000023842,23630.899999976158,23974.600000023842,24603.69999998808,24900.600000023842,25438.69999998808,25730.399999976158,26031.30000001192,26503.600000023842,26910.600000023842,27365.80000001192,27783.600000023842,28162.69999998808,28548.399999976158,28956.19999998808,29363.600000023842,29909.899999976158,32540.5,32821.39999997616,33501.39999997616,33789.69999998808,34741.60000002384,35077.69999998808,35760.60000002384,36068.69999998808,37009.69999998808,37400.60000002384,37835.80000001192,38220.69999998808,38645.89999997616,39110.60000002384,39617.5,40003.60000002384,40394.30000001192,41098.5,44188.30000001192,44775.80000001192,45620.69999998808,46292.30000001192,46613.69999998808,46993.60000002384,47679.60000002384,48113.69999998808,48489.69999998808,49044.80000001192,49495.5,49922.60000002384,50356.39999997616,50924.60000002384,51348.39999997616,51729.30000001192,52175.19999998808,52522.60000002384],"key_events":[],"mouse_events":[3341.699999988079,11494.5,11821.399999976158,12148.600000023842,12840.899999976158,13107.699999988079,13462.5,13712.699999988079,14031.399999976158,14373.600000023842,14696.600000023842,15178.800000011921,15510.5,15992.5,16346.800000011921,16716.69999998808,17143.69999998808,17605.69999998808,17943.69999998808,18323.69999998808,18668.600000023842,19058.600000023842,21852.69999998808,22948.5,23220.600000023842,23630.899999976158,23974.600000023842,24603.69999998808,24900.600000023842,25438.69999998808,25730.399999976158,26031.30000001192,26503.600000023842,26910.600000023842,27365.80000001192,27783.600000023842,28162.69999998808,28548.399999976158,28956.19999998808,29363.600000023842,29909.899999976158,31314.600000023842,31721.600000023842,32540.5,32821.39999997616,33150.80000001192,33501.39999997616,33789.69999998808,34132.89999997616,34741.60000002384,35077.69999998808,35457.69999998808,35760.60000002384,36068.69999998808,36466.69999998808,37009.69999998808,37400.60000002384,37835.80000001192,38220.69999998808,38645.89999997616,39110.60000002384,39617.5,40003.60000002384,40394.30000001192,41098.5,42937.69999998808,44188.30000001192,44456.5,44775.80000001192,45126.30000001192,45620.69999998808,45966.5,46292.30000001192,46613.69999998808,46993.60000002384,47389.60000002384,47679.60000002384,48113.69999998808,48489.69999998808,49044.80000001192,49495.5,49922.60000002384,50356.39999997616,50924.60000002384,51348.39999997616,51729.30000001192,52175.19999998808,52522.60000002384,57133.5],"honeypot":0,"survey":"mace","page":9,"trial_type":"survey-mace","trial_index":17,"time_elapsed":488836,"internal_node_id":"0.0-17.0","task_version":"prescreen-v0.3","browser_interactions":0},{"responses":{"01":"No","02":"No","03":"No","04":"No","05":"No","06":"Yes","06_ages_17":"17","07":"Yes","07_ages_1":"1","07_ages_2":"2","07_ages_3":"3","07_ages_4":"4","07_ages_5":"5","07_ages_6":"6","07_ages_7":"7","07_ages_8":"8","07_ages_9":"9","07_ages_10":"10","07_ages_11":"11","07_ages_12":"12","07_ages_13":"13","07_ages_14":"14","07_ages_15":"15","07_ages_16":"16","07_ages_17":"17","07_ages_18":"18","08":"Yes","08_ages_1":"1","08_ages_2":"2","08_ages_3":"3","08_ages_4":"4","08_ages_5":"5","08_ages_6":"6","08_ages_7":"7","08_ages_8":"8","08_ages_9":"9","08_ages_10":"10","08_ages_11":"11","08_ages_12":"12","08_ages_13":"13","08_ages_14":"14","08_ages_15":"15","08_ages_16":"16","08_ages_17":"17","08_ages_18":"18"},"rt":44204.69999998808,"item_order":[0,1,2,3,4,5,6,7],"radio_events":[1946.4000000357628,2831.400000035763,3766.600000023842,4576.600000023842,5457.600000023842,6802.400000035763,12958.400000035763,35014.40000003576],"checkbox_events":[8365.400000035763,18783.5,19171.5,19459.30000001192,19801.30000001192,20189.30000001192,20546.600000023842,20953.30000001192,21312.19999998808,21764.19999998808,22134.100000023842,23405.30000001192,23760.5,24204.30000001192,25057.5,25510.400000035763,26462.400000035763,26947.19999998808,27627,36153.30000001192,36431.40000003576,36842.40000003576,37169.30000001192,37553.5,37966.19999998808,38335.40000003576,38693.30000001192,39279.10000002384,39630.19999998808,40017.30000001192,40442.40000003576,40945.19999998808,41375.19999998808,41770,42215.19999998808,42601.10000002384,43677.90000003576],"key_events":[],"mouse_events":[1946.4000000357628,2831.400000035763,3766.600000023842,4576.600000023842,5457.600000023842,6802.400000035763,8365.400000035763,12958.400000035763,18783.5,19171.5,19459.30000001192,19801.30000001192,20189.30000001192,20546.600000023842,20953.30000001192,21312.19999998808,21764.19999998808,22134.100000023842,22544.100000023842,23091.400000035763,23405.30000001192,23760.5,24204.30000001192,24611.400000035763,25057.5,25510.400000035763,25963.400000035763,26462.400000035763,26947.19999998808,27627,35014.40000003576,36153.30000001192,36431.40000003576,36842.40000003576,37169.30000001192,37553.5,37966.19999998808,38335.40000003576,38693.30000001192,39279.10000002384,39630.19999998808,40017.30000001192,40442.40000003576,40945.19999998808,41375.19999998808,41770,42215.19999998808,42601.10000002384,42965.40000003576,43677.90000003576,44202.40000003576],"honeypot":0,"survey":"mace","page":10,"trial_type":"survey-mace","trial_index":18,"time_elapsed":533046,"internal_node_id":"0.0-18.0","task_version":"prescreen-v0.3","browser_interactions":0,"instructed":0},{"rt":6273.100000023842,"trial_type":"mental-health-alert","trial_index":19,"time_elapsed":539322,"internal_node_id":"0.0-19.0","task_version":"prescreen-v0.3","interactions":"[{\"event\":\"blur\",\"trial\":10,\"time\":326782},{\"event\":\"focus\",\"trial\":10,\"time\":331699}]"}]