[{"view_history":[{"page_index":0,"viewing_time":8867},{"page_index":1,"viewing_time":2233},{"page_index":2,"viewing_time":1503},{"page_index":3,"viewing_time":1897}],"rt":14500,"trial_type":"instructions","trial_index":0,"time_elapsed":14508,"internal_node_id":"0.0-0.0","task_version":"prescreen-v0.3"},{"rt":20849,"responses":{"age":"45","gender-categorical":"Male","gender-free-response":"","ethnicity":"Not Hispanic or Latino","race":["White"],"education":"Master degree or higher"},"trial_type":"survey-demo","trial_index":1,"time_elapsed":35386,"internal_node_id":"0.0-1.0","task_version":"prescreen-v0.3"},{"responses":{"Q05":"2","Q06":"1","Q02":"2","Q04":"1","Q18":"2","Q19":"1","Q03":"2","Q12":"1","Q11":"2","Q17":"1","Q20":"2","Q10":"1","Q21":"2","Q13":"1","Q15":"2","Q16":"1","Q14":"1","Q07":"2","Q08":"1","Q01":"2","Q09":"3"},"rt":92407,"item_order":[4,5,1,3,17,18,2,11,10,16,19,9,20,12,14,15,13,6,7,0,8],"radio_events":[9590,11261,13077,15765,17797,19334,20566,33590,34438,35597,40190,40974,44486,49213,52005,54221,55366,57222,58414,59509,88973],"key_events":[],"mouse_events":[9590,11261,13077,15765,17198,17797,19334,20566,21942,22661,29661,33590,34438,35597,36454,37742,40190,40974,41669,44486,49213,49877,52005,53069,54221,55366,57222,58414,59509,81181,88229,88973,92407],"straightlining":0.47619047619047616,"zigzagging":0.95,"honeypot":0,"survey":"sns","trial_type":"survey-template","trial_index":2,"time_elapsed":127800,"internal_node_id":"0.0-2.0","task_version":"prescreen-v0.3","browser_interactions":0,"infrequency":0.5},{"responses":{"Q01":"2","Q04":"1","Q07":"2","Q06":"1","Q12":"2","Q09":"1","Q13":"2","Q08":"1","Q10":"2","Q11":"1","Q05":"2","Q02":"3","Q03":"2"},"rt":518809,"item_order":[0,3,6,5,11,8,12,7,9,10,4,1,2],"radio_events":[481934,483926,489526,492310,493926,497406,498254,500430,503158,504637,505950,507237,508222],"key_events":[],"mouse_events":[481934,483149,483926,489526,491358,492310,493926,495158,497406,498254,500430,502038,503158,503805,504637,505950,507237,508222,518809],"straightlining":0.5384615384615384,"zigzagging":1,"honeypot":0,"survey":"bisbas","trial_type":"survey-template","trial_index":3,"time_elapsed":646616,"internal_node_id":"0.0-3.0","task_version":"prescreen-v0.3","browser_interactions":14,"infrequency":1},{"responses":{"Q01":"3","Q02":"3","Q03":"1"},"rt":147614,"radio_events":[135069,138005,139108],"key_events":[],"mouse_events":[134709,135069,136020,138005,139108,147614],"survey":"map","page":1,"trial_type":"survey-map","trial_index":4,"time_elapsed":794237,"internal_node_id":"0.0-4.0","task_version":"prescreen-v0.3","browser_interactions":4},{"responses":{"Q04":"3","Q05":"2","Q06":"1"},"rt":170366,"radio_events":[162276,165596,166965],"key_events":[],"mouse_events":[161661,162276,164325,165596,166508,166965,170366],"survey":"map","page":2,"trial_type":"survey-map","trial_index":5,"time_elapsed":964605,"internal_node_id":"0.0-5.0","task_version":"prescreen-v0.3","browser_interactions":4},{"responses":{"Q07":"3","Q08":"2","Q09":"1"},"rt":26523,"radio_events":[17138,18922,20713],"key_events":[],"mouse_events":[17138,18089,18922,19985,20713,26523],"survey":"map","page":3,"trial_type":"survey-map","trial_index":6,"time_elapsed":991131,"internal_node_id":"0.0-6.0","task_version":"prescreen-v0.3","browser_interactions":2},{"responses":{"Q10":"3","Q11":"2","Q12":"3","Q13":"2","Q16":"1","Q14":"2","Q15":"3"},"rt":63269,"radio_events":[44276,45404,48508,49660,50949,52757,54101],"key_events":[],"mouse_events":[40580,41196,44276,45404,46484,48508,49660,50949,52757,53797,54101,63269],"survey":"map","page":4,"trial_type":"survey-map","trial_index":7,"time_elapsed":1054404,"internal_node_id":"0.0-7.0","task_version":"prescreen-v0.3","browser_interactions":0,"infrequency":1},{"view_history":[{"page_index":0,"viewing_time":3069},{"page_index":1,"viewing_time":73687}],"rt":76757,"trial_type":"instructions","trial_index":8,"time_elapsed":1131162,"internal_node_id":"0.0-8.0","task_version":"prescreen-v0.3"},{"responses":{"01":"Yes","01_ages_7":"7","01_ages_13":"13","02":"Yes","02_ages_14":"14","03":"No","04":"No","05":"No","06":"No"},"rt":79094,"item_order":[0,1,2,3,4,5],"radio_events":[18308,30155,38132,44500,46467,50083],"checkbox_events":[24612,26227,33339],"key_events":[],"mouse_events":[1,9155,18308,24612,26227,30155,33339,38132,44500,46467,50083,77651,79092],"honeypot":0,"survey":"mace","page":1,"trial_type":"survey-mace","trial_index":9,"time_elapsed":1210271,"internal_node_id":"0.0-9.0","task_version":"prescreen-v0.3","browser_interactions":6},{"responses":{"01":"Yes","01_ages_14":"14","02":"No","03":"Yes","03_ages_17":"17","04":"No","05":"Yes","05_ages_17":"17","06":"No","07":"No","08":"Yes","08_ages_18":"18"},"rt":101459,"item_order":[0,1,2,3,4,5,6,7],"radio_events":[55238,71047,78000,80975,87254,89560,91568,96287],"checkbox_events":[56952,73640,88271,93351],"key_events":[],"mouse_events":[55238,56952,58312,71047,73640,78000,80975,86879,87254,88271,89560,91568,93351,96287,101459],"honeypot":0,"survey":"mace","page":2,"trial_type":"survey-mace","trial_index":10,"time_elapsed":1311746,"internal_node_id":"0.0-10.0","task_version":"prescreen-v0.3","browser_interactions":6},{"responses":{"01":"Yes","01_ages_15":"15","02":"Yes","02_ages_13":"13","03":"Yes","03_ages_18":"18","04":"No"},"rt":84779,"item_order":[0,1,2,3],"radio_events":[48945,65305,69777,78953],"checkbox_events":[59369,68393,70729],"key_events":[],"mouse_events":[48345,48945,56554,59369,65305,68393,69777,70729,78953,83028,84778],"honeypot":0,"survey":"mace","page":3,"trial_type":"survey-mace","trial_index":11,"time_elapsed":1396536,"internal_node_id":"0.0-11.0","task_version":"prescreen-v0.3","browser_interactions":6},{"responses":{"01":"No","02":"No"},"rt":25815,"item_order":[0,1],"radio_events":[14870,19045],"checkbox_events":[],"key_events":[],"mouse_events":[10870,14870,19045,23663,25815],"honeypot":0,"survey":"mace","page":4,"trial_type":"survey-mace","trial_index":12,"time_elapsed":1422356,"internal_node_id":"0.0-12.0","task_version":"prescreen-v0.3","browser_interactions":6},{"responses":{"01":"Yes","01_ages_14":"14","02":"No","03":"No","04":"No","05":"No"},"rt":140225,"item_order":[0,1,2,3,4],"radio_events":[132818,135992,136824,137768,138424],"checkbox_events":[134040],"key_events":[],"mouse_events":[132818,134040,135992,136824,137768,138424,140225],"honeypot":0,"survey":"mace","page":5,"trial_type":"survey-mace","trial_index":13,"time_elapsed":1562589,"internal_node_id":"0.0-13.0","task_version":"prescreen-v0.3","browser_interactions":6},{"responses":{"01":"No","02":"No","03":"No","03_ages_15":"15","04":"No","05":"No"},"rt":143018,"item_order":[0,1,2,3,4],"radio_events":[120906,125002,128249,129866,134018,137889],"checkbox_events":[126898],"key_events":[],"mouse_events":[120906,122738,123898,124466,125002,126057,126898,127922,128249,129866,131922,134018,135170,137889,143018],"honeypot":0,"survey":"mace","page":6,"trial_type":"survey-mace","trial_index":14,"time_elapsed":1705620,"internal_node_id":"0.0-14.0","task_version":"prescreen-v0.3","browser_interactions":2},{"responses":{"01":"No","02":"No","03":"No","04":"No","05":"No","06":"No","07":"No"},"rt":89161,"item_order":[0,1,2,3,4,5,6],"radio_events":[73782,74661,76406,77918,80030,82374,85237],"checkbox_events":[],"key_events":[],"mouse_events":[73782,74661,76406,77918,80030,82374,85237,89161],"honeypot":0,"survey":"mace","page":7,"trial_type":"survey-mace","trial_index":15,"time_elapsed":1794790,"internal_node_id":"0.0-15.0","task_version":"prescreen-v0.3","browser_interactions":10},{"responses":{"01":"No","02":"No","03":"No","04":"No"},"rt":197684,"item_order":[0,1,2,3],"radio_events":[186050,186593,187105,196417],"checkbox_events":[],"key_events":[],"mouse_events":[185682,186050,186593,187105,196417,197684],"honeypot":0,"survey":"mace","page":8,"trial_type":"survey-mace","trial_index":16,"time_elapsed":1992485,"internal_node_id":"0.0-16.0","task_version":"prescreen-v0.3","browser_interactions":2},{"responses":{"01":"Yes","01_ages_13":"13","02":"No","03":"No","04":"Yes","04_ages_11":"11"},"rt":34978,"item_order":[0,1,2,3],"radio_events":[22914,28169,29514,32465],"checkbox_events":[24267,33561],"key_events":[],"mouse_events":[22346,22914,23897,24267,28169,29514,30529,31209,31881,32465,33561,34978],"honeypot":0,"survey":"mace","page":9,"trial_type":"survey-mace","trial_index":17,"time_elapsed":2027468,"internal_node_id":"0.0-17.0","task_version":"prescreen-v0.3","browser_interactions":2},{"responses":{"01":"Yes","01_ages_12":"12","02":"No","03":"No","04":"No","05":"No","06":"Yes","06_ages_17":"17","07":"No","08":"No"},"rt":28920,"item_order":[0,1,2,3,4,5,6,7],"radio_events":[4278,6774,9198,9814,16475,17366,25871,27751],"checkbox_events":[5702,18543],"key_events":[],"mouse_events":[4278,5702,6774,9198,9814,16475,17366,18543,25871,27751,28920],"honeypot":0,"survey":"mace","page":10,"trial_type":"survey-mace","trial_index":18,"time_elapsed":2056398,"internal_node_id":"0.0-18.0","task_version":"prescreen-v0.3","browser_interactions":0,"instructed":0},{"rt":14161,"trial_type":"mental-health-alert","trial_index":19,"time_elapsed":2070578,"internal_node_id":"0.0-19.0","task_version":"prescreen-v0.3","interactions":"[{\"event\":\"focus\",\"trial\":0,\"time\":2},{\"event\":\"blur\",\"trial\":3,\"time\":133103},{\"event\":\"focus\",\"trial\":3,\"time\":284628},{\"event\":\"blur\",\"trial\":3,\"time\":285205},{\"event\":\"focus\",\"trial\":3,\"time\":319430},{\"event\":\"blur\",\"trial\":3,\"time\":321255},{\"event\":\"focus\",\"trial\":3,\"time\":485903},{\"event\":\"blur\",\"trial\":3,\"time\":486522},{\"event\":\"focus\",\"trial\":3,\"time\":549869},{\"event\":\"blur\",\"trial\":3,\"time\":551759},{\"event\":\"focus\",\"trial\":3,\"time\":554417},{\"event\":\"blur\",\"trial\":3,\"time\":555533},{\"event\":\"focus\",\"trial\":3,\"time\":605262},{\"event\":\"blur\",\"trial\":3,\"time\":613529},{\"event\":\"focus\",\"trial\":3,\"time\":615092},{\"event\":\"blur\",\"trial\":4,\"time\":651969},{\"event\":\"focus\",\"trial\":4,\"time\":747783},{\"event\":\"blur\",\"trial\":4,\"time\":748670},{\"event\":\"focus\",\"trial\":4,\"time\":776993},{\"event\":\"blur\",\"trial\":5,\"time\":795552},{\"event\":\"focus\",\"trial\":5,\"time\":920754},{\"event\":\"blur\",\"trial\":5,\"time\":922380},{\"event\":\"focus\",\"trial\":5,\"time\":949594},{\"event\":\"blur\",\"trial\":6,\"time\":966173},{\"event\":\"focus\",\"trial\":6,\"time\":978011},{\"event\":\"blur\",\"trial\":8,\"time\":1058634},{\"event\":\"focus\",\"trial\":8,\"time\":1130017},{\"event\":\"blur\",\"trial\":9,\"time\":1132799},{\"event\":\"focus\",\"trial\":9,\"time\":1140224},{\"event\":\"blur\",\"trial\":9,\"time\":1182460},{\"event\":\"focus\",\"trial\":9,\"time\":1204102},{\"event\":\"blur\",\"trial\":9,\"time\":1206005},{\"event\":\"focus\",\"trial\":9,\"time\":1208725},{\"event\":\"blur\",\"trial\":10,\"time\":1212385},{\"event\":\"focus\",\"trial\":10,\"time\":1261757},{\"event\":\"blur\",\"trial\":10,\"time\":1269821},{\"event\":\"focus\",\"trial\":10,\"time\":1281240},{\"event\":\"blur\",\"trial\":10,\"time\":1307744},{\"event\":\"focus\",\"trial\":10,\"time\":1311671},{\"event\":\"blur\",\"trial\":11,\"time\":1314577},{\"event\":\"focus\",\"trial\":11,\"time\":1358611},{\"event\":\"blur\",\"trial\":11,\"time\":1362730},{\"event\":\"focus\",\"trial\":11,\"time\":1368220},{\"event\":\"blur\",\"trial\":11,\"time\":1392290},{\"event\":\"focus\",\"trial\":11,\"time\":1394712},{\"event\":\"blur\",\"trial\":12,\"time\":1398175},{\"event\":\"focus\",\"trial\":12,\"time\":1402610},{\"event\":\"blur\",\"trial\":12,\"time\":1404898},{\"event\":\"focus\",\"trial\":12,\"time\":1407332},{\"event\":\"blur\",\"trial\":12,\"time\":1418442},{\"event\":\"focus\",\"trial\":12,\"time\":1420158},{\"event\":\"blur\",\"trial\":13,\"time\":1425082},{\"event\":\"focus\",\"trial\":13,\"time\":1450919},{\"event\":\"blur\",\"trial\":13,\"time\":1451080},{\"event\":\"focus\",\"trial\":13,\"time\":1550133},{\"event\":\"blur\",\"trial\":13,\"time\":1552573},{\"event\":\"focus\",\"trial\":13,\"time\":1554237},{\"event\":\"blur\",\"trial\":14,\"time\":1564205},{\"event\":\"focus\",\"trial\":14,\"time\":1667906},{\"event\":\"blur\",\"trial\":15,\"time\":1707738},{\"event\":\"focus\",\"trial\":15,\"time\":1753067},{\"event\":\"blur\",\"trial\":15,\"time\":1761014},{\"event\":\"focus\",\"trial\":15,\"time\":1762451},{\"event\":\"blur\",\"trial\":15,\"time\":1763863},{\"event\":\"focus\",\"trial\":15,\"time\":1770736},{\"event\":\"blur\",\"trial\":15,\"time\":1772997},{\"event\":\"focus\",\"trial\":15,\"time\":1779330},{\"event\":\"blur\",\"trial\":15,\"time\":1792618},{\"event\":\"focus\",\"trial\":15,\"time\":1794667},{\"event\":\"blur\",\"trial\":16,\"time\":1795936},{\"event\":\"focus\",\"trial\":16,\"time\":1978955},{\"event\":\"blur\",\"trial\":17,\"time\":1996279},{\"event\":\"focus\",\"trial\":17,\"time\":2011863}]"}]