[{"view_history":[{"page_index":0,"viewing_time":3568.7000000476837},{"page_index":1,"viewing_time":2455.399999976158},{"page_index":2,"viewing_time":3582.899999976158},{"page_index":3,"viewing_time":1089.6000000238419}],"rt":10697.900000095367,"trial_type":"instructions","trial_index":0,"time_elapsed":10820,"internal_node_id":"0.0-0.0","task_version":"prescreen-v0.3"},{"rt":12919.900000095367,"responses":{"age":"31","gender-categorical":"Male","gender-free-response":"","ethnicity":"Not Hispanic or Latino","race":["Asian"],"education":"Bachelor degree","siblings":"2"},"trial_type":"survey-demo","trial_index":1,"time_elapsed":23753,"internal_node_id":"0.0-1.0","task_version":"prescreen-v0.3"},{"responses":{"Q16":"2","Q01":"1","Q06":"2","Q02":"1","Q21":"3","Q20":"0","Q17":"0","Q04":"1","Q15":"1","Q14":"1","Q09":"2","Q08":"1","Q18":"1","Q11":"2","Q03":"0","Q05":"1","Q12":"2","Q10":"1","Q19":"1","Q13":"1","Q07":"0"},"rt":102019.20000004768,"item_order":[15,0,5,1,20,19,16,3,14,13,8,7,17,10,2,4,11,9,18,12,6],"radio_events":[5134.600000023842,6085.799999952316,8521.5,13334.200000047684,15613.600000023842,22411.100000023842,24640.5,28788,32423.5,38932.700000047684,41010.39999997616,45091.799999952316,50000.10000002384,67561.79999995232,71919,75143.39999997616,78234.60000002384,80486.10000002384,83884.79999995232,85763.5,89435.60000002384,101060],"key_events":[],"mouse_events":[5134.600000023842,6085.799999952316,8045,8521.5,13334.200000047684,15613.600000023842,18859.600000023842,21727.100000023842,22411.100000023842,24640.5,28109.299999952316,28138.299999952316,28788,32423.5,38461.39999997616,38932.700000047684,41010.39999997616,44391.700000047684,45091.799999952316,50000.10000002384,67561.79999995232,71919,74271,75143.39999997616,77758.10000002384,78234.60000002384,80486.10000002384,83358.89999997616,83884.79999995232,85763.5,89435.60000002384,90410.5,91975.10000002384,95599.60000002384,95788.60000002384,95981.89999997616,96505.29999995232,98721.89999997616,101060,102007.70000004768],"straightlining":0.5238095238095238,"zigzagging":0.6,"honeypot":0,"survey":"sns","trial_type":"survey-template","trial_index":2,"time_elapsed":125799,"internal_node_id":"0.0-2.0","task_version":"prescreen-v0.3","browser_interactions":0,"infrequency":0},{"responses":{"Q10":"2","Q08":"1","Q12":"1","Q11":"2","Q07":"2","Q02":"1","Q09":"2","Q03":"2","Q05":"3","Q01":"2","Q06":"2","Q13":"0","Q04":"2"},"rt":53350.60000002384,"item_order":[9,7,11,10,6,1,8,2,4,0,5,12,3],"radio_events":[4236,7743.299999952316,11696.799999952316,15638.799999952316,17306.799999952316,19377.600000023842,22342.199999928474,28820.699999928474,31745.699999928474,33688.199999928474,38313.10000002384,42412.199999928474,52382.10000002384],"key_events":[],"mouse_events":[4236,6858.199999928474,7743.299999952316,11696.799999952316,13656.899999976158,14640.100000023842,15638.799999952316,16897.299999952316,17306.799999952316,19377.600000023842,22342.199999928474,28103,28820.699999928474,31745.699999928474,33688.199999928474,38313.10000002384,42412.199999928474,52382.10000002384,53348.299999952316],"straightlining":0.6153846153846154,"zigzagging":0.5,"honeypot":0,"survey":"bisbas","trial_type":"survey-template","trial_index":3,"time_elapsed":179162,"internal_node_id":"0.0-3.0","task_version":"prescreen-v0.3","browser_interactions":0,"infrequency":0},{"responses":{"Q01":"2","Q02":"2","Q03":"2"},"rt":19631.600000023842,"radio_events":[13776.299999952316,17046.100000023842,18832.700000047684],"key_events":[],"mouse_events":[13776.299999952316,16405.600000023842,17046.100000023842,18832.700000047684,19629.700000047684],"survey":"map","page":1,"trial_type":"survey-map","trial_index":4,"time_elapsed":198799,"internal_node_id":"0.0-4.0","task_version":"prescreen-v0.3","browser_interactions":0},{"responses":{"Q04":"2","Q05":"2","Q06":"2"},"rt":12297.699999928474,"radio_events":[4238,8418,11469.099999904633],"key_events":[],"mouse_events":[3748.399999976158,3799.0999999046326,4238,7964.299999952316,8418,10166.5,10538.799999952316,11469.099999904633,12295.699999928474],"survey":"map","page":2,"trial_type":"survey-map","trial_index":5,"time_elapsed":211101,"internal_node_id":"0.0-5.0","task_version":"prescreen-v0.3","browser_interactions":0},{"responses":{"Q07":"3","Q08":"3","Q09":"2"},"rt":19740.299999952316,"radio_events":[12201.399999976158,15728.5,19082.399999976158],"key_events":[],"mouse_events":[11791.399999976158,12201.399999976158,15728.5,19082.399999976158,19738.299999952316],"survey":"map","page":3,"trial_type":"survey-map","trial_index":6,"time_elapsed":230848,"internal_node_id":"0.0-6.0","task_version":"prescreen-v0.3","browser_interactions":0},{"responses":{"Q10":"2","Q11":"2","Q12":"1","Q13":"2","Q16":"0","Q14":"2","Q15":"2"},"rt":48028.700000047684,"radio_events":[5362.800000071526,6240.400000095367,10166.300000071526,29207.100000023842,34668.60000002384,41564.300000071526,47224.5],"key_events":[],"mouse_events":[3589.9000000953674,4818.5,5362.800000071526,6240.400000095367,9803.800000071526,10166.300000071526,29207.100000023842,34668.60000002384,41564.300000071526,47224.5,48026.5],"survey":"map","page":4,"trial_type":"survey-map","trial_index":7,"time_elapsed":278887,"internal_node_id":"0.0-7.0","task_version":"prescreen-v0.3","browser_interactions":0,"infrequency":0},{"view_history":[{"page_index":0,"viewing_time":1932.6999999284744},{"page_index":1,"viewing_time":26041.700000047684}],"rt":27976.399999976158,"trial_type":"instructions","trial_index":8,"time_elapsed":306866,"internal_node_id":"0.0-8.0","task_version":"prescreen-v0.3"},{"responses":{"01":"No","02":"Yes","02_ages_10":"10","02_ages_12":"12","02_ages_14":"14","03":"No","04":"No","05":"No","06":"No"},"rt":30710.700000047684,"item_order":[0,1,2,3,4,5],"radio_events":[7580.100000023842,14333,25542.899999976158,26465.700000047684,28131.700000047684,30010.5],"checkbox_events":[18592.5,19434.200000047684,22132.200000047684],"key_events":[],"mouse_events":[0.20000004768371582,7169.299999952316,7580.100000023842,13352.399999976158,14333,18592.5,19434.200000047684,22132.200000047684,25542.899999976158,26465.700000047684,28131.700000047684,30010.5,30695.899999976158],"honeypot":0,"survey":"mace","page":1,"trial_type":"survey-mace","trial_index":9,"time_elapsed":337604,"internal_node_id":"0.0-9.0","task_version":"prescreen-v0.3","browser_interactions":0},{"responses":{"01":"No","02":"No","03":"Yes","03_ages_7":"7","03_ages_8":"8","04":"No","05":"Yes","05_ages_7":"7","05_ages_8":"8","06":"No","07":"No","08":"No"},"rt":26707.899999976158,"item_order":[0,1,2,3,4,5,6,7],"radio_events":[2542.899999976158,3809.6999999284744,5148,15715,18277.699999928474,22435.699999928474,24943.299999952316,25964.799999952316],"checkbox_events":[6407.5,8687.099999904633,9296.399999976158,11368.699999928474,19255.399999976158,19821],"key_events":[],"mouse_events":[2542.899999976158,3809.6999999284744,5148,6407.5,6758.699999928474,8687.099999904633,9296.399999976158,11368.699999928474,15715,18277.699999928474,19255.399999976158,19821,22435.699999928474,24943.299999952316,25964.799999952316,26694.199999928474],"honeypot":0,"survey":"mace","page":2,"trial_type":"survey-mace","trial_index":10,"time_elapsed":364322,"internal_node_id":"0.0-10.0","task_version":"prescreen-v0.3","browser_interactions":0},{"responses":{"01":"No","02":"No","03":"No","04":"No"},"rt":8243.899999976158,"item_order":[0,1,2,3],"radio_events":[3011.0999999046326,6186.5,6775.199999928474,7665.899999976158],"checkbox_events":[],"key_events":[],"mouse_events":[3011.0999999046326,4309.799999952316,5075.199999928474,6186.5,6775.199999928474,7665.899999976158,8235.099999904633],"honeypot":0,"survey":"mace","page":3,"trial_type":"survey-mace","trial_index":11,"time_elapsed":372577,"internal_node_id":"0.0-11.0","task_version":"prescreen-v0.3","browser_interactions":0},{"responses":{"01":"No","02":"No"},"rt":4492.299999952316,"item_order":[0,1],"radio_events":[2853.7999999523163,3770.5],"checkbox_events":[],"key_events":[],"mouse_events":[2853.7999999523163,3770.5,4490.299999952316],"honeypot":0,"survey":"mace","page":4,"trial_type":"survey-mace","trial_index":12,"time_elapsed":377077,"internal_node_id":"0.0-12.0","task_version":"prescreen-v0.3","browser_interactions":0},{"responses":{"01":"No","02":"No","03":"No","04":"No","05":"No"},"rt":12347.399999976158,"item_order":[0,1,2,3,4],"radio_events":[7406.5,8434.299999952316,9618.100000023842,10586.399999976158,11867.199999928474],"checkbox_events":[],"key_events":[],"mouse_events":[7406.5,8434.299999952316,9618.100000023842,10586.399999976158,11867.199999928474,12335.899999976158],"honeypot":0,"survey":"mace","page":5,"trial_type":"survey-mace","trial_index":13,"time_elapsed":389431,"internal_node_id":"0.0-13.0","task_version":"prescreen-v0.3","browser_interactions":0},{"responses":{"01":"Yes","01_ages_14":"14","01_ages_16":"16","01_ages_17":"17","02":"Yes","02_ages_14":"14","02_ages_15":"15","02_ages_16":"16","02_ages_17":"17","02_ages_18":"18","03":"No","04":"No","05":"No"},"rt":225802.40000009537,"item_order":[0,1,2,3,4],"radio_events":[210346,215981.5,221807.80000007153,223861.90000009537,225384.5],"checkbox_events":[211380.5,212088.60000002384,213228.90000009537,217182.40000009537,217642.60000002384,218253.30000007153,218857.70000004768,219705.20000004768],"key_events":[],"mouse_events":[210346,211380.5,212088.60000002384,212552.80000007153,213228.90000009537,215981.5,217182.40000009537,217642.60000002384,218253.30000007153,218857.70000004768,219705.20000004768,221114.60000002384,221807.80000007153,223861.90000009537,225384.5,225794.60000002384],"honeypot":0,"survey":"mace","page":6,"trial_type":"survey-mace","trial_index":14,"time_elapsed":615243,"internal_node_id":"0.0-14.0","task_version":"prescreen-v0.3","browser_interactions":2},{"responses":{"01":"No","02":"No","03":"No","04":"No","05":"No","06":"No","07":"No"},"rt":12945.899999976158,"item_order":[0,1,2,3,4,5,6],"radio_events":[2574.6999999284744,3553.2999999523163,6117.199999928474,9290.600000023842,9923.600000023842,11622.5,12260.899999976158],"checkbox_events":[],"key_events":[],"mouse_events":[2574.6999999284744,3553.2999999523163,4573.899999976158,6117.199999928474,6942.799999952316,8388.399999976158,9290.600000023842,9923.600000023842,11205.399999976158,11622.5,12260.899999976158,12929.199999928474],"honeypot":0,"survey":"mace","page":7,"trial_type":"survey-mace","trial_index":15,"time_elapsed":628204,"internal_node_id":"0.0-15.0","task_version":"prescreen-v0.3","browser_interactions":0},{"responses":{"01":"No","02":"No","03":"No","04":"No"},"rt":16374.100000023842,"item_order":[0,1,2,3],"radio_events":[5487.200000047684,6822,11915.600000023842,13025.5,15687.799999952316],"checkbox_events":[],"key_events":[],"mouse_events":[5487.200000047684,6822,11915.600000023842,13025.5,15687.799999952316,16365.700000047684],"honeypot":0,"survey":"mace","page":8,"trial_type":"survey-mace","trial_index":16,"time_elapsed":644588,"internal_node_id":"0.0-16.0","task_version":"prescreen-v0.3","browser_interactions":0},{"responses":{"01":"Yes","01_ages_1":"1","01_ages_2":"2","01_ages_3":"3","01_ages_4":"4","01_ages_5":"5","01_ages_6":"6","01_ages_7":"7","01_ages_8":"8","01_ages_9":"9","01_ages_10":"10","01_ages_11":"11","01_ages_12":"12","01_ages_13":"13","01_ages_14":"14","01_ages_15":"15","01_ages_16":"16","01_ages_17":"17","01_ages_18":"18","02":"Yes","02_ages_1":"1","02_ages_2":"2","02_ages_3":"3","02_ages_4":"4","02_ages_5":"5","02_ages_6":"6","02_ages_8":"8","02_ages_10":"10","02_ages_11":"11","02_ages_15":"15","02_ages_16":"16","02_ages_17":"17","03":"Yes","03_ages_1":"1","03_ages_2":"2","03_ages_3":"3","03_ages_4":"4","03_ages_5":"5","03_ages_6":"6","03_ages_7":"7","03_ages_8":"8","03_ages_9":"9","03_ages_10":"10","03_ages_11":"11","03_ages_12":"12","03_ages_13":"13","03_ages_14":"14","03_ages_15":"15","03_ages_16":"16","03_ages_17":"17","03_ages_18":"18","04":"Yes","04_ages_1":"1","04_ages_2":"2","04_ages_3":"3","04_ages_4":"4","04_ages_5":"5","04_ages_6":"6","04_ages_7":"7","04_ages_8":"8","04_ages_9":"9","04_ages_10":"10","04_ages_11":"11","04_ages_12":"12","04_ages_13":"13","04_ages_14":"14","04_ages_15":"15","04_ages_16":"16","04_ages_17":"17","04_ages_18":"18"},"rt":66229.10000002384,"item_order":[0,1,2,3],"radio_events":[3117.7000000476837,21844.799999952316,37367.299999952316,53210.60000002384],"checkbox_events":[6365.5,8771.799999952316,9442,10059.899999976158,10864.299999952316,11714.200000047684,12523.600000023842,12957.299999952316,13650.200000047684,14731.299999952316,15130.700000047684,15491.399999976158,15847.100000023842,16473.899999976158,16867.600000023842,17506.700000047684,18148,18959.399999976158,23840.799999952316,24162.399999976158,24673.399999976158,25151.600000023842,25791.899999976158,27028,28160.600000023842,28802.200000047684,29596.5,30604.5,30983.600000023842,34044.299999952316,39417.89999997616,39779.10000002384,40888.700000047684,41263.39999997616,41680.799999952316,42052.60000002384,42462.60000002384,43565.700000047684,44019.200000047684,44353.5,45015.200000047684,45844.39999997616,46535.799999952316,46962.700000047684,47668.700000047684,48160.10000002384,48592,49121.299999952316,55743.10000002384,56167.60000002384,56585.60000002384,57306.10000002384,57754.89999997616,58141.39999997616,58804.299999952316,59282.10000002384,59943.200000047684,60395.89999997616,61091.5,61559.700000047684,62094.299999952316,62802.299999952316,63719.299999952316,64255.799999952316,64642.700000047684,65550.70000004768],"key_events":[],"mouse_events":[3117.7000000476837,6365.5,6782.100000023842,8771.799999952316,9442,10059.899999976158,10864.299999952316,11714.200000047684,12523.600000023842,12957.299999952316,13650.200000047684,14037.700000047684,14731.299999952316,15130.700000047684,15491.399999976158,15847.100000023842,16473.899999976158,16867.600000023842,17506.700000047684,18148,18959.399999976158,21844.799999952316,23199.200000047684,23378.200000047684,23840.799999952316,24162.399999976158,24673.399999976158,25151.600000023842,25791.899999976158,26201.299999952316,27028,27639.600000023842,28160.600000023842,28802.200000047684,29596.5,30239.200000047684,30604.5,30983.600000023842,33707.89999997616,34044.299999952316,37367.299999952316,39417.89999997616,39779.10000002384,40144.5,40888.700000047684,41263.39999997616,41680.799999952316,42052.60000002384,42462.60000002384,43205.299999952316,43565.700000047684,44019.200000047684,44353.5,45015.200000047684,45353.39999997616,45844.39999997616,46535.799999952316,46962.700000047684,47668.700000047684,48160.10000002384,48592,49121.299999952316,53210.60000002384,54872.700000047684,55743.10000002384,56167.60000002384,56585.60000002384,57306.10000002384,57754.89999997616,58141.39999997616,58804.299999952316,59282.10000002384,59943.200000047684,60395.89999997616,61091.5,61559.700000047684,62094.299999952316,62802.299999952316,63719.299999952316,64255.799999952316,64642.700000047684,65550.70000004768,66221.29999995232],"honeypot":0,"survey":"mace","page":9,"trial_type":"survey-mace","trial_index":17,"time_elapsed":710821,"internal_node_id":"0.0-17.0","task_version":"prescreen-v0.3","browser_interactions":0},{"responses":{"01":"No","02":"No","03":"No","04":"No","05":"No","06":"Yes","06_ages_17":"17","07":"Yes","07_ages_12":"12","07_ages_13":"13","07_ages_14":"14","07_ages_15":"15","07_ages_16":"16","07_ages_17":"17","07_ages_18":"18","08":"No"},"rt":32304.700000047684,"item_order":[0,1,2,3,4,5,6,7],"radio_events":[5891.200000047684,7105.700000047684,9667.399999976158,10575.399999976158,12698.899999976158,14729.100000023842,22625.300000071526,29834.800000071526,31339.700000047684],"checkbox_events":[16361.899999976158,25105.600000023842,25500,25938.600000023842,26265.300000071526,26625.399999976158,27035.300000071526,27785.600000023842],"key_events":[],"mouse_events":[3888.2000000476837,5891.200000047684,7105.700000047684,9667.399999976158,10575.399999976158,12698.899999976158,14729.100000023842,16361.899999976158,18878.100000023842,22625.300000071526,25105.600000023842,25500,25938.600000023842,26265.300000071526,26625.399999976158,27035.300000071526,27785.600000023842,29834.800000071526,31339.700000047684,32286.700000047684],"honeypot":0,"survey":"mace","page":10,"trial_type":"survey-mace","trial_index":18,"time_elapsed":743133,"internal_node_id":"0.0-18.0","task_version":"prescreen-v0.3","browser_interactions":0,"instructed":0},{"rt":5763.800000071526,"trial_type":"mental-health-alert","trial_index":19,"time_elapsed":748903,"internal_node_id":"0.0-19.0","task_version":"prescreen-v0.3","interactions":"[{\"event\":\"blur\",\"trial\":8,\"time\":283044},{\"event\":\"focus\",\"trial\":8,\"time\":301231},{\"event\":\"blur\",\"trial\":14,\"time\":390430},{\"event\":\"focus\",\"trial\":14,\"time\":591343}]"}]