[{"view_history":[{"page_index":0,"viewing_time":3076},{"page_index":1,"viewing_time":834},{"page_index":2,"viewing_time":633},{"page_index":3,"viewing_time":1247}],"rt":5790,"trial_type":"instructions","trial_index":0,"time_elapsed":5795,"internal_node_id":"0.0-0.0","task_version":"prescreen-v0.3"},{"rt":25358,"responses":{"age":"38","gender-categorical":"Male","gender-free-response":"","ethnicity":"Not Hispanic or Latino","race":["White"],"education":"Bachelor degree","siblings":"4"},"trial_type":"survey-demo","trial_index":1,"time_elapsed":31161,"internal_node_id":"0.0-1.0","task_version":"prescreen-v0.3"},{"responses":{"Q20":"1","Q03":"3","Q16":"2","Q10":"3","Q19":"2","Q07":"1","Q05":"3","Q06":"3","Q08":"3","Q09":"2","Q13":"2","Q04":"2","Q11":"3","Q01":"3","Q18":"3","Q15":"3","Q17":"3","Q02":"2","Q12":"2","Q14":"3","Q21":"3"},"rt":134698,"item_order":[19,2,15,9,18,6,4,5,7,8,12,3,10,0,17,14,16,1,11,13,20],"radio_events":[5267,8927,14918,17387,21280,25879,30709,36626,37767,41256,42568,43214,53994,54698,55566,59584,64741,69085,69402,70489,75643,133290],"key_events":[],"mouse_events":[5267,7848,8927,14918,17387,21280,25879,30709,35888,36626,37767,40127,41256,42568,43214,53994,54698,55566,59584,64741,68280,69085,69402,70489,70985,75643,77007,88995,90006,90773,102939,103833,128252,128932,133290,134698],"straightlining":0.5714285714285714,"zigzagging":0.4,"honeypot":0,"survey":"sns","trial_type":"survey-template","trial_index":2,"time_elapsed":165865,"internal_node_id":"0.0-2.0","task_version":"prescreen-v0.3","browser_interactions":4,"infrequency":0},{"responses":{"Q06":"2","Q11":"2","Q01":"3","Q12":"1","Q10":"1","Q13":"0","Q07":"2","Q08":"2","Q02":"3","Q04":"3","Q03":"3","Q05":"2","Q09":"2"},"rt":262950,"item_order":[5,10,0,11,9,12,6,7,1,3,2,4,8],"radio_events":[231927,232592,233670,236073,238081,239217,243955,249860,250831,256549,257129,260339,262009],"key_events":[],"mouse_events":[231927,232592,233670,236073,237206,238081,239217,243955,248786,249860,250831,254420,256549,257129,260339,262009,262950],"straightlining":0.46153846153846156,"zigzagging":0.3333333333333333,"honeypot":0,"survey":"bisbas","trial_type":"survey-template","trial_index":3,"time_elapsed":428820,"internal_node_id":"0.0-3.0","task_version":"prescreen-v0.3","browser_interactions":6,"infrequency":0},{"responses":{"Q01":"2","Q02":"2","Q03":"2"},"rt":19737,"radio_events":[13591,15230,18609],"key_events":[],"mouse_events":[13591,15230,18609,19737],"survey":"map","page":1,"trial_type":"survey-map","trial_index":4,"time_elapsed":448559,"internal_node_id":"0.0-4.0","task_version":"prescreen-v0.3","browser_interactions":0},{"responses":{"Q04":"0","Q05":"0","Q06":"1"},"rt":12067,"radio_events":[4378,8997,11170],"key_events":[],"mouse_events":[4378,8997,11170,12067],"survey":"map","page":2,"trial_type":"survey-map","trial_index":5,"time_elapsed":460630,"internal_node_id":"0.0-5.0","task_version":"prescreen-v0.3","browser_interactions":0},{"responses":{"Q07":"0","Q08":"0","Q09":"2"},"rt":9846,"radio_events":[3285,4573,9080],"key_events":[],"mouse_events":[3285,4573,9080,9846],"survey":"map","page":3,"trial_type":"survey-map","trial_index":6,"time_elapsed":470479,"internal_node_id":"0.0-6.0","task_version":"prescreen-v0.3","browser_interactions":0},{"responses":{"Q10":"1","Q11":"1","Q12":"0","Q13":"3","Q16":"0","Q14":"1","Q15":"0"},"rt":33750,"radio_events":[3795,5455,10068,11229,19301,20480,30240,32998],"key_events":[],"mouse_events":[3795,5455,10068,11229,15702,19301,20480,30240,32998,33750],"survey":"map","page":4,"trial_type":"survey-map","trial_index":7,"time_elapsed":504233,"internal_node_id":"0.0-7.0","task_version":"prescreen-v0.3","browser_interactions":0,"infrequency":0},{"view_history":[{"page_index":0,"viewing_time":1839},{"page_index":1,"viewing_time":2646}],"rt":4485,"trial_type":"instructions","trial_index":8,"time_elapsed":508720,"internal_node_id":"0.0-8.0","task_version":"prescreen-v0.3"},{"responses":{"01":"Yes","01_ages_6":"6","01_ages_7":"7","01_ages_8":"8","01_ages_9":"9","01_ages_10":"10","01_ages_11":"11","01_ages_12":"12","01_ages_13":"13","01_ages_14":"14","02":"Yes","02_ages_3":"3","02_ages_4":"4","02_ages_5":"5","02_ages_6":"6","02_ages_7":"7","02_ages_8":"8","02_ages_9":"9","02_ages_10":"10","02_ages_11":"11","02_ages_12":"12","02_ages_13":"13","02_ages_14":"14","03":"Yes","03_ages_1":"1","03_ages_2":"2","03_ages_3":"3","03_ages_4":"4","03_ages_5":"5","03_ages_6":"6","03_ages_7":"7","03_ages_8":"8","03_ages_9":"9","03_ages_10":"10","03_ages_11":"11","03_ages_12":"12","03_ages_13":"13","04":"No","05":"No","06":"Yes","06_ages_3":"3","06_ages_4":"4","06_ages_5":"5","06_ages_6":"6","06_ages_7":"7","06_ages_8":"8","06_ages_9":"9","06_ages_10":"10","06_ages_11":"11","06_ages_12":"12","06_ages_13":"13"},"rt":56813,"item_order":[0,1,2,3,4,5],"radio_events":[3383,16388,29400,41067,44084,45582],"checkbox_events":[9917,10450,10865,11379,11841,12375,12939,13386,18791,19155,19699,20350,21119,21626,22063,22583,23242,23674,24109,24646,25507,30468,30914,31293,32467,32859,33258,33688,34260,34711,35230,35655,36305,37333,48218,49916,50489,50897,51519,52298,53023,53763,54411,55218,55857],"key_events":[],"mouse_events":[0,3383,9917,10450,10865,11379,11841,12375,12939,13386,16388,18791,19155,19699,20350,21119,21626,22063,22583,23242,23674,24109,24646,25507,29400,30468,30914,31293,32467,32859,33258,33688,34260,34711,35230,35655,36305,37333,41067,44084,45582,48218,49916,50489,50897,51519,52298,53023,53763,54411,55218,55857,56813],"honeypot":0,"survey":"mace","page":1,"trial_type":"survey-mace","trial_index":9,"time_elapsed":565546,"internal_node_id":"0.0-9.0","task_version":"prescreen-v0.3","browser_interactions":0},{"responses":{"01":"Yes","01_ages_8":"8","01_ages_9":"9","01_ages_10":"10","01_ages_11":"11","01_ages_12":"12","02":"No","03":"Yes","03_ages_1":"1","03_ages_2":"2","03_ages_3":"3","03_ages_4":"4","03_ages_5":"5","03_ages_6":"6","03_ages_7":"7","03_ages_8":"8","03_ages_9":"9","03_ages_10":"10","03_ages_11":"11","03_ages_12":"12","04":"Yes","04_ages_1":"1","04_ages_2":"2","04_ages_3":"3","04_ages_4":"4","04_ages_5":"5","04_ages_6":"6","04_ages_7":"7","04_ages_8":"8","04_ages_9":"9","04_ages_10":"10","04_ages_11":"11","04_ages_12":"12","05":"Yes","05_ages_1":"1","05_ages_2":"2","05_ages_3":"3","05_ages_4":"4","05_ages_5":"5","05_ages_6":"6","05_ages_7":"7","05_ages_8":"8","05_ages_9":"9","05_ages_10":"10","05_ages_11":"11","05_ages_12":"12","06":"Yes","06_ages_9":"9","06_ages_10":"10","06_ages_11":"11","06_ages_12":"12","06_ages_13":"13","06_ages_14":"14","07":"Yes","07_ages_3":"3","07_ages_9":"9","07_ages_10":"10","07_ages_11":"11","07_ages_12":"12","07_ages_13":"13","08":"Yes","08_ages_9":"9","08_ages_10":"10","08_ages_11":"11","08_ages_12":"12","08_ages_13":"13"},"rt":86644,"item_order":[0,1,2,3,4,5,6,7],"radio_events":[4147,15474,16440,30564,40112,52889,70148,81768],"checkbox_events":[9427,9827,10244,11289,11916,18710,19415,19928,20868,21364,22063,22463,23128,23807,24805,28442,29006,31659,32167,32615,33300,33688,34263,34819,35854,36451,37087,37948,39000,41556,42049,42651,44287,44735,45326,46085,46621,46980,47666,48557,48938,55611,59528,60222,60716,61301,65618,67841,68408,74363,75725,76921,77341,77975,80165,83219,83970,84540,85114,85592],"key_events":[],"mouse_events":[2215,4147,9427,9827,10244,10751,11289,11916,15474,16440,18710,19081,19415,19928,20441,20868,21364,22063,22463,23128,23807,24805,28442,29006,30564,31659,32167,32615,32935,33300,33688,34263,34819,35854,36451,37087,37948,39000,40112,41556,42049,42651,43206,43590,44287,44735,45326,46085,46621,46980,47666,48557,48938,52889,55611,59528,60222,60716,61301,65618,67841,68408,70148,74363,75725,76921,77341,77975,80165,81768,83219,83970,84540,85114,85592,86644],"honeypot":0,"survey":"mace","page":2,"trial_type":"survey-mace","trial_index":10,"time_elapsed":652198,"internal_node_id":"0.0-10.0","task_version":"prescreen-v0.3","browser_interactions":0},{"responses":{"01":"Yes","01_ages_1":"1","01_ages_2":"2","01_ages_3":"3","01_ages_4":"4","01_ages_5":"5","01_ages_6":"6","01_ages_7":"7","01_ages_8":"8","01_ages_9":"9","01_ages_10":"10","01_ages_11":"11","01_ages_12":"12","02":"No","03":"Yes","03_ages_9":"9","03_ages_10":"10","03_ages_11":"11","03_ages_12":"12","03_ages_13":"13","04":"Yes","04_ages_9":"9","04_ages_10":"10","04_ages_11":"11","04_ages_12":"12","04_ages_13":"13"},"rt":38538,"item_order":[0,1,2,3],"radio_events":[8220,23776,26390,32489],"checkbox_events":[10471,11210,11927,12296,12711,13161,14695,15681,16278,17554,17984,18543,28595,29032,29435,29856,30263,33534,33915,35255,35707,36322,36881,37835],"key_events":[],"mouse_events":[8220,10471,10787,11210,11572,11927,12296,12711,13161,13579,14269,14695,15681,16278,17554,17984,18543,23776,26390,28595,29032,29435,29856,30263,32489,33534,33915,34420,35255,35707,36322,36881,37835,38538],"honeypot":0,"survey":"mace","page":3,"trial_type":"survey-mace","trial_index":11,"time_elapsed":690745,"internal_node_id":"0.0-11.0","task_version":"prescreen-v0.3","browser_interactions":0},{"responses":{"01":"Yes","01_ages_15":"15","01_ages_16":"16","01_ages_17":"17","02":"Yes","02_ages_16":"16"},"rt":27130,"item_order":[0,1],"radio_events":[11217,14501,18409,23388],"checkbox_events":[21107,21616,22050,25283],"key_events":[],"mouse_events":[11217,14501,18409,21107,21616,22050,23388,25283,27130],"honeypot":0,"survey":"mace","page":4,"trial_type":"survey-mace","trial_index":12,"time_elapsed":717880,"internal_node_id":"0.0-12.0","task_version":"prescreen-v0.3","browser_interactions":0},{"responses":{"01":"Yes","01_ages_10":"10","01_ages_11":"11","01_ages_12":"12","02":"Yes","02_ages_10":"10","02_ages_11":"11","02_ages_12":"12","03":"No","04":"No","05":"No"},"rt":27448,"item_order":[0,1,2,3,4],"radio_events":[4165,11597,17126,24192,26635],"checkbox_events":[5394,6763,7316,12596,13034,13765],"key_events":[],"mouse_events":[4165,5394,6763,7316,10643,11597,12596,13034,13765,17126,24192,26635,27448],"honeypot":0,"survey":"mace","page":5,"trial_type":"survey-mace","trial_index":13,"time_elapsed":745336,"internal_node_id":"0.0-13.0","task_version":"prescreen-v0.3","browser_interactions":0},{"responses":{"01":"Yes","01_ages_1":"1","01_ages_2":"2","01_ages_3":"3","01_ages_4":"4","01_ages_5":"5","01_ages_6":"6","01_ages_7":"7","01_ages_8":"8","01_ages_9":"9","01_ages_10":"10","01_ages_11":"11","01_ages_12":"12","01_ages_13":"13","01_ages_14":"14","02":"Yes","02_ages_1":"1","02_ages_2":"2","02_ages_3":"3","02_ages_4":"4","02_ages_5":"5","02_ages_6":"6","02_ages_7":"7","02_ages_8":"8","02_ages_9":"9","02_ages_10":"10","02_ages_11":"11","02_ages_12":"12","02_ages_13":"13","03":"Yes","03_ages_6":"6","03_ages_7":"7","03_ages_8":"8","03_ages_9":"9","03_ages_10":"10","03_ages_11":"11","03_ages_12":"12","03_ages_13":"13","04":"Yes","04_ages_6":"6","04_ages_7":"7","04_ages_8":"8","04_ages_9":"9","04_ages_10":"10","04_ages_11":"11","04_ages_12":"12","04_ages_13":"13","05":"Yes","05_ages_6":"6","05_ages_7":"7","05_ages_8":"8","05_ages_9":"9","05_ages_10":"10","05_ages_11":"11","05_ages_12":"12","05_ages_13":"13"},"rt":65286,"item_order":[0,1,2,3,4],"radio_events":[5593,19040,35575,48426,56291],"checkbox_events":[6645,7126,7625,8014,8388,8841,10983,11419,12003,12479,12831,13396,14140,14551,20295,21649,22176,22697,23950,24434,25030,25840,26682,27479,27940,28605,29159,43226,43724,44218,44740,45127,45555,46128,46887,49797,50553,51121,51596,52025,52623,53256,53935,57787,58229,58732,59617,59985,61948,62346,64398],"key_events":[],"mouse_events":[5593,6645,7126,7625,8014,8388,8841,10983,11419,12003,12479,12831,13396,14140,14551,19040,20295,20689,21649,22176,22697,23280,23950,24434,25030,25840,26682,27479,27940,28605,29159,35575,43226,43724,44218,44740,45127,45555,46128,46887,48426,49797,50553,51121,51596,52025,52623,53256,53935,56291,57787,58229,58732,59108,59617,59985,61948,62346,64398,65285],"honeypot":0,"survey":"mace","page":6,"trial_type":"survey-mace","trial_index":14,"time_elapsed":810632,"internal_node_id":"0.0-14.0","task_version":"prescreen-v0.3","browser_interactions":0},{"responses":{"01":"No","02":"No","03":"Yes","03_ages_6":"6","03_ages_7":"7","03_ages_8":"8","03_ages_9":"9","03_ages_10":"10","03_ages_11":"11","03_ages_12":"12","03_ages_13":"13","03_ages_14":"14","04":"Yes","04_ages_6":"6","04_ages_7":"7","04_ages_8":"8","04_ages_9":"9","04_ages_10":"10","04_ages_11":"11","04_ages_12":"12","04_ages_13":"13","04_ages_14":"14","05":"No","06":"No","07":"No"},"rt":47069,"item_order":[0,1,2,3,4,5,6],"radio_events":[4670,15056,20243,21781,32908,43509,45398,46425],"checkbox_events":[25344,25875,26238,26695,27370,27896,28739,29194,29616,34639,35265,35973,36661,37388,37892,38425,39170,39883],"key_events":[],"mouse_events":[4670,15056,20243,21781,24914,25344,25875,26238,26695,27370,27896,28306,28739,29194,29616,32908,34639,35265,35973,36661,37388,37892,38425,39170,39883,43509,45398,46425,47069],"honeypot":0,"survey":"mace","page":7,"trial_type":"survey-mace","trial_index":15,"time_elapsed":857709,"internal_node_id":"0.0-15.0","task_version":"prescreen-v0.3","browser_interactions":0},{"responses":{"01":"Yes","01_ages_6":"6","01_ages_7":"7","01_ages_8":"8","01_ages_9":"9","01_ages_10":"10","01_ages_11":"11","01_ages_12":"12","01_ages_13":"13","01_ages_14":"14","01_ages_15":"15","01_ages_16":"16","01_ages_17":"17","01_ages_18":"18","02":"Yes","02_ages_1":"1","02_ages_2":"2","02_ages_3":"3","02_ages_4":"4","02_ages_5":"5","02_ages_6":"6","02_ages_7":"7","02_ages_8":"8","02_ages_9":"9","02_ages_10":"10","02_ages_11":"11","02_ages_12":"12","02_ages_13":"13","02_ages_14":"14","02_ages_15":"15","02_ages_16":"16","02_ages_17":"17","02_ages_18":"18","03":"Yes","03_ages_1":"1","03_ages_2":"2","03_ages_3":"3","03_ages_4":"4","03_ages_5":"5","03_ages_6":"6","03_ages_7":"7","03_ages_8":"8","03_ages_9":"9","03_ages_10":"10","03_ages_11":"11","03_ages_12":"12","03_ages_13":"13","03_ages_14":"14","03_ages_15":"15","03_ages_16":"16","03_ages_17":"17","03_ages_18":"18","04":"Yes","04_ages_1":"1","04_ages_2":"2","04_ages_3":"3","04_ages_4":"4","04_ages_5":"5","04_ages_6":"6","04_ages_7":"7","04_ages_8":"8","04_ages_9":"9","04_ages_10":"10","04_ages_11":"11","04_ages_12":"12","04_ages_13":"13","04_ages_14":"14","04_ages_15":"15","04_ages_16":"16","04_ages_17":"17","04_ages_18":"18"},"rt":69587,"item_order":[0,1,2,3],"radio_events":[7967,23276,36967,55416],"checkbox_events":[9799,10200,10888,11362,11838,12385,12932,13461,14096,14822,17710,18319,18886,24214,24730,25297,25945,26722,27401,27916,28926,30018,30542,30939,31555,32020,32689,33135,33499,35292,36037,42057,42660,43157,43980,44393,45093,46652,47148,47605,48218,48650,49179,49807,50918,51759,52334,52927,53567,56470,57023,57406,57917,59021,59694,60045,60689,61293,62550,63088,63829,64368,65120,65798,66442,67098,68453],"key_events":[],"mouse_events":[7967,9120,9799,10200,10888,11362,11838,12385,12932,13461,14096,14822,17710,18319,18886,23276,24214,24730,25297,25945,26722,27401,27916,28926,30018,30542,30939,31555,32020,32689,33135,33499,35292,36037,36967,42057,42660,43157,43980,44393,45093,46652,47148,47605,48218,48650,49179,49807,50918,51759,52334,52927,53567,55416,56470,57023,57406,57917,58483,59021,59694,60045,60689,61293,61862,62550,63088,63829,64368,65120,65798,66442,67098,67675,68453,69587],"honeypot":0,"survey":"mace","page":8,"trial_type":"survey-mace","trial_index":16,"time_elapsed":927303,"internal_node_id":"0.0-16.0","task_version":"prescreen-v0.3","browser_interactions":0},{"responses":{"01":"Yes","01_ages_1":"1","01_ages_2":"2","01_ages_3":"3","01_ages_4":"4","01_ages_5":"5","01_ages_6":"6","01_ages_7":"7","01_ages_8":"8","01_ages_9":"9","01_ages_10":"10","01_ages_11":"11","01_ages_12":"12","02":"No","03":"No","04":"Yes","04_ages_1":"1","04_ages_2":"2","04_ages_3":"3","04_ages_4":"4","04_ages_5":"5","04_ages_6":"6","04_ages_7":"7","04_ages_8":"8","04_ages_9":"9","04_ages_10":"10","04_ages_11":"11","04_ages_12":"12","04_ages_13":"13","04_ages_14":"14","04_ages_15":"15","04_ages_16":"16","04_ages_17":"17","04_ages_18":"18"},"rt":41240,"item_order":[0,1,2,3],"radio_events":[3271,21521,24080,28778],"checkbox_events":[8249,8798,9383,9835,10530,10944,11574,11997,12673,13092,13548,15700,29836,30303,30854,31588,32148,33013,33450,33878,34452,35224,35774,36357,36801,37440,38135,39022,39716,40320],"key_events":[],"mouse_events":[3271,8249,8798,9383,9835,10202,10530,10944,11574,11997,12673,13092,13548,15700,21521,24080,28778,29836,30303,30854,31588,32148,33013,33450,33878,34452,35224,35774,36357,36801,37440,38135,39022,39716,40320,41240],"honeypot":0,"survey":"mace","page":9,"trial_type":"survey-mace","trial_index":17,"time_elapsed":968550,"internal_node_id":"0.0-17.0","task_version":"prescreen-v0.3","browser_interactions":0},{"responses":{"01":"Yes","01_ages_1":"1","01_ages_2":"2","01_ages_3":"3","01_ages_4":"4","01_ages_5":"5","01_ages_6":"6","01_ages_7":"7","01_ages_8":"8","01_ages_9":"9","01_ages_10":"10","01_ages_11":"11","01_ages_12":"12","01_ages_13":"13","01_ages_14":"14","01_ages_15":"15","01_ages_16":"16","01_ages_17":"17","01_ages_18":"18","02":"Yes","02_ages_1":"1","02_ages_2":"2","02_ages_3":"3","02_ages_4":"4","02_ages_5":"5","02_ages_6":"6","02_ages_7":"7","02_ages_8":"8","02_ages_9":"9","02_ages_10":"10","02_ages_11":"11","02_ages_12":"12","02_ages_13":"13","03":"Yes","03_ages_10":"10","03_ages_11":"11","03_ages_12":"12","03_ages_13":"13","03_ages_14":"14","03_ages_15":"15","03_ages_16":"16","03_ages_17":"17","03_ages_18":"18","04":"Yes","04_ages_1":"1","04_ages_2":"2","04_ages_3":"3","04_ages_4":"4","04_ages_5":"5","04_ages_6":"6","04_ages_7":"7","04_ages_8":"8","04_ages_9":"9","04_ages_10":"10","04_ages_11":"11","04_ages_12":"12","04_ages_13":"13","04_ages_14":"14","04_ages_15":"15","04_ages_16":"16","04_ages_17":"17","04_ages_18":"18","05":"Yes","05_ages_1":"1","05_ages_2":"2","05_ages_3":"3","05_ages_4":"4","05_ages_5":"5","05_ages_6":"6","05_ages_7":"7","05_ages_8":"8","05_ages_9":"9","05_ages_10":"10","05_ages_11":"11","05_ages_12":"12","05_ages_13":"13","05_ages_14":"14","05_ages_15":"15","05_ages_16":"16","05_ages_17":"17","05_ages_18":"18","06":"Yes","06_ages_17":"17","07":"No","08":"No"},"rt":140768,"item_order":[0,1,2,3,4,5,6,7],"radio_events":[73140,87020,97575,108196,121527,135151,137988,140223],"checkbox_events":[74301,74778,76202,76578,77114,77845,78245,78621,79447,79907,80260,81086,81716,82330,82721,83421,83937,85993,88569,89083,89533,90032,90693,91651,92257,92733,93413,93841,94333,94839,95564,102750,103158,103535,103969,104382,104833,105339,105925,106300,109186,110662,111065,111840,112328,113058,113962,114400,114814,115349,116060,116469,117060,117607,118060,118492,119072,119485,122424,122767,123189,123540,123952,124381,124743,125169,126094,126866,127328,127977,128735,129443,131477,132113,132477,132968,136539],"key_events":[],"mouse_events":[73140,74301,74778,76202,76578,77114,77845,78245,78621,79120,79447,79907,80260,81086,81716,82330,82721,83421,83937,84450,85712,85993,87020,88569,89083,89533,90032,90693,91651,92257,92733,93413,93841,94333,94839,95564,97575,102750,103158,103535,103969,104382,104833,105339,105925,106300,108196,109186,109557,110662,111065,111840,112328,113058,113962,114400,114814,115349,116060,116469,117060,117607,118060,118492,119072,119485,121527,122424,122767,123189,123540,123952,124381,124743,125169,126094,126866,127328,127977,128735,129443,130950,131477,132113,132477,132968,135151,136539,137988,140223,140768],"honeypot":0,"survey":"mace","page":10,"trial_type":"survey-mace","trial_index":18,"time_elapsed":1109331,"internal_node_id":"0.0-18.0","task_version":"prescreen-v0.3","browser_interactions":2,"instructed":0},{"rt":3365,"trial_type":"mental-health-alert","trial_index":19,"time_elapsed":1112698,"internal_node_id":"0.0-19.0","task_version":"prescreen-v0.3","interactions":"[{\"event\":\"focus\",\"trial\":0,\"time\":1},{\"event\":\"blur\",\"trial\":2,\"time\":136856},{\"event\":\"focus\",\"trial\":2,\"time\":149730},{\"event\":\"blur\",\"trial\":2,\"time\":150917},{\"event\":\"focus\",\"trial\":2,\"time\":159229},{\"event\":\"blur\",\"trial\":3,\"time\":167917},{\"event\":\"focus\",\"trial\":3,\"time\":168041},{\"event\":\"blur\",\"trial\":3,\"time\":170660},{\"event\":\"focus\",\"trial\":3,\"time\":176449},{\"event\":\"blur\",\"trial\":3,\"time\":178910},{\"event\":\"focus\",\"trial\":3,\"time\":397703},{\"event\":\"blur\",\"trial\":18,\"time\":971388},{\"event\":\"focus\",\"trial\":18,\"time\":1041620}]"}]