[{"view_history":[{"page_index":0,"viewing_time":3220.7999999970198},{"page_index":1,"viewing_time":4798.0999999940395},{"page_index":2,"viewing_time":3020.5},{"page_index":3,"viewing_time":990}],"rt":12030.20000000298,"trial_type":"instructions","trial_index":0,"time_elapsed":12039,"internal_node_id":"0.0-0.0","task_version":"prescreen-v0.3"},{"rt":14552.40000000596,"responses":{"age":"23","gender-categorical":"Female","gender-free-response":"","ethnicity":"Not Hispanic or Latino","race":["White"],"education":"Bachelor degree"},"trial_type":"survey-demo","trial_index":1,"time_elapsed":26598,"internal_node_id":"0.0-1.0","task_version":"prescreen-v0.3"},{"responses":{"Q15":"3","Q14":"2","Q11":"0","Q07":"0","Q19":"1","Q05":"0","Q13":"2","Q12":"3","Q08":"0","Q06":"3","Q03":"0","Q20":"0","Q21":"3","Q04":"1","Q18":"1","Q02":"0","Q09":"0","Q17":"0","Q10":"0","Q01":"1","Q16":"2"},"rt":103162.20000000298,"item_order":[14,13,10,6,18,4,12,11,7,5,2,19,20,3,17,1,8,16,9,0,15],"radio_events":[5413.4000000059605,10708.59999999404,14833.09999999404,19680.40000000596,28938.20000000298,30885.90000000596,36049.90000000596,39468.59999999404,43559.90000000596,46296.5,51580.90000000596,52709,55973.09999999404,57167,61152.29999999702,68417.59999999404,75895,84878.09999999404,88294.70000000298,90633.29999999702,92264.40000000596,95261.5,97891.09999999404,102006.40000000596],"key_events":[],"mouse_events":[5413.4000000059605,10708.59999999404,14833.09999999404,19680.40000000596,28938.20000000298,30885.90000000596,36049.90000000596,39468.59999999404,43559.90000000596,46296.5,51580.90000000596,52709,55973.09999999404,57167,61152.29999999702,68417.59999999404,75895,84878.09999999404,88294.70000000298,90633.29999999702,92264.40000000596,95261.5,97891.09999999404,102006.40000000596,103160.09999999404],"straightlining":0.47619047619047616,"zigzagging":0.55,"honeypot":0,"survey":"sns","trial_type":"survey-template","trial_index":2,"time_elapsed":129789,"internal_node_id":"0.0-2.0","task_version":"prescreen-v0.3","browser_interactions":0,"infrequency":0},{"responses":{"Q11":"3","Q04":"3","Q03":"3","Q06":"3","Q02":"3","Q07":"3","Q08":"2","Q05":"3","Q13":"0","Q01":"3","Q10":"2","Q12":"1","Q09":"2"},"rt":56960.30000001192,"item_order":[10,3,2,5,1,6,7,4,12,0,9,11,8],"radio_events":[14714.5,20101.20000000298,21775.30000001192,24308.40000000596,26426.20000000298,28609.90000000596,34683.5,39114.10000000894,40867.40000000596,44082,46453,51015.70000000298,56283],"key_events":[],"mouse_events":[14714.5,20101.20000000298,21775.30000001192,24308.40000000596,25744.40000000596,26426.20000000298,28609.90000000596,33563.80000001192,34683.5,39114.10000000894,40867.40000000596,44082,46453,51015.70000000298,56283,56959.10000000894],"straightlining":0.6153846153846154,"zigzagging":0.5833333333333334,"honeypot":0,"survey":"bisbas","trial_type":"survey-template","trial_index":3,"time_elapsed":186753,"internal_node_id":"0.0-3.0","task_version":"prescreen-v0.3","browser_interactions":0,"infrequency":0},{"responses":{"Q01":"4","Q02":"3","Q03":"3"},"rt":47432.89999999106,"radio_events":[38730.20000000298,41458,42618.39999999106,46320],"key_events":[],"mouse_events":[38730.20000000298,41458,42618.39999999106,46320,47432.20000000298],"survey":"map","page":1,"trial_type":"survey-map","trial_index":4,"time_elapsed":234188,"internal_node_id":"0.0-4.0","task_version":"prescreen-v0.3","browser_interactions":2},{"responses":{"Q04":"3","Q05":"2","Q06":"3"},"rt":22931.59999999404,"radio_events":[5870.699999988079,7517.5,18904,22265.39999999106],"key_events":[],"mouse_events":[5870.699999988079,7015.5,7517.5,18247.29999999702,18904,22265.39999999106,22931.09999999404],"survey":"map","page":2,"trial_type":"survey-map","trial_index":5,"time_elapsed":257122,"internal_node_id":"0.0-5.0","task_version":"prescreen-v0.3","browser_interactions":0},{"responses":{"Q07":"4","Q08":"4","Q09":"4"},"rt":76754.5,"radio_events":[72377.59999999404,74618.29999999702,76088.69999998808],"key_events":[],"mouse_events":[5026.399999991059,72377.59999999404,74618.29999999702,76088.69999998808,76753.69999998808],"survey":"map","page":3,"trial_type":"survey-map","trial_index":6,"time_elapsed":333878,"internal_node_id":"0.0-6.0","task_version":"prescreen-v0.3","browser_interactions":2},{"responses":{"Q10":"2","Q11":"3","Q12":"2","Q13":"2","Q16":"0","Q14":"3","Q15":"3"},"rt":38517.29999999702,"radio_events":[5212.79999999702,8201.59999999404,11278.5,14559.20000000298,18034.39999999106,28345.70000000298,37192.39999999106],"key_events":[],"mouse_events":[5212.79999999702,6975.399999991059,8201.59999999404,11278.5,14559.20000000298,18034.39999999106,28345.70000000298,37192.39999999106,38515.89999999106],"survey":"map","page":4,"trial_type":"survey-map","trial_index":7,"time_elapsed":372398,"internal_node_id":"0.0-7.0","task_version":"prescreen-v0.3","browser_interactions":0,"infrequency":0},{"view_history":[{"page_index":0,"viewing_time":2990.7000000029802},{"page_index":1,"viewing_time":3337.5}],"rt":6328.9000000059605,"trial_type":"instructions","trial_index":8,"time_elapsed":378729,"internal_node_id":"0.0-8.0","task_version":"prescreen-v0.3"},{"responses":{"01":"Yes","01_ages_8":"8","01_ages_9":"9","01_ages_10":"10","01_ages_11":"11","01_ages_12":"12","02":"Yes","02_ages_6":"6","02_ages_7":"7","02_ages_8":"8","02_ages_9":"9","02_ages_10":"10","02_ages_11":"11","02_ages_12":"12","03":"No","04":"No","05":"No","06":"No"},"rt":27513.59999999404,"item_order":[0,1,2,3,4,5],"radio_events":[3564,14663.70000000298,21655.40000000596,22962.59999999404,24156.5,26121.20000000298],"checkbox_events":[7915.70000000298,8491.90000000596,9036.59999999404,9539.70000000298,10119.20000000298,15970.40000000596,16498.59999999404,17002.09999999404,17546.79999999702,18066,18577.20000000298,19129.70000000298],"key_events":[],"mouse_events":[0.20000000298023224,3564,7915.70000000298,8491.90000000596,9036.59999999404,9539.70000000298,10119.20000000298,14663.70000000298,15970.40000000596,16498.59999999404,17002.09999999404,17546.79999999702,18066,18577.20000000298,19129.70000000298,21655.40000000596,22962.59999999404,24156.5,26121.20000000298,27510.29999999702],"honeypot":0,"survey":"mace","page":1,"trial_type":"survey-mace","trial_index":9,"time_elapsed":406248,"internal_node_id":"0.0-9.0","task_version":"prescreen-v0.3","browser_interactions":0},{"responses":{"01":"No","02":"No","03":"No","04":"No","05":"No","06":"Yes","06_ages_8":"8","06_ages_9":"9","06_ages_10":"10","06_ages_11":"11","06_ages_12":"12","06_ages_13":"13","06_ages_14":"14","06_ages_15":"15","06_ages_16":"16","06_ages_17":"17","06_ages_18":"18","07":"No","08":"No"},"rt":30402.29999999702,"item_order":[0,1,2,3,4,5,6,7],"radio_events":[5583.70000000298,7638.70000000298,9148.90000000596,10197.5,13981.10000000894,23902.79999999702,24738.5,29513.20000000298],"checkbox_events":[16107.20000000298,16610.40000000596,17067,17520.79999999702,17991.20000000298,18462.90000000596,18966.70000000298,19412.60000000894,20508.5,20948,21466.60000000894],"key_events":[],"mouse_events":[5583.70000000298,7638.70000000298,9148.90000000596,10197.5,12047.5,13981.10000000894,16107.20000000298,16610.40000000596,17067,17520.79999999702,17991.20000000298,18462.90000000596,18966.70000000298,19412.60000000894,20013,20508.5,20948,21466.60000000894,23902.79999999702,24738.5,26233.29999999702,29513.20000000298,30398.60000000894],"honeypot":0,"survey":"mace","page":2,"trial_type":"survey-mace","trial_index":10,"time_elapsed":436655,"internal_node_id":"0.0-10.0","task_version":"prescreen-v0.3","browser_interactions":0},{"responses":{"01":"No","02":"No","03":"No","04":"No"},"rt":9548.20000000298,"item_order":[0,1,2,3],"radio_events":[3687.2000000029802,5282.899999991059,7296.5999999940395,8952.79999999702],"checkbox_events":[],"key_events":[],"mouse_events":[3687.2000000029802,5282.899999991059,6435.399999991059,7296.5999999940395,7905.79999999702,8952.79999999702,9545.89999999106],"honeypot":0,"survey":"mace","page":3,"trial_type":"survey-mace","trial_index":11,"time_elapsed":446206,"internal_node_id":"0.0-11.0","task_version":"prescreen-v0.3","browser_interactions":0},{"responses":{"01":"No","02":"No"},"rt":4404.70000000298,"item_order":[0,1],"radio_events":[2308.5,3185.8999999910593],"checkbox_events":[],"key_events":[],"mouse_events":[2308.5,3185.8999999910593,4403.70000000298],"honeypot":0,"survey":"mace","page":4,"trial_type":"survey-mace","trial_index":12,"time_elapsed":450613,"internal_node_id":"0.0-12.0","task_version":"prescreen-v0.3","browser_interactions":0},{"responses":{"01":"No","02":"No","03":"No","04":"No","05":"No"},"rt":8745.10000000894,"item_order":[0,1,2,3,4],"radio_events":[4031.7000000029802,5249.600000008941,6589,7490.5,8123.5],"checkbox_events":[],"key_events":[],"mouse_events":[4031.7000000029802,5249.600000008941,6589,7490.5,8123.5,8741.5],"honeypot":0,"survey":"mace","page":5,"trial_type":"survey-mace","trial_index":13,"time_elapsed":459361,"internal_node_id":"0.0-13.0","task_version":"prescreen-v0.3","browser_interactions":0},{"responses":{"01":"Yes","01_ages_7":"7","01_ages_8":"8","01_ages_9":"9","01_ages_10":"10","01_ages_11":"11","01_ages_12":"12","02":"Yes","02_ages_7":"7","02_ages_8":"8","02_ages_9":"9","02_ages_10":"10","02_ages_11":"11","02_ages_12":"12","03":"Yes","03_ages_7":"7","03_ages_8":"8","03_ages_9":"9","03_ages_10":"10","03_ages_11":"11","03_ages_12":"12","03_ages_13":"13","03_ages_14":"14","03_ages_15":"15","03_ages_16":"16","04":"Yes","04_ages_12":"12","04_ages_13":"13","04_ages_14":"14","05":"No"},"rt":30324.19999998808,"item_order":[0,1,2,3,4],"radio_events":[3987,10425.79999999702,16288.699999988079,24383.79999999702,29678.69999998808],"checkbox_events":[6017.5999999940395,7024.399999991059,7470.399999991059,8046.5,8550.699999988079,9094.39999999106,11595.199999988079,11976.59999999404,12465.199999988079,12960.29999999702,13526.79999999702,14087.89999999106,17384.5,17831.89999999106,18341.89999999106,18831.09999999404,19341.09999999404,19821.09999999404,20300.19999998808,20763.69999998808,21298.39999999106,23556.39999999106,26057.39999999106,26544.69999998808,27396.29999999702],"key_events":[],"mouse_events":[3987,6017.5999999940395,6488.29999999702,7024.399999991059,7470.399999991059,8046.5,8550.699999988079,9094.39999999106,10425.79999999702,11595.199999988079,11976.59999999404,12465.199999988079,12960.29999999702,13526.79999999702,14087.89999999106,16288.699999988079,17384.5,17831.89999999106,18341.89999999106,18831.09999999404,19341.09999999404,19821.09999999404,20300.19999998808,20763.69999998808,21298.39999999106,23556.39999999106,24383.79999999702,26057.39999999106,26544.69999998808,27396.29999999702,29678.69999998808,30321.39999999106],"honeypot":0,"survey":"mace","page":6,"trial_type":"survey-mace","trial_index":14,"time_elapsed":489689,"internal_node_id":"0.0-14.0","task_version":"prescreen-v0.3","browser_interactions":0},{"responses":{"01":"No","02":"No","03":"No","04":"No","05":"No","06":"No","07":"No"},"rt":306399.5,"item_order":[0,1,2,3,4,5,6],"radio_events":[297162.39999999106,298315.59999999404,300280.89999999106,300906.59999999404,302157.5,303285.39999999106,305445.299999997],"checkbox_events":[],"key_events":[],"mouse_events":[296091.39999999106,297162.39999999106,298315.59999999404,299394.89999999106,300280.89999999106,300906.59999999404,302157.5,303285.39999999106,303780.299999997,305445.299999997,306395.59999999404],"honeypot":0,"survey":"mace","page":7,"trial_type":"survey-mace","trial_index":15,"time_elapsed":796091,"internal_node_id":"0.0-15.0","task_version":"prescreen-v0.3","browser_interactions":4},{"responses":{"01":"No","02":"No","03":"Yes","03_ages_5":"5","03_ages_6":"6","03_ages_7":"7","03_ages_8":"8","03_ages_9":"9","03_ages_10":"10","03_ages_11":"11","03_ages_12":"12","03_ages_13":"13","03_ages_14":"14","03_ages_15":"15","03_ages_16":"16","03_ages_17":"17","03_ages_18":"18","04":"No"},"rt":26135.29999999702,"item_order":[0,1,2,3],"radio_events":[6994.29999999702,8723.199999988079,11127.199999988079,25272.89999999106],"checkbox_events":[13400.59999999404,14490,14895.29999999702,15333.29999999702,15966.5,16510.69999998808,16997.89999999106,17477.29999999702,18029,18492.79999999702,18995.5,19465.39999999106,19969.29999999702,20458.39999999106],"key_events":[],"mouse_events":[6994.29999999702,8723.199999988079,11127.199999988079,13400.59999999404,13903.89999999106,14490,14895.29999999702,15333.29999999702,15966.5,16510.69999998808,16997.89999999106,17477.29999999702,18029,18492.79999999702,18995.5,19465.39999999106,19969.29999999702,20458.39999999106,25272.89999999106,26133.19999998808],"honeypot":0,"survey":"mace","page":8,"trial_type":"survey-mace","trial_index":16,"time_elapsed":822229,"internal_node_id":"0.0-16.0","task_version":"prescreen-v0.3","browser_interactions":0},{"responses":{"01":"Yes","01_ages_1":"1","01_ages_2":"2","01_ages_3":"3","01_ages_4":"4","01_ages_5":"5","01_ages_6":"6","01_ages_7":"7","01_ages_8":"8","01_ages_9":"9","01_ages_10":"10","01_ages_11":"11","01_ages_12":"12","01_ages_13":"13","01_ages_14":"14","01_ages_15":"15","01_ages_16":"16","01_ages_17":"17","01_ages_18":"18","02":"Yes","02_ages_1":"1","02_ages_2":"2","02_ages_3":"3","02_ages_4":"4","02_ages_5":"5","02_ages_6":"6","02_ages_7":"7","02_ages_8":"8","02_ages_9":"9","02_ages_10":"10","02_ages_11":"11","02_ages_12":"12","02_ages_13":"13","02_ages_14":"14","02_ages_15":"15","02_ages_16":"16","02_ages_17":"17","02_ages_18":"18","03":"Yes","03_ages_1":"1","03_ages_2":"2","03_ages_3":"3","03_ages_4":"4","03_ages_5":"5","03_ages_6":"6","03_ages_7":"7","03_ages_8":"8","03_ages_9":"9","03_ages_10":"10","03_ages_11":"11","03_ages_12":"12","03_ages_13":"13","03_ages_14":"14","03_ages_15":"15","03_ages_16":"16","03_ages_17":"17","03_ages_18":"18","04":"Yes","04_ages_1":"1","04_ages_2":"2","04_ages_3":"3","04_ages_4":"4","04_ages_5":"5","04_ages_6":"6","04_ages_7":"7","04_ages_8":"8","04_ages_9":"9","04_ages_10":"10","04_ages_11":"11","04_ages_12":"12","04_ages_13":"13","04_ages_14":"14","04_ages_15":"15","04_ages_16":"16","04_ages_17":"17","04_ages_18":"18"},"rt":63943.90000000596,"item_order":[0,1,2,3],"radio_events":[9481.10000000894,25046.30000001192,37340.60000000894,51638.60000000894],"checkbox_events":[11364.40000000596,11818.300000011921,12347.20000000298,12899,13426.10000000894,13881.300000011921,14359.70000000298,14847.5,15325.5,15829.300000011921,16317.300000011921,17786.80000001192,18607.20000000298,19012.90000000596,19500.30000001192,20019.90000000596,20482.90000000596,21035.40000000596,26093.80000001192,26565,27539.90000000596,28091.60000000894,28675.90000000596,29170.80000001192,29715.5,30252,30714.20000000298,31209.40000000596,31712,32266.10000000894,32736.40000000596,33247.40000000596,33735.40000000596,34231.10000000894,34855.10000000894,35472.60000000894,38404.20000000298,39631.20000000298,40596.90000000596,41628.20000000298,42114.10000000894,42594.70000000298,43243.10000000894,43804.30000001192,44307.80000001192,44900.60000000894,45525.90000000596,46150.80000001192,46849.40000000596,47385,47879.70000000298,48375,48903,49390.70000000298,52582.30000001192,53020.20000000298,53475.20000000298,53930.10000000894,55236.60000000894,55870.20000000298,56422.60000000894,56999.10000000894,57599.5,58154.30000001192,58647.30000001192,59760.20000000298,60263.70000000298,60848.60000000894,61465.30000001192,62448.20000000298,62935,63414.80000001192],"key_events":[],"mouse_events":[9481.10000000894,11364.40000000596,11818.300000011921,12347.20000000298,12899,13426.10000000894,13881.300000011921,14359.70000000298,14847.5,15325.5,15829.300000011921,16317.300000011921,16845.10000000894,17388.40000000596,17786.80000001192,18209.40000000596,18607.20000000298,19012.90000000596,19500.30000001192,20019.90000000596,20482.90000000596,21035.40000000596,25046.30000001192,26093.80000001192,26565,27108.5,27539.90000000596,28091.60000000894,28675.90000000596,29170.80000001192,29715.5,30252,30714.20000000298,31209.40000000596,31712,32266.10000000894,32736.40000000596,33247.40000000596,33735.40000000596,34231.10000000894,34855.10000000894,35472.60000000894,36592.70000000298,37340.60000000894,38404.20000000298,39631.20000000298,40596.90000000596,41222.30000001192,41628.20000000298,42114.10000000894,42594.70000000298,43243.10000000894,43804.30000001192,44307.80000001192,44900.60000000894,45525.90000000596,46150.80000001192,46849.40000000596,47385,47879.70000000298,48375,48903,49390.70000000298,51638.60000000894,52582.30000001192,53020.20000000298,53475.20000000298,53930.10000000894,54676.5,55236.60000000894,55870.20000000298,56422.60000000894,56999.10000000894,57599.5,58154.30000001192,58647.30000001192,59118.40000000596,59760.20000000298,60263.70000000298,60848.60000000894,61465.30000001192,61954.5,62448.20000000298,62935,63414.80000001192,63942],"honeypot":0,"survey":"mace","page":9,"trial_type":"survey-mace","trial_index":17,"time_elapsed":886175,"internal_node_id":"0.0-17.0","task_version":"prescreen-v0.3","browser_interactions":0},{"responses":{"01":"No","02":"No","03":"No","04":"No","05":"No","06":"Yes","06_ages_17":"17","07":"Yes","07_ages_1":"1","07_ages_2":"2","07_ages_3":"3","07_ages_4":"4","07_ages_5":"5","07_ages_6":"6","07_ages_7":"7","07_ages_8":"8","07_ages_9":"9","07_ages_10":"10","07_ages_11":"11","07_ages_12":"12","07_ages_13":"13","07_ages_14":"14","07_ages_15":"15","07_ages_16":"16","07_ages_17":"17","07_ages_18":"18","08":"Yes","08_ages_1":"1","08_ages_2":"2","08_ages_3":"3","08_ages_4":"4","08_ages_5":"5","08_ages_6":"6","08_ages_7":"7","08_ages_8":"8","08_ages_9":"9","08_ages_10":"10","08_ages_11":"11","08_ages_12":"12","08_ages_13":"13","08_ages_14":"14","08_ages_15":"15","08_ages_16":"16","08_ages_17":"17","08_ages_18":"18"},"rt":41219.40000000596,"item_order":[0,1,2,3,4,5,6,7],"radio_events":[1748.2999999970198,2488.9000000059605,3210.0999999940395,5622.20000000298,6775.70000000298,9463.90000000596,13475.79999999702,27605.40000000596],"checkbox_events":[11242.09999999404,15091.29999999702,15651.59999999404,16358.29999999702,16910.20000000298,18891.5,19436.70000000298,19939.5,20394.09999999404,20898.40000000596,21377,21872.5,22343.40000000596,22872,23374.90000000596,23885.20000000298,24396.90000000596,25137.20000000298,25666,29863.20000000298,30384.70000000298,30895.59999999404,31382.70000000298,31861.70000000298,32364.29999999702,32859.70000000298,33339.20000000298,33891.5,34363.40000000596,34841.20000000298,35311.79999999702,36343.79999999702,36782.90000000596,37334.70000000298,38227.70000000298,39770.09999999404,40200.79999999702],"key_events":[],"mouse_events":[1748.2999999970198,2488.9000000059605,3210.0999999940395,4281.79999999702,5622.20000000298,6775.70000000298,9463.90000000596,11242.09999999404,13475.79999999702,15091.29999999702,15651.59999999404,16358.29999999702,16910.20000000298,17487,18380.20000000298,18891.5,19436.70000000298,19939.5,20394.09999999404,20898.40000000596,21377,21872.5,22343.40000000596,22872,23374.90000000596,23885.20000000298,24396.90000000596,25137.20000000298,25666,27605.40000000596,29863.20000000298,30384.70000000298,30895.59999999404,31382.70000000298,31861.70000000298,32364.29999999702,32859.70000000298,33339.20000000298,33891.5,34363.40000000596,34841.20000000298,35311.79999999702,35799.59999999404,36343.79999999702,36782.90000000596,37334.70000000298,37829.59999999404,38227.70000000298,38804,39234.59999999404,39770.09999999404,40200.79999999702,40769.29999999702,41215.79999999702],"honeypot":0,"survey":"mace","page":10,"trial_type":"survey-mace","trial_index":18,"time_elapsed":927399,"internal_node_id":"0.0-18.0","task_version":"prescreen-v0.3","browser_interactions":0,"instructed":0},{"rt":5034.79999999702,"trial_type":"mental-health-alert","trial_index":19,"time_elapsed":932436,"internal_node_id":"0.0-19.0","task_version":"prescreen-v0.3","interactions":"[{\"event\":\"blur\",\"trial\":4,\"time\":192569},{\"event\":\"focus\",\"trial\":4,\"time\":219090},{\"event\":\"blur\",\"trial\":6,\"time\":262545},{\"event\":\"focus\",\"trial\":6,\"time\":314594},{\"event\":\"blur\",\"trial\":15,\"time\":518656},{\"event\":\"focus\",\"trial\":15,\"time\":557408},{\"event\":\"blur\",\"trial\":15,\"time\":558406},{\"event\":\"focus\",\"trial\":15,\"time\":783155}]"}]