[{"view_history":[{"page_index":0,"viewing_time":7692.700000017881},{"page_index":1,"viewing_time":1919.699999988079},{"page_index":2,"viewing_time":13592.09999999404},{"page_index":3,"viewing_time":2143.9000000059605}],"rt":25348.70000001788,"trial_type":"instructions","trial_index":0,"time_elapsed":25362,"internal_node_id":"0.0-0.0","task_version":"prescreen-v0.3"},{"rt":22028.59999999404,"responses":{"age":"43","gender-categorical":"Male","gender-free-response":"","ethnicity":"Not Hispanic or Latino","race":["White"],"education":"Master degree or higher","siblings":"2"},"trial_type":"survey-demo","trial_index":1,"time_elapsed":47394,"internal_node_id":"0.0-1.0","task_version":"prescreen-v0.3"},{"responses":{"Q18":"1","Q11":"2","Q07":"2","Q19":"1","Q06":"1","Q10":"1","Q20":"0","Q21":"1","Q02":"2","Q09":"2","Q17":"2","Q01":"2","Q13":"1","Q16":"1","Q08":"3","Q14":"2","Q04":"1","Q15":"2","Q12":"2","Q03":"2","Q05":"2"},"rt":250302,"item_order":[17,10,6,18,5,9,19,20,1,8,16,0,12,15,7,13,3,14,11,2,4],"radio_events":[28292.59999999404,34428.59999999404,38916.59999999404,49796.59999999404,78204.90000000596,89196.59999999404,97228.59999999404,101412.59999999404,121004.5,128996.59999999404,137460.59999999404,144996.5,151516.59999999404,157612.5,166876.5,181740.5,186900.40000000596,188156.5,195588.5,205132.5,218540.5,229780.5,234636.40000000596,247508.5,249492.5],"key_events":[],"mouse_events":[26948.79999998212,27588.69999998808,28292.59999999404,34428.59999999404,38916.59999999404,49796.59999999404,78204.90000000596,89196.59999999404,97228.59999999404,100388.59999999404,101412.59999999404,121004.5,128996.59999999404,137460.59999999404,142580.59999999404,144996.5,150748.59999999404,151516.59999999404,157612.5,165644.69999998808,166876.5,181740.5,186900.40000000596,187668.5,188156.5,194548.40000000596,195588.5,205132.5,218540.5,229780.5,234636.40000000596,247508.5,248188.40000000596,249492.5,250300.5],"straightlining":0.5238095238095238,"zigzagging":0.45,"honeypot":0,"survey":"sns","trial_type":"survey-template","trial_index":2,"time_elapsed":297700,"internal_node_id":"0.0-2.0","task_version":"prescreen-v0.3","browser_interactions":0,"infrequency":1},{"responses":{"Q12":"2","Q10":"3","Q05":"2","Q02":"2","Q11":"2","Q07":"2","Q13":"0","Q09":"3","Q04":"2","Q08":"2","Q01":"2","Q03":"1","Q06":"2"},"rt":119228.09999999404,"item_order":[11,9,4,1,10,6,12,8,3,7,0,2,5],"radio_events":[15235,20915,24474.69999998808,38979,44835,54154.90000000596,63667,71787,75579,90211,93074.90000000596,100235,104786.90000000596,106874.79999998212,112987,118554.90000000596],"key_events":[],"mouse_events":[15235,20915,24474.69999998808,38451.09999999404,38979,44835,54154.90000000596,62755,63667,71115,71787,75059,75579,90211,93074.90000000596,100235,104786.90000000596,106874.79999998212,112987,117667,118554.90000000596,119226.90000000596],"straightlining":0.6923076923076923,"zigzagging":0.5,"honeypot":0,"survey":"bisbas","trial_type":"survey-template","trial_index":3,"time_elapsed":416931,"internal_node_id":"0.0-3.0","task_version":"prescreen-v0.3","browser_interactions":4,"infrequency":0},{"responses":{"Q01":"2","Q02":"1","Q03":"2"},"rt":34788,"radio_events":[11195.5,12451.5,21107.5,34051.19999998808],"key_events":[],"mouse_events":[9691.5,10123.399999976158,10707.5,11195.5,11923.5,12451.5,21107.5,31107,32539.399999976158,33227.5,34051.19999998808,34787.59999999404],"survey":"map","page":1,"trial_type":"survey-map","trial_index":4,"time_elapsed":451722,"internal_node_id":"0.0-4.0","task_version":"prescreen-v0.3","browser_interactions":0},{"responses":{"Q04":"2","Q05":"2","Q06":"3"},"rt":11157.699999988079,"radio_events":[4853.199999988079,5181.299999982119,8885.40000000596,10213.40000000596],"key_events":[],"mouse_events":[4853.199999988079,5181.299999982119,5837.299999982119,6381.299999982119,8885.40000000596,10213.40000000596,11157.5],"survey":"map","page":2,"trial_type":"survey-map","trial_index":5,"time_elapsed":462882,"internal_node_id":"0.0-5.0","task_version":"prescreen-v0.3","browser_interactions":0},{"responses":{"Q07":"2","Q08":"2","Q09":"2"},"rt":6534.199999988079,"radio_events":[2838,4069.9000000059605,5893.9000000059605],"key_events":[],"mouse_events":[1421.7999999821186,1965.9000000059605,2838,3374.0999999940395,3725.9000000059605,4069.9000000059605,5093.9000000059605,5893.9000000059605,6533.799999982119],"survey":"map","page":3,"trial_type":"survey-map","trial_index":6,"time_elapsed":469418,"internal_node_id":"0.0-6.0","task_version":"prescreen-v0.3","browser_interactions":0},{"responses":{"Q10":"3","Q11":"2","Q12":"2","Q13":"2","Q16":"0","Q14":"2","Q15":"2"},"rt":66094.59999999404,"radio_events":[7357.899999976158,8614,10286,11278,13454,31726,41694,61918,65230],"key_events":[],"mouse_events":[7357.899999976158,7926,8614,9653.899999976158,10286,11278,12494,13454,31190,31726,41694,61918,62758,64085.89999997616,65230,66093.89999997616],"survey":"map","page":4,"trial_type":"survey-map","trial_index":7,"time_elapsed":535514,"internal_node_id":"0.0-7.0","task_version":"prescreen-v0.3","browser_interactions":0,"infrequency":0},{"view_history":[{"page_index":0,"viewing_time":3613.800000011921},{"page_index":1,"viewing_time":9856}],"rt":13470.59999999404,"trial_type":"instructions","trial_index":8,"time_elapsed":548986,"internal_node_id":"0.0-8.0","task_version":"prescreen-v0.3"},{"responses":{"01":"Yes","01_ages_16":"16","01_ages_17":"17","01_ages_18":"18","02":"Yes","02_ages_16":"16","02_ages_17":"17","02_ages_18":"18","03":"No","04":"Yes","04_ages_16":"16","04_ages_17":"17","04_ages_18":"18","05":"No","06":"Yes","06_ages_17":"17","06_ages_18":"18"},"rt":102483.59999999404,"item_order":[0,1,2,3,4,5],"radio_events":[15874.199999988079,26041.79999998212,56201.90000000596,74953.90000000596,81201.90000000596,92137.90000000596,99153.79999998212],"checkbox_events":[59250.09999999404,59722,60682,61897.90000000596,62729.90000000596,64185.90000000596,82313.90000000596,83441.90000000596,84250,100553.79999998212,101025.79999998212],"key_events":[],"mouse_events":[0,15874.199999988079,26041.79999998212,56201.90000000596,59250.09999999404,59722,60682,61897.90000000596,62729.90000000596,63449.90000000596,64185.90000000596,74953.90000000596,81201.90000000596,82313.90000000596,83018,83441.90000000596,83809.79999998212,84250,87881.69999998808,92137.90000000596,99153.79999998212,100553.79999998212,101025.79999998212,102482.09999999404],"honeypot":0,"survey":"mace","page":1,"trial_type":"survey-mace","trial_index":9,"time_elapsed":651476,"internal_node_id":"0.0-9.0","task_version":"prescreen-v0.3","browser_interactions":0},{"responses":{"01":"Yes","01_ages_18":"18","02":"No","03":"No","04":"No","05":"No","06":"Yes","06_ages_18":"18","07":"Yes","07_ages_18":"18","08":"Yes","08_ages_18":"18"},"rt":54493,"item_order":[0,1,2,3,4,5,6,7],"radio_events":[7634.799999982119,13619,20283,27363,31426.69999998808,39579,47546.89999997616,52747],"checkbox_events":[9219,41339.29999998212,48459,53722.89999997616],"key_events":[],"mouse_events":[7634.799999982119,9219,13619,20283,27363,30586.899999976158,31426.69999998808,39579,41339.29999998212,47546.89999997616,48459,52267,52747,53722.89999997616,54491.09999999404],"honeypot":0,"survey":"mace","page":2,"trial_type":"survey-mace","trial_index":10,"time_elapsed":705973,"internal_node_id":"0.0-10.0","task_version":"prescreen-v0.3","browser_interactions":0},{"responses":{"01":"No","02":"No","03":"No","04":"No"},"rt":13667.700000017881,"item_order":[0,1,2,3],"radio_events":[5914.600000023842,7642.100000023842,12418.600000023842,13098.5],"checkbox_events":[],"key_events":[],"mouse_events":[5170.600000023842,5914.600000023842,7642.100000023842,12418.600000023842,13098.5,13666.5],"honeypot":0,"survey":"mace","page":3,"trial_type":"survey-mace","trial_index":11,"time_elapsed":719643,"internal_node_id":"0.0-11.0","task_version":"prescreen-v0.3","browser_interactions":0},{"responses":{"01":"Yes","01_ages_18":"18","02":"Yes","02_ages_18":"18"},"rt":21684.80000001192,"item_order":[0,1],"radio_events":[7772.300000011921,19764.30000001192],"checkbox_events":[9348.199999988079,21124.19999998808],"key_events":[],"mouse_events":[7772.300000011921,9348.199999988079,19764.30000001192,21124.19999998808,21684.19999998808],"honeypot":0,"survey":"mace","page":4,"trial_type":"survey-mace","trial_index":12,"time_elapsed":741330,"internal_node_id":"0.0-12.0","task_version":"prescreen-v0.3","browser_interactions":0},{"responses":{"01":"No","02":"No","03":"No","04":"No","05":"No"},"rt":23821.90000000596,"item_order":[0,1,2,3,4],"radio_events":[10372.600000023842,15556.800000011921,18156.600000023842,21620.600000023842,22612.5],"checkbox_events":[],"key_events":[],"mouse_events":[8668.5,10372.600000023842,15556.800000011921,18156.600000023842,21620.600000023842,22612.5,23820.600000023842],"honeypot":0,"survey":"mace","page":5,"trial_type":"survey-mace","trial_index":13,"time_elapsed":765155,"internal_node_id":"0.0-13.0","task_version":"prescreen-v0.3","browser_interactions":0},{"responses":{"01":"Yes","01_ages_16":"16","01_ages_17":"17","01_ages_18":"18","02":"Yes","02_ages_16":"16","02_ages_17":"17","02_ages_18":"18","03":"Yes","03_ages_16":"16","03_ages_17":"17","03_ages_18":"18","04":"No","05":"Yes","05_ages_17":"17","05_ages_18":"18"},"rt":53589.40000000596,"item_order":[0,1,2,3,4],"radio_events":[21340.09999999404,28676.20000001788,36644.09999999404,44788,51188.09999999404],"checkbox_events":[25076.20000001788,25907.90000000596,26548.09999999404,30908.09999999404,32404.09999999404,32932.09999999404,38604.20000001788,39092.20000001788,40556,52236,52676.20000001788],"key_events":[],"mouse_events":[21340.09999999404,25076.20000001788,25444.20000001788,25907.90000000596,26548.09999999404,28676.20000001788,30908.09999999404,31324.20000001788,31883.80000001192,32404.09999999404,32932.09999999404,36644.09999999404,38604.20000001788,39092.20000001788,39580.09999999404,40556,43484.40000000596,44788,51188.09999999404,52236,52676.20000001788,53588.09999999404],"honeypot":0,"survey":"mace","page":6,"trial_type":"survey-mace","trial_index":14,"time_elapsed":818747,"internal_node_id":"0.0-14.0","task_version":"prescreen-v0.3","browser_interactions":0},{"responses":{"01":"No","02":"No","03":"Yes","03_ages_17":"17","03_ages_18":"18","04":"Yes","04_ages_17":"17","04_ages_18":"18","05":"No","06":"Yes","06_ages_18":"18","07":"Yes","07_ages_18":"18"},"rt":45677.69999998808,"item_order":[0,1,2,3,4,5,6],"radio_events":[6107.899999976158,15532,21451.899999976158,27435.899999976158,34179.89999997616,38940,41651.89999997616],"checkbox_events":[22635.899999976158,23715.899999976158,28611.899999976158,28980,40131.79999998212,45259.89999997616],"key_events":[],"mouse_events":[6107.899999976158,15532,21451.899999976158,22635.899999976158,23019.79999998212,23715.899999976158,27435.899999976158,28611.899999976158,28980,34179.89999997616,36659.89999997616,38940,40131.79999998212,41651.89999997616,43084,45259.89999997616,45675.89999997616],"honeypot":0,"survey":"mace","page":7,"trial_type":"survey-mace","trial_index":15,"time_elapsed":864427,"internal_node_id":"0.0-15.0","task_version":"prescreen-v0.3","browser_interactions":0},{"responses":{"01":"No","02":"No","03":"No","04":"No"},"rt":16732.59999999404,"item_order":[0,1,2,3],"radio_events":[5099.700000017881,6675.5999999940395,14819.700000017881,16067.59999999404],"checkbox_events":[],"key_events":[],"mouse_events":[5099.700000017881,6675.5999999940395,14819.700000017881,16067.59999999404,16731.59999999404],"honeypot":0,"survey":"mace","page":8,"trial_type":"survey-mace","trial_index":16,"time_elapsed":881162,"internal_node_id":"0.0-16.0","task_version":"prescreen-v0.3","browser_interactions":0},{"responses":{"01":"Yes","01_ages_1":"1","01_ages_2":"2","01_ages_3":"3","01_ages_4":"4","01_ages_5":"5","01_ages_6":"6","01_ages_7":"7","01_ages_8":"8","01_ages_9":"9","01_ages_10":"10","01_ages_11":"11","01_ages_12":"12","01_ages_13":"13","01_ages_14":"14","01_ages_15":"15","01_ages_16":"16","01_ages_17":"17","01_ages_18":"18","02":"Yes","02_ages_5":"5","02_ages_6":"6","02_ages_7":"7","02_ages_8":"8","02_ages_9":"9","02_ages_10":"10","02_ages_11":"11","02_ages_12":"12","02_ages_13":"13","02_ages_14":"14","02_ages_15":"15","02_ages_16":"16","02_ages_17":"17","02_ages_18":"18","03":"Yes","03_ages_1":"1","03_ages_2":"2","03_ages_3":"3","03_ages_4":"4","03_ages_5":"5","03_ages_6":"6","03_ages_7":"7","03_ages_8":"8","03_ages_9":"9","03_ages_10":"10","03_ages_11":"11","03_ages_12":"12","03_ages_13":"13","03_ages_14":"14","03_ages_15":"15","03_ages_16":"16","03_ages_17":"17","03_ages_18":"18","04":"Yes","04_ages_9":"9","04_ages_10":"10","04_ages_11":"11","04_ages_15":"15","04_ages_16":"16","04_ages_17":"17","04_ages_18":"18"},"rt":103269.69999998808,"item_order":[0,1,2,3],"radio_events":[10124.699999988079,39316.69999998808,50900.59999999404,85092.59999999404],"checkbox_events":[19868.69999998808,20428.69999998808,22980.69999998808,23540.69999998808,24908.69999998808,25388.59999999404,25860.69999998808,26332.40000000596,26732.5,27820.69999998808,28284.69999998808,28908.59999999404,30244.59999999404,30796.69999998808,32700.59999999404,33180.69999998808,33804.69999998808,34388.69999998808,34916.69999998808,35980.59999999404,41100.59999999404,41852.69999998808,42796.59999999404,43364.69999998808,43828.59999999404,44644.69999998808,45236.40000000596,46156.40000000596,46788.59999999404,47308.59999999404,52348.90000000596,53340.59999999404,53868.69999998808,55396.69999998808,55852.5,56892.69999998808,57636.69999998808,58516.69999998808,59140.69999998808,59628.5,60108.59999999404,61020.59999999404,61500.40000000596,61932.59999999404,62564.59999999404,62988.69999998808,63924.69999998808,64604.59999999404,76252.69999998808,76804.69999998808,77652.69999998808,78140.59999999404,91724.59999999404,92420.59999999404,93124.59999999404,93556.59999999404,94132.59999999404,95004.59999999404,95492.40000000596,96172.59999999404,96940.59999999404,97396.59999999404,97812.69999998808,98836.59999999404,99636.59999999404,100492.30000001192,102020.59999999404],"key_events":[],"mouse_events":[10124.699999988079,19868.69999998808,20428.69999998808,21164.69999998808,22980.69999998808,23540.69999998808,24076.69999998808,24908.69999998808,25388.59999999404,25860.69999998808,26332.40000000596,26732.5,27412.69999998808,27820.69999998808,28284.69999998808,28908.59999999404,29580.59999999404,30244.59999999404,30796.69999998808,31340.69999998808,32276.59999999404,32700.59999999404,33180.69999998808,33804.69999998808,34388.69999998808,34916.69999998808,35332.69999998808,35980.59999999404,39316.69999998808,41100.59999999404,41484.69999998808,41852.69999998808,42796.59999999404,43364.69999998808,43828.59999999404,44260.5,44644.69999998808,45236.40000000596,45732.69999998808,46156.40000000596,46788.59999999404,47308.59999999404,49876.59999999404,50372.59999999404,50900.59999999404,51788.69999998808,52348.90000000596,52820.69999998808,53340.59999999404,53868.69999998808,54660.59999999404,55396.69999998808,55852.5,56308.40000000596,56892.69999998808,57636.69999998808,58516.69999998808,59140.69999998808,59628.5,60108.59999999404,61020.59999999404,61500.40000000596,61932.59999999404,62564.59999999404,62988.69999998808,63924.69999998808,64604.59999999404,76252.69999998808,76804.69999998808,77652.69999998808,78140.59999999404,85092.59999999404,91724.59999999404,92420.59999999404,93124.59999999404,93556.59999999404,94132.59999999404,94588.5,95004.59999999404,95492.40000000596,96172.59999999404,96580.59999999404,96940.59999999404,97396.59999999404,97812.69999998808,98444.69999998808,98836.59999999404,99172.59999999404,99636.59999999404,100092,100492.30000001192,102020.59999999404,102940.80000001192,103268.69999998808],"honeypot":0,"survey":"mace","page":9,"trial_type":"survey-mace","trial_index":17,"time_elapsed":984435,"internal_node_id":"0.0-17.0","task_version":"prescreen-v0.3","browser_interactions":0},{"responses":{"01":"No","02":"No","03":"No","04":"Yes","04_ages_18":"18","05":"No","06":"Yes","06_ages_17":"17","07":"No","08":"No"},"rt":55326,"item_order":[0,1,2,3,4,5,6,7],"radio_events":[3811.899999976158,7267.799999982119,9787.799999982119,20411.899999976158,22915.899999976158,35899.79999998212,38243.79999998212,49131.89999997616,53771.79999998212],"checkbox_events":[24627.79999998212,39755.89999997616],"key_events":[],"mouse_events":[3811.899999976158,7267.799999982119,9787.799999982119,12796,20411.899999976158,22915.899999976158,24627.79999998212,35899.79999998212,38243.79999998212,39755.89999997616,48243.89999997616,49131.89999997616,53771.79999998212,55323.89999997616],"honeypot":0,"survey":"mace","page":10,"trial_type":"survey-mace","trial_index":18,"time_elapsed":1039764,"internal_node_id":"0.0-18.0","task_version":"prescreen-v0.3","browser_interactions":0,"instructed":0},{"rt":6003.5999999940395,"trial_type":"mental-health-alert","trial_index":19,"time_elapsed":1045769,"internal_node_id":"0.0-19.0","task_version":"prescreen-v0.3","interactions":"[{\"event\":\"focus\",\"trial\":0,\"time\":5554},{\"event\":\"blur\",\"trial\":3,\"time\":323001},{\"event\":\"focus\",\"trial\":3,\"time\":324503},{\"event\":\"blur\",\"trial\":3,\"time\":328490},{\"event\":\"focus\",\"trial\":3,\"time\":329608},{\"event\":\"blur\",\"trial\":8,\"time\":540706},{\"event\":\"focus\",\"trial\":8,\"time\":541607},{\"event\":\"blur\",\"trial\":19,\"time\":1044115},{\"event\":\"focus\",\"trial\":19,\"time\":1044901}]"}]