[{"view_history":[{"page_index":0,"viewing_time":65827.39999985695},{"page_index":1,"viewing_time":10499.799999952316},{"page_index":2,"viewing_time":6851},{"page_index":3,"viewing_time":2130.100000143051}],"rt":85308.89999985695,"trial_type":"instructions","trial_index":0,"time_elapsed":85347,"internal_node_id":"0.0-0.0","task_version":"prescreen-v0.3"},{"rt":55977,"responses":{"age":"23","gender-categorical":"Female","gender-free-response":"","ethnicity":"Not Hispanic or Latino","race":["Asian"],"education":"Bachelor degree"},"trial_type":"survey-demo","trial_index":1,"time_elapsed":141339,"internal_node_id":"0.0-1.0","task_version":"prescreen-v0.3"},{"responses":{"Q14":"3","Q16":"3","Q06":"0","Q08":"3","Q11":"2","Q04":"1","Q17":"2","Q13":"2","Q19":"1","Q18":"2","Q02":"3","Q05":"0","Q01":"3","Q12":"3","Q03":"1","Q09":"2","Q15":"3","Q07":"3","Q20":"0","Q10":"2","Q21":"3"},"rt":286431.19999980927,"item_order":[13,15,5,7,10,3,16,12,18,17,1,4,0,11,2,8,14,6,19,9,20],"radio_events":[74966.29999995232,82959.09999990463,98468.5,107579.5,112876.19999980927,119269.09999990463,127246.5,135660,142323.89999985695,149988.79999995232,153989.79999995232,160578.19999980927,176152.5,186050.89999985695,197457.5,202331.59999990463,213858.79999995232,247697.09999990463,253134,257782.69999980927,262050.19999980927,268290.39999985695,280226.39999985695,284967.69999980927],"key_events":[],"mouse_events":[74966.29999995232,82959.09999990463,98468.5,107579.5,112876.19999980927,119269.09999990463,127246.5,135660,142323.89999985695,149988.79999995232,153989.79999995232,160578.19999980927,176152.5,186050.89999985695,197457.5,202331.59999990463,213858.79999995232,247697.09999990463,253134,257782.69999980927,262050.19999980927,268290.39999985695,280226.39999985695,284967.69999980927,286425],"straightlining":0.42857142857142855,"zigzagging":0.7,"honeypot":0,"survey":"sns","trial_type":"survey-template","trial_index":2,"time_elapsed":427796,"internal_node_id":"0.0-2.0","task_version":"prescreen-v0.3","browser_interactions":4,"infrequency":0},{"responses":{"Q09":"2","Q11":"1","Q12":"1","Q08":"2","Q03":"3","Q13":"0","Q07":"3","Q10":"1","Q02":"3","Q04":"3","Q06":"2","Q05":"2","Q01":"3"},"rt":91604.59999990463,"item_order":[8,10,11,7,2,12,6,9,1,3,5,4,0],"radio_events":[10460.599999904633,16044.899999856949,28211.599999904633,35296.09999990463,40743.200000047684,46679.09999990463,55327.700000047684,72577.09999990463,75496.29999995232,78447.5,82357.79999995232,87138.09999990463,90630.29999995232],"key_events":[],"mouse_events":[10460.599999904633,16044.899999856949,28211.599999904633,35296.09999990463,40743.200000047684,46679.09999990463,55327.700000047684,72577.09999990463,75496.29999995232,78447.5,82357.79999995232,87138.09999990463,90630.29999995232,91600.20000004768],"straightlining":0.38461538461538464,"zigzagging":0.5833333333333334,"honeypot":0,"survey":"bisbas","trial_type":"survey-template","trial_index":3,"time_elapsed":519415,"internal_node_id":"0.0-3.0","task_version":"prescreen-v0.3","browser_interactions":0,"infrequency":0},{"responses":{"Q01":"2","Q02":"1","Q03":"1"},"rt":69673.90000009537,"radio_events":[35176.90000009537,43957,57494.90000009537,61411.800000190735,65927.10000014305],"key_events":[],"mouse_events":[35176.90000009537,43957,57494.90000009537,61411.800000190735,65927.10000014305,69672.5],"survey":"map","page":1,"trial_type":"survey-map","trial_index":4,"time_elapsed":589101,"internal_node_id":"0.0-4.0","task_version":"prescreen-v0.3","browser_interactions":2},{"responses":{"Q04":"2","Q05":"1","Q06":"2"},"rt":66746.70000004768,"radio_events":[43055.799999952316,46893.200000047684,47789,50056.299999952316,55080.200000047684,60271.10000014305,62400.5],"key_events":[],"mouse_events":[43055.799999952316,46893.200000047684,47789,50056.299999952316,55080.200000047684,60271.10000014305,62400.5,66744.5],"survey":"map","page":2,"trial_type":"survey-map","trial_index":5,"time_elapsed":655861,"internal_node_id":"0.0-5.0","task_version":"prescreen-v0.3","browser_interactions":2},{"responses":{"Q07":"4","Q08":"4","Q09":"4"},"rt":22284.700000047684,"radio_events":[6952.5,13929.099999904633,18714.89999985695],"key_events":[],"mouse_events":[6952.5,13929.099999904633,18714.89999985695,22282.799999952316],"survey":"map","page":3,"trial_type":"survey-map","trial_index":6,"time_elapsed":678155,"internal_node_id":"0.0-6.0","task_version":"prescreen-v0.3","browser_interactions":0},{"responses":{"Q10":"2","Q11":"2","Q12":"4","Q13":"2","Q16":"0","Q14":"1","Q15":"0"},"rt":93674.70000004768,"radio_events":[24362,29073.599999904633,39429.299999952316,54961.59999990463,69555.20000004768,86580.59999990463,90231.5,91653.09999990463],"key_events":[],"mouse_events":[24362,29073.599999904633,39429.299999952316,54961.59999990463,69555.20000004768,86580.59999990463,90231.5,91653.09999990463,93671.5],"survey":"map","page":4,"trial_type":"survey-map","trial_index":7,"time_elapsed":771843,"internal_node_id":"0.0-7.0","task_version":"prescreen-v0.3","browser_interactions":2,"infrequency":0},{"view_history":[{"page_index":0,"viewing_time":3466.5999999046326},{"page_index":1,"viewing_time":6338.400000095367}],"rt":9807,"trial_type":"instructions","trial_index":8,"time_elapsed":781656,"internal_node_id":"0.0-8.0","task_version":"prescreen-v0.3"},{"responses":{"01":"Yes","01_ages_14":"14","01_ages_15":"15","01_ages_16":"16","01_ages_17":"17","01_ages_18":"18","02":"Yes","02_ages_10":"10","02_ages_11":"11","02_ages_12":"12","02_ages_13":"13","02_ages_14":"14","02_ages_15":"15","02_ages_16":"16","02_ages_17":"17","02_ages_18":"18","03":"Yes","03_ages_7":"7","03_ages_8":"8","03_ages_9":"9","04":"No","05":"No","06":"Yes","06_ages_5":"5","06_ages_6":"6","06_ages_7":"7","06_ages_8":"8","06_ages_9":"9"},"rt":136905.29999995232,"item_order":[0,1,2,3,4,5],"radio_events":[18904.099999904633,51699.299999952316,73905.29999995232,88102.5,91091.09999990463,97908.69999980927,114065.69999980927],"checkbox_events":[26021.799999952316,27012.5,30885.199999809265,31579.5,32316.699999809265,35044.299999952316,40571.39999985695,56934.199999809265,57550.699999809265,59106.199999809265,59999.89999985695,60729.299999952316,61480.09999990463,62142.699999809265,62782.59999990463,63856.59999990463,75386.5,76033.79999995232,76805.19999980927,122499.5,123194.89999985695,123839.5,124858,126081.29999995232],"key_events":[],"mouse_events":[0,18904.099999904633,26021.799999952316,27012.5,30885.199999809265,31579.5,32316.699999809265,35044.299999952316,40571.39999985695,51699.299999952316,56934.199999809265,57550.699999809265,58198.5,59106.199999809265,59999.89999985695,60729.299999952316,61480.09999990463,62142.699999809265,62782.59999990463,63856.59999990463,73905.29999995232,75386.5,76033.79999995232,76805.19999980927,88102.5,91091.09999990463,97908.69999980927,114065.69999980927,122499.5,123194.89999985695,123839.5,124858,126081.29999995232,136896.59999990463],"honeypot":0,"survey":"mace","page":1,"trial_type":"survey-mace","trial_index":9,"time_elapsed":918584,"internal_node_id":"0.0-9.0","task_version":"prescreen-v0.3","browser_interactions":0},{"responses":{"01":"No","02":"No","03":"No","04":"No","05":"No","06":"No","07":"No","08":"No"},"rt":41785.200000047684,"item_order":[0,1,2,3,4,5,6,7],"radio_events":[6417,12149.700000047684,25222.799999952316,27958.299999952316,32063.299999952316,34761.799999952316,37235.90000009537,39786.799999952316],"checkbox_events":[],"key_events":[],"mouse_events":[6417,12149.700000047684,25222.799999952316,27958.299999952316,32063.299999952316,34761.799999952316,37235.90000009537,39786.799999952316,41772.40000009537],"honeypot":0,"survey":"mace","page":2,"trial_type":"survey-mace","trial_index":10,"time_elapsed":960398,"internal_node_id":"0.0-10.0","task_version":"prescreen-v0.3","browser_interactions":0},{"responses":{"01":"No","02":"No","03":"No","04":"No"},"rt":19430.700000047684,"item_order":[0,1,2,3],"radio_events":[5633.099999904633,11717.299999952316,13965.5,15311.099999904633],"checkbox_events":[],"key_events":[],"mouse_events":[5633.099999904633,11717.299999952316,13965.5,15311.099999904633,19420.299999952316],"honeypot":0,"survey":"mace","page":3,"trial_type":"survey-mace","trial_index":11,"time_elapsed":979839,"internal_node_id":"0.0-11.0","task_version":"prescreen-v0.3","browser_interactions":0},{"responses":{"01":"No","02":"No"},"rt":9543.700000047684,"item_order":[0,1],"radio_events":[4857.600000143051,8223.799999952316],"checkbox_events":[],"key_events":[],"mouse_events":[4857.600000143051,8223.799999952316,9541.400000095367],"honeypot":0,"survey":"mace","page":4,"trial_type":"survey-mace","trial_index":12,"time_elapsed":989393,"internal_node_id":"0.0-12.0","task_version":"prescreen-v0.3","browser_interactions":0},{"responses":{"01":"No","02":"No","03":"No","04":"No","05":"No"},"rt":35881.09999990463,"item_order":[0,1,2,3,4],"radio_events":[19217.799999952316,23264.900000095367,29204.700000047684,31189.200000047684,34099.5],"checkbox_events":[],"key_events":[],"mouse_events":[19217.799999952316,23264.900000095367,29204.700000047684,31189.200000047684,34099.5,35872.40000009537],"honeypot":0,"survey":"mace","page":5,"trial_type":"survey-mace","trial_index":13,"time_elapsed":1025287,"internal_node_id":"0.0-13.0","task_version":"prescreen-v0.3","browser_interactions":0},{"responses":{"01":"Yes","01_ages_9":"9","01_ages_10":"10","01_ages_11":"11","01_ages_12":"12","01_ages_13":"13","01_ages_14":"14","01_ages_15":"15","01_ages_16":"16","01_ages_17":"17","01_ages_18":"18","02":"Yes","02_ages_9":"9","02_ages_10":"10","02_ages_11":"11","02_ages_12":"12","02_ages_13":"13","02_ages_14":"14","02_ages_15":"15","02_ages_16":"16","02_ages_17":"17","02_ages_18":"18","03":"Yes","03_ages_15":"15","03_ages_16":"16","03_ages_17":"17","04":"No","05":"No"},"rt":80814.10000014305,"item_order":[0,1,2,3,4],"radio_events":[15411.700000047684,48054.90000009537,61595.10000014305,74091.60000014305,77063.29999995232],"checkbox_events":[17977.299999952316,18897.400000095367,19647,20319,20985.299999952316,22415.299999952316,23208.10000014305,23900.400000095367,37587.90000009537,42527.799999952316,50044.299999952316,50668.799999952316,51339.40000009537,52380.200000047684,53020.40000009537,53757.299999952316,54426.5,55044.60000014305,55713.700000047684,56420.200000047684,63859.200000047684,64527.5,65209.40000009537],"key_events":[],"mouse_events":[15411.700000047684,17977.299999952316,18897.400000095367,19647,20319,20985.299999952316,22415.299999952316,23208.10000014305,23900.400000095367,37587.90000009537,42527.799999952316,48054.90000009537,50044.299999952316,50668.799999952316,51339.40000009537,52380.200000047684,53020.40000009537,53757.299999952316,54426.5,55044.60000014305,55713.700000047684,56420.200000047684,61595.10000014305,63859.200000047684,64527.5,65209.40000009537,74091.60000014305,77063.29999995232,80806],"honeypot":0,"survey":"mace","page":6,"trial_type":"survey-mace","trial_index":14,"time_elapsed":1106114,"internal_node_id":"0.0-14.0","task_version":"prescreen-v0.3","browser_interactions":0},{"responses":{"01":"No","02":"No","03":"No","04":"No","05":"No","06":"No","07":"No"},"rt":17062.5,"item_order":[0,1,2,3,4,5,6],"radio_events":[5812.899999856949,7936.799999952316,9463.099999904633,10940.199999809265,13021,14995.899999856949,16058.899999856949],"checkbox_events":[],"key_events":[],"mouse_events":[5812.899999856949,7936.799999952316,9463.099999904633,10940.199999809265,13021,14995.899999856949,16058.899999856949,17053.89999985695],"honeypot":0,"survey":"mace","page":7,"trial_type":"survey-mace","trial_index":15,"time_elapsed":1123191,"internal_node_id":"0.0-15.0","task_version":"prescreen-v0.3","browser_interactions":0},{"responses":{"01":"No","02":"No","03":"Yes","03_ages_9":"9","03_ages_10":"10","03_ages_11":"11","03_ages_12":"12","03_ages_13":"13","03_ages_14":"14","03_ages_15":"15","03_ages_16":"16","03_ages_17":"17","03_ages_18":"18","04":"No"},"rt":48048.799999952316,"item_order":[0,1,2,3],"radio_events":[11887.199999809265,18989.89999985695,24552.699999809265,27335.5,28791.599999904633,33766.799999952316,47056.09999990463],"checkbox_events":[36387.89999985695,37547,38179.699999809265,38805.39999985695,39419.89999985695,40029,40607.89999985695,41264.799999952316,41920.59999990463,42633.89999985695],"key_events":[],"mouse_events":[11887.199999809265,18989.89999985695,24552.699999809265,27335.5,28791.599999904633,33766.799999952316,36387.89999985695,36930.799999952316,37547,38179.699999809265,38805.39999985695,39419.89999985695,40029,40607.89999985695,41264.799999952316,41920.59999990463,42633.89999985695,47056.09999990463,48040.09999990463],"honeypot":0,"survey":"mace","page":8,"trial_type":"survey-mace","trial_index":16,"time_elapsed":1171254,"internal_node_id":"0.0-16.0","task_version":"prescreen-v0.3","browser_interactions":0},{"responses":{"01":"Yes","01_ages_1":"1","01_ages_2":"2","01_ages_3":"3","01_ages_4":"4","01_ages_5":"5","01_ages_6":"6","01_ages_7":"7","01_ages_8":"8","01_ages_9":"9","01_ages_10":"10","01_ages_11":"11","01_ages_12":"12","01_ages_13":"13","01_ages_14":"14","01_ages_15":"15","01_ages_16":"16","01_ages_17":"17","01_ages_18":"18","02":"No","03":"Yes","03_ages_1":"1","03_ages_2":"2","03_ages_3":"3","03_ages_4":"4","03_ages_5":"5","03_ages_6":"6","03_ages_7":"7","03_ages_8":"8","03_ages_9":"9","03_ages_10":"10","03_ages_11":"11","03_ages_12":"12","03_ages_13":"13","03_ages_14":"14","03_ages_15":"15","03_ages_16":"16","03_ages_17":"17","03_ages_18":"18","04":"Yes","04_ages_1":"1","04_ages_2":"2","04_ages_3":"3","04_ages_4":"4","04_ages_5":"5","04_ages_6":"6","04_ages_7":"7","04_ages_8":"8","04_ages_9":"9","04_ages_10":"10","04_ages_11":"11","04_ages_12":"12","04_ages_13":"13","04_ages_14":"14","04_ages_15":"15","04_ages_16":"16","04_ages_17":"17","04_ages_18":"18"},"rt":100116.09999990463,"item_order":[0,1,2,3],"radio_events":[25237.799999952316,60445.5,72170.59999990463,73050],"checkbox_events":[34090.39999985695,34801.59999990463,35667.700000047684,36226.799999952316,36854.799999952316,38859.299999952316,40065.299999952316,40684.09999990463,43712.39999985695,45260.89999985695,45919.299999952316,46744.299999952316,48305.09999990463,48992.89999985695,50172.799999952316,51110.09999990463,51862.89999985695,54469.799999952316,74339.39999985695,74891.70000004768,75571.5,76296.09999990463,77216.5,77815.70000004768,78649.5,79313.29999995232,80205.39999985695,80975.39999985695,81895,82551.70000004768,83248.5,83904,84564.29999995232,85221.20000004768,85870.20000004768,86565.39999985695,88359.70000004768,89059.70000004768,89699.39999985695,90316.39999985695,91013.89999985695,91709.39999985695,92301.29999995232,92937.29999995232,93569.89999985695,94226.5,94834.79999995232,95436.5,96053.70000004768,96666.59999990463,97320.39999985695,97992.70000004768,98657.39999985695,99285.59999990463],"key_events":[],"mouse_events":[25237.799999952316,34090.39999985695,34801.59999990463,35667.700000047684,36226.799999952316,36854.799999952316,38859.299999952316,40065.299999952316,40684.09999990463,43712.39999985695,44377.09999990463,45260.89999985695,45919.299999952316,46744.299999952316,47529.200000047684,48305.09999990463,48992.89999985695,50172.799999952316,51110.09999990463,51862.89999985695,54469.799999952316,60445.5,72170.59999990463,73050,74339.39999985695,74891.70000004768,75571.5,76296.09999990463,77216.5,77815.70000004768,78649.5,79313.29999995232,80205.39999985695,80975.39999985695,81895,82551.70000004768,83248.5,83904,84564.29999995232,85221.20000004768,85870.20000004768,86565.39999985695,88359.70000004768,89059.70000004768,89699.39999985695,90316.39999985695,91013.89999985695,91709.39999985695,92301.29999995232,92937.29999995232,93569.89999985695,94226.5,94834.79999995232,95436.5,96053.70000004768,96666.59999990463,97320.39999985695,97992.70000004768,98657.39999985695,99285.59999990463,100107.5],"honeypot":0,"survey":"mace","page":9,"trial_type":"survey-mace","trial_index":17,"time_elapsed":1271382,"internal_node_id":"0.0-17.0","task_version":"prescreen-v0.3","browser_interactions":2},{"responses":{"01":"No","02":"No","03":"No","04":"Yes","04_ages_1":"1","04_ages_2":"2","04_ages_3":"3","04_ages_4":"4","04_ages_5":"5","04_ages_6":"6","04_ages_7":"7","04_ages_8":"8","04_ages_9":"9","04_ages_10":"10","04_ages_11":"11","04_ages_12":"12","04_ages_13":"13","05":"Yes","05_ages_14":"14","05_ages_15":"15","05_ages_16":"16","05_ages_17":"17","05_ages_18":"18","06":"Yes","06_ages_17":"17","07":"Yes","07_ages_1":"1","07_ages_2":"2","07_ages_3":"3","07_ages_4":"4","07_ages_5":"5","07_ages_6":"6","07_ages_7":"7","07_ages_8":"8","07_ages_9":"9","07_ages_10":"10","07_ages_11":"11","07_ages_12":"12","07_ages_13":"13","07_ages_14":"14","07_ages_15":"15","07_ages_16":"16","07_ages_17":"17","07_ages_18":"18","08":"Yes","08_ages_4":"4","08_ages_5":"5","08_ages_6":"6","08_ages_7":"7","08_ages_8":"8","08_ages_9":"9","08_ages_10":"10","08_ages_11":"11","08_ages_12":"12","08_ages_13":"13","08_ages_14":"14","08_ages_15":"15","08_ages_16":"16","08_ages_17":"17"},"rt":201979.60000014305,"item_order":[0,1,2,3,4,5,6,7],"radio_events":[65176,66872.70000004768,67893.5,70800.20000004768,74260.80000019073,79125.10000014305,106566.90000009537,115812.70000004768,131063.30000019073,170043.30000019073],"checkbox_events":[81433.80000019073,82019.30000019073,83778.60000014305,86656.90000009537,90903.30000019073,91920,93241.90000009537,94018.80000019073,94854.5,95519.80000019073,96535.90000009537,97208.40000009537,97937.80000019073,107935.80000019073,108540,109268.5,110364.90000009537,110927.60000014305,117762.40000009537,135902.5,136573.40000009537,137483,138187.30000019073,139683.30000019073,140458.70000004768,141284,141927.60000014305,142607.40000009537,143497.5,160498.60000014305,161088.70000004768,161727.30000019073,162415.80000019073,163292.5,164470,165077.90000009537,165790.10000014305,173544.40000009537,174240.90000009537,174978.40000009537,177030.30000019073,178509.70000004768,179155.20000004768,180515.90000009537,181370.40000009537,183984.90000009537,184659,185489.20000004768,186323.80000019073,193129.10000014305,194586,195209.80000019073,197519.20000004768,198207.40000009537,199393.30000019073],"key_events":[],"mouse_events":[63365.90000009537,65176,66872.70000004768,67893.5,70800.20000004768,74260.80000019073,79125.10000014305,81433.80000019073,82019.30000019073,83029.40000009537,83778.60000014305,86656.90000009537,87299.90000009537,90903.30000019073,91920,93241.90000009537,94018.80000019073,94854.5,95519.80000019073,96535.90000009537,97208.40000009537,97937.80000019073,106566.90000009537,107935.80000019073,108540,109268.5,110364.90000009537,110927.60000014305,115812.70000004768,117762.40000009537,131063.30000019073,135902.5,136573.40000009537,137483,138187.30000019073,139059.70000004768,139683.30000019073,140458.70000004768,141284,141927.60000014305,142607.40000009537,143497.5,160498.60000014305,161088.70000004768,161727.30000019073,162415.80000019073,163292.5,164470,165077.90000009537,165790.10000014305,170043.30000019073,173544.40000009537,174240.90000009537,174978.40000009537,176382,177030.30000019073,178509.70000004768,179155.20000004768,179932.5,180515.90000009537,181370.40000009537,183984.90000009537,184659,185489.20000004768,186323.80000019073,193129.10000014305,193889.60000014305,194586,195209.80000019073,197519.20000004768,198207.40000009537,199393.30000019073,201968],"honeypot":0,"survey":"mace","page":10,"trial_type":"survey-mace","trial_index":18,"time_elapsed":1473388,"internal_node_id":"0.0-18.0","task_version":"prescreen-v0.3","browser_interactions":4,"instructed":0},{"rt":8292,"trial_type":"mental-health-alert","trial_index":19,"time_elapsed":1481688,"internal_node_id":"0.0-19.0","task_version":"prescreen-v0.3","interactions":"[{\"event\":\"blur\",\"trial\":0,\"time\":15938},{\"event\":\"focus\",\"trial\":0,\"time\":20151},{\"event\":\"blur\",\"trial\":0,\"time\":39137},{\"event\":\"focus\",\"trial\":0,\"time\":63220},{\"event\":\"blur\",\"trial\":2,\"time\":169287},{\"event\":\"focus\",\"trial\":2,\"time\":183186},{\"event\":\"blur\",\"trial\":2,\"time\":364956},{\"event\":\"focus\",\"trial\":2,\"time\":378895},{\"event\":\"blur\",\"trial\":4,\"time\":522935},{\"event\":\"focus\",\"trial\":4,\"time\":534285},{\"event\":\"blur\",\"trial\":5,\"time\":592330},{\"event\":\"focus\",\"trial\":5,\"time\":615152},{\"event\":\"blur\",\"trial\":7,\"time\":682971},{\"event\":\"focus\",\"trial\":7,\"time\":684812},{\"event\":\"blur\",\"trial\":17,\"time\":1177827},{\"event\":\"focus\",\"trial\":17,\"time\":1186550},{\"event\":\"blur\",\"trial\":18,\"time\":1272849},{\"event\":\"focus\",\"trial\":18,\"time\":1330970},{\"event\":\"blur\",\"trial\":18,\"time\":1416141},{\"event\":\"focus\",\"trial\":18,\"time\":1430743}]"}]