[{"view_history":[{"page_index":0,"viewing_time":1365.3999999761581},{"page_index":1,"viewing_time":1371.1000000238419},{"page_index":2,"viewing_time":1207.3999999761581},{"page_index":3,"viewing_time":949.7000000476837}],"rt":4894.100000023842,"trial_type":"instructions","trial_index":0,"time_elapsed":4906,"internal_node_id":"0.0-0.0","task_version":"prescreen-v0.3"},{"rt":9016.299999952316,"responses":{"age":"26","gender-categorical":"Male","gender-free-response":"","ethnicity":"Not Hispanic or Latino","race":["Asian"],"education":"Bachelor degree","siblings":"0"},"trial_type":"survey-demo","trial_index":1,"time_elapsed":13926,"internal_node_id":"0.0-1.0","task_version":"prescreen-v0.3"},{"responses":{"Q08":"2","Q12":"2","Q14":"1","Q15":"1","Q19":"0","Q18":"1","Q06":"0","Q17":"1","Q21":"3","Q11":"1","Q07":"1","Q10":"1","Q01":"1","Q13":"0","Q16":"0","Q05":"0","Q03":"0","Q04":"0","Q09":"0","Q02":"0","Q20":"0"},"rt":64465.10000002384,"item_order":[7,11,13,14,18,17,5,16,20,10,6,9,0,12,15,4,2,3,8,1,19],"radio_events":[5634.399999976158,6668.5,10911.100000023842,14921.600000023842,20177.300000071526,21108.600000023842,21628.600000023842,25021.300000071526,25284.200000047684,26302.5,29577.800000071526,33253.5,37709.300000071526,40178.60000002384,41649.60000002384,44107,49848.700000047684,50648.200000047684,51199.89999997616,52090.300000071526,55330.5,58419.89999997616,58897.89999997616,63298.700000047684],"key_events":[],"mouse_events":[5340.399999976158,5634.399999976158,6668.5,8615.600000023842,9936.800000071526,10911.100000023842,11347.300000071526,12404.200000047684,12920.300000071526,14921.600000023842,17412.100000023842,19713.300000071526,20177.300000071526,20527.300000071526,21108.600000023842,21628.600000023842,23313.100000023842,23680.700000047684,25021.300000071526,25284.200000047684,26302.5,29096.899999976158,29577.800000071526,32907.300000071526,33253.5,37420.700000047684,37709.300000071526,40178.60000002384,41649.60000002384,44107,45926.10000002384,47339.10000002384,48322.700000047684,49848.700000047684,50648.200000047684,51199.89999997616,52090.300000071526,53822.700000047684,55330.5,57127.700000047684,58419.89999997616,58897.89999997616,59544.10000002384,63298.700000047684,64463.800000071526],"straightlining":0.47619047619047616,"zigzagging":0.3,"honeypot":0,"survey":"sns","trial_type":"survey-template","trial_index":2,"time_elapsed":78395,"internal_node_id":"0.0-2.0","task_version":"prescreen-v0.3","browser_interactions":0,"infrequency":0},{"responses":{"Q06":"3","Q08":"2","Q02":"2","Q12":"1","Q05":"3","Q07":"2","Q13":"0","Q03":"2","Q01":"2","Q04":"3","Q11":"2","Q09":"2","Q10":"2"},"rt":37984.700000047684,"item_order":[5,7,1,11,4,6,12,2,0,3,10,8,9],"radio_events":[2361,5412.5,9849.399999976158,13300.600000023842,14892.899999976158,18715.399999976158,20987.700000047684,23218.5,25686.399999976158,30098.899999976158,34950.60000002384,36418.89999997616,37109.89999997616],"key_events":[],"mouse_events":[2361,4255.299999952316,5412.5,6713.5,7500.799999952316,9849.399999976158,12490.5,13300.600000023842,14892.899999976158,17174.200000047684,17819.700000047684,18359.100000023842,18715.399999976158,19776.600000023842,20987.700000047684,22935.100000023842,23218.5,24641.399999976158,25686.399999976158,28335.899999976158,30098.899999976158,33760.700000047684,34950.60000002384,36418.89999997616,37109.89999997616,37983.89999997616],"straightlining":0.6153846153846154,"zigzagging":0.4166666666666667,"honeypot":0,"survey":"bisbas","trial_type":"survey-template","trial_index":3,"time_elapsed":116382,"internal_node_id":"0.0-3.0","task_version":"prescreen-v0.3","browser_interactions":0,"infrequency":0},{"responses":{"Q01":"2","Q02":"2","Q03":"2"},"rt":11844.300000071526,"radio_events":[5753.100000023842,6215.399999976158,8649.600000023842,11333.899999976158],"key_events":[],"mouse_events":[3785.100000023842,4605,5375,5753.100000023842,6215.399999976158,8649.600000023842,9813.700000047684,10958.700000047684,11333.899999976158,11843.800000071526],"survey":"map","page":1,"trial_type":"survey-map","trial_index":4,"time_elapsed":128228,"internal_node_id":"0.0-4.0","task_version":"prescreen-v0.3","browser_interactions":0},{"responses":{"Q04":"3","Q05":"3","Q06":"3"},"rt":8020.300000071526,"radio_events":[2961.600000023842,3805.5,6420,7581.100000023842],"key_events":[],"mouse_events":[196.40000009536743,2170.5,2961.600000023842,3805.5,5507,6079.200000047684,6420,7022.100000023842,7343.900000095367,7581.100000023842,8020],"survey":"map","page":2,"trial_type":"survey-map","trial_index":5,"time_elapsed":136250,"internal_node_id":"0.0-5.0","task_version":"prescreen-v0.3","browser_interactions":0},{"responses":{"Q07":"2","Q08":"4","Q09":"4"},"rt":21933.700000047684,"radio_events":[16119.5,17766,18382.800000071526,21160.100000023842],"key_events":[],"mouse_events":[14732.300000071526,15695.400000095367,16119.5,17347.600000023842,17766,18382.800000071526,18835.800000071526,19267.800000071526,19842,20549,20929.100000023842,21160.100000023842,21626.200000047684,21933.400000095367],"survey":"map","page":3,"trial_type":"survey-map","trial_index":6,"time_elapsed":158185,"internal_node_id":"0.0-6.0","task_version":"prescreen-v0.3","browser_interactions":0},{"responses":{"Q10":"3","Q11":"2","Q12":"1","Q13":"1","Q16":"0","Q14":"3","Q15":"3"},"rt":23500.199999928474,"radio_events":[4676.600000023842,5580.100000023842,9721.600000023842,12036.799999952316,15888.299999952316,17739.600000023842,22255.100000023842,22926.299999952316],"key_events":[],"mouse_events":[3756.5,4676.600000023842,5580.100000023842,6979.100000023842,8436.100000023842,9051.699999928474,9478.299999952316,9721.600000023842,12036.799999952316,14674.399999976158,15888.299999952316,17739.600000023842,20891,21837.5,22255.100000023842,22926.299999952316,23499.399999976158],"survey":"map","page":4,"trial_type":"survey-map","trial_index":7,"time_elapsed":181687,"internal_node_id":"0.0-7.0","task_version":"prescreen-v0.3","browser_interactions":0,"infrequency":0},{"view_history":[{"page_index":0,"viewing_time":1145},{"page_index":1,"viewing_time":2129.399999976158},{"page_index":0,"viewing_time":718.1000000238419},{"page_index":1,"viewing_time":922.1999999284744}],"rt":4915.100000023842,"trial_type":"instructions","trial_index":8,"time_elapsed":186603,"internal_node_id":"0.0-8.0","task_version":"prescreen-v0.3"},{"responses":{"01":"No","02":"Yes","02_ages_10":"10","02_ages_11":"11","02_ages_12":"12","03":"No","04":"No","05":"No","06":"No"},"rt":20960.099999904633,"item_order":[0,1,2,3,4,5],"radio_events":[6416,7565.299999952316,16437.5,18621.799999952316,19264.699999928474,19984.899999976158],"checkbox_events":[13976.299999952316,14351.099999904633,14599.199999928474],"key_events":[],"mouse_events":[0.09999990463256836,4555.5,6416,7565.299999952316,13976.299999952316,14351.099999904633,14599.199999928474,16437.5,16925.899999976158,18240.5,18621.799999952316,19264.699999928474,19634.899999976158,19984.899999976158,20958.299999952316],"honeypot":0,"survey":"mace","page":1,"trial_type":"survey-mace","trial_index":9,"time_elapsed":207568,"internal_node_id":"0.0-9.0","task_version":"prescreen-v0.3","browser_interactions":0},{"responses":{"01":"No","02":"No","03":"No","03_ages_5":"5","03_ages_6":"6","03_ages_7":"7","04":"No","05":"No","06":"No","07":"No","08":"No"},"rt":26580.700000047684,"item_order":[0,1,2,3,4,5,6,7],"radio_events":[2927.9000000953674,5318.200000047684,6410.200000047684,12909.400000095367,14374.600000023842,20818.5,23045.800000071526,24361.800000071526,25040,26230],"checkbox_events":[18247,18559,18812.100000023842],"key_events":[],"mouse_events":[1876.9000000953674,2927.9000000953674,4136,4794.700000047684,5318.200000047684,5777.100000023842,6410.200000047684,11971.400000095367,12909.400000095367,13493.700000047684,14046.5,14374.600000023842,18247,18559,18812.100000023842,20818.5,21648.900000095367,22038.400000095367,22440.600000023842,23045.800000071526,23786,24361.800000071526,25040,25731.200000047684,26230,26578.400000095367],"honeypot":0,"survey":"mace","page":2,"trial_type":"survey-mace","trial_index":10,"time_elapsed":234152,"internal_node_id":"0.0-10.0","task_version":"prescreen-v0.3","browser_interactions":0},{"responses":{"01":"No","02":"No","03":"No","04":"No"},"rt":5768.899999976158,"item_order":[0,1,2,3],"radio_events":[2443.2999999523163,3612.6999999284744,4441.5,4817.899999976158],"checkbox_events":[],"key_events":[],"mouse_events":[2443.2999999523163,3612.6999999284744,4152.5,4441.5,4817.899999976158,5767.699999928474],"honeypot":0,"survey":"mace","page":3,"trial_type":"survey-mace","trial_index":11,"time_elapsed":239923,"internal_node_id":"0.0-11.0","task_version":"prescreen-v0.3","browser_interactions":0},{"responses":{"01":"No","02":"No"},"rt":3447.2000000476837,"item_order":[0,1],"radio_events":[2512.600000023842,2882.600000023842],"checkbox_events":[],"key_events":[],"mouse_events":[2045.5,2512.600000023842,2882.600000023842,3446.600000023842],"honeypot":0,"survey":"mace","page":4,"trial_type":"survey-mace","trial_index":12,"time_elapsed":243371,"internal_node_id":"0.0-12.0","task_version":"prescreen-v0.3","browser_interactions":0},{"responses":{"01":"No","02":"No","03":"No","04":"No","05":"No"},"rt":7503,"item_order":[0,1,2,3,4],"radio_events":[2306.2999999523163,2908.899999976158,3299.899999976158,5629,6138.100000023842,6763.100000023842],"checkbox_events":[],"key_events":[],"mouse_events":[1607.3999999761581,2306.2999999523163,2908.899999976158,3299.899999976158,4679.899999976158,5231.799999952316,5629,6138.100000023842,6763.100000023842,7155.199999928474,7501.5],"honeypot":0,"survey":"mace","page":5,"trial_type":"survey-mace","trial_index":13,"time_elapsed":250877,"internal_node_id":"0.0-13.0","task_version":"prescreen-v0.3","browser_interactions":0},{"responses":{"01":"No","02":"No","03":"No","04":"No","05":"No"},"rt":7439.5,"item_order":[0,1,2,3,4],"radio_events":[2135.399999976158,2715.2999999523163,3362.399999976158,4006.5,5009.699999928474],"checkbox_events":[],"key_events":[],"mouse_events":[1262.8999999761581,2135.399999976158,2715.2999999523163,3362.399999976158,4006.5,4635.699999928474,5009.699999928474,7226,7438.100000023842],"honeypot":0,"survey":"mace","page":6,"trial_type":"survey-mace","trial_index":14,"time_elapsed":258319,"internal_node_id":"0.0-14.0","task_version":"prescreen-v0.3","browser_interactions":0},{"responses":{"01":"No","02":"No","03":"No","04":"No","05":"No","06":"No","07":"No"},"rt":9318.200000047684,"item_order":[0,1,2,3,4,5,6],"radio_events":[3622.100000023842,4903.5,5581.5,6003.700000047684,7833.100000023842,8268.800000071526,9003],"checkbox_events":[],"key_events":[],"mouse_events":[3622.100000023842,4903.5,5236.300000071526,5581.5,6003.700000047684,6443.5,6942.600000023842,7833.100000023842,8268.800000071526,9003,9316],"honeypot":0,"survey":"mace","page":7,"trial_type":"survey-mace","trial_index":15,"time_elapsed":267640,"internal_node_id":"0.0-15.0","task_version":"prescreen-v0.3","browser_interactions":0},{"responses":{"01":"No","02":"No","03":"Yes","03_ages_11":"11","03_ages_12":"12","03_ages_13":"13","04":"No"},"rt":13638.200000047684,"item_order":[0,1,2,3],"radio_events":[3720.600000023842,4338.800000071526,7180.100000023842,13012.700000047684],"checkbox_events":[9894.700000047684,10690.700000047684,11143.900000095367],"key_events":[],"mouse_events":[1283.3000000715256,1712.2000000476837,2736.5,3720.600000023842,4338.800000071526,4991.800000071526,7180.100000023842,9894.700000047684,10690.700000047684,11143.900000095367,13012.700000047684,13637],"honeypot":0,"survey":"mace","page":8,"trial_type":"survey-mace","trial_index":16,"time_elapsed":281281,"internal_node_id":"0.0-16.0","task_version":"prescreen-v0.3","browser_interactions":0},{"responses":{"01":"Yes","01_ages_1":"1","01_ages_2":"2","01_ages_3":"3","01_ages_4":"4","01_ages_5":"5","01_ages_6":"6","01_ages_7":"7","01_ages_8":"8","01_ages_9":"9","01_ages_10":"10","01_ages_11":"11","01_ages_12":"12","01_ages_13":"13","01_ages_14":"14","01_ages_15":"15","01_ages_16":"16","01_ages_17":"17","01_ages_18":"18","02":"Yes","02_ages_1":"1","02_ages_2":"2","02_ages_3":"3","02_ages_4":"4","02_ages_5":"5","02_ages_6":"6","02_ages_7":"7","02_ages_8":"8","02_ages_9":"9","02_ages_10":"10","02_ages_11":"11","02_ages_12":"12","02_ages_13":"13","02_ages_14":"14","02_ages_15":"15","02_ages_16":"16","02_ages_17":"17","02_ages_18":"18","03":"Yes","03_ages_1":"1","03_ages_2":"2","03_ages_3":"3","03_ages_4":"4","03_ages_5":"5","03_ages_6":"6","03_ages_7":"7","03_ages_8":"8","03_ages_9":"9","03_ages_10":"10","03_ages_11":"11","03_ages_12":"12","03_ages_13":"13","03_ages_14":"14","03_ages_15":"15","03_ages_16":"16","03_ages_17":"17","03_ages_18":"18","04":"Yes","04_ages_1":"1","04_ages_2":"2","04_ages_3":"3","04_ages_4":"4","04_ages_5":"5","04_ages_6":"6","04_ages_7":"7","04_ages_8":"8","04_ages_9":"9","04_ages_10":"10","04_ages_11":"11","04_ages_12":"12","04_ages_13":"13","04_ages_14":"14","04_ages_15":"15","04_ages_16":"16","04_ages_17":"17","04_ages_18":"18"},"rt":62200.700000047684,"item_order":[0,1,2,3],"radio_events":[5118.400000095367,20964.600000023842,27577.200000047684,28178.5],"checkbox_events":[9522.900000095367,10342,11043.200000047684,11718,12015.700000047684,12629.300000071526,13244.200000047684,13539.600000023842,13850.5,14173.600000023842,14506.700000047684,14994.600000023842,16313.800000071526,16615,17003,17329,18293.100000023842,18682.400000095367,31285.100000023842,32288.800000071526,32851.200000047684,33249.300000071526,33620.40000009537,34033.60000002384,35341.40000009537,35710.800000071526,36319.700000047684,36936.90000009537,37235,37479.800000071526,38140.200000047684,38489.5,38875,39189.200000047684,39605.200000047684,40016.200000047684,41573.40000009537,41962.700000047684,42312.5,42658.60000002384,42975.700000047684,43578.800000071526,44150.800000071526,44698,45069.90000009537,45711,46240.200000047684,46536.200000047684,47122.60000002384,47669.300000071526,48225.40000009537,48551.800000071526,48895.5,49210.40000009537,49465,50737.90000009537,51828.10000002384,52512.200000047684,52797,53316,55328.5,56033.300000071526,56399.800000071526,57018.90000009537,57323.800000071526,57662.700000047684,58279,58758.10000002384,59140.10000002384,59413,59795.200000047684,60765.300000071526,61473.700000047684,61816.5],"key_events":[],"mouse_events":[1522.8000000715256,3664.100000023842,4017,4351,4682.100000023842,5118.400000095367,8937.600000023842,9193.900000095367,9522.900000095367,9926.100000023842,10342,11043.200000047684,11359.200000047684,11718,12015.700000047684,12366.100000023842,12629.300000071526,12925.400000095367,13244.200000047684,13539.600000023842,13850.5,14173.600000023842,14506.700000047684,14994.600000023842,15323.700000047684,15896,16313.800000071526,16615,17003,17329,17642.5,17948.100000023842,18293.100000023842,18682.400000095367,20656.400000095367,20964.600000023842,26821.600000023842,27228.300000071526,27577.200000047684,28178.5,29107.600000023842,29621.700000047684,30922.800000071526,31285.100000023842,32288.800000071526,32851.200000047684,33249.300000071526,33620.40000009537,34033.60000002384,35013.40000009537,35341.40000009537,35710.800000071526,36319.700000047684,36936.90000009537,37235,37479.800000071526,37826.90000009537,38140.200000047684,38489.5,38875,39189.200000047684,39605.200000047684,40016.200000047684,40830.5,41081.300000071526,41573.40000009537,41962.700000047684,42312.5,42658.60000002384,42975.700000047684,43275.800000071526,43578.800000071526,43858.90000009537,44150.800000071526,44698,45069.90000009537,45711,46021.90000009537,46240.200000047684,46536.200000047684,46829.10000002384,47122.60000002384,47669.300000071526,48225.40000009537,48551.800000071526,48895.5,49210.40000009537,49465,50321.60000002384,50737.90000009537,51577.800000071526,51828.10000002384,52209.10000002384,52512.200000047684,52797,53316,53920.200000047684,54355,54639.300000071526,55328.5,55794.5,56033.300000071526,56399.800000071526,56708.800000071526,57018.90000009537,57323.800000071526,57662.700000047684,58017.700000047684,58279,58758.10000002384,59140.10000002384,59413,59795.200000047684,60437.700000047684,60765.300000071526,61473.700000047684,61816.5,62199.60000002384],"honeypot":0,"survey":"mace","page":9,"trial_type":"survey-mace","trial_index":17,"time_elapsed":343485,"internal_node_id":"0.0-17.0","task_version":"prescreen-v0.3","browser_interactions":0},{"responses":{"01":"No","02":"No","03":"No","04":"No","05":"No","06":"Yes","06_ages_17":"17","07":"Yes","07_ages_1":"1","07_ages_2":"2","07_ages_3":"3","07_ages_4":"4","07_ages_5":"5","07_ages_6":"6","07_ages_7":"7","07_ages_8":"8","07_ages_9":"9","07_ages_10":"10","07_ages_11":"11","07_ages_12":"12","07_ages_13":"13","07_ages_14":"14","07_ages_15":"15","07_ages_16":"16","07_ages_17":"17","07_ages_18":"18","08":"Yes","08_ages_1":"1","08_ages_2":"2","08_ages_3":"3","08_ages_4":"4","08_ages_5":"5","08_ages_6":"6","08_ages_7":"7","08_ages_8":"8","08_ages_9":"9","08_ages_10":"10","08_ages_11":"11","08_ages_12":"12","08_ages_13":"13","08_ages_14":"14","08_ages_15":"15","08_ages_16":"16","08_ages_17":"17","08_ages_18":"18"},"rt":38726.10000002384,"item_order":[0,1,2,3,4,5,6,7],"radio_events":[2753.5,3714.1999999284744,5477,6045.699999928474,7373.399999976158,8583.299999952316,13553.299999952316,17111.100000023842],"checkbox_events":[9644.299999952316,19038,19391.799999952316,19659.799999952316,20010.100000023842,20325.899999976158,20901.399999976158,21525.199999928474,21810.5,22132.199999928474,22781,23303.5,23682.399999976158,24069.600000023842,24468.600000023842,24798.199999928474,25181.699999928474,25603.899999976158,25934.699999928474,26179.899999976158,26427.899999976158,27115.199999928474,27473,28084.5,28895.199999928474,30567.600000023842,30863.600000023842,31431.699999928474,32027.799999952316,32968.89999997616,33627,34696.299999952316,34978.199999928474,35421.199999928474,35762.199999928474,36352.299999952316,37085.299999952316,37482.10000002384,37841.699999928474],"key_events":[],"mouse_events":[2040.3999999761581,2753.5,3149.6999999284744,3714.1999999284744,4512,5477,6045.699999928474,6720.100000023842,7373.399999976158,8583.299999952316,9644.299999952316,10387.5,11596.799999952316,12552.100000023842,13553.299999952316,17111.100000023842,19038,19391.799999952316,19659.799999952316,20010.100000023842,20325.899999976158,20577.399999976158,20901.399999976158,21244.299999952316,21525.199999928474,21810.5,22132.199999928474,22441.5,22781,23039.299999952316,23303.5,23682.399999976158,24069.600000023842,24468.600000023842,24798.199999928474,25181.699999928474,25603.899999976158,25934.699999928474,26179.899999976158,26427.899999976158,27115.199999928474,27473,27771.199999928474,28084.5,28409.100000023842,28895.199999928474,29244.199999928474,29520.399999976158,29901.299999952316,30567.600000023842,30863.600000023842,31431.699999928474,31754.600000023842,32027.799999952316,32968.89999997616,33627,34311,34696.299999952316,34978.199999928474,35421.199999928474,35762.199999928474,36084.199999928474,36352.299999952316,36640.5,37085.299999952316,37482.10000002384,37841.699999928474,38723.89999997616],"honeypot":0,"survey":"mace","page":10,"trial_type":"survey-mace","trial_index":18,"time_elapsed":382214,"internal_node_id":"0.0-18.0","task_version":"prescreen-v0.3","browser_interactions":0,"instructed":0},{"rt":2039,"trial_type":"mental-health-alert","trial_index":19,"time_elapsed":384254,"internal_node_id":"0.0-19.0","task_version":"prescreen-v0.3","interactions":"[]"}]