[{"view_history":[{"page_index":0,"viewing_time":6205.300000011921},{"page_index":1,"viewing_time":2387.7999999821186},{"page_index":2,"viewing_time":2252.100000023842},{"page_index":3,"viewing_time":740.2999999821186}],"rt":11586.200000017881,"trial_type":"instructions","trial_index":0,"time_elapsed":11599,"internal_node_id":"0.0-0.0","task_version":"prescreen-v0.3"},{"rt":18019.90000000596,"responses":{"age":"25","gender-categorical":"Male","gender-free-response":"","ethnicity":"Not Hispanic or Latino","race":["American Indian/Alaska Native","White"],"education":"High school","siblings":"2"},"trial_type":"survey-demo","trial_index":1,"time_elapsed":29623,"internal_node_id":"0.0-1.0","task_version":"prescreen-v0.3"},{"responses":{"Q16":"2","Q18":"1","Q09":"2","Q01":"2","Q02":"2","Q19":"1","Q11":"2","Q12":"2","Q20":"0","Q21":"3","Q05":"0","Q17":"0","Q03":"0","Q10":"2","Q13":"2","Q07":"2","Q08":"2","Q04":"1","Q06":"1","Q14":"2","Q15":"3"},"rt":1091955.7999999821,"item_order":[15,17,8,0,1,18,10,11,19,20,4,16,2,9,12,6,7,3,5,13,14],"radio_events":[429327.59999999404,430429.6999999881,430675.59999999404,439460.7999999821,447649.6999999881,449375.90000000596,453900.59999999404,460459,461255.2999999821,801607.7999999821,804357,806555.2999999821,806881.900000006,807070,833179.1999999881,834562.099999994,836455.5,840030.099999994,842854.1999999881,930812.7999999821,932636.900000006,1041925.6999999881,1045964.099999994,1051063.099999994,1056015.400000006,1063352.099999994,1066804.7999999821,1090807.400000006,1091335.5],"key_events":[],"mouse_events":[421839.09999999404,424555.1999999881,427971.2999999821,429327.59999999404,429951.6999999881,430173.59999999404,430429.6999999881,430675.59999999404,439460.7999999821,442267.1999999881,447649.6999999881,448218.1999999881,448611.6999999881,449375.90000000596,450700.09999999404,453900.59999999404,456995,459335,459871.09999999404,460459,461255.2999999821,801607.7999999821,803675.599999994,804357,806017.900000006,806404,806555.2999999821,806881.900000006,807070,832800.7999999821,833179.1999999881,834205.2999999821,834378.7999999821,834562.099999994,836073.599999994,836455.5,840030.099999994,842854.1999999881,930812.7999999821,932636.900000006,1040941.5,1041925.6999999881,1045964.099999994,1048532.599999994,1051063.099999994,1052295,1055431.2999999821,1056015.400000006,1063352.099999994,1066804.7999999821,1090339.400000006,1090807.400000006,1091335.5,1091605.599999994,1091953.900000006],"straightlining":0.5238095238095238,"zigzagging":0.45,"honeypot":0,"survey":"sns","trial_type":"survey-template","trial_index":2,"time_elapsed":1121584,"internal_node_id":"0.0-2.0","task_version":"prescreen-v0.3","browser_interactions":10,"infrequency":0},{"responses":{"Q05":"3","Q01":"2","Q02":"0","Q04":"1","Q13":"0","Q06":"2","Q12":"2","Q10":"2","Q08":"3","Q09":"2","Q11":"2","Q03":"1","Q07":"3"},"rt":148811.59999999404,"item_order":[4,0,1,3,12,5,11,9,7,8,10,2,6],"radio_events":[21889.899999976158,25260.09999999404,28260.399999976158,31577,33165.29999998212,37735.5,43574.29999998212,78528.39999997616,83253.59999999404,110916.09999999404,135347.19999998808,144742.19999998808,145098.59999999404,148176.89999997616],"key_events":[],"mouse_events":[21889.899999976158,24760.19999998808,25260.09999999404,27858.5,28260.399999976158,30634.899999976158,31278.79999998212,31577,33165.29999998212,37193.5,37735.5,38635.79999998212,42125.79999998212,43010.19999998808,43574.29999998212,77316.39999997616,77656.19999998808,78050.39999997616,78278.29999998212,78528.39999997616,82468.79999998212,82823.09999999404,83253.59999999404,110390.19999998808,110916.09999999404,134424.79999998212,134797.09999999404,135073,135347.19999998808,136951.5,137473.5,144742.19999998808,145098.59999999404,147371.59999999404,148176.89999997616,148537.19999998808,148810.69999998808],"straightlining":0.46153846153846156,"zigzagging":0.5,"honeypot":0,"survey":"bisbas","trial_type":"survey-template","trial_index":3,"time_elapsed":1270399,"internal_node_id":"0.0-3.0","task_version":"prescreen-v0.3","browser_interactions":0,"infrequency":0},{"responses":{"Q01":"2","Q02":"2","Q03":"2"},"rt":16285.199999988079,"radio_events":[7975.0999999940395,9005.90000000596,12913.799999982119,15820],"key_events":[],"mouse_events":[7616.9000000059605,7975.0999999940395,9005.90000000596,11711.59999999404,12579.59999999404,12913.799999982119,15820,16284.5],"survey":"map","page":1,"trial_type":"survey-map","trial_index":4,"time_elapsed":1286687,"internal_node_id":"0.0-4.0","task_version":"prescreen-v0.3","browser_interactions":0},{"responses":{"Q04":"3","Q05":"3","Q06":"3"},"rt":9479.90000000596,"radio_events":[2388.800000011921,4180.800000011921,6167.4000000059605,7855.200000017881,9209.40000000596],"key_events":[],"mouse_events":[1114.4000000059605,2056.7000000178814,2388.800000011921,2872.600000023842,3371,4018.7000000178814,4180.800000011921,5655.300000011921,6167.4000000059605,7319.100000023842,7653.200000017881,7855.200000017881,8447.200000017881,8905.300000011921,9209.40000000596,9479.5],"survey":"map","page":2,"trial_type":"survey-map","trial_index":5,"time_elapsed":1296170,"internal_node_id":"0.0-5.0","task_version":"prescreen-v0.3","browser_interactions":0},{"responses":{"Q07":"2","Q08":"0","Q09":"3"},"rt":9554.799999982119,"radio_events":[3368.0999999940395,5569.799999982119,7552.299999982119,9262.199999988079],"key_events":[],"mouse_events":[1377.5,3368.0999999940395,5569.799999982119,7181.799999982119,7552.299999982119,8392.09999999404,8684.799999982119,8970.09999999404,9262.199999988079,9554.40000000596],"survey":"map","page":3,"trial_type":"survey-map","trial_index":6,"time_elapsed":1305727,"internal_node_id":"0.0-6.0","task_version":"prescreen-v0.3","browser_interactions":0},{"responses":{"Q10":"3","Q11":"3","Q12":"2","Q13":"2","Q16":"0","Q14":"3","Q15":"2"},"rt":145435,"radio_events":[7844.100000023842,121879.40000000596,125347.80000001192,132709.10000002384,133666.70000001788,137053.10000002384,144761.80000001192],"key_events":[],"mouse_events":[7844.100000023842,121879.40000000596,124773.10000002384,125043.70000001788,125347.80000001192,129780.20000001788,132709.10000002384,133666.70000001788,136218.90000000596,136603,137053.10000002384,143270,143540,144496.20000001788,144761.80000001192,145220,145434],"survey":"map","page":4,"trial_type":"survey-map","trial_index":7,"time_elapsed":1451164,"internal_node_id":"0.0-7.0","task_version":"prescreen-v0.3","browser_interactions":2,"infrequency":0},{"view_history":[{"page_index":0,"viewing_time":2293.5},{"page_index":1,"viewing_time":6508.700000017881}],"rt":8802.800000011921,"trial_type":"instructions","trial_index":8,"time_elapsed":1459969,"internal_node_id":"0.0-8.0","task_version":"prescreen-v0.3"},{"responses":{"01":"Yes","01_ages_9":"9","01_ages_10":"10","01_ages_11":"11","01_ages_12":"12","01_ages_13":"13","01_ages_14":"14","01_ages_15":"15","01_ages_16":"16","01_ages_17":"17","01_ages_18":"18","02":"Yes","02_ages_9":"9","02_ages_10":"10","02_ages_11":"11","02_ages_12":"12","02_ages_13":"13","02_ages_14":"14","02_ages_15":"15","02_ages_16":"16","02_ages_17":"17","02_ages_18":"18","03":"Yes","03_ages_10":"10","03_ages_11":"11","03_ages_12":"12","03_ages_13":"13","03_ages_14":"14","03_ages_15":"15","04":"No","05":"No","06":"No"},"rt":54659.30000001192,"item_order":[0,1,2,3,4,5],"radio_events":[12125.700000017881,28301.90000000596,39699,48752.30000001192,49356,50156.20000001788,51728.40000000596,54046.70000001788],"checkbox_events":[17396.70000001788,17852.40000000596,18278.5,19626.70000001788,20038.70000001788,20362.59999999404,20964.80000001192,24063.40000000596,24629.30000001192,26655.70000001788,32556.40000000596,32944.40000000596,33252.20000001788,33706.20000001788,34434.20000001788,35002.30000001192,35254.40000000596,35550.5,36756.59999999404,37154.80000001192,41761.20000001788,41999.20000001788,42931.30000001192,43205.40000000596,43788,44053.59999999404,44377.40000000596,45772],"key_events":[],"mouse_events":[0.4000000059604645,11191.700000017881,11886.09999999404,12125.700000017881,17396.70000001788,17852.40000000596,18278.5,19276.5,19626.70000001788,20038.70000001788,20362.59999999404,20964.80000001192,24063.40000000596,24629.30000001192,26216.30000001192,26655.70000001788,28301.90000000596,32556.40000000596,32944.40000000596,33252.20000001788,33706.20000001788,33964.20000001788,34434.20000001788,34682.5,35002.30000001192,35254.40000000596,35550.5,36096.5,36510.40000000596,36756.59999999404,37154.80000001192,37752.59999999404,39192.70000001788,39502.70000001788,39699,40386.90000000596,41761.20000001788,41999.20000001788,42349.09999999404,42931.30000001192,43205.40000000596,43547.5,43788,44053.59999999404,44377.40000000596,45439.70000001788,45772,48752.30000001192,49356,50156.20000001788,51728.40000000596,54046.70000001788,54656.90000000596],"honeypot":0,"survey":"mace","page":1,"trial_type":"survey-mace","trial_index":9,"time_elapsed":1514634,"internal_node_id":"0.0-9.0","task_version":"prescreen-v0.3","browser_interactions":0},{"responses":{"01":"Yes","01_ages_10":"10","01_ages_11":"11","01_ages_12":"12","01_ages_13":"13","01_ages_14":"14","01_ages_15":"15","02":"No","03":"Yes","03_ages_6":"6","03_ages_7":"7","03_ages_8":"8","03_ages_9":"9","03_ages_10":"10","03_ages_11":"11","04":"Yes","04_ages_6":"6","04_ages_7":"7","04_ages_8":"8","04_ages_9":"9","04_ages_10":"10","04_ages_11":"11","05":"Yes","05_ages_6":"6","05_ages_7":"7","05_ages_8":"8","05_ages_9":"9","05_ages_10":"10","06":"No","07":"No","08":"No"},"rt":62892.20000001788,"item_order":[0,1,2,3,4,5,6,7],"radio_events":[23789.40000000596,31540.30000001192,33006.40000000596,46059.90000000596,54881.10000002384,59763.70000001788,61527.90000000596,62651.90000000596],"checkbox_events":[25009.600000023842,26270,26515.80000001192,26788.100000023842,27509.90000000596,28088.20000001788,34926.70000001788,35966.80000001192,36999,38169.20000001788,38575.10000002384,38859.10000002384,39483.10000002384,41124,42011.30000001192,42349.70000001788,44091.80000001192,47638.5,48154.20000001788,48828,49160.40000000596,49606.40000000596,50366.70000001788,51136.90000000596,56755.20000001788,57043.30000001192,57339.40000000596,57632.10000002384,58365.10000002384,58485.60000002384,58933.60000002384],"key_events":[],"mouse_events":[23789.40000000596,25009.600000023842,25213.600000023842,25539.40000000596,25827.600000023842,26270,26515.80000001192,26788.100000023842,27064.40000000596,27259.80000001192,27509.90000000596,28088.20000001788,31320.30000001192,31540.30000001192,32689.100000023842,33006.40000000596,34926.70000001788,35319.20000001788,35966.80000001192,36999,38169.20000001788,38575.10000002384,38859.10000002384,39153.20000001788,39483.10000002384,41124,42011.30000001192,42349.70000001788,44091.80000001192,46059.90000000596,47638.5,48154.20000001788,48828,49160.40000000596,49606.40000000596,50366.70000001788,51136.90000000596,54881.10000002384,56755.20000001788,57043.30000001192,57339.40000000596,57632.10000002384,58067.30000001192,58365.10000002384,58485.60000002384,58933.60000002384,59763.70000001788,60667.60000002384,61527.90000000596,61819.90000000596,62651.90000000596,62888.70000001788],"honeypot":0,"survey":"mace","page":2,"trial_type":"survey-mace","trial_index":10,"time_elapsed":1577532,"internal_node_id":"0.0-10.0","task_version":"prescreen-v0.3","browser_interactions":0},{"responses":{"01":"No","02":"No","03":"No","04":"No"},"rt":7064.800000011921,"item_order":[0,1,2,3],"radio_events":[4392,5224.200000017881,6129.9000000059605,6778.600000023842],"checkbox_events":[],"key_events":[],"mouse_events":[2903.600000023842,3561.600000023842,3895.7000000178814,4241.100000023842,4392,4997.800000011921,5224.200000017881,5772.100000023842,5922.200000017881,6129.9000000059605,6246.300000011921,6577.800000011921,6778.600000023842,7062.800000011921],"honeypot":0,"survey":"mace","page":3,"trial_type":"survey-mace","trial_index":11,"time_elapsed":1584600,"internal_node_id":"0.0-11.0","task_version":"prescreen-v0.3","browser_interactions":0},{"responses":{"01":"No","02":"No"},"rt":2758.7000000178814,"item_order":[0,1],"radio_events":[1928.7000000178814,2434.5999999940395],"checkbox_events":[],"key_events":[],"mouse_events":[1444.4000000059605,1928.7000000178814,2434.5999999940395,2757.800000011921],"honeypot":0,"survey":"mace","page":4,"trial_type":"survey-mace","trial_index":12,"time_elapsed":1587362,"internal_node_id":"0.0-12.0","task_version":"prescreen-v0.3","browser_interactions":0},{"responses":{"01":"Yes","01_ages_6":"6","02":"No","03":"No","04":"No","05":"No"},"rt":34605.39999997616,"item_order":[0,1,2,3,4],"radio_events":[714.5999999940395,11548,17442.59999999404,22679.29999998212,28878.09999999404,33612.89999997616],"checkbox_events":[25077.5],"key_events":[],"mouse_events":[714.5999999940395,1344.5,9553.699999988079,11123.799999982119,11548,16338.59999999404,16708.29999998212,16850.59999999404,16988.5,17274.59999999404,17442.59999999404,17594.5,22679.29999998212,25077.5,28878.09999999404,29528,29934.399999976158,30628.19999998808,31058.59999999404,32148.69999998808,33212.39999997616,33612.89999997616,34602.89999997616],"honeypot":0,"survey":"mace","page":5,"trial_type":"survey-mace","trial_index":13,"time_elapsed":1621971,"internal_node_id":"0.0-13.0","task_version":"prescreen-v0.3","browser_interactions":0},{"responses":{"01":"Yes","01_ages_8":"8","01_ages_9":"9","01_ages_10":"10","01_ages_11":"11","01_ages_12":"12","01_ages_13":"13","01_ages_14":"14","01_ages_15":"15","02":"Yes","02_ages_8":"8","02_ages_9":"9","02_ages_10":"10","02_ages_11":"11","02_ages_12":"12","02_ages_13":"13","02_ages_14":"14","02_ages_15":"15","03":"Yes","03_ages_8":"8","03_ages_9":"9","03_ages_10":"10","03_ages_11":"11","03_ages_12":"12","03_ages_13":"13","03_ages_14":"14","03_ages_15":"15","04":"Yes","04_ages_8":"8","04_ages_9":"9","04_ages_10":"10","04_ages_11":"11","04_ages_12":"12","04_ages_13":"13","04_ages_14":"14","04_ages_15":"15","04_ages_16":"16","04_ages_17":"17","04_ages_18":"18","05":"Yes","05_ages_6":"6","05_ages_7":"7","05_ages_8":"8","05_ages_9":"9","05_ages_10":"10","05_ages_11":"11","05_ages_12":"12","05_ages_13":"13"},"rt":44102.80000001192,"item_order":[0,1,2,3,4],"radio_events":[2719.600000023842,11690.700000017881,19699.600000023842,28108.40000000596,36879.60000002384,38107.90000000596,38988],"checkbox_events":[6190,6547.9000000059605,7178.200000017881,7606,7950.100000023842,9232.700000017881,12549.600000023842,12762.700000017881,13046.700000017881,14008.90000000596,14348.90000000596,14882.200000017881,15475,16195.300000011921,16941.100000023842,17463.70000001788,20779.5,21013.70000001788,21957.80000001192,22593.80000001192,23064.100000023842,23462.30000001192,24484.100000023842,24842.5,28828.600000023842,29536.40000000596,30162.70000001788,30532.80000001192,30885,32167.100000023842,33021,33289.30000001192,33637.20000001788,34509.40000000596,34883.40000000596,40105.90000000596,40339.80000001192,40916,41416.10000002384,42582.20000001788,42882.5,43360.10000002384,43624.40000000596],"key_events":[],"mouse_events":[2719.600000023842,6190,6547.9000000059605,6786.600000023842,7178.200000017881,7606,7950.100000023842,9232.700000017881,11690.700000017881,12549.600000023842,12762.700000017881,13046.700000017881,13422.800000011921,13694.600000023842,14008.90000000596,14348.90000000596,14882.200000017881,15475,16195.300000011921,16541.20000001788,16941.100000023842,17153.30000001192,17463.70000001788,19353.600000023842,19699.600000023842,20779.5,21013.70000001788,21441.80000001192,21957.80000001192,22343.80000001192,22593.80000001192,23064.100000023842,23462.30000001192,23906.100000023842,24220,24484.100000023842,24842.5,26242.100000023842,28108.40000000596,28828.600000023842,29132.70000001788,29536.40000000596,29904.5,30162.70000001788,30532.80000001192,30885,31174.90000000596,31510.90000000596,31879.40000000596,32167.100000023842,32469.100000023842,33021,33289.30000001192,33637.20000001788,33961.40000000596,34197.5,34509.40000000596,34883.40000000596,35441.5,36879.60000002384,37821.80000001192,38107.90000000596,38988,40105.90000000596,40339.80000001192,40603.90000000596,40916,41180.40000000596,41416.10000002384,41682.30000001192,41864.20000001788,42230.20000001788,42582.20000001788,42882.5,43360.10000002384,43624.40000000596,44100.5],"honeypot":0,"survey":"mace","page":6,"trial_type":"survey-mace","trial_index":14,"time_elapsed":1666078,"internal_node_id":"0.0-14.0","task_version":"prescreen-v0.3","browser_interactions":0},{"responses":{"01":"No","02":"No","03":"No","04":"No","05":"No","06":"No","07":"No"},"rt":12017.199999988079,"item_order":[0,1,2,3,4,5,6],"radio_events":[2461.199999988079,6663.5,7547.5999999940395,8707.799999982119,10430,11088.5,11640.199999988079],"checkbox_events":[],"key_events":[],"mouse_events":[2066.9000000059605,2461.199999988079,5363.4000000059605,5843.199999988079,6061.699999988079,6213.199999988079,6341.4000000059605,6663.5,6939.199999988079,7237.5999999940395,7547.5999999940395,8263.5,8531.5,8707.799999982119,8937.799999982119,9151.699999988079,9303.699999988079,9783.699999988079,9910,10430,11088.5,11640.199999988079,12014.199999988079],"honeypot":0,"survey":"mace","page":7,"trial_type":"survey-mace","trial_index":15,"time_elapsed":1678100,"internal_node_id":"0.0-15.0","task_version":"prescreen-v0.3","browser_interactions":0},{"responses":{"01":"No","02":"No","03":"No","04":"No"},"rt":9607.90000000596,"item_order":[0,1,2,3],"radio_events":[6099.4000000059605,7347.700000017881,8153.800000011921,8468,9238.100000023842],"checkbox_events":[],"key_events":[],"mouse_events":[5891.300000011921,6099.4000000059605,7024.9000000059605,7347.700000017881,8153.800000011921,8468,8945.800000011921,9238.100000023842,9606.100000023842],"honeypot":0,"survey":"mace","page":8,"trial_type":"survey-mace","trial_index":16,"time_elapsed":1687712,"internal_node_id":"0.0-16.0","task_version":"prescreen-v0.3","browser_interactions":0},{"responses":{"01":"Yes","01_ages_1":"1","01_ages_2":"2","01_ages_3":"3","01_ages_4":"4","01_ages_5":"5","01_ages_6":"6","01_ages_7":"7","01_ages_8":"8","01_ages_9":"9","01_ages_10":"10","01_ages_11":"11","01_ages_12":"12","01_ages_13":"13","01_ages_14":"14","01_ages_15":"15","01_ages_16":"16","01_ages_17":"17","01_ages_18":"18","02":"Yes","02_ages_1":"1","02_ages_2":"2","02_ages_3":"3","02_ages_4":"4","02_ages_5":"5","02_ages_6":"6","02_ages_7":"7","02_ages_8":"8","02_ages_9":"9","02_ages_10":"10","02_ages_11":"11","02_ages_12":"12","02_ages_13":"13","02_ages_14":"14","02_ages_15":"15","02_ages_16":"16","02_ages_17":"17","02_ages_18":"18","03":"Yes","03_ages_1":"1","03_ages_2":"2","03_ages_3":"3","03_ages_4":"4","03_ages_5":"5","03_ages_6":"6","03_ages_7":"7","03_ages_8":"8","03_ages_9":"9","03_ages_10":"10","03_ages_11":"11","03_ages_12":"12","03_ages_13":"13","03_ages_14":"14","03_ages_15":"15","03_ages_16":"16","03_ages_17":"17","03_ages_18":"18","04":"Yes","04_ages_1":"1","04_ages_2":"2","04_ages_3":"3","04_ages_4":"4","04_ages_5":"5","04_ages_6":"6","04_ages_7":"7","04_ages_8":"8","04_ages_9":"9","04_ages_10":"10","04_ages_11":"11","04_ages_12":"12","04_ages_13":"13","04_ages_14":"14","04_ages_15":"15","04_ages_16":"16","04_ages_17":"17","04_ages_18":"18"},"rt":54614.69999998808,"item_order":[0,1,2,3],"radio_events":[2358.5,17156.29999998212,28795.79999998212,43021.5],"checkbox_events":[5755.0999999940395,6219.199999988079,6688.699999988079,7195.0999999940395,7865.199999988079,8133.299999982119,9465.299999982119,10343.40000000596,10715.5,11257.699999988079,11599.5,12239.699999988079,13101.90000000596,13415.799999982119,13953.90000000596,14310,14736.199999988079,15479.09999999404,17942.29999998212,18250.90000000596,18490.40000000596,18908.40000000596,19584.59999999404,19924.69999998808,20634.69999998808,20930.69999998808,21366.69999998808,22835,23405.09999999404,24033.59999999404,24287.09999999404,24571.19999998808,24941.40000000596,25273.5,26093.40000000596,26721.5,29731.59999999404,30061.79999998212,30643.69999998808,31317.79999998212,32032.29999998212,32302,33004.59999999404,33534.29999998212,34030.5,34356.5,34956.40000000596,35752.40000000596,36056.59999999404,36410.5,37295.09999999404,37558.69999998808,38354.90000000596,38972.90000000596,39845,40179.09999999404,43733.09999999404,44103.29999998212,44517.5,44939.59999999404,45295.90000000596,45947.59999999404,46619.59999999404,47369.90000000596,47734,48314,49078.40000000596,49340,49902.59999999404,50442.40000000596,51036.29999998212,51608.40000000596,52156.5,52992.5,53378.59999999404,53958.5],"key_events":[],"mouse_events":[1890.4000000059605,2358.5,5313,5755.0999999940395,6219.199999988079,6688.699999988079,6903.0999999940395,7195.0999999940395,7865.199999988079,8133.299999982119,8483.40000000596,8737.199999988079,9049.40000000596,9465.299999982119,9785.40000000596,10033.5,10343.40000000596,10715.5,10983.5,11257.699999988079,11599.5,12239.699999988079,12639.699999988079,12859.699999988079,13101.90000000596,13415.799999982119,13729.799999982119,13953.90000000596,14310,14598.40000000596,14736.199999988079,15060,15479.09999999404,16728.09999999404,17156.29999998212,17942.29999998212,18250.90000000596,18490.40000000596,18908.40000000596,19234.40000000596,19584.59999999404,19924.69999998808,20308.5,20634.69999998808,20930.69999998808,21366.69999998808,21674.79999998212,22066.90000000596,22290.69999998808,22514.69999998808,22835,23181.09999999404,23405.09999999404,23753,24033.59999999404,24287.09999999404,24571.19999998808,24941.40000000596,25273.5,25565.40000000596,25781.40000000596,26093.40000000596,26474.19999998808,26721.5,28461.5,28795.79999998212,29731.59999999404,30061.79999998212,30387.79999998212,30643.69999998808,31040.19999998808,31317.79999998212,31722,32032.29999998212,32302,32766,33004.59999999404,33534.29999998212,34030.5,34356.5,34694.59999999404,34956.40000000596,35226.5,35752.40000000596,36056.59999999404,36410.5,36772.59999999404,37295.09999999404,37558.69999998808,37993.09999999404,38354.90000000596,38646.79999998212,38972.90000000596,39845,40179.09999999404,40963.29999998212,41487.09999999404,42083.29999998212,42703.59999999404,43021.5,43733.09999999404,44103.29999998212,44517.5,44939.59999999404,45295.90000000596,45579.59999999404,45947.59999999404,46619.59999999404,46941.90000000596,47369.90000000596,47734,48314,48614.29999998212,49078.40000000596,49340,49902.59999999404,50442.40000000596,51036.29999998212,51608.40000000596,52156.5,52549,52782.40000000596,52992.5,53378.59999999404,53958.5,54613],"honeypot":0,"survey":"mace","page":9,"trial_type":"survey-mace","trial_index":17,"time_elapsed":1742330,"internal_node_id":"0.0-17.0","task_version":"prescreen-v0.3","browser_interactions":0},{"responses":{"01":"No","01_ages_15":"15","01_ages_16":"16","01_ages_17":"17","01_ages_18":"18","02":"No","03":"No","04":"Yes","04_ages_14":"14","04_ages_15":"15","04_ages_16":"16","04_ages_17":"17","04_ages_18":"18","05":"No","06":"Yes","06_ages_17":"17","07":"Yes","07_ages_1":"1","07_ages_2":"2","07_ages_3":"3","07_ages_4":"4","07_ages_5":"5","07_ages_6":"6","07_ages_7":"7","07_ages_8":"8","07_ages_9":"9","07_ages_10":"10","07_ages_11":"11","07_ages_12":"12","07_ages_13":"13","07_ages_14":"14","07_ages_15":"15","07_ages_16":"16","07_ages_17":"17","07_ages_18":"18","08":"Yes","08_ages_1":"1","08_ages_2":"2","08_ages_3":"3","08_ages_4":"4","08_ages_5":"5","08_ages_6":"6","08_ages_7":"7","08_ages_8":"8","08_ages_9":"9","08_ages_10":"10","08_ages_11":"11","08_ages_12":"12","08_ages_13":"13","08_ages_14":"14","08_ages_15":"15","08_ages_16":"16","08_ages_17":"17","08_ages_18":"18"},"rt":52738.80000001192,"item_order":[0,1,2,3,4,5,6,7],"radio_events":[3082.5,7595.9000000059605,8856.90000000596,11248.200000017881,12138.40000000596,13284.59999999404,15850,18889.30000001192,40627.80000001192,43402,51059.80000001192],"checkbox_events":[4802.0999999940395,5175.700000017881,5726,6189.5999999940395,17262.90000000596,20627.5,21133.59999999404,23265.80000001192,23563.59999999404,24031.80000001192,24682,25334.40000000596,25650.09999999404,26088,26424.09999999404,26736.09999999404,27334.40000000596,27704.09999999404,28154.30000001192,28512.5,28922.59999999404,29264.5,29572.59999999404,29943,30234.70000001788,30896.90000000596,31230.80000001192,31553,32367.30000001192,32637,33234.90000000596,33531,33853,34413.09999999404,34703.09999999404,35001.20000001788,35359.20000001788,35715.09999999404,36047.40000000596,36541.5,36877.30000001192,44094.09999999404,44368.5,44708.20000001788,44998.30000001192,45724.40000000596,46042.59999999404,47184.5],"key_events":[],"mouse_events":[2595.2000000178814,3082.5,4802.0999999940395,5011.300000011921,5175.700000017881,5726,6189.5999999940395,6551.9000000059605,7595.9000000059605,8036.0999999940395,8264.5,8406.09999999404,8526.40000000596,8856.90000000596,9034,9304,9442,9574.5,9688,9938,10088.40000000596,10554.5,11248.200000017881,11472.200000017881,11642.300000011921,11780.40000000596,12138.40000000596,12698.5,12970.59999999404,13284.59999999404,15850,17262.90000000596,18651.30000001192,18889.30000001192,19827.20000001788,20215.30000001192,20627.5,21133.59999999404,22669.30000001192,22941.59999999404,23265.80000001192,23563.59999999404,24031.80000001192,24682,25082.09999999404,25334.40000000596,25650.09999999404,26088,26424.09999999404,26736.09999999404,27074.09999999404,27334.40000000596,27704.09999999404,28154.30000001192,28512.5,28922.59999999404,29264.5,29572.59999999404,29943,30234.70000001788,30896.90000000596,31230.80000001192,31553,31852.30000001192,32367.30000001192,32637,33029.80000001192,33234.90000000596,33531,33853,34144.70000001788,34413.09999999404,34703.09999999404,35001.20000001788,35359.20000001788,35715.09999999404,36047.40000000596,36541.5,36877.30000001192,40627.80000001192,43024,43402,44094.09999999404,44368.5,44708.20000001788,44998.30000001192,45424.30000001192,45724.40000000596,46042.59999999404,46342.5,47184.5,51059.80000001192,52735.40000000596],"honeypot":0,"survey":"mace","page":10,"trial_type":"survey-mace","trial_index":18,"time_elapsed":1795075,"internal_node_id":"0.0-18.0","task_version":"prescreen-v0.3","browser_interactions":0,"instructed":0},{"rt":2469.5999999940395,"trial_type":"mental-health-alert","trial_index":19,"time_elapsed":1797546,"internal_node_id":"0.0-19.0","task_version":"prescreen-v0.3","interactions":"[{\"event\":\"blur\",\"trial\":2,\"time\":121804},{\"event\":\"focus\",\"trial\":2,\"time\":451423},{\"event\":\"blur\",\"trial\":2,\"time\":453436},{\"event\":\"focus\",\"trial\":2,\"time\":453736},{\"event\":\"blur\",\"trial\":2,\"time\":614116},{\"event\":\"focus\",\"trial\":2,\"time\":831166},{\"event\":\"blur\",\"trial\":2,\"time\":900836},{\"event\":\"focus\",\"trial\":2,\"time\":960357},{\"event\":\"blur\",\"trial\":2,\"time\":1028442},{\"event\":\"focus\",\"trial\":2,\"time\":1070460},{\"event\":\"blur\",\"trial\":7,\"time\":1315976},{\"event\":\"focus\",\"trial\":7,\"time\":1427558}]"}]