[{"view_history":[{"page_index":0,"viewing_time":2728.2999999988824},{"page_index":1,"viewing_time":3203.7000000011176},{"page_index":2,"viewing_time":1806.0999999996275},{"page_index":3,"viewing_time":1031.9000000003725}],"rt":8771.199999999255,"trial_type":"instructions","trial_index":0,"time_elapsed":8783,"internal_node_id":"0.0-0.0","task_version":"prescreen-v0.3"},{"rt":11929.700000001118,"responses":{"age":"27","gender-categorical":"Female","gender-free-response":"","ethnicity":"Not Hispanic or Latino","race":["White"],"education":"Master degree or higher"},"trial_type":"survey-demo","trial_index":1,"time_elapsed":20719,"internal_node_id":"0.0-1.0","task_version":"prescreen-v0.3"},{"responses":{"Q05":"1","Q04":"2","Q09":"3","Q06":"1","Q15":"2","Q02":"0","Q03":"1","Q20":"1","Q13":"2","Q14":"1","Q21":"3","Q18":"2","Q01":"3","Q17":"2","Q08":"1","Q11":"1","Q10":"1","Q07":"0","Q16":"1","Q19":"2","Q12":"1"},"rt":89501.30000000075,"item_order":[4,3,8,5,14,1,2,19,12,13,20,17,0,16,7,10,9,6,15,18,11],"radio_events":[14284.300000000745,17802,20950,25030,31074.5,35896.20000000112,37022.10000000149,41218.10000000149,44650.10000000149,47830.5,50754.60000000149,55497.90000000037,57398.20000000112,59704.10000000149,62932.10000000149,65974.40000000037,70166.40000000037,75653.70000000112,80398,84542.30000000075,87652.20000000112],"key_events":[],"mouse_events":[14284.300000000745,17802,20950,24171.60000000149,25030,30182.300000000745,31074.5,35896.20000000112,37022.10000000149,41218.10000000149,44650.10000000149,47830.5,50754.60000000149,55497.90000000037,57398.20000000112,59704.10000000149,62932.10000000149,65974.40000000037,70166.40000000037,75653.70000000112,80398,84542.30000000075,87652.20000000112,89498.30000000075],"straightlining":0.47619047619047616,"zigzagging":0.7,"honeypot":0,"survey":"sns","trial_type":"survey-template","trial_index":2,"time_elapsed":110225,"internal_node_id":"0.0-2.0","task_version":"prescreen-v0.3","browser_interactions":0,"infrequency":0},{"responses":{"Q08":"1","Q06":"1","Q01":"3","Q09":"2","Q07":"2","Q10":"1","Q03":"3","Q04":"3","Q13":"0","Q05":"2","Q12":"1","Q02":"2","Q11":"1"},"rt":46681.800000000745,"item_order":[7,5,0,8,6,9,2,3,12,4,11,1,10],"radio_events":[8560.300000000745,13030.10000000149,14954.10000000149,18410.10000000149,23264,25241.5,28666.800000000745,32044,34490.40000000037,37642.20000000112,41597.90000000037,43347.90000000037,45710],"key_events":[],"mouse_events":[8560.300000000745,13030.10000000149,14954.10000000149,18410.10000000149,23264,25241.5,28666.800000000745,31394,32044,34490.40000000037,37642.20000000112,41597.90000000037,43347.90000000037,45710,46680.10000000149],"straightlining":0.38461538461538464,"zigzagging":0.5,"honeypot":0,"survey":"bisbas","trial_type":"survey-template","trial_index":3,"time_elapsed":156910,"internal_node_id":"0.0-3.0","task_version":"prescreen-v0.3","browser_interactions":0,"infrequency":0},{"responses":{"Q01":"2","Q02":"1","Q03":"3"},"rt":12902.5,"radio_events":[4708.0999999996275,7717.5999999996275,12111.5],"key_events":[],"mouse_events":[4708.0999999996275,7717.5999999996275,12111.5,12901.599999999627],"survey":"map","page":1,"trial_type":"survey-map","trial_index":4,"time_elapsed":169816,"internal_node_id":"0.0-4.0","task_version":"prescreen-v0.3","browser_interactions":0},{"responses":{"Q04":"1","Q05":"1","Q06":"3"},"rt":10762.900000000373,"radio_events":[4408.5,8134.0999999996275,10160.900000000373],"key_events":[],"mouse_events":[4408.5,8134.0999999996275,10160.900000000373,10762.099999999627],"survey":"map","page":2,"trial_type":"survey-map","trial_index":5,"time_elapsed":180582,"internal_node_id":"0.0-5.0","task_version":"prescreen-v0.3","browser_interactions":0},{"responses":{"Q07":"1","Q08":"3","Q09":"2"},"rt":12675.10000000149,"radio_events":[4442.5,8938.700000001118,12154.10000000149],"key_events":[],"mouse_events":[4442.5,8938.700000001118,12154.10000000149,12674.300000000745],"survey":"map","page":3,"trial_type":"survey-map","trial_index":6,"time_elapsed":193256,"internal_node_id":"0.0-6.0","task_version":"prescreen-v0.3","browser_interactions":0},{"responses":{"Q10":"1","Q11":"1","Q12":"1","Q13":"2","Q16":"0","Q14":"1","Q15":"1"},"rt":27075.900000000373,"radio_events":[5140.699999999255,7948.699999999255,10940.5,15436.199999999255,18820.799999998882,22244.699999999255,25924.799999998882],"key_events":[],"mouse_events":[5140.699999999255,7205,7948.699999999255,10940.5,14466.900000000373,15436.199999999255,18820.799999998882,22244.699999999255,25924.799999998882,27074.699999999255],"survey":"map","page":4,"trial_type":"survey-map","trial_index":7,"time_elapsed":220335,"internal_node_id":"0.0-7.0","task_version":"prescreen-v0.3","browser_interactions":0,"infrequency":0},{"view_history":[{"page_index":0,"viewing_time":2340.2999999988824},{"page_index":1,"viewing_time":3862.300000000745}],"rt":6203.0999999996275,"trial_type":"instructions","trial_index":8,"time_elapsed":226539,"internal_node_id":"0.0-8.0","task_version":"prescreen-v0.3"},{"responses":{"01":"No","02":"Yes","02_ages_9":"9","02_ages_10":"10","02_ages_11":"11","02_ages_12":"12","02_ages_13":"13","02_ages_14":"14","02_ages_15":"15","02_ages_16":"16","02_ages_17":"17","03":"Yes","03_ages_14":"14","03_ages_15":"15","03_ages_16":"16","03_ages_17":"17","04":"No","05":"No","06":"No"},"rt":52424.90000000037,"item_order":[0,1,2,3,4,5],"radio_events":[11064.700000001118,13642.599999999627,20600.5,46330.09999999963,47753.90000000037,50083.59999999963],"checkbox_events":[30119.700000001118,31144.200000001118,32013.800000000745,32856.70000000112,33480.90000000037,34496.20000000112,35356.40000000037,36145.70000000112,36786.300000000745,41523.90000000037,42266.300000000745,42697.09999999963,43330.20000000112],"key_events":[],"mouse_events":[0.09999999962747097,11064.700000001118,13642.599999999627,20600.5,30119.700000001118,31144.200000001118,32013.800000000745,32856.70000000112,33480.90000000037,34496.20000000112,35356.40000000037,36145.70000000112,36786.300000000745,41523.90000000037,42266.300000000745,42697.09999999963,43330.20000000112,46330.09999999963,47753.90000000037,50083.59999999963,52420.90000000037],"honeypot":0,"survey":"mace","page":1,"trial_type":"survey-mace","trial_index":9,"time_elapsed":278967,"internal_node_id":"0.0-9.0","task_version":"prescreen-v0.3","browser_interactions":0},{"responses":{"01":"No","02":"No","03":"Yes","03_ages_5":"5","03_ages_6":"6","03_ages_7":"7","03_ages_8":"8","04":"No","05":"No","06":"No","07":"No","08":"No"},"rt":20738,"item_order":[0,1,2,3,4,5,6,7],"radio_events":[2780.2999999988824,4986.9000000003725,7300.5,15366.299999998882,16632.099999999627,17728.599999999627,19032.5,19954.599999999627],"checkbox_events":[9607.299999998882,10248.299999998882,10724.099999999627,11863.599999999627],"key_events":[],"mouse_events":[2780.2999999988824,4986.9000000003725,7300.5,9607.299999998882,10248.299999998882,10724.099999999627,11442.400000000373,11863.599999999627,15366.299999998882,16632.099999999627,17728.599999999627,19032.5,19954.599999999627,20736.199999999255],"honeypot":0,"survey":"mace","page":2,"trial_type":"survey-mace","trial_index":10,"time_elapsed":299709,"internal_node_id":"0.0-10.0","task_version":"prescreen-v0.3","browser_interactions":0},{"responses":{"01":"No","02":"No","03":"No","04":"No"},"rt":8996.300000000745,"item_order":[0,1,2,3],"radio_events":[5303.0999999996275,6273.300000000745,7509.4000000003725,8429.5],"checkbox_events":[],"key_events":[],"mouse_events":[5303.0999999996275,6273.300000000745,7509.4000000003725,8429.5,8993.900000000373],"honeypot":0,"survey":"mace","page":3,"trial_type":"survey-mace","trial_index":11,"time_elapsed":308705,"internal_node_id":"0.0-11.0","task_version":"prescreen-v0.3","browser_interactions":0},{"responses":{"01":"No","02":"No"},"rt":7486.0999999996275,"item_order":[0,1],"radio_events":[6374.5,7007.199999999255],"checkbox_events":[],"key_events":[],"mouse_events":[4974.4000000003725,6374.5,7007.199999999255,7484.4000000003725],"honeypot":0,"survey":"mace","page":4,"trial_type":"survey-mace","trial_index":12,"time_elapsed":316194,"internal_node_id":"0.0-12.0","task_version":"prescreen-v0.3","browser_interactions":0},{"responses":{"01":"Yes","01_ages_15":"15","01_ages_16":"16","01_ages_17":"17","02":"No","03":"No","04":"No","05":"No"},"rt":30918.39999999851,"item_order":[0,1,2,3,4],"radio_events":[9970.199999999255,21072,24840.5,27833.89999999851,30046],"checkbox_events":[15748.39999999851,16388.199999999255,17022.199999999255],"key_events":[],"mouse_events":[9970.199999999255,15748.39999999851,16388.199999999255,17022.199999999255,21072,24840.5,27833.89999999851,30046,30914.599999997765],"honeypot":0,"survey":"mace","page":5,"trial_type":"survey-mace","trial_index":13,"time_elapsed":347117,"internal_node_id":"0.0-13.0","task_version":"prescreen-v0.3","browser_interactions":0},{"responses":{"01":"No","02":"Yes","02_ages_14":"14","02_ages_15":"15","02_ages_16":"16","02_ages_17":"17","03":"Yes","03_ages_14":"14","03_ages_15":"15","03_ages_16":"16","03_ages_17":"17","04":"Yes","04_ages_14":"14","04_ages_15":"15","05":"No"},"rt":28308.89999999851,"item_order":[0,1,2,3,4],"radio_events":[7575.5,12164,18339.800000000745,22872.89999999851,27376.199999999255],"checkbox_events":[13744.099999997765,14360.39999999851,14883.39999999851,15727.599999997765,19707.599999997765,20223.5,20738.89999999851,21270.800000000745,25273.599999997765,26023.300000000745],"key_events":[],"mouse_events":[7575.5,12164,13345.800000000745,13744.099999997765,14360.39999999851,14883.39999999851,15727.599999997765,18339.800000000745,19270,19707.599999997765,20223.5,20738.89999999851,21270.800000000745,22872.89999999851,25273.599999997765,26023.300000000745,27376.199999999255,28305.5],"honeypot":0,"survey":"mace","page":6,"trial_type":"survey-mace","trial_index":14,"time_elapsed":375427,"internal_node_id":"0.0-14.0","task_version":"prescreen-v0.3","browser_interactions":0},{"responses":{"01":"No","02":"No","03":"No","04":"No","05":"No","06":"No","07":"No"},"rt":12912.20000000298,"item_order":[0,1,2,3,4,5,6],"radio_events":[3735.10000000149,7576.70000000298,8694.20000000298,9624.300000000745,10866.300000000745,11626,12368.60000000149],"checkbox_events":[],"key_events":[],"mouse_events":[3735.10000000149,5619.900000002235,7576.70000000298,8694.20000000298,9624.300000000745,10866.300000000745,11626,12368.60000000149,12908.400000002235],"honeypot":0,"survey":"mace","page":7,"trial_type":"survey-mace","trial_index":15,"time_elapsed":388344,"internal_node_id":"0.0-15.0","task_version":"prescreen-v0.3","browser_interactions":0},{"responses":{"01":"No","02":"No","03":"No","04":"No"},"rt":15729.60000000149,"item_order":[0,1,2,3],"radio_events":[6902.20000000298,10148.400000002235,13828.400000002235,14689],"checkbox_events":[],"key_events":[],"mouse_events":[6902.20000000298,10148.400000002235,13828.400000002235,14689,15728.300000000745],"honeypot":0,"survey":"mace","page":8,"trial_type":"survey-mace","trial_index":16,"time_elapsed":404076,"internal_node_id":"0.0-16.0","task_version":"prescreen-v0.3","browser_interactions":0},{"responses":{"01":"Yes","01_ages_1":"1","01_ages_2":"2","01_ages_3":"3","01_ages_4":"4","01_ages_5":"5","01_ages_6":"6","01_ages_7":"7","01_ages_8":"8","01_ages_9":"9","01_ages_10":"10","01_ages_11":"11","01_ages_12":"12","01_ages_13":"13","01_ages_14":"14","01_ages_15":"15","01_ages_16":"16","01_ages_17":"17","01_ages_18":"18","02":"Yes","02_ages_1":"1","02_ages_2":"2","02_ages_3":"3","02_ages_4":"4","02_ages_5":"5","02_ages_6":"6","02_ages_7":"7","02_ages_8":"8","02_ages_9":"9","02_ages_10":"10","02_ages_11":"11","02_ages_12":"12","02_ages_13":"13","02_ages_14":"14","02_ages_15":"15","02_ages_16":"16","02_ages_17":"17","02_ages_18":"18","03":"Yes","03_ages_1":"1","03_ages_2":"2","03_ages_3":"3","03_ages_4":"4","03_ages_5":"5","03_ages_6":"6","03_ages_7":"7","03_ages_8":"8","03_ages_9":"9","03_ages_10":"10","03_ages_11":"11","03_ages_12":"12","03_ages_13":"13","03_ages_14":"14","03_ages_15":"15","03_ages_16":"16","03_ages_17":"17","03_ages_18":"18","04":"Yes","04_ages_1":"1","04_ages_2":"2","04_ages_3":"3","04_ages_4":"4","04_ages_5":"5","04_ages_6":"6","04_ages_7":"7","04_ages_8":"8","04_ages_9":"9","04_ages_10":"10","04_ages_11":"11","04_ages_12":"12","04_ages_13":"13","04_ages_14":"14","04_ages_15":"15","04_ages_16":"16","04_ages_17":"17","04_ages_18":"18"},"rt":61440.5,"item_order":[0,1,2,3],"radio_events":[2608.199999999255,18460,33968.800000000745,36696.099999997765],"checkbox_events":[6267.099999997765,6775,7408.89999999851,7948.5,9580.599999997765,10129,10589,11230.39999999851,11775.800000000745,12254.800000000745,12738.599999997765,13208.5,13717.300000000745,14397.199999999255,14896.89999999851,15512.89999999851,16052,16654.39999999851,19594.5,20476.599999997765,21290.300000000745,22040.5,22526.699999999255,23064.89999999851,23986,24462.599999997765,24916.5,25526.300000000745,26002.39999999851,26894.599999997765,27311.199999999255,27698.39999999851,28200.5,28755.199999999255,29331.800000000745,30098,37729.099999997765,38212.5,40228,40777.199999999255,41300.89999999851,41902.199999999255,43136.5,43792.39999999851,44216.099999997765,44692.89999999851,45098.199999999255,45623.39999999851,46052.699999999255,46490.699999999255,46967.199999999255,47449.800000000745,47858.300000000745,48350.099999997765,49154.099999997765,49608.699999999255,50275,50687.39999999851,51243.39999999851,51611,52173,54261.199999999255,55268.39999999851,55816.5,56574.099999997765,57182.599999997765,57708.39999999851,58482.599999997765,59154.800000000745,59638.800000000745,60186.89999999851,60749],"key_events":[],"mouse_events":[2608.199999999255,6267.099999997765,6775,7408.89999999851,7948.5,9580.599999997765,10129,10589,11230.39999999851,11775.800000000745,12254.800000000745,12738.599999997765,13208.5,13717.300000000745,14397.199999999255,14896.89999999851,15512.89999999851,16052,16654.39999999851,18460,19594.5,19992.300000000745,20476.599999997765,21290.300000000745,22040.5,22526.699999999255,23064.89999999851,23470.39999999851,23986,24462.599999997765,24916.5,25526.300000000745,26002.39999999851,26486.699999999255,26894.599999997765,27311.199999999255,27698.39999999851,28200.5,28755.199999999255,29331.800000000745,30098,32560.599999997765,32921.5,33968.800000000745,36163.800000000745,36696.099999997765,37729.099999997765,38212.5,38822,39408.5,40228,40777.199999999255,41300.89999999851,41902.199999999255,42386.800000000745,43136.5,43792.39999999851,44216.099999997765,44692.89999999851,45098.199999999255,45623.39999999851,46052.699999999255,46490.699999999255,46967.199999999255,47449.800000000745,47858.300000000745,48350.099999997765,49154.099999997765,49608.699999999255,50275,50687.39999999851,51243.39999999851,51611,52173,52602.199999999255,53237.599999997765,54261.199999999255,55268.39999999851,55816.5,56574.099999997765,57182.599999997765,57708.39999999851,58482.599999997765,58896.5,59154.800000000745,59638.800000000745,60186.89999999851,60749,61437.5],"honeypot":0,"survey":"mace","page":9,"trial_type":"survey-mace","trial_index":17,"time_elapsed":465518,"internal_node_id":"0.0-17.0","task_version":"prescreen-v0.3","browser_interactions":0},{"responses":{"01":"No","02":"No","03":"Yes","03_ages_8":"8","03_ages_9":"9","03_ages_10":"10","03_ages_11":"11","03_ages_12":"12","03_ages_13":"13","03_ages_14":"14","03_ages_15":"15","03_ages_16":"16","03_ages_17":"17","03_ages_18":"18","04":"Yes","04_ages_5":"5","04_ages_6":"6","04_ages_7":"7","04_ages_8":"8","04_ages_9":"9","04_ages_10":"10","04_ages_11":"11","04_ages_12":"12","04_ages_13":"13","05":"Yes","05_ages_8":"8","05_ages_9":"9","05_ages_10":"10","05_ages_11":"11","05_ages_12":"12","05_ages_13":"13","05_ages_14":"14","05_ages_15":"15","06":"Yes","06_ages_17":"17","07":"Yes","07_ages_1":"1","07_ages_2":"2","07_ages_3":"3","07_ages_4":"4","07_ages_5":"5","07_ages_6":"6","07_ages_7":"7","07_ages_8":"8","07_ages_9":"9","07_ages_10":"10","07_ages_11":"11","07_ages_12":"12","07_ages_13":"13","07_ages_14":"14","07_ages_15":"15","07_ages_16":"16","07_ages_17":"17","07_ages_18":"18","08":"Yes","08_ages_10":"10","08_ages_11":"11","08_ages_12":"12","08_ages_13":"13","08_ages_14":"14","08_ages_15":"15","08_ages_16":"16","08_ages_17":"17","08_ages_18":"18"},"rt":87996.69999999925,"item_order":[0,1,2,3,4,5,6,7],"radio_events":[8050.10000000149,9050.199999999255,19187.800000000745,21017.5,39582.199999999255,48664,51948.10000000149,65859.5,66744.19999999925],"checkbox_events":[10474.10000000149,11250.300000000745,11756.699999999255,12191.900000002235,12982.300000000745,14154.199999999255,14600.10000000149,15085.699999999255,15454.400000002235,16037.5,17070,32430.60000000149,32868,33416.10000000149,34268,34978.5,35798,36628.300000000745,37174.199999999255,37768.199999999255,40453.300000000745,40847.800000000745,42138.300000000745,42630.400000002235,43263.5,43568.699999999255,44148.199999999255,44780.10000000149,45427.5,46070,49883.800000000745,53252.199999999255,53838.199999999255,54284.699999999255,54746.800000000745,55361.800000000745,55872.199999999255,56278,56692.199999999255,57105.60000000149,57764.699999999255,58341.699999999255,58802.199999999255,59293.900000002235,59732.199999999255,60492.10000000149,60909.400000002235,61734.5,62257.699999999255,70136.19999999925,71216.40000000224,82834.19999999925,83232,84116.19999999925,84709.19999999925,85498.69999999925,85944.60000000149,86350,86820.10000000149,87545.90000000224],"key_events":[],"mouse_events":[7198,8050.10000000149,9050.199999999255,10474.10000000149,11250.300000000745,11756.699999999255,12191.900000002235,12982.300000000745,13538.900000002235,14154.199999999255,14600.10000000149,15085.699999999255,15454.400000002235,16037.5,17070,19187.800000000745,21017.5,32430.60000000149,32868,33416.10000000149,33892.300000000745,34268,34978.5,35798,36628.300000000745,37174.199999999255,37768.199999999255,39582.199999999255,40453.300000000745,40847.800000000745,41457.300000000745,42138.300000000745,42630.400000002235,43263.5,43568.699999999255,44148.199999999255,44780.10000000149,45427.5,46070,48664,49883.800000000745,51948.10000000149,53252.199999999255,53838.199999999255,54284.699999999255,54746.800000000745,55361.800000000745,55872.199999999255,56278,56692.199999999255,57105.60000000149,57764.699999999255,58341.699999999255,58802.199999999255,59293.900000002235,59732.199999999255,60187.800000000745,60492.10000000149,60909.400000002235,61304.10000000149,61734.5,62257.699999999255,65859.5,66744.19999999925,70136.19999999925,71216.40000000224,82834.19999999925,83232,84116.19999999925,84709.19999999925,85178.10000000149,85498.69999999925,85944.60000000149,86350,86820.10000000149,87219.69999999925,87545.90000000224,87992.19999999925],"honeypot":0,"survey":"mace","page":10,"trial_type":"survey-mace","trial_index":18,"time_elapsed":553514,"internal_node_id":"0.0-18.0","task_version":"prescreen-v0.3","browser_interactions":0,"instructed":0},{"rt":7332.39999999851,"trial_type":"mental-health-alert","trial_index":19,"time_elapsed":560848,"internal_node_id":"0.0-19.0","task_version":"prescreen-v0.3","interactions":"[]"}]