[{"view_history":[{"page_index":0,"viewing_time":3931.10000000149},{"page_index":1,"viewing_time":3409.300000000745},{"page_index":2,"viewing_time":3293.89999999851},{"page_index":3,"viewing_time":1030.699999999255}],"rt":11666.800000000745,"trial_type":"instructions","trial_index":0,"time_elapsed":11680,"internal_node_id":"0.0-0.0","task_version":"prescreen-v0.3"},{"rt":19292.699999999255,"responses":{"age":"18","gender-categorical":"Female","gender-free-response":"","ethnicity":"Not Hispanic or Latino","race":["White"],"education":"Some college"},"trial_type":"survey-demo","trial_index":1,"time_elapsed":30981,"internal_node_id":"0.0-1.0","task_version":"prescreen-v0.3"},{"responses":{"Q07":"1","Q11":"1","Q09":"2","Q13":"2","Q02":"1","Q06":"2","Q18":"2","Q16":"2","Q12":"1","Q10":"1","Q17":"0","Q03":"1","Q15":"2","Q05":"1","Q20":"2","Q21":"3","Q04":"2","Q19":"2","Q14":"3","Q08":"2","Q01":"1"},"rt":104507.69999999925,"item_order":[6,10,8,12,1,5,17,15,11,9,16,2,14,4,19,20,3,18,13,7,0],"radio_events":[16430.5,23518.89999999851,26668.89999999851,30546.5,35859.099999997765,45500.199999999255,46174.39999999851,50621.599999997765,55130,57857.699999999255,61714.099999997765,64703.5,69855.5,76456.59999999776,78977.29999999702,82177.69999999925,88685.89999999851,92883.29999999702,98230.19999999925,100806.69999999925,103636.89999999851],"key_events":[],"mouse_events":[16430.5,23518.89999999851,26668.89999999851,30546.5,35859.099999997765,40894.099999997765,44532.599999997765,45500.199999999255,46174.39999999851,50621.599999997765,55130,57857.699999999255,61714.099999997765,64703.5,69855.5,76456.59999999776,78977.29999999702,82177.69999999925,88685.89999999851,92883.29999999702,98230.19999999925,100806.69999999925,102891.79999999702,103636.89999999851,104501.39999999851],"straightlining":0.47619047619047616,"zigzagging":0.7,"honeypot":0,"survey":"sns","trial_type":"survey-template","trial_index":2,"time_elapsed":135499,"internal_node_id":"0.0-2.0","task_version":"prescreen-v0.3","browser_interactions":0,"infrequency":0},{"responses":{"Q01":"3","Q05":"2","Q03":"2","Q02":"2","Q08":"2","Q13":"0","Q12":"1","Q06":"2","Q07":"3","Q09":"1","Q11":"1","Q04":"3","Q10":"1"},"rt":45822.60000000149,"item_order":[0,4,2,1,7,12,11,5,6,8,10,3,9],"radio_events":[2814.900000002235,8872.800000000745,12229.199999999255,13664.900000002235,18762.60000000149,20721.5,28348,31851.60000000149,34114.699999999255,37101.199999999255,40759.5,43186.10000000149,44898.5],"key_events":[],"mouse_events":[2814.900000002235,8872.800000000745,12229.199999999255,13664.900000002235,18762.60000000149,20721.5,28348,31851.60000000149,34114.699999999255,37101.199999999255,40759.5,43186.10000000149,44898.5,45818.60000000149],"straightlining":0.38461538461538464,"zigzagging":0.3333333333333333,"honeypot":0,"survey":"bisbas","trial_type":"survey-template","trial_index":3,"time_elapsed":181328,"internal_node_id":"0.0-3.0","task_version":"prescreen-v0.3","browser_interactions":0,"infrequency":0},{"responses":{"Q01":"3","Q02":"2","Q03":"2"},"rt":13218.300000000745,"radio_events":[5762.599999997765,8903,12345.39999999851],"key_events":[],"mouse_events":[5762.599999997765,8903,12345.39999999851,13216.300000000745],"survey":"map","page":1,"trial_type":"survey-map","trial_index":4,"time_elapsed":194551,"internal_node_id":"0.0-4.0","task_version":"prescreen-v0.3","browser_interactions":0},{"responses":{"Q04":"1","Q05":"2","Q06":"1"},"rt":18752.89999999851,"radio_events":[7906.300000000745,14226.39999999851,17904.800000000745],"key_events":[],"mouse_events":[7906.300000000745,14226.39999999851,17904.800000000745,18751.199999999255],"survey":"map","page":2,"trial_type":"survey-map","trial_index":5,"time_elapsed":213309,"internal_node_id":"0.0-5.0","task_version":"prescreen-v0.3","browser_interactions":0},{"responses":{"Q07":"1","Q08":"1","Q09":"2"},"rt":15587.39999999851,"radio_events":[8222.60000000149,12131.800000000745,14038],"key_events":[],"mouse_events":[8222.60000000149,12131.800000000745,14038,15585.5],"survey":"map","page":3,"trial_type":"survey-map","trial_index":6,"time_elapsed":228900,"internal_node_id":"0.0-6.0","task_version":"prescreen-v0.3","browser_interactions":0},{"responses":{"Q10":"1","Q11":"2","Q12":"2","Q13":"3","Q16":"0","Q14":"1","Q15":"1"},"rt":75114.90000000224,"radio_events":[18987.70000000298,21842.20000000298,42068.20000000298,47830.800000000745,48795.900000002235,53459.60000000149,69369.70000000298,71972.90000000224],"key_events":[],"mouse_events":[18987.70000000298,21842.20000000298,42068.20000000298,47830.800000000745,48795.900000002235,53459.60000000149,69369.70000000298,71972.90000000224,75111.20000000298],"survey":"map","page":4,"trial_type":"survey-map","trial_index":7,"time_elapsed":304020,"internal_node_id":"0.0-7.0","task_version":"prescreen-v0.3","browser_interactions":0,"infrequency":0},{"view_history":[{"page_index":0,"viewing_time":2603.10000000149},{"page_index":1,"viewing_time":5042.39999999851}],"rt":7646.89999999851,"trial_type":"instructions","trial_index":8,"time_elapsed":311669,"internal_node_id":"0.0-8.0","task_version":"prescreen-v0.3"},{"responses":{"01":"No","02":"Yes","02_ages_12":"12","02_ages_13":"13","02_ages_14":"14","03":"Yes","03_ages_17":"17","04":"No","05":"No","06":"No"},"rt":57460.89999999851,"item_order":[0,1,2,3,4,5],"radio_events":[5558.5,7168.699999999255,42043.10000000149,47324.10000000149,48434.60000000149,51289.5],"checkbox_events":[21489.39999999851,22020.89999999851,22964.60000000149,45397.60000000149],"key_events":[],"mouse_events":[0.10000000149011612,5558.5,7168.699999999255,21489.39999999851,22020.89999999851,22964.60000000149,42043.10000000149,45397.60000000149,47324.10000000149,48434.60000000149,51289.5,57451.699999999255],"honeypot":0,"survey":"mace","page":1,"trial_type":"survey-mace","trial_index":9,"time_elapsed":369142,"internal_node_id":"0.0-9.0","task_version":"prescreen-v0.3","browser_interactions":0},{"responses":{"01":"No","02":"No","03":"Yes","03_ages_3":"3","03_ages_4":"4","03_ages_5":"5","03_ages_6":"6","03_ages_7":"7","04":"No","05":"No","06":"No","07":"No","08":"No"},"rt":22708.699999999255,"item_order":[0,1,2,3,4,5,6,7],"radio_events":[2569.199999999255,5310.89999999851,6905.39999999851,15530.800000000745,18361.5,19648.10000000149,20851.699999999255,21963.300000000745],"checkbox_events":[9742.39999999851,10886.699999999255,11471.300000000745,12123.39999999851,12852.199999999255],"key_events":[],"mouse_events":[2569.199999999255,5310.89999999851,6905.39999999851,9742.39999999851,10886.699999999255,11471.300000000745,12123.39999999851,12852.199999999255,15530.800000000745,18361.5,19648.10000000149,20851.699999999255,21963.300000000745,22697.60000000149],"honeypot":0,"survey":"mace","page":2,"trial_type":"survey-mace","trial_index":10,"time_elapsed":391857,"internal_node_id":"0.0-10.0","task_version":"prescreen-v0.3","browser_interactions":0},{"responses":{"01":"No","02":"No","03":"No","04":"No"},"rt":16459.300000000745,"item_order":[0,1,2,3],"radio_events":[8874.300000000745,13536.89999999851,14639.39999999851,15543.199999999255],"checkbox_events":[],"key_events":[],"mouse_events":[8874.300000000745,13536.89999999851,14639.39999999851,15543.199999999255,16452.5],"honeypot":0,"survey":"mace","page":3,"trial_type":"survey-mace","trial_index":11,"time_elapsed":408321,"internal_node_id":"0.0-11.0","task_version":"prescreen-v0.3","browser_interactions":0},{"responses":{"01":"No","02":"No"},"rt":6382.300000000745,"item_order":[0,1],"radio_events":[4297.10000000149,5293.60000000149],"checkbox_events":[],"key_events":[],"mouse_events":[4297.10000000149,5293.60000000149,6378.800000000745],"honeypot":0,"survey":"mace","page":4,"trial_type":"survey-mace","trial_index":12,"time_elapsed":414707,"internal_node_id":"0.0-12.0","task_version":"prescreen-v0.3","browser_interactions":0},{"responses":{"01":"No","02":"No","03":"No","04":"No","05":"No"},"rt":14888.800000000745,"item_order":[0,1,2,3,4],"radio_events":[6966.5,7989,10979,13204.300000000745,14142.900000002235],"checkbox_events":[],"key_events":[],"mouse_events":[6966.5,7989,10979,13204.300000000745,14142.900000002235,14880.300000000745],"honeypot":0,"survey":"mace","page":5,"trial_type":"survey-mace","trial_index":13,"time_elapsed":429601,"internal_node_id":"0.0-13.0","task_version":"prescreen-v0.3","browser_interactions":0},{"responses":{"01":"No","02":"No","03":"No","04":"No","05":"No"},"rt":19318.89999999851,"item_order":[0,1,2,3,4],"radio_events":[6465.10000000149,7939.800000000745,9604.5,11158.800000000745,18629.199999999255],"checkbox_events":[],"key_events":[],"mouse_events":[6465.10000000149,7939.800000000745,9604.5,11158.800000000745,18629.199999999255,19310.699999999255],"honeypot":0,"survey":"mace","page":6,"trial_type":"survey-mace","trial_index":14,"time_elapsed":448925,"internal_node_id":"0.0-14.0","task_version":"prescreen-v0.3","browser_interactions":0},{"responses":{"01":"No","02":"No","03":"No","04":"No","05":"No","06":"No","07":"No"},"rt":17964.099999997765,"item_order":[0,1,2,3,4,5,6],"radio_events":[2778.5,11126.29999999702,11935.099999997765,13501.599999997765,15170.5,16295.699999999255,17168.29999999702],"checkbox_events":[],"key_events":[],"mouse_events":[2778.5,9490.199999999255,11126.29999999702,11935.099999997765,13501.599999997765,15170.5,16295.699999999255,17168.29999999702,17953.699999999255],"honeypot":0,"survey":"mace","page":7,"trial_type":"survey-mace","trial_index":15,"time_elapsed":466895,"internal_node_id":"0.0-15.0","task_version":"prescreen-v0.3","browser_interactions":0},{"responses":{"01":"Yes","01_ages_14":"14","01_ages_15":"15","01_ages_16":"16","01_ages_17":"17","01_ages_18":"18","02":"Yes","02_ages_5":"5","02_ages_6":"6","02_ages_7":"7","02_ages_8":"8","02_ages_9":"9","02_ages_10":"10","03":"Yes","03_ages_10":"10","03_ages_11":"11","03_ages_12":"12","03_ages_13":"13","03_ages_14":"14","03_ages_15":"15","03_ages_16":"16","03_ages_17":"17","03_ages_18":"18","04":"No"},"rt":58754.800000000745,"item_order":[0,1,2,3],"radio_events":[18236.800000000745,30170.60000000149,40058.199999999255,55415.199999999255],"checkbox_events":[23652.5,24231.60000000149,24738.60000000149,25286.10000000149,25880.400000002235,32803.10000000149,33318.400000002235,33841.900000002235,34325,35403.699999999255,38147.5,44234.900000002235,44641.199999999255,45125.199999999255,45601,46151.199999999255,46725.60000000149,47202.5,47699.900000002235,48828.300000000745],"key_events":[],"mouse_events":[18236.800000000745,21558.199999999255,23652.5,24231.60000000149,24738.60000000149,25286.10000000149,25880.400000002235,30170.60000000149,32803.10000000149,33318.400000002235,33841.900000002235,34325,34832.60000000149,35403.699999999255,38147.5,40058.199999999255,44234.900000002235,44641.199999999255,45125.199999999255,45601,46151.199999999255,46725.60000000149,47202.5,47699.900000002235,48249.60000000149,48828.300000000745,55415.199999999255,58748.10000000149],"honeypot":0,"survey":"mace","page":8,"trial_type":"survey-mace","trial_index":16,"time_elapsed":525655,"internal_node_id":"0.0-16.0","task_version":"prescreen-v0.3","browser_interactions":0},{"responses":{"01":"Yes","01_ages_4":"4","01_ages_5":"5","01_ages_6":"6","01_ages_7":"7","01_ages_8":"8","01_ages_9":"9","01_ages_17":"17","01_ages_18":"18","02":"Yes","02_ages_4":"4","02_ages_5":"5","02_ages_6":"6","02_ages_7":"7","02_ages_8":"8","02_ages_9":"9","02_ages_17":"17","02_ages_18":"18","03":"Yes","03_ages_4":"4","03_ages_5":"5","03_ages_6":"6","03_ages_7":"7","03_ages_8":"8","03_ages_9":"9","04":"Yes","04_ages_1":"1","04_ages_2":"2","04_ages_3":"3","04_ages_4":"4","04_ages_5":"5","04_ages_6":"6","04_ages_7":"7","04_ages_8":"8","04_ages_9":"9","04_ages_10":"10","04_ages_11":"11","04_ages_12":"12","04_ages_13":"13","04_ages_14":"14","04_ages_15":"15","04_ages_16":"16","04_ages_17":"17","04_ages_18":"18"},"rt":75934.89999999851,"item_order":[0,1,2,3],"radio_events":[5336.89999999851,27965,40867.5,52459.599999997765],"checkbox_events":[9285.89999999851,9858.599999997765,10365,12389,22113.39999999851,22763.199999999255,23326.199999999255,24410.199999999255,25102.5,25750.29999999702,29144.199999999255,29596.199999999255,31866.699999999255,33563.79999999702,34491.89999999851,34999.29999999702,36434.39999999851,37108.5,46283.5,46743.29999999702,47734.39999999851,48194.39999999851,48725,49367,62823.699999999255,63425.5,64996,65487.89999999851,66412.39999999851,66978.39999999851,67525.79999999702,68073.09999999776,68667.89999999851,69242.89999999851,70562.29999999702,71147.09999999776,71736.19999999925,72497.59999999776,73028.29999999702,73591.69999999925,74707.19999999925,75222.19999999925],"key_events":[],"mouse_events":[5336.89999999851,9285.89999999851,9858.599999997765,10365,12389,22113.39999999851,22763.199999999255,23326.199999999255,23762.39999999851,24410.199999999255,25102.5,25750.29999999702,27965,29144.199999999255,29596.199999999255,31866.699999999255,32255.699999999255,32984.89999999851,33563.79999999702,34063.29999999702,34491.89999999851,34999.29999999702,35562.699999999255,36434.39999999851,37108.5,40867.5,46283.5,46743.29999999702,47203,47734.39999999851,48194.39999999851,48725,49367,52459.599999997765,62823.699999999255,63425.5,64036.599999997765,64996,65487.89999999851,66412.39999999851,66978.39999999851,67525.79999999702,68073.09999999776,68667.89999999851,69242.89999999851,69816.79999999702,70562.29999999702,71147.09999999776,71736.19999999925,72497.59999999776,73028.29999999702,73591.69999999925,74226.09999999776,74707.19999999925,75222.19999999925,75928.29999999702],"honeypot":0,"survey":"mace","page":9,"trial_type":"survey-mace","trial_index":17,"time_elapsed":601595,"internal_node_id":"0.0-17.0","task_version":"prescreen-v0.3","browser_interactions":0},{"responses":{"01":"No","02":"No","03":"No","04":"No","05":"No","06":"Yes","06_ages_17":"17","07":"No","08":"No"},"rt":26516,"item_order":[0,1,2,3,4,5,6,7],"radio_events":[2377.39999999851,3509.300000000745,7855.599999997765,12621.300000000745,14674.699999999255,18322.099999997765,24458.800000000745,25725.099999997765],"checkbox_events":[16012.300000000745],"key_events":[],"mouse_events":[2377.39999999851,3509.300000000745,7855.599999997765,12621.300000000745,14674.699999999255,16012.300000000745,18322.099999997765,24458.800000000745,25725.099999997765,26505.099999997765],"honeypot":0,"survey":"mace","page":10,"trial_type":"survey-mace","trial_index":18,"time_elapsed":628118,"internal_node_id":"0.0-18.0","task_version":"prescreen-v0.3","browser_interactions":0,"instructed":0},{"rt":8740.800000000745,"trial_type":"mental-health-alert","trial_index":19,"time_elapsed":636862,"internal_node_id":"0.0-19.0","task_version":"prescreen-v0.3","interactions":"[]"}]