[{"view_history":[{"page_index":0,"viewing_time":1188},{"page_index":1,"viewing_time":923.4000000059605},{"page_index":2,"viewing_time":584.2999999821186},{"page_index":3,"viewing_time":1007.0999999940395}],"rt":3705.0999999940395,"trial_type":"instructions","trial_index":0,"time_elapsed":3715,"internal_node_id":"0.0-0.0","task_version":"prescreen-v0.3"},{"rt":17883.79999998212,"responses":{"age":"22","gender-categorical":"Female","gender-free-response":"","ethnicity":"Not Hispanic or Latino","race":["White"],"education":"Bachelor degree"},"trial_type":"survey-demo","trial_index":1,"time_elapsed":21609,"internal_node_id":"0.0-1.0","task_version":"prescreen-v0.3"},{"responses":{"Q12":"0","Q03":"0","Q20":"0","Q02":"1","Q16":"1","Q05":"0","Q08":"1","Q21":"3","Q11":"2","Q19":"1","Q06":"0","Q04":"1","Q07":"0","Q10":"1","Q15":"1","Q01":"2","Q14":"1","Q18":"2","Q09":"1","Q17":"1","Q13":"1"},"rt":97484.5,"item_order":[11,2,19,1,15,4,7,20,10,18,5,3,6,9,14,0,13,17,8,16,12],"radio_events":[8353.59999999404,10188.09999999404,11556.59999999404,15482,21524.20000001788,27042.90000000596,29660.20000001788,32290.5,33978.70000001788,37378.59999999404,43731.5,46433,52819.09999999404,57794.70000001788,63209,68215.70000001788,74434,77800.80000001192,82283.30000001192,85913.80000001192,86813.09999999404,92590.30000001192,95219.80000001192,95801.80000001192],"key_events":[],"mouse_events":[8353.59999999404,10188.09999999404,11556.59999999404,13562.5,15482,21524.20000001788,26439.40000000596,27042.90000000596,29660.20000001788,32290.5,33978.70000001788,37378.59999999404,43731.5,45795.70000001788,46433,52819.09999999404,57269.40000000596,57794.70000001788,63209,68215.70000001788,74434,77800.80000001192,82283.30000001192,85913.80000001192,86813.09999999404,92590.30000001192,94515,95219.80000001192,95801.80000001192,97480.20000001788],"straightlining":0.5238095238095238,"zigzagging":0.65,"honeypot":0,"survey":"sns","trial_type":"survey-template","trial_index":2,"time_elapsed":119098,"internal_node_id":"0.0-2.0","task_version":"prescreen-v0.3","browser_interactions":0,"infrequency":0},{"responses":{"Q07":"2","Q03":"3","Q04":"3","Q06":"3","Q01":"3","Q12":"3","Q11":"2","Q13":"0","Q08":"2","Q05":"2","Q10":"2","Q02":"3","Q09":"3"},"rt":148069.09999999404,"item_order":[6,2,3,5,0,11,10,12,7,4,9,1,8],"radio_events":[101216.90000000596,105417.29999998212,108216.69999998808,111621.09999999404,113743,114357.29999998212,120413.59999999404,127040,131883.5,135602.59999999404,137168.29999998212,140808.19999998808,146087.90000000596],"key_events":[],"mouse_events":[100552.5,101216.90000000596,105417.29999998212,108216.69999998808,111621.09999999404,113743,114357.29999998212,115385.19999998808,115997.19999998808,120413.59999999404,125592,126582.09999999404,127040,129655,131883.5,135104.29999998212,135602.59999999404,136193.59999999404,137168.29999998212,137750,138413.79999998212,140808.19999998808,143083.59999999404,146087.90000000596,148065.29999998212],"straightlining":0.5384615384615384,"zigzagging":0.25,"honeypot":0,"survey":"bisbas","trial_type":"survey-template","trial_index":3,"time_elapsed":267166,"internal_node_id":"0.0-3.0","task_version":"prescreen-v0.3","browser_interactions":0,"infrequency":0},{"responses":{"Q01":"1","Q02":"1","Q03":"3"},"rt":15504.300000011921,"radio_events":[5460.699999988079,8639.09999999404,9663.09999999404,14741.199999988079],"key_events":[],"mouse_events":[5460.699999988079,8639.09999999404,9663.09999999404,13654.699999988079,14184.699999988079,14741.199999988079,15502.699999988079],"survey":"map","page":1,"trial_type":"survey-map","trial_index":4,"time_elapsed":282677,"internal_node_id":"0.0-4.0","task_version":"prescreen-v0.3","browser_interactions":0},{"responses":{"Q04":"2","Q05":"2","Q06":"3"},"rt":8280.199999988079,"radio_events":[3633.0999999940395,5811.699999988079,7605.5],"key_events":[],"mouse_events":[2215.4000000059605,3633.0999999940395,5811.699999988079,7605.5,8278.40000000596],"survey":"map","page":2,"trial_type":"survey-map","trial_index":5,"time_elapsed":290961,"internal_node_id":"0.0-5.0","task_version":"prescreen-v0.3","browser_interactions":0},{"responses":{"Q07":"4","Q08":"4","Q09":"3"},"rt":10719.59999999404,"radio_events":[4477.299999982119,6776.299999982119,10046.5],"key_events":[],"mouse_events":[3935.399999976158,4477.299999982119,6776.299999982119,10046.5,10717.799999982119],"survey":"map","page":3,"trial_type":"survey-map","trial_index":6,"time_elapsed":301685,"internal_node_id":"0.0-6.0","task_version":"prescreen-v0.3","browser_interactions":0},{"responses":{"Q10":"2","Q11":"3","Q12":"0","Q13":"1","Q16":"0","Q14":"3","Q15":"3"},"rt":32371.59999999404,"radio_events":[8559.300000011921,10934.59999999404,14909.300000011921,17686.09999999404,19168.70000001788,24281.30000001192,28394,31417.40000000596],"key_events":[],"mouse_events":[6306.5999999940395,7971,8559.300000011921,10934.59999999404,14909.300000011921,17686.09999999404,18714.90000000596,19168.70000001788,22916.40000000596,24281.30000001192,28394,31417.40000000596,32368.30000001192],"survey":"map","page":4,"trial_type":"survey-map","trial_index":7,"time_elapsed":334061,"internal_node_id":"0.0-7.0","task_version":"prescreen-v0.3","browser_interactions":0,"infrequency":0},{"view_history":[{"page_index":0,"viewing_time":3727.5},{"page_index":1,"viewing_time":3587.7999999821186}],"rt":7316.799999982119,"trial_type":"instructions","trial_index":8,"time_elapsed":341380,"internal_node_id":"0.0-8.0","task_version":"prescreen-v0.3"},{"responses":{"01":"Yes","01_ages_6":"6","01_ages_7":"7","01_ages_8":"8","01_ages_9":"9","01_ages_10":"10","01_ages_11":"11","01_ages_12":"12","01_ages_13":"13","01_ages_14":"14","01_ages_15":"15","02":"Yes","02_ages_4":"4","02_ages_5":"5","02_ages_6":"6","02_ages_7":"7","02_ages_8":"8","02_ages_9":"9","02_ages_10":"10","02_ages_11":"11","02_ages_12":"12","02_ages_13":"13","02_ages_14":"14","02_ages_15":"15","02_ages_16":"16","02_ages_17":"17","02_ages_18":"18","03":"No","04":"No","05":"No","06":"No"},"rt":42866,"item_order":[0,1,2,3,4,5],"radio_events":[6241.9000000059605,21817.79999998212,36555,38472,40424.09999999404,41792.59999999404],"checkbox_events":[10157.199999988079,11697.299999982119,12221.5,12869.40000000596,13868.699999988079,14967.40000000596,15982.59999999404,16981.90000000596,18023,19153.90000000596,24249.69999998808,24831.09999999404,25446.5,26068.90000000596,26634.19999998808,27216.19999998808,27790.09999999404,28319.79999998212,29001.09999999404,29591.59999999404,30714.29999998212,31255.29999998212,31812.40000000596,32430,33049],"key_events":[],"mouse_events":[0.4000000059604645,6241.9000000059605,10157.199999988079,10722.90000000596,11222.09999999404,11697.299999982119,12221.5,12869.40000000596,13442.59999999404,13868.699999988079,14384.799999982119,14967.40000000596,15523,15982.59999999404,16490.90000000596,16981.90000000596,17564.59999999404,18023,18670.69999998808,19153.90000000596,21817.79999998212,24249.69999998808,24831.09999999404,25446.5,26068.90000000596,26634.19999998808,27216.19999998808,27790.09999999404,28319.79999998212,29001.09999999404,29591.59999999404,30222.19999998808,30714.29999998212,31255.29999998212,31812.40000000596,32430,33049,36555,38472,40424.09999999404,41792.59999999404,42859],"honeypot":0,"survey":"mace","page":1,"trial_type":"survey-mace","trial_index":9,"time_elapsed":384256,"internal_node_id":"0.0-9.0","task_version":"prescreen-v0.3","browser_interactions":0},{"responses":{"01":"No","02":"No","03":"No","04":"No","05":"No","06":"No","07":"No","08":"No"},"rt":19420.20000001788,"item_order":[0,1,2,3,4,5,6,7],"radio_events":[3836.100000023842,5694.700000017881,8201.5,9400.700000017881,11488.300000011921,13896.200000017881,15027.600000023842,18321],"checkbox_events":[],"key_events":[],"mouse_events":[2498.100000023842,3836.100000023842,5694.700000017881,8201.5,9400.700000017881,11488.300000011921,13896.200000017881,15027.600000023842,16075.600000023842,17280,18321,18862,19410.30000001192],"honeypot":0,"survey":"mace","page":2,"trial_type":"survey-mace","trial_index":10,"time_elapsed":403683,"internal_node_id":"0.0-10.0","task_version":"prescreen-v0.3","browser_interactions":0},{"responses":{"01":"No","02":"No","03":"No","04":"No"},"rt":7781,"item_order":[0,1,2,3],"radio_events":[2260.9000000059605,3760.2999999821186,6038,7234.199999988079],"checkbox_events":[],"key_events":[],"mouse_events":[2260.9000000059605,3760.2999999821186,5357.5999999940395,6038,6774.5,7234.199999988079,7775.9000000059605],"honeypot":0,"survey":"mace","page":3,"trial_type":"survey-mace","trial_index":11,"time_elapsed":411471,"internal_node_id":"0.0-11.0","task_version":"prescreen-v0.3","browser_interactions":0},{"responses":{"01":"No","02":"No"},"rt":6128,"item_order":[0,1],"radio_events":[3691.5999999940395,4502.699999988079],"checkbox_events":[],"key_events":[],"mouse_events":[3691.5999999940395,4502.699999988079,6125],"honeypot":0,"survey":"mace","page":4,"trial_type":"survey-mace","trial_index":12,"time_elapsed":417603,"internal_node_id":"0.0-12.0","task_version":"prescreen-v0.3","browser_interactions":0},{"responses":{"01":"No","02":"No","03":"No","04":"No","05":"No"},"rt":13237.40000000596,"item_order":[0,1,2,3,4],"radio_events":[4587.699999988079,5675.9000000059605,7126.300000011921,9633.300000011921,12140.699999988079],"checkbox_events":[],"key_events":[],"mouse_events":[4587.699999988079,5675.9000000059605,6405.5999999940395,7126.300000011921,8027.300000011921,9633.300000011921,10460.40000000596,12140.699999988079,13230.59999999404],"honeypot":0,"survey":"mace","page":5,"trial_type":"survey-mace","trial_index":13,"time_elapsed":430848,"internal_node_id":"0.0-13.0","task_version":"prescreen-v0.3","browser_interactions":0},{"responses":{"01":"No","02":"No","03":"Yes","03_ages_10":"10","03_ages_11":"11","03_ages_12":"12","03_ages_13":"13","03_ages_14":"14","03_ages_15":"15","03_ages_16":"16","04":"No","05":"No"},"rt":30997.59999999404,"item_order":[0,1,2,3,4],"radio_events":[8487.40000000596,9240.799999982119,12174.40000000596,14124.199999988079,28075.69999998808,30394],"checkbox_events":[15671.40000000596,16697.40000000596,17343.5,17851.69999998808,18392,19064.59999999404,19612.19999998808,20179.19999998808,21244],"key_events":[],"mouse_events":[7307.4000000059605,8487.40000000596,9240.799999982119,9896.799999982119,10789.09999999404,12174.40000000596,14124.199999988079,15671.40000000596,16697.40000000596,17343.5,17851.69999998808,18392,19064.59999999404,19612.19999998808,20179.19999998808,20759.79999998212,21244,21750.79999998212,22170,28075.69999998808,30394,30991],"honeypot":0,"survey":"mace","page":6,"trial_type":"survey-mace","trial_index":14,"time_elapsed":461851,"internal_node_id":"0.0-14.0","task_version":"prescreen-v0.3","browser_interactions":0},{"responses":{"01":"No","02":"No","03":"No","04":"No","05":"No","06":"No","07":"No"},"rt":18424.5,"item_order":[0,1,2,3,4,5,6],"radio_events":[3436,5140.0999999940395,6090.5999999940395,7737.4000000059605,11932.09999999404,16111,17306.29999998212],"checkbox_events":[],"key_events":[],"mouse_events":[3436,5140.0999999940395,6090.5999999940395,7737.4000000059605,8387.90000000596,9147.699999988079,10114.5,11088.199999988079,11932.09999999404,16111,16874.90000000596,17306.29999998212,18415.5],"honeypot":0,"survey":"mace","page":7,"trial_type":"survey-mace","trial_index":15,"time_elapsed":480282,"internal_node_id":"0.0-15.0","task_version":"prescreen-v0.3","browser_interactions":0},{"responses":{"01":"No","02":"Yes","02_ages_8":"8","02_ages_9":"9","02_ages_10":"10","02_ages_11":"11","02_ages_12":"12","02_ages_13":"13","02_ages_14":"14","02_ages_15":"15","02_ages_16":"16","02_ages_17":"17","02_ages_18":"18","03":"Yes","03_ages_8":"8","03_ages_9":"9","03_ages_10":"10","03_ages_11":"11","03_ages_12":"12","03_ages_13":"13","03_ages_14":"14","03_ages_15":"15","03_ages_16":"16","03_ages_17":"17","03_ages_18":"18","04":"No"},"rt":36139.69999998808,"item_order":[0,1,2,3],"radio_events":[7706,9401.699999988079,22206.79999998212,35585.5],"checkbox_events":[11638.199999988079,12608.09999999404,13138.799999982119,13727.5,14293.59999999404,15300.59999999404,15800.299999982119,16357.799999982119,17381.899999976158,17996.09999999404,19036.69999998808,23436.09999999404,24008.59999999404,24648.09999999404,25238.79999998212,26204.899999976158,26729.79999998212,27295.399999976158,28416.69999998808,28960.5,29449.59999999404,30669.399999976158,31194.79999998212,31824.69999998808,32385.69999998808,33005.39999997616,34209.5,34872.59999999404],"key_events":[],"mouse_events":[7706,9401.699999988079,11638.199999988079,12163.5,12608.09999999404,13138.799999982119,13727.5,14293.59999999404,14874.199999988079,15300.59999999404,15800.299999982119,16357.799999982119,16933.79999998212,17381.899999976158,17996.09999999404,18528.899999976158,19036.69999998808,22206.79999998212,23436.09999999404,24008.59999999404,24648.09999999404,25238.79999998212,26204.899999976158,26729.79999998212,27295.399999976158,27862.5,28416.69999998808,28960.5,29449.59999999404,30017.29999998212,30669.399999976158,31194.79999998212,31824.69999998808,32385.69999998808,33005.39999997616,33642.89999997616,34209.5,34872.59999999404,35585.5,36134.29999998212],"honeypot":0,"survey":"mace","page":8,"trial_type":"survey-mace","trial_index":16,"time_elapsed":516426,"internal_node_id":"0.0-16.0","task_version":"prescreen-v0.3","browser_interactions":0},{"responses":{"01":"Yes","01_ages_1":"1","01_ages_2":"2","01_ages_3":"3","01_ages_4":"4","01_ages_5":"5","01_ages_6":"6","01_ages_7":"7","01_ages_8":"8","01_ages_9":"9","01_ages_10":"10","01_ages_11":"11","01_ages_12":"12","01_ages_13":"13","01_ages_14":"14","01_ages_15":"15","01_ages_16":"16","01_ages_17":"17","01_ages_18":"18","02":"Yes","02_ages_1":"1","02_ages_2":"2","02_ages_3":"3","02_ages_4":"4","02_ages_5":"5","02_ages_6":"6","02_ages_7":"7","02_ages_8":"8","02_ages_9":"9","02_ages_10":"10","02_ages_11":"11","02_ages_12":"12","02_ages_13":"13","02_ages_14":"14","02_ages_15":"15","02_ages_16":"16","02_ages_17":"17","02_ages_18":"18","03":"Yes","03_ages_1":"1","03_ages_2":"2","03_ages_3":"3","03_ages_4":"4","03_ages_5":"5","03_ages_6":"6","03_ages_7":"7","03_ages_8":"8","03_ages_9":"9","03_ages_10":"10","03_ages_11":"11","03_ages_12":"12","03_ages_13":"13","03_ages_14":"14","03_ages_15":"15","03_ages_16":"16","03_ages_17":"17","03_ages_18":"18","04":"Yes","04_ages_1":"1","04_ages_2":"2","04_ages_3":"3","04_ages_4":"4","04_ages_5":"5","04_ages_6":"6","04_ages_7":"7","04_ages_8":"8","04_ages_9":"9","04_ages_10":"10","04_ages_11":"11","04_ages_12":"12","04_ages_13":"13","04_ages_14":"14","04_ages_15":"15","04_ages_16":"16","04_ages_17":"17","04_ages_18":"18"},"rt":76632.09999999404,"item_order":[0,1,2,3],"radio_events":[3732.5,21848.29999998212,42354.69999998808,59083.90000000596],"checkbox_events":[7107.699999988079,7648.199999988079,8452.299999982119,8950.699999988079,9517.09999999404,10563.199999988079,11105.59999999404,11661.199999988079,12689.699999988079,13269.199999988079,14400.09999999404,15522.199999988079,16053.299999982119,16668.29999998212,17176.09999999404,18250,18757.69999998808,19291.69999998808,23607.59999999404,24549.5,25073.90000000596,25631.29999998212,26188.79999998212,26785.79999998212,27393.90000000596,27983.19999998808,29976.5,31039.19999998808,32227.79999998212,33439.09999999404,34094.90000000596,34725.69999998808,35315.29999998212,35998.79999998212,36741.59999999404,37364.19999998808,43824.79999998212,44330,44844.79999998212,46025.69999998808,46537.69999998808,47598.09999999404,48170.79999998212,49163.19999998808,49727.79999998212,50345.79999998212,50932.59999999404,51538.5,52111.59999999404,53204.59999999404,53742.59999999404,54300,54921.19999998808,55472.19999998808,60994.5,62083.90000000596,62706.5,64402.40000000596,66024.90000000596,66483.29999998212,66966.69999998808,68072.79999998212,68548.09999999404,69103.29999998212,69628.29999998212,70203.19999998808,71317.79999998212,71855.09999999404,72466,73349.29999998212,74742,75371.90000000596],"key_events":[],"mouse_events":[3732.5,6682.5999999940395,7107.699999988079,7648.199999988079,8452.299999982119,8950.699999988079,9517.09999999404,10057.09999999404,10563.199999988079,11105.59999999404,11661.199999988079,12211.699999988079,12689.699999988079,13269.199999988079,13858.199999988079,14400.09999999404,15004.59999999404,15522.199999988079,16053.299999982119,16668.29999998212,17176.09999999404,17824.19999998808,18250,18757.69999998808,19291.69999998808,21848.29999998212,23058.79999998212,23607.59999999404,24090.90000000596,24549.5,25073.90000000596,25631.29999998212,26188.79999998212,26785.79999998212,27393.90000000596,27983.19999998808,28573.59999999404,29214.59999999404,29976.5,30539.69999998808,31039.19999998808,31554.79999998212,32227.79999998212,32878.69999998808,33439.09999999404,34094.90000000596,34725.69999998808,35315.29999998212,35998.79999998212,36741.59999999404,37364.19999998808,42354.69999998808,43362,43824.79999998212,44330,44844.79999998212,45503.59999999404,46025.69999998808,46537.69999998808,47114.40000000596,47598.09999999404,48170.79999998212,48711.59999999404,49163.19999998808,49727.79999998212,50345.79999998212,50932.59999999404,51538.5,52111.59999999404,52709.59999999404,53204.59999999404,53742.59999999404,54300,54921.19999998808,55472.19999998808,59083.90000000596,60338.40000000596,60994.5,61505.69999998808,62083.90000000596,62706.5,63402.5,64402.40000000596,65139.5,66024.90000000596,66483.29999998212,66966.69999998808,67549,68072.79999998212,68548.09999999404,69103.29999998212,69628.29999998212,70203.19999998808,70815.29999998212,71317.79999998212,71855.09999999404,72466,73349.29999998212,74160.09999999404,74742,75371.90000000596,76626.59999999404],"honeypot":0,"survey":"mace","page":9,"trial_type":"survey-mace","trial_index":17,"time_elapsed":593061,"internal_node_id":"0.0-17.0","task_version":"prescreen-v0.3","browser_interactions":0},{"responses":{"01":"No","02":"No","03":"No","04":"No","05":"No","06":"Yes","06_ages_17":"17","07":"Yes","07_ages_1":"1","07_ages_2":"2","07_ages_3":"3","07_ages_4":"4","07_ages_5":"5","07_ages_6":"6","07_ages_7":"7","07_ages_8":"8","07_ages_9":"9","07_ages_10":"10","07_ages_11":"11","07_ages_12":"12","07_ages_13":"13","07_ages_14":"14","07_ages_15":"15","07_ages_16":"16","07_ages_17":"17","07_ages_18":"18","08":"Yes","08_ages_16":"16","08_ages_17":"17"},"rt":41887.79999998212,"item_order":[0,1,2,3,4,5,6,7],"radio_events":[2403,3435,4762.899999976158,9572,10530,11670.5,13579.399999976158,19724.29999998212,37133.89999997616],"checkbox_events":[15380.59999999404,23231.09999999404,24304.399999976158,24893.79999998212,25805.19999998808,26466.09999999404,27179.69999998808,28328.69999998808,28858.79999998212,29391.19999998808,29932,30481.899999976158,30987.29999998212,32070.59999999404,32615.59999999404,33217.39999997616,33831.59999999404,34404.89999997616,34979.5,39914.5,40495.69999998808],"key_events":[],"mouse_events":[2403,3435,4762.899999976158,7887.199999988079,8769.59999999404,9572,10530,11670.5,13579.399999976158,15380.59999999404,19724.29999998212,23231.09999999404,23803.79999998212,24304.399999976158,24893.79999998212,25805.19999998808,26466.09999999404,27179.69999998808,27825.79999998212,28328.69999998808,28858.79999998212,29391.19999998808,29932,30481.899999976158,30987.29999998212,31553.79999998212,32070.59999999404,32615.59999999404,33217.39999997616,33831.59999999404,34404.89999997616,34979.5,37133.89999997616,39914.5,40495.69999998808,41878.29999998212],"honeypot":0,"survey":"mace","page":10,"trial_type":"survey-mace","trial_index":18,"time_elapsed":634955,"internal_node_id":"0.0-18.0","task_version":"prescreen-v0.3","browser_interactions":0,"instructed":0},{"rt":1768.7999999821186,"trial_type":"mental-health-alert","trial_index":19,"time_elapsed":636728,"internal_node_id":"0.0-19.0","task_version":"prescreen-v0.3","interactions":"[]"}]