[{"view_history":[{"page_index":0,"viewing_time":4403.5},{"page_index":1,"viewing_time":5336.5},{"page_index":2,"viewing_time":4832.200000047684},{"page_index":3,"viewing_time":1735.6999999284744}],"rt":16308.5,"trial_type":"instructions","trial_index":0,"time_elapsed":16312,"internal_node_id":"0.0-0.0","task_version":"prescreen-v0.3"},{"rt":15905.399999976158,"responses":{"age":"36","gender-categorical":"Female","gender-free-response":"","ethnicity":"Not Hispanic or Latino","race":["White"],"education":"Bachelor degree"},"trial_type":"survey-demo","trial_index":1,"time_elapsed":32222,"internal_node_id":"0.0-1.0","task_version":"prescreen-v0.3"},{"responses":{"Q08":"2","Q11":"1","Q18":"1","Q13":"0","Q17":"0","Q19":"1","Q01":"0","Q15":"1","Q21":"3","Q14":"1","Q04":"0","Q09":"1","Q16":"0","Q02":"0","Q10":"0","Q06":"1","Q03":"0","Q07":"2","Q20":"0","Q05":"0","Q12":"1"},"rt":135654,"item_order":[7,10,17,12,16,18,0,14,20,13,3,8,15,1,9,5,2,6,19,4,11],"radio_events":[10503.699999928474,13025.100000023842,18981.299999952316,22992.100000023842,27127,33155.699999928474,35783.799999952316,41467.89999997616,45005.60000002384,52326.60000002384,73234.5,76301.69999992847,81066.19999992847,83813.39999997616,103616.19999992847,108920.69999992847,111962.89999997616,119739.60000002384,122014.5,130505.39999997616,134610],"key_events":[],"mouse_events":[10503.699999928474,13025.100000023842,18981.299999952316,22992.100000023842,27127,33155.699999928474,35783.799999952316,41467.89999997616,45005.60000002384,52326.60000002384,73234.5,76301.69999992847,81066.19999992847,83813.39999997616,103616.19999992847,108920.69999992847,111962.89999997616,119739.60000002384,122014.5,130505.39999997616,134610,135652.60000002384],"straightlining":0.47619047619047616,"zigzagging":0.55,"honeypot":0,"survey":"sns","trial_type":"survey-template","trial_index":2,"time_elapsed":167880,"internal_node_id":"0.0-2.0","task_version":"prescreen-v0.3","browser_interactions":0,"infrequency":0},{"responses":{"Q10":"2","Q11":"2","Q07":"3","Q13":"0","Q08":"2","Q02":"1","Q06":"2","Q01":"2","Q12":"1","Q09":"2","Q05":"3","Q04":"2","Q03":"1"},"rt":66397.5,"item_order":[9,10,6,12,7,1,5,0,11,8,4,3,2],"radio_events":[15083,21258.700000047684,23782.800000071526,28233.600000023842,35136.700000047684,38288.200000047684,42830.200000047684,47197,50925.800000071526,53063.800000071526,56278.90000009537,60540.60000002384,65415.5],"key_events":[],"mouse_events":[15083,21258.700000047684,23782.800000071526,28233.600000023842,34267.700000047684,35136.700000047684,38288.200000047684,42830.200000047684,47197,50925.800000071526,53063.800000071526,56278.90000009537,60540.60000002384,65415.5,66396.70000004768],"straightlining":0.5384615384615384,"zigzagging":0.75,"honeypot":0,"survey":"bisbas","trial_type":"survey-template","trial_index":3,"time_elapsed":234280,"internal_node_id":"0.0-3.0","task_version":"prescreen-v0.3","browser_interactions":0,"infrequency":0},{"responses":{"Q01":"3","Q02":"3","Q03":"2"},"rt":36828.299999952316,"radio_events":[14482.299999952316,15235.199999928474,25457.099999904633,28191.599999904633,29984.899999976158,35821.5],"key_events":[],"mouse_events":[13448.5,14482.299999952316,15235.199999928474,25457.099999904633,28191.599999904633,29984.899999976158,35821.5,36827.799999952316],"survey":"map","page":1,"trial_type":"survey-map","trial_index":4,"time_elapsed":271110,"internal_node_id":"0.0-4.0","task_version":"prescreen-v0.3","browser_interactions":0},{"responses":{"Q04":"2","Q05":"3","Q06":"2"},"rt":28624.400000095367,"radio_events":[8102.200000047684,20286.900000095367,27892.800000071526],"key_events":[],"mouse_events":[8102.200000047684,18446.100000023842,20286.900000095367,27892.800000071526,28623.900000095367],"survey":"map","page":2,"trial_type":"survey-map","trial_index":5,"time_elapsed":299736,"internal_node_id":"0.0-5.0","task_version":"prescreen-v0.3","browser_interactions":0},{"responses":{"Q07":"3","Q08":"3","Q09":"2"},"rt":21236,"radio_events":[11119.700000047684,15737.600000023842,18750.399999976158],"key_events":[],"mouse_events":[11119.700000047684,15737.600000023842,18750.399999976158,21235.600000023842],"survey":"map","page":3,"trial_type":"survey-map","trial_index":6,"time_elapsed":320974,"internal_node_id":"0.0-6.0","task_version":"prescreen-v0.3","browser_interactions":0},{"responses":{"Q10":"2","Q11":"1","Q12":"2","Q13":"3","Q16":"0","Q14":"3","Q15":"3"},"rt":37419.799999952316,"radio_events":[4146,7827.699999928474,12654.799999952316,19708.5,29022,32069.899999976158,33490.89999997616,36672.699999928474],"key_events":[],"mouse_events":[4146,7827.699999928474,12654.799999952316,19708.5,29022,32069.899999976158,33490.89999997616,36672.699999928474,37419],"survey":"map","page":4,"trial_type":"survey-map","trial_index":7,"time_elapsed":358396,"internal_node_id":"0.0-7.0","task_version":"prescreen-v0.3","browser_interactions":0,"infrequency":0},{"view_history":[{"page_index":0,"viewing_time":4309},{"page_index":1,"viewing_time":7723.300000071526}],"rt":12032.800000071526,"trial_type":"instructions","trial_index":8,"time_elapsed":370429,"internal_node_id":"0.0-8.0","task_version":"prescreen-v0.3"},{"responses":{"01":"No","01_ages_10":"10","01_ages_11":"11","01_ages_12":"12","01_ages_13":"13","01_ages_14":"14","01_ages_15":"15","02":"No","03":"No","04":"No","05":"No","06":"No"},"rt":53200.5,"item_order":[0,1,2,3,4,5],"radio_events":[11692.199999928474,30226.599999904633,37715.39999997616,42451.299999952316,44743.09999990463,47565,52384.89999997616],"checkbox_events":[17400.199999928474,17812.899999976158,18806,20041.599999904633,20539.699999928474,21125.899999976158],"key_events":[],"mouse_events":[0.09999990463256836,11692.199999928474,17400.199999928474,17812.899999976158,18248.399999976158,18806,20041.599999904633,20539.699999928474,21125.899999976158,30226.599999904633,37715.39999997616,42451.299999952316,44743.09999990463,47565,52384.89999997616,53198.5],"honeypot":0,"survey":"mace","page":1,"trial_type":"survey-mace","trial_index":9,"time_elapsed":423635,"internal_node_id":"0.0-9.0","task_version":"prescreen-v0.3","browser_interactions":0},{"responses":{"01":"No","02":"No","03":"No","04":"No","05":"No","06":"No","07":"No","08":"No"},"rt":35251.39999997616,"item_order":[0,1,2,3,4,5,6,7],"radio_events":[5313.100000023842,11828.399999976158,16332.799999952316,19681,24758.5,27267.5,29712.899999976158,31610.299999952316,34130.200000047684],"checkbox_events":[],"key_events":[],"mouse_events":[5313.100000023842,11828.399999976158,16332.799999952316,19207.799999952316,19681,24758.5,27267.5,29712.899999976158,31610.299999952316,34130.200000047684,35248.89999997616],"honeypot":0,"survey":"mace","page":2,"trial_type":"survey-mace","trial_index":10,"time_elapsed":458890,"internal_node_id":"0.0-10.0","task_version":"prescreen-v0.3","browser_interactions":0},{"responses":{"01":"No","02":"No","03":"No","04":"No"},"rt":18920.799999952316,"item_order":[0,1,2,3],"radio_events":[4233.799999952316,8844.5,13719.299999952316,15897.200000047684],"checkbox_events":[],"key_events":[],"mouse_events":[4233.799999952316,7814.600000023842,8844.5,13719.299999952316,15897.200000047684,18919.399999976158],"honeypot":0,"survey":"mace","page":3,"trial_type":"survey-mace","trial_index":11,"time_elapsed":477814,"internal_node_id":"0.0-11.0","task_version":"prescreen-v0.3","browser_interactions":0},{"responses":{"01":"No","02":"No"},"rt":8022.800000071526,"item_order":[0,1],"radio_events":[3664.2000000476837,6608.200000047684],"checkbox_events":[],"key_events":[],"mouse_events":[3664.2000000476837,6608.200000047684,8022],"honeypot":0,"survey":"mace","page":4,"trial_type":"survey-mace","trial_index":12,"time_elapsed":485838,"internal_node_id":"0.0-12.0","task_version":"prescreen-v0.3","browser_interactions":0},{"responses":{"01":"No","02":"No","03":"No","04":"No","05":"No"},"rt":27998.5,"item_order":[0,1,2,3,4],"radio_events":[10676.100000023842,15749.899999976158,19662,23577.5,27385.699999928474],"checkbox_events":[],"key_events":[],"mouse_events":[10676.100000023842,15749.899999976158,19662,23577.5,27385.699999928474,27996.899999976158],"honeypot":0,"survey":"mace","page":5,"trial_type":"survey-mace","trial_index":13,"time_elapsed":513839,"internal_node_id":"0.0-13.0","task_version":"prescreen-v0.3","browser_interactions":0},{"responses":{"01":"Yes","01_ages_6":"6","01_ages_7":"7","01_ages_8":"8","01_ages_9":"9","01_ages_10":"10","01_ages_11":"11","01_ages_12":"12","01_ages_13":"13","01_ages_14":"14","02":"Yes","02_ages_6":"6","02_ages_7":"7","02_ages_8":"8","02_ages_9":"9","02_ages_10":"10","02_ages_11":"11","02_ages_12":"12","02_ages_13":"13","02_ages_14":"14","03":"Yes","03_ages_16":"16","03_ages_17":"17","03_ages_18":"18","04":"Yes","04_ages_13":"13","04_ages_14":"14","05":"No"},"rt":53735.300000071526,"item_order":[0,1,2,3,4],"radio_events":[11899.100000023842,22642.700000047684,37042.40000009537,44394.300000071526,51927.300000071526],"checkbox_events":[14193.900000095367,14641,15099,16210.900000095367,16861.800000071526,17430.900000095367,17817.900000095367,18587.800000071526,19199,24728.900000095367,26310.400000095367,27222.400000095367,27934.600000023842,28704.600000023842,29204.600000023842,29724.800000071526,30549.200000047684,31285.800000071526,38600.5,39096,39544.700000047684,47455.10000002384,48445.10000002384],"key_events":[],"mouse_events":[11899.100000023842,14193.900000095367,14641,15099,15544.300000071526,16210.900000095367,16861.800000071526,17430.900000095367,17817.900000095367,18252.700000047684,18587.800000071526,19199,22642.700000047684,24728.900000095367,26310.400000095367,26710.700000047684,27222.400000095367,27622.900000095367,27934.600000023842,28414.800000071526,28704.600000023842,29204.600000023842,29724.800000071526,30549.200000047684,31285.800000071526,37042.40000009537,38600.5,39096,39544.700000047684,44394.300000071526,47455.10000002384,48094.200000047684,48445.10000002384,51927.300000071526,53733.700000047684],"honeypot":0,"survey":"mace","page":6,"trial_type":"survey-mace","trial_index":14,"time_elapsed":567577,"internal_node_id":"0.0-14.0","task_version":"prescreen-v0.3","browser_interactions":0},{"responses":{"01":"No","02":"No","03":"No","04":"No","05":"No","06":"No","07":"No"},"rt":16124.600000023842,"item_order":[0,1,2,3,4,5,6],"radio_events":[2767.600000023842,5084.600000023842,8030.299999952316,9570.299999952316,11431.399999976158,13808.199999928474,15110.399999976158],"checkbox_events":[],"key_events":[],"mouse_events":[2767.600000023842,5084.600000023842,8030.299999952316,9570.299999952316,11431.399999976158,13808.199999928474,15110.399999976158,16122.299999952316],"honeypot":0,"survey":"mace","page":7,"trial_type":"survey-mace","trial_index":15,"time_elapsed":583705,"internal_node_id":"0.0-15.0","task_version":"prescreen-v0.3","browser_interactions":0},{"responses":{"01":"No","02":"No","03":"No","04":"No"},"rt":28516.700000047684,"item_order":[0,1,2,3],"radio_events":[14082.700000047684,15449,16249.5,20268.200000047684,25324.300000071526,27788],"checkbox_events":[],"key_events":[],"mouse_events":[14082.700000047684,15449,16249.5,20268.200000047684,25324.300000071526,27788,28515.399999976158],"honeypot":0,"survey":"mace","page":8,"trial_type":"survey-mace","trial_index":16,"time_elapsed":612224,"internal_node_id":"0.0-16.0","task_version":"prescreen-v0.3","browser_interactions":0},{"responses":{"01":"Yes","01_ages_1":"1","01_ages_2":"2","01_ages_3":"3","01_ages_4":"4","01_ages_5":"5","01_ages_6":"6","01_ages_7":"7","01_ages_8":"8","01_ages_9":"9","01_ages_10":"10","01_ages_11":"11","01_ages_12":"12","01_ages_13":"13","01_ages_14":"14","01_ages_15":"15","01_ages_16":"16","01_ages_17":"17","01_ages_18":"18","02":"Yes","02_ages_1":"1","02_ages_2":"2","02_ages_3":"3","02_ages_4":"4","02_ages_5":"5","02_ages_6":"6","02_ages_7":"7","02_ages_8":"8","02_ages_9":"9","02_ages_10":"10","02_ages_11":"11","02_ages_12":"12","02_ages_13":"13","02_ages_14":"14","02_ages_15":"15","02_ages_16":"16","02_ages_17":"17","02_ages_18":"18","03":"Yes","03_ages_1":"1","03_ages_2":"2","03_ages_3":"3","03_ages_4":"4","03_ages_5":"5","03_ages_6":"6","03_ages_7":"7","03_ages_8":"8","03_ages_9":"9","03_ages_10":"10","03_ages_11":"11","03_ages_12":"12","03_ages_13":"13","03_ages_14":"14","03_ages_15":"15","03_ages_16":"16","03_ages_17":"17","03_ages_18":"18","04":"Yes","04_ages_1":"1","04_ages_2":"2","04_ages_3":"3","04_ages_4":"4","04_ages_5":"5","04_ages_6":"6","04_ages_7":"7","04_ages_8":"8","04_ages_9":"9","04_ages_10":"10","04_ages_11":"11","04_ages_12":"12","04_ages_13":"13","04_ages_14":"14","04_ages_15":"15","04_ages_16":"16","04_ages_17":"17","04_ages_18":"18"},"rt":70955.80000007153,"item_order":[0,1,2,3],"radio_events":[3492.3000000715256,19387.600000023842,36613.300000071526,56583.5],"checkbox_events":[6156.899999976158,6799,7300.600000023842,7694.800000071526,8250.700000047684,8774.600000023842,9218.800000071526,9732.899999976158,10283.800000071526,10952.600000023842,11428.600000023842,12149.5,12860.600000023842,13483.700000047684,13928.399999976158,14427.700000047684,15117.800000071526,15800.5,20270.200000047684,20773.200000047684,21252.399999976158,22192.300000071526,22817.200000047684,23291.5,24156.200000047684,24680.200000047684,25926.100000023842,26527.100000023842,27291.300000071526,27903.600000023842,28590.100000023842,29233.200000047684,29823.5,30254.5,30701,30950,31435.200000047684,31702.200000047684,32179.100000023842,33006.10000002384,37454.10000002384,37877,38335.800000071526,39116.200000047684,39538.89999997616,40130.800000071526,41028.89999997616,41459.10000002384,42253,43048.800000071526,43856,44953.200000047684,45999.89999997616,46493.60000002384,46933.700000047684,47393.60000002384,47970.200000047684,48455.700000047684,57495.300000071526,57910.5,58394.200000047684,59513.5,60350.300000071526,60865.200000047684,61365.300000071526,62062.700000047684,62626.300000071526,62832.39999997616,63375.10000002384,63775.300000071526,64649.5,65353.300000071526,65990.30000007153,67347.89999997616,68037.10000002384,68720.10000002384,69440.89999997616,69975.10000002384],"key_events":[],"mouse_events":[3492.3000000715256,6156.899999976158,6799,7300.600000023842,7694.800000071526,8250.700000047684,8774.600000023842,9218.800000071526,9732.899999976158,10283.800000071526,10952.600000023842,11428.600000023842,11872.700000047684,12149.5,12860.600000023842,13483.700000047684,13928.399999976158,14427.700000047684,15117.800000071526,15800.5,19387.600000023842,20270.200000047684,20773.200000047684,21252.399999976158,21751.700000047684,22192.300000071526,22817.200000047684,23291.5,23824.399999976158,24156.200000047684,24680.200000047684,25217.300000071526,25926.100000023842,26527.100000023842,27291.300000071526,27903.600000023842,28590.100000023842,29233.200000047684,29823.5,30254.5,30701,30950,31435.200000047684,31702.200000047684,32179.100000023842,33006.10000002384,36613.300000071526,37454.10000002384,37877,38335.800000071526,38795,39116.200000047684,39538.89999997616,40130.800000071526,40662.200000047684,41028.89999997616,41459.10000002384,42253,43048.800000071526,43856,44953.200000047684,45999.89999997616,46493.60000002384,46933.700000047684,47393.60000002384,47970.200000047684,48455.700000047684,56583.5,57495.300000071526,57910.5,58394.200000047684,58893.60000002384,59513.5,60043.700000047684,60350.300000071526,60865.200000047684,61365.300000071526,61808.10000002384,62062.700000047684,62626.300000071526,62832.39999997616,63375.10000002384,63775.300000071526,64649.5,65353.300000071526,65990.30000007153,67347.89999997616,68037.10000002384,68720.10000002384,69440.89999997616,69975.10000002384,70954.5],"honeypot":0,"survey":"mace","page":9,"trial_type":"survey-mace","trial_index":17,"time_elapsed":683182,"internal_node_id":"0.0-17.0","task_version":"prescreen-v0.3","browser_interactions":0},{"responses":{"01":"No","02":"No","03":"No","04":"No","05":"No","06":"Yes","06_ages_17":"17","07":"Yes","07_ages_1":"1","07_ages_2":"2","07_ages_3":"3","07_ages_4":"4","07_ages_5":"5","07_ages_6":"6","07_ages_7":"7","07_ages_8":"8","07_ages_9":"9","07_ages_10":"10","07_ages_11":"11","07_ages_12":"12","07_ages_13":"13","07_ages_14":"14","07_ages_15":"15","07_ages_16":"16","07_ages_17":"17","07_ages_18":"18","08":"Yes","08_ages_1":"1","08_ages_2":"2","08_ages_3":"3","08_ages_4":"4","08_ages_5":"5","08_ages_6":"6","08_ages_7":"7","08_ages_8":"8","08_ages_9":"9","08_ages_10":"10","08_ages_11":"11","08_ages_12":"12","08_ages_13":"13","08_ages_14":"14","08_ages_15":"15","08_ages_16":"16","08_ages_17":"17","08_ages_18":"18"},"rt":54832.5,"item_order":[0,1,2,3,4,5,6,7],"radio_events":[6067.399999976158,7800.200000047684,10340.899999976158,13293.899999976158,16621.600000023842,19400.5,25210.200000047684,37521.799999952316],"checkbox_events":[22028.399999976158,26347.399999976158,26781.299999952316,27288.200000047684,27774.200000047684,28364.200000047684,28924.399999976158,29375.200000047684,29830.200000047684,30237.100000023842,30829.100000023842,31381.200000047684,32022.200000047684,32624.399999976158,33125.10000002384,33633,34338.200000047684,34923.89999997616,35839.700000047684,39127.799999952316,41642.700000047684,42057.700000047684,42345.200000047684,43084.60000002384,43429.89999997616,44009.799999952316,45027,45399.700000047684,45967,46834.700000047684,50019.799999952316,50531.60000002384,50968.60000002384,51573.60000002384,52192.299999952316,52657.700000047684,53065.799999952316,53473.299999952316,54249.700000047684],"key_events":[],"mouse_events":[6067.399999976158,7800.200000047684,10340.899999976158,13293.899999976158,16621.600000023842,19400.5,22028.399999976158,25210.200000047684,26347.399999976158,26781.299999952316,27288.200000047684,27774.200000047684,28364.200000047684,28924.399999976158,29375.200000047684,29830.200000047684,30237.100000023842,30829.100000023842,31381.200000047684,32022.200000047684,32624.399999976158,33125.10000002384,33633,34338.200000047684,34923.89999997616,35839.700000047684,37521.799999952316,38325.5,39127.799999952316,41642.700000047684,42057.700000047684,42345.200000047684,42810,43084.60000002384,43429.89999997616,44009.799999952316,44453.200000047684,45027,45399.700000047684,45967,46482,46834.700000047684,50019.799999952316,50531.60000002384,50968.60000002384,51573.60000002384,52192.299999952316,52657.700000047684,53065.799999952316,53473.299999952316,54249.700000047684,54830],"honeypot":0,"survey":"mace","page":10,"trial_type":"survey-mace","trial_index":18,"time_elapsed":738018,"internal_node_id":"0.0-18.0","task_version":"prescreen-v0.3","browser_interactions":0,"instructed":0},{"rt":15448.700000047684,"trial_type":"mental-health-alert","trial_index":19,"time_elapsed":753468,"internal_node_id":"0.0-19.0","task_version":"prescreen-v0.3","interactions":"[]"}]