[{"view_history":[{"page_index":0,"viewing_time":70238.09999999963},{"page_index":1,"viewing_time":5564.5},{"page_index":2,"viewing_time":1468.4000000003725},{"page_index":3,"viewing_time":771.5}],"rt":78047.29999999981,"trial_type":"instructions","trial_index":0,"time_elapsed":78123,"internal_node_id":"0.0-0.0","task_version":"prescreen-v0.3"},{"rt":11037.299999999814,"responses":{"age":"32","gender-categorical":"Male","gender-free-response":"","ethnicity":"Not Hispanic or Latino","race":["White"],"education":"Bachelor degree","siblings":"0"},"trial_type":"survey-demo","trial_index":1,"time_elapsed":89224,"internal_node_id":"0.0-1.0","task_version":"prescreen-v0.3"},{"responses":{"Q10":"0","Q02":"2","Q08":"2","Q03":"1","Q04":"2","Q21":"3","Q15":"2","Q16":"1","Q05":"1","Q19":"1","Q20":"1","Q01":"2","Q11":"1","Q17":"1","Q13":"2","Q07":"2","Q06":"1","Q14":"2","Q09":"1","Q18":"1","Q12":"1"},"rt":96933.09999999963,"item_order":[9,1,7,2,3,20,14,15,4,18,19,0,10,16,12,6,5,13,8,17,11],"radio_events":[4364.5,7062.4000000003725,7574.200000000186,10996,12862.599999999627,13478.599999999627,17950.400000000373,38796.09999999963,43829.59999999963,44277.200000000186,46457.40000000037,48644.5,51620.59999999963,53254.799999999814,56621.200000000186,65734.20000000019,67228.29999999981,71805.09999999963,72888.59999999963,76212.70000000019,95740.79999999981,96446.20000000019],"key_events":[],"mouse_events":[346.40000000037253,4364.5,6461.4000000003725,7062.4000000003725,7574.200000000186,10996,12862.599999999627,13478.599999999627,17413.200000000186,17950.400000000373,38320.09999999963,38796.09999999963,41179.90000000037,42646.299999999814,43829.59999999963,44277.200000000186,45548.09999999963,46457.40000000037,48644.5,51620.59999999963,52413.5,52837.59999999963,53054.40000000037,53254.799999999814,56621.200000000186,63705.799999999814,65734.20000000019,66246.29999999981,67228.29999999981,70652.5,71805.09999999963,72549.79999999981,72888.59999999963,76212.70000000019,95740.79999999981,96223.09999999963,96446.20000000019,96916.29999999981],"straightlining":0.5238095238095238,"zigzagging":0.55,"honeypot":0,"survey":"sns","trial_type":"survey-template","trial_index":2,"time_elapsed":186199,"internal_node_id":"0.0-2.0","task_version":"prescreen-v0.3","browser_interactions":4,"infrequency":0},{"responses":{"Q04":"2","Q05":"3","Q10":"2","Q03":"2","Q06":"2","Q13":"0","Q07":"3","Q01":"2","Q08":"2","Q02":"2","Q12":"1","Q09":"2","Q11":"1"},"rt":197819.09999999963,"item_order":[3,4,9,2,5,12,6,0,7,1,11,8,10],"radio_events":[176638.69999999925,178092.19999999925,179069.09999999963,180516.7999999998,181422,182430.09999999963,183525,186669.69999999925,187971.7999999998,190132.7999999998,191516.19999999925,192830.19999999925,193717.89999999944,197159.39999999944],"key_events":[],"mouse_events":[176638.69999999925,178092.19999999925,179069.09999999963,179995.5,180516.7999999998,181422,182430.09999999963,183525,186669.69999999925,187971.7999999998,188911.7999999998,190132.7999999998,191516.19999999925,192830.19999999925,193717.89999999944,197159.39999999944,197549.19999999925,197798],"straightlining":0.6153846153846154,"zigzagging":0.5833333333333334,"honeypot":0,"survey":"bisbas","trial_type":"survey-template","trial_index":3,"time_elapsed":384051,"internal_node_id":"0.0-3.0","task_version":"prescreen-v0.3","browser_interactions":4,"infrequency":0},{"responses":{"Q01":"1","Q02":"0","Q03":"1"},"rt":11067.299999999814,"radio_events":[6667.700000000186,10173.299999999814,10622.900000000373],"key_events":[],"mouse_events":[5453.100000000559,5907.9000000003725,6667.700000000186,8523.200000000186,9083.5,10173.299999999814,10622.900000000373,11060.600000000559],"survey":"map","page":1,"trial_type":"survey-map","trial_index":4,"time_elapsed":395156,"internal_node_id":"0.0-4.0","task_version":"prescreen-v0.3","browser_interactions":0},{"responses":{"Q04":"1","Q05":"0","Q06":"1"},"rt":117390.60000000056,"radio_events":[110498.10000000056,114480.90000000037,116784.80000000075],"key_events":[],"mouse_events":[110498.10000000056,114480.90000000037,116297.20000000019,116784.80000000075,117385.10000000056],"survey":"map","page":2,"trial_type":"survey-map","trial_index":5,"time_elapsed":512569,"internal_node_id":"0.0-5.0","task_version":"prescreen-v0.3","browser_interactions":8},{"responses":{"Q07":"3","Q08":"3","Q09":"3"},"rt":37116.200000000186,"radio_events":[32817.5,35961.59999999963,36553.700000000186],"key_events":[],"mouse_events":[32817.5,34545,35546.09999999963,35793.5,35961.59999999963,36344.90000000037,36553.700000000186,37113.5],"survey":"map","page":3,"trial_type":"survey-map","trial_index":6,"time_elapsed":549716,"internal_node_id":"0.0-6.0","task_version":"prescreen-v0.3","browser_interactions":2},{"responses":{"Q10":"1","Q11":"1","Q12":"2","Q13":"2","Q16":"0","Q14":"3","Q15":"2"},"rt":52549.10000000056,"radio_events":[31216.200000000186,35425.5,39937.5,44058.200000000186,48034.299999999814,50833.299999999814,52103.40000000037],"key_events":[],"mouse_events":[31216.200000000186,35425.5,36240.5,39471.90000000037,39937.5,42218.5,42728.90000000037,43019,44058.200000000186,48034.299999999814,50114.40000000037,50564.299999999814,50833.299999999814,51234.700000000186,51650.799999999814,51882.60000000056,52103.40000000037,52544.5],"survey":"map","page":4,"trial_type":"survey-map","trial_index":7,"time_elapsed":602289,"internal_node_id":"0.0-7.0","task_version":"prescreen-v0.3","browser_interactions":2,"infrequency":0},{"view_history":[{"page_index":0,"viewing_time":1673.199999999255},{"page_index":1,"viewing_time":1966.5}],"rt":3641.0999999996275,"trial_type":"instructions","trial_index":8,"time_elapsed":605948,"internal_node_id":"0.0-8.0","task_version":"prescreen-v0.3"},{"responses":{"01":"Yes","01_ages_5":"5","01_ages_6":"6","01_ages_7":"7","01_ages_8":"8","01_ages_9":"9","01_ages_10":"10","01_ages_11":"11","01_ages_12":"12","01_ages_13":"13","01_ages_14":"14","01_ages_15":"15","01_ages_16":"16","01_ages_17":"17","01_ages_18":"18","02":"Yes","02_ages_5":"5","02_ages_6":"6","02_ages_7":"7","02_ages_8":"8","02_ages_9":"9","02_ages_10":"10","02_ages_11":"11","02_ages_12":"12","02_ages_13":"13","02_ages_14":"14","02_ages_15":"15","02_ages_16":"16","02_ages_17":"17","02_ages_18":"18","03":"Yes","03_ages_6":"6","03_ages_7":"7","03_ages_8":"8","03_ages_9":"9","03_ages_10":"10","03_ages_11":"11","03_ages_12":"12","03_ages_13":"13","03_ages_14":"14","03_ages_15":"15","03_ages_16":"16","03_ages_17":"17","03_ages_18":"18","04":"No","05":"No","06":"Yes","06_ages_6":"6","06_ages_7":"7","06_ages_8":"8","06_ages_9":"9","06_ages_10":"10","06_ages_11":"11","06_ages_12":"12","06_ages_13":"13","06_ages_14":"14","06_ages_15":"15","06_ages_16":"16","06_ages_17":"17","06_ages_18":"18"},"rt":82095.29999999981,"item_order":[0,1,2,3,4,5],"radio_events":[30622,33425.299999999814,36311.90000000037,50059.700000000186,59770.5,69808,71873.70000000019,72927.79999999981],"checkbox_events":[41907.700000000186,42314.200000000186,42976.09999999963,43318.40000000037,43663.40000000037,43993.59999999963,44295.40000000037,45005.700000000186,45596.59999999963,46096.40000000037,46446.90000000037,47121.5,47383.5,48091.40000000037,51624.200000000186,52169,52634.200000000186,53192.700000000186,53495.09999999963,53723.299999999814,54015.700000000186,54320.09999999963,54728.299999999814,55358.700000000186,55657.40000000037,55976.799999999814,56355,56735.700000000186,57068.09999999963,57640.09999999963,62056.40000000037,62657.200000000186,62952.200000000186,63352.09999999963,63640.09999999963,64193,64575.299999999814,65423.5,65735.29999999981,66063.5,66983.90000000037,67786.70000000019,68207.59999999963,68432.20000000019,69306.40000000037,74062.09999999963,74594.79999999981,74874.5,75390.09999999963,76543.59999999963,77609.40000000037,78353.20000000019,78720.59999999963,79169.20000000019,79518.59999999963,79954.09999999963,80889.20000000019,81142.59999999963],"key_events":[],"mouse_events":[0.40000000037252903,30622,32903.200000000186,33425.299999999814,36311.90000000037,41907.700000000186,42314.200000000186,42655.200000000186,42976.09999999963,43318.40000000037,43663.40000000037,43993.59999999963,44295.40000000037,44625.09999999963,45005.700000000186,45311.799999999814,45596.59999999963,45892.40000000037,46096.40000000037,46446.90000000037,46777.299999999814,47121.5,47383.5,47722.5,48091.40000000037,50059.700000000186,51624.200000000186,51911.700000000186,52169,52418.90000000037,52634.200000000186,52920.40000000037,53192.700000000186,53495.09999999963,53723.299999999814,54015.700000000186,54320.09999999963,54728.299999999814,55070.40000000037,55358.700000000186,55657.40000000037,55976.799999999814,56355,56735.700000000186,57068.09999999963,57369.59999999963,57640.09999999963,59770.5,62056.40000000037,62369.59999999963,62657.200000000186,62952.200000000186,63352.09999999963,63640.09999999963,63968.200000000186,64193,64575.299999999814,65423.5,65735.29999999981,66063.5,66344.20000000019,66734.79999999981,66983.90000000037,67326.59999999963,67786.70000000019,68207.59999999963,68432.20000000019,69016.5,69306.40000000037,69808,71873.70000000019,72927.79999999981,74062.09999999963,74358.09999999963,74594.79999999981,74874.5,75160.59999999963,75390.09999999963,75689.29999999981,76215.70000000019,76543.59999999963,77609.40000000037,78047.70000000019,78353.20000000019,78720.59999999963,79169.20000000019,79518.59999999963,79954.09999999963,80280.29999999981,80537,80889.20000000019,81142.59999999963,82072.20000000019],"honeypot":0,"survey":"mace","page":1,"trial_type":"survey-mace","trial_index":9,"time_elapsed":688071,"internal_node_id":"0.0-9.0","task_version":"prescreen-v0.3","browser_interactions":2},{"responses":{"01":"Yes","01_ages_6":"6","01_ages_7":"7","01_ages_8":"8","01_ages_9":"9","01_ages_10":"10","01_ages_11":"11","01_ages_12":"12","01_ages_13":"13","01_ages_14":"14","01_ages_15":"15","01_ages_16":"16","01_ages_17":"17","01_ages_18":"18","02":"No","03":"No","04":"No","05":"No","06":"No","07":"No","08":"No"},"rt":81618.79999999981,"item_order":[0,1,2,3,4,5,6,7],"radio_events":[64478.700000000186,72837.09999999963,75374.09999999963,76550.20000000019,78980.89999999944,79612.89999999944,80774.70000000019,81156.59999999963,81331.29999999981],"checkbox_events":[65396.700000000186,65932.59999999963,66213,66444.20000000019,67036.39999999944,67468.39999999944,68228.89999999944,68542.09999999963,68741.89999999944,69021.5,69368,69995.5,70556,70819.39999999944,71405.29999999981,71972.5,72407.29999999981],"key_events":[],"mouse_events":[64478.700000000186,65396.700000000186,65691.20000000019,65932.59999999963,66213,66444.20000000019,66808.89999999944,67036.39999999944,67468.39999999944,67883.29999999981,68228.89999999944,68542.09999999963,68741.89999999944,69021.5,69368,69995.5,70290.89999999944,70556,70819.39999999944,71107.09999999963,71405.29999999981,71972.5,72407.29999999981,72837.09999999963,73187.29999999981,73778.59999999963,75374.09999999963,75904.5,76550.20000000019,78980.89999999944,79612.89999999944,80532.89999999944,80774.70000000019,81156.59999999963,81331.29999999981,81603.59999999963],"honeypot":0,"survey":"mace","page":2,"trial_type":"survey-mace","trial_index":10,"time_elapsed":769725,"internal_node_id":"0.0-10.0","task_version":"prescreen-v0.3","browser_interactions":6},{"responses":{"01":"No","02":"No","03":"No","04":"No"},"rt":4185.700000000186,"item_order":[0,1,2,3],"radio_events":[2312.800000000745,2654.600000000559,3407.9000000003725,3870.7000000001863],"checkbox_events":[],"key_events":[],"mouse_events":[2312.800000000745,2654.600000000559,2888.2000000001863,3199.5,3407.9000000003725,3673.100000000559,3870.7000000001863,4173.9000000003725],"honeypot":0,"survey":"mace","page":3,"trial_type":"survey-mace","trial_index":11,"time_elapsed":773952,"internal_node_id":"0.0-11.0","task_version":"prescreen-v0.3","browser_interactions":0},{"responses":{"01":"No","02":"No"},"rt":2409.9000000003725,"item_order":[0,1],"radio_events":[1783.2000000001863,2119.2000000001863],"checkbox_events":[],"key_events":[],"mouse_events":[969.2000000001863,1388.2000000001863,1597.1000000005588,1783.2000000001863,2119.2000000001863,2404],"honeypot":0,"survey":"mace","page":4,"trial_type":"survey-mace","trial_index":12,"time_elapsed":776385,"internal_node_id":"0.0-12.0","task_version":"prescreen-v0.3","browser_interactions":0},{"responses":{"01":"No","02":"No","03":"No","04":"No","05":"No"},"rt":5641.4000000003725,"item_order":[0,1,2,3,4],"radio_events":[2416.5999999996275,2722.5,3087.5,5006.700000000186,5273],"checkbox_events":[],"key_events":[],"mouse_events":[2416.5999999996275,2722.5,3087.5,3458.2999999998137,3831.4000000003725,4196.0999999996275,4519.799999999814,4793.5999999996275,5006.700000000186,5273,5631.4000000003725],"honeypot":0,"survey":"mace","page":5,"trial_type":"survey-mace","trial_index":13,"time_elapsed":782061,"internal_node_id":"0.0-13.0","task_version":"prescreen-v0.3","browser_interactions":0},{"responses":{"01":"Yes","01_ages_8":"8","01_ages_9":"9","01_ages_10":"10","01_ages_11":"11","01_ages_12":"12","01_ages_13":"13","01_ages_14":"14","01_ages_15":"15","01_ages_16":"16","01_ages_17":"17","01_ages_18":"18","02":"Yes","02_ages_7":"7","02_ages_8":"8","02_ages_9":"9","02_ages_10":"10","02_ages_11":"11","02_ages_12":"12","02_ages_13":"13","02_ages_14":"14","02_ages_15":"15","02_ages_16":"16","02_ages_17":"17","02_ages_18":"18","03":"No","04":"No","05":"Yes","05_ages_7":"7","05_ages_8":"8","05_ages_9":"9","05_ages_10":"10","05_ages_11":"11","05_ages_12":"12","05_ages_13":"13","05_ages_14":"14","05_ages_15":"15"},"rt":71550.10000000056,"item_order":[0,1,2,3,4],"radio_events":[41012.200000000186,54076.5,61640.200000000186,62046.10000000056,63175.200000000186,64548.700000000186],"checkbox_events":[42190.700000000186,42532.60000000056,43141,43671,44028.90000000037,44657.800000000745,44902.90000000037,45973.5,46518.10000000056,47126.200000000186,47414,47950.40000000037,48190.60000000056,48587.5,48879.5,49782.10000000056,51063.40000000037,54837.200000000186,55132.700000000186,55677.700000000186,56171.10000000056,56597.800000000745,57094.10000000056,57384.10000000056,57933.90000000037,58244.800000000745,58551.800000000745,59142.200000000186,59654.60000000056,65465.200000000186,65910.10000000056,66183.80000000075,66484.40000000037,67423.80000000075,67660.40000000037,67918.10000000056,68517.30000000075,69124.60000000056,69453.5,70039.80000000075],"key_events":[],"mouse_events":[41012.200000000186,42190.700000000186,42532.60000000056,42838.300000000745,43141,43414.5,43671,44028.90000000037,44374.700000000186,44657.800000000745,44902.90000000037,45174.700000000186,45413.40000000037,45973.5,46268.200000000186,46518.10000000056,47126.200000000186,47414,47709.800000000745,47950.40000000037,48190.60000000056,48587.5,48879.5,49159.300000000745,49436.700000000186,49782.10000000056,51063.40000000037,52740.60000000056,53256.10000000056,53833,54076.5,54837.200000000186,55132.700000000186,55677.700000000186,55972.700000000186,56171.10000000056,56597.800000000745,56866.300000000745,57094.10000000056,57384.10000000056,57692.800000000745,57933.90000000037,58244.800000000745,58551.800000000745,58820.800000000745,59142.200000000186,59415.700000000186,59654.60000000056,60917.5,61640.200000000186,62046.10000000056,62580.40000000037,63175.200000000186,64268.200000000186,64548.700000000186,65221.300000000745,65465.200000000186,65708.70000000019,65910.10000000056,66183.80000000075,66484.40000000037,66801.20000000019,67102.5,67423.80000000075,67660.40000000037,67918.10000000056,68213.5,68517.30000000075,68838.5,69124.60000000056,69453.5,69793.60000000056,70039.80000000075,70343.30000000075,71536.10000000056],"honeypot":0,"survey":"mace","page":6,"trial_type":"survey-mace","trial_index":14,"time_elapsed":853638,"internal_node_id":"0.0-14.0","task_version":"prescreen-v0.3","browser_interactions":2},{"responses":{"01":"Yes","01_ages_7":"7","01_ages_8":"8","01_ages_9":"9","01_ages_10":"10","01_ages_11":"11","01_ages_12":"12","01_ages_13":"13","01_ages_14":"14","01_ages_15":"15","01_ages_16":"16","01_ages_17":"17","01_ages_18":"18","02":"No","03":"Yes","03_ages_6":"6","03_ages_7":"7","03_ages_8":"8","03_ages_9":"9","03_ages_10":"10","03_ages_11":"11","03_ages_12":"12","03_ages_13":"13","03_ages_14":"14","03_ages_15":"15","03_ages_16":"16","03_ages_17":"17","03_ages_18":"18","04":"Yes","04_ages_6":"6","04_ages_7":"7","04_ages_8":"8","04_ages_9":"9","04_ages_10":"10","04_ages_11":"11","04_ages_12":"12","04_ages_13":"13","04_ages_14":"14","04_ages_15":"15","04_ages_16":"16","04_ages_17":"17","04_ages_18":"18","05":"No","06":"No","07":"No"},"rt":36544.90000000037,"item_order":[0,1,2,3,4,5,6],"radio_events":[2690.5,16457.10000000056,17673.5,18482.60000000056,18994.700000000186,20041.5,28433],"checkbox_events":[4199.799999999814,4471.4000000003725,4759.799999999814,5066.9000000003725,5357.100000000559,5693.799999999814,6289.4000000003725,6794.5,7395.9000000003725,8384.100000000559,8882.400000000373,9308.700000000186,21426.299999999814,21731.200000000186,22009.900000000373,22490.299999999814,23058.400000000373,23305.60000000056,23976.5,24245.10000000056,24844,25349.400000000373,26160.10000000056,26721.700000000186,27194.299999999814,29249.799999999814,29736.700000000186,30264.60000000056,30778,31186.400000000373,31522.60000000056,32339.5,32761.60000000056,33394,33719.60000000056,34393.10000000056,34698.5,35647.299999999814],"key_events":[],"mouse_events":[2690.5,4199.799999999814,4471.4000000003725,4759.799999999814,5066.9000000003725,5357.100000000559,5693.799999999814,5962.700000000186,6289.4000000003725,6567.700000000186,6794.5,7171.299999999814,7395.9000000003725,7731.5,8034.600000000559,8384.100000000559,8882.400000000373,9308.700000000186,16457.10000000056,17673.5,18177.400000000373,18482.60000000056,18994.700000000186,20041.5,21151.60000000056,21426.299999999814,21731.200000000186,22009.900000000373,22266.400000000373,22490.299999999814,22792.5,23058.400000000373,23305.60000000056,23687.700000000186,23976.5,24245.10000000056,24552.799999999814,24844,25105.799999999814,25349.400000000373,25645,25888.900000000373,26160.10000000056,26449,26721.700000000186,27194.299999999814,28433,29249.799999999814,29736.700000000186,30264.60000000056,30778,31186.400000000373,31522.60000000056,31953,32339.5,32761.60000000056,33072.60000000056,33394,33719.60000000056,34034.5,34393.10000000056,34698.5,34969.40000000037,35234.90000000037,35647.299999999814,36532.90000000037],"honeypot":0,"survey":"mace","page":7,"trial_type":"survey-mace","trial_index":15,"time_elapsed":890219,"internal_node_id":"0.0-15.0","task_version":"prescreen-v0.3","browser_interactions":0},{"responses":{"01":"No","02":"No","03":"Yes","03_ages_6":"6","03_ages_7":"7","03_ages_8":"8","03_ages_9":"9","03_ages_10":"10","03_ages_11":"11","03_ages_12":"12","03_ages_13":"13","03_ages_14":"14","03_ages_15":"15","03_ages_16":"16","03_ages_17":"17","03_ages_18":"18","04":"No"},"rt":21381.700000000186,"item_order":[0,1,2,3],"radio_events":[6059.799999999814,6947,12179.299999999814,20604.200000000186,20819.200000000186],"checkbox_events":[13598.700000000186,14093.799999999814,14363.799999999814,14659.799999999814,15036.099999999627,15389.700000000186,16043.700000000186,16589.099999999627,16876.599999999627,17171,17747.89999999944,18030.39999999944,18574.799999999814],"key_events":[],"mouse_events":[6059.799999999814,6947,11915.899999999441,12179.299999999814,13598.700000000186,14093.799999999814,14363.799999999814,14659.799999999814,15036.099999999627,15389.700000000186,15699,16043.700000000186,16334.200000000186,16589.099999999627,16876.599999999627,17171,17480.599999999627,17747.89999999944,18030.39999999944,18331.599999999627,18574.799999999814,20604.200000000186,20819.200000000186,21373.599999999627],"honeypot":0,"survey":"mace","page":8,"trial_type":"survey-mace","trial_index":16,"time_elapsed":911630,"internal_node_id":"0.0-16.0","task_version":"prescreen-v0.3","browser_interactions":0},{"responses":{"01":"No","02":"No","03":"No","04":"Yes","04_ages_1":"1","04_ages_2":"2","04_ages_3":"3","04_ages_4":"4","04_ages_5":"5","04_ages_6":"6","04_ages_7":"7","04_ages_8":"8","04_ages_9":"9","04_ages_10":"10","04_ages_11":"11","04_ages_12":"12","04_ages_13":"13","04_ages_14":"14","04_ages_15":"15","04_ages_16":"16","04_ages_17":"17","04_ages_18":"18"},"rt":51954.699999999255,"item_order":[0,1,2,3],"radio_events":[32903.39999999944,34717.699999999255,35772.39999999944,37085.5,39957.89999999944],"checkbox_events":[41558.799999999814,41984.199999999255,42526.699999999255,43056.5,43151.5,44312.799999999814,44742.5,45304.39999999944,45845.09999999963,46114.5,46436.89999999944,46646.199999999255,47288.5,47808.699999999255,48790.299999999814,49082.5,49397.299999999814,49838.59999999963,50590.59999999963,50862.89999999944,51149.799999999814,51430.09999999963],"key_events":[],"mouse_events":[27012.89999999944,32903.39999999944,34717.699999999255,35772.39999999944,37085.5,39566.5,39957.89999999944,40903.09999999963,41312.299999999814,41558.799999999814,41782.699999999255,41984.199999999255,42301.89999999944,42526.699999999255,42823.299999999814,43056.5,43151.5,43503.699999999255,43818.09999999963,44103.799999999814,44312.799999999814,44742.5,45304.39999999944,45606.299999999814,45845.09999999963,46114.5,46436.89999999944,46646.199999999255,46960,47288.5,47516.89999999944,47808.699999999255,48544.09999999963,48790.299999999814,49082.5,49397.299999999814,49838.59999999963,50138.09999999963,50373.09999999963,50590.59999999963,50862.89999999944,51149.799999999814,51430.09999999963,51943.799999999814],"honeypot":0,"survey":"mace","page":9,"trial_type":"survey-mace","trial_index":17,"time_elapsed":963610,"internal_node_id":"0.0-17.0","task_version":"prescreen-v0.3","browser_interactions":2},{"responses":{"01":"No","02":"No","03":"No","04":"Yes","04_ages_6":"6","04_ages_7":"7","04_ages_8":"8","04_ages_9":"9","04_ages_10":"10","04_ages_11":"11","04_ages_12":"12","04_ages_13":"13","04_ages_14":"14","04_ages_15":"15","04_ages_16":"16","04_ages_17":"17","04_ages_18":"18","05":"No","06":"Yes","06_ages_17":"17","07":"Yes","07_ages_6":"6","07_ages_7":"7","07_ages_8":"8","07_ages_9":"9","07_ages_10":"10","07_ages_11":"11","07_ages_12":"12","07_ages_13":"13","07_ages_14":"14","07_ages_15":"15","07_ages_16":"16","07_ages_17":"17","07_ages_18":"18","08":"No"},"rt":29884.700000000186,"item_order":[0,1,2,3,4,5,6,7],"radio_events":[2084.100000000559,2498.5,5283.700000000186,6268.4000000003725,16323.600000000559,17176.700000000186,21121.299999999814,28875.299999999814],"checkbox_events":[7283.600000000559,7922.700000000186,8585.700000000186,9097.299999999814,9765.100000000559,10569.600000000559,11130.600000000559,11427.900000000373,11921.200000000186,12594.100000000559,12831.5,13530,13809.299999999814,14120.700000000186,14379.5,18408.700000000186,22280.400000000373,23047.400000000373,23323.400000000373,23597.299999999814,23883.10000000056,24288.700000000186,24553.400000000373,24828.900000000373,25090.200000000186,25642,25913.299999999814,26194.900000000373,26537.10000000056],"key_events":[],"mouse_events":[2084.100000000559,2498.5,5283.700000000186,5867.9000000003725,6268.4000000003725,7283.600000000559,7922.700000000186,8322.799999999814,8585.700000000186,8873.600000000559,9097.299999999814,9456.700000000186,9765.100000000559,10015.600000000559,10287.299999999814,10569.600000000559,10889.100000000559,11130.600000000559,11427.900000000373,11625.900000000373,11921.200000000186,12216.700000000186,12594.100000000559,12831.5,13112.700000000186,13530,13809.299999999814,14120.700000000186,14379.5,16323.600000000559,17176.700000000186,18408.700000000186,21121.299999999814,22280.400000000373,22792.900000000373,23047.400000000373,23323.400000000373,23597.299999999814,23883.10000000056,24288.700000000186,24553.400000000373,24828.900000000373,25090.200000000186,25345.10000000056,25642,25913.299999999814,26194.900000000373,26537.10000000056,28875.299999999814,29864.900000000373],"honeypot":0,"survey":"mace","page":10,"trial_type":"survey-mace","trial_index":18,"time_elapsed":993523,"internal_node_id":"0.0-18.0","task_version":"prescreen-v0.3","browser_interactions":0,"instructed":0},{"rt":2348.0999999996275,"trial_type":"mental-health-alert","trial_index":19,"time_elapsed":995915,"internal_node_id":"0.0-19.0","task_version":"prescreen-v0.3","interactions":"[{\"event\":\"blur\",\"trial\":0,\"time\":391},{\"event\":\"focus\",\"trial\":0,\"time\":69094},{\"event\":\"blur\",\"trial\":0,\"time\":70737},{\"event\":\"focus\",\"trial\":0,\"time\":74233},{\"event\":\"blur\",\"trial\":2,\"time\":109026},{\"event\":\"focus\",\"trial\":2,\"time\":120895},{\"event\":\"blur\",\"trial\":2,\"time\":174357},{\"event\":\"focus\",\"trial\":2,\"time\":178110},{\"event\":\"blur\",\"trial\":3,\"time\":187835},{\"event\":\"focus\",\"trial\":3,\"time\":192613},{\"event\":\"blur\",\"trial\":3,\"time\":193190},{\"event\":\"focus\",\"trial\":3,\"time\":357268},{\"event\":\"blur\",\"trial\":5,\"time\":395874},{\"event\":\"focus\",\"trial\":5,\"time\":401198},{\"event\":\"blur\",\"trial\":5,\"time\":401206},{\"event\":\"focus\",\"trial\":5,\"time\":420733},{\"event\":\"blur\",\"trial\":5,\"time\":422274},{\"event\":\"focus\",\"trial\":5,\"time\":425459},{\"event\":\"blur\",\"trial\":5,\"time\":426354},{\"event\":\"focus\",\"trial\":5,\"time\":502487},{\"event\":\"blur\",\"trial\":6,\"time\":513410},{\"event\":\"focus\",\"trial\":6,\"time\":543196},{\"event\":\"blur\",\"trial\":7,\"time\":550666},{\"event\":\"focus\",\"trial\":7,\"time\":577680},{\"event\":\"blur\",\"trial\":9,\"time\":606886},{\"event\":\"focus\",\"trial\":9,\"time\":634127},{\"event\":\"blur\",\"trial\":10,\"time\":690482},{\"event\":\"focus\",\"trial\":10,\"time\":691510},{\"event\":\"blur\",\"trial\":10,\"time\":692316},{\"event\":\"focus\",\"trial\":10,\"time\":716722},{\"event\":\"blur\",\"trial\":10,\"time\":718306},{\"event\":\"focus\",\"trial\":10,\"time\":747089},{\"event\":\"blur\",\"trial\":14,\"time\":783836},{\"event\":\"focus\",\"trial\":14,\"time\":819946},{\"event\":\"blur\",\"trial\":17,\"time\":912439},{\"event\":\"focus\",\"trial\":17,\"time\":938569}]"}]