[{"view_history":[{"page_index":0,"viewing_time":9400.5},{"page_index":1,"viewing_time":5541},{"page_index":2,"viewing_time":3054.199999988079},{"page_index":3,"viewing_time":1265.699999988079}],"rt":19264.69999998808,"trial_type":"instructions","trial_index":0,"time_elapsed":19292,"internal_node_id":"0.0-0.0","task_version":"prescreen-v0.3"},{"rt":27646.5,"responses":{"age":"31","gender-categorical":"Female","gender-free-response":"","ethnicity":"Not Hispanic or Latino","race":["White"],"education":"Master degree or higher"},"trial_type":"survey-demo","trial_index":1,"time_elapsed":46969,"internal_node_id":"0.0-1.0","task_version":"prescreen-v0.3"},{"responses":{"Q19":"2","Q06":"1","Q11":"2","Q03":"0","Q07":"1","Q20":"0","Q09":"1","Q02":"1","Q14":"1","Q12":"2","Q01":"1","Q15":"0","Q18":"1","Q04":"1","Q17":"1","Q05":"2","Q08":"1","Q13":"2","Q10":"1","Q21":"3","Q16":"1"},"rt":77753.19999998808,"item_order":[18,5,10,2,6,19,8,1,13,11,0,14,17,3,16,4,7,12,9,20,15],"radio_events":[10136.699999988079,10923.399999976158,11905.600000023842,12824.800000011921,13740,15875.699999988079,16995.69999998808,17898.80000001192,26442.600000023842,27475.899999976158,28225.399999976158,34417,35168.89999997616,37069.80000001192,62701.80000001192,63619.80000001192,64553.39999997616,65204.30000001192,66120.89999997616,69836,72810.80000001192],"key_events":[],"mouse_events":[10136.699999988079,10923.399999976158,11905.600000023842,12824.800000011921,13740,15875.699999988079,16995.69999998808,17898.80000001192,26442.600000023842,27475.899999976158,28225.399999976158,34417,35168.89999997616,37069.80000001192,62701.80000001192,63619.80000001192,64553.39999997616,65204.30000001192,66120.89999997616,68506.69999998808,69836,72810.80000001192,77736.60000002384],"straightlining":0.5714285714285714,"zigzagging":0.65,"honeypot":0,"survey":"sns","trial_type":"survey-template","trial_index":2,"time_elapsed":124755,"internal_node_id":"0.0-2.0","task_version":"prescreen-v0.3","browser_interactions":0,"infrequency":0},{"responses":{"Q10":"1","Q06":"2","Q09":"1","Q08":"3","Q13":"0","Q12":"1","Q01":"2","Q07":"1","Q02":"2","Q04":"1","Q03":"1","Q11":"2","Q05":"1"},"rt":52645.19999998808,"item_order":[9,5,8,7,12,11,0,6,1,3,2,10,4],"radio_events":[8916.599999964237,10404.099999964237,11953.5,21745.299999952316,31528.399999976158,33495.89999997616,36217.299999952316,44007.69999998808,45443.69999998808,47911.69999998808,48614.19999998808,49534.69999998808,50465.89999997616,51787.39999997616],"key_events":[],"mouse_events":[8916.599999964237,10404.099999964237,11953.5,21745.299999952316,31528.399999976158,33495.89999997616,36217.299999952316,44007.69999998808,45443.69999998808,47911.69999998808,48614.19999998808,49534.69999998808,50465.89999997616,51787.39999997616,52636.09999996424],"straightlining":0.5384615384615384,"zigzagging":0.8333333333333334,"honeypot":0,"survey":"bisbas","trial_type":"survey-template","trial_index":3,"time_elapsed":177422,"internal_node_id":"0.0-3.0","task_version":"prescreen-v0.3","browser_interactions":0,"infrequency":0},{"responses":{"Q01":"2","Q02":"1","Q03":"2"},"rt":11986.199999988079,"radio_events":[2922.300000011921,3856.100000023842,9731.199999988079],"key_events":[],"mouse_events":[2922.300000011921,3856.100000023842,5426,9731.199999988079,11981.300000011921],"survey":"map","page":1,"trial_type":"survey-map","trial_index":4,"time_elapsed":189427,"internal_node_id":"0.0-4.0","task_version":"prescreen-v0.3","browser_interactions":0},{"responses":{"Q04":"2","Q05":"1","Q06":"2"},"rt":14621.700000047684,"radio_events":[8993.100000023842,9959.100000023842,13764.300000011921],"key_events":[],"mouse_events":[8993.100000023842,9959.100000023842,13764.300000011921,14617.700000047684],"survey":"map","page":2,"trial_type":"survey-map","trial_index":5,"time_elapsed":204062,"internal_node_id":"0.0-5.0","task_version":"prescreen-v0.3","browser_interactions":0},{"responses":{"Q07":"2","Q08":"3","Q09":"4"},"rt":30537.899999976158,"radio_events":[2120.099999964237,14964.399999976158,17118.399999976158,27950.399999976158],"key_events":[],"mouse_events":[2120.099999964237,14964.399999976158,17118.399999976158,27950.399999976158,30533.5],"survey":"map","page":3,"trial_type":"survey-map","trial_index":6,"time_elapsed":234612,"internal_node_id":"0.0-6.0","task_version":"prescreen-v0.3","browser_interactions":0},{"responses":{"Q10":"2","Q11":"3","Q12":"1","Q13":"2","Q16":"0","Q14":"2","Q15":"0"},"rt":50980.10000002384,"radio_events":[2807.2000000476837,3237.100000023842,15923.200000047684,16350.400000035763,24233.700000047684,24898.200000047684,29790],"key_events":[],"mouse_events":[2807.2000000476837,3237.100000023842,15923.200000047684,16350.400000035763,24233.700000047684,24898.200000047684,29790,50970.5],"survey":"map","page":4,"trial_type":"survey-map","trial_index":7,"time_elapsed":285609,"internal_node_id":"0.0-7.0","task_version":"prescreen-v0.3","browser_interactions":0,"infrequency":0},{"view_history":[{"page_index":0,"viewing_time":4407.199999988079},{"page_index":1,"viewing_time":2406.5}],"rt":6815.099999964237,"trial_type":"instructions","trial_index":8,"time_elapsed":292432,"internal_node_id":"0.0-8.0","task_version":"prescreen-v0.3"},{"responses":{"01":"Yes","01_ages_16":"16","01_ages_18":"18","02":"No","03":"Yes","03_ages_14":"14","04":"No","05":"No","06":"No"},"rt":74075.90000003576,"item_order":[0,1,2,3,4,5],"radio_events":[3998.7000000476837,24841.700000047684,37723,44163.30000001192,46064,73286.20000004768],"checkbox_events":[17663.100000023842,21550.600000023842,40908.60000002384],"key_events":[],"mouse_events":[0.5,3998.7000000476837,17663.100000023842,21550.600000023842,24841.700000047684,37723,40908.60000002384,44163.30000001192,46064,73286.20000004768,74052.30000001192],"honeypot":0,"survey":"mace","page":1,"trial_type":"survey-mace","trial_index":9,"time_elapsed":366547,"internal_node_id":"0.0-9.0","task_version":"prescreen-v0.3","browser_interactions":0},{"responses":{"01":"Yes","01_ages_14":"14","01_ages_15":"15","02":"No","03":"Yes","03_ages_3":"3","03_ages_4":"4","04":"No","05":"No","06":"No","07":"No","08":"No"},"rt":31943.100000023842,"item_order":[0,1,2,3,4,5,6,7],"radio_events":[3597.300000011921,17062.900000035763,19384.400000035763,23321.400000035763,25790.600000023842,28189.700000047684,29894.900000035763,31329.30000001192],"checkbox_events":[4618.5,7198.400000035763,14060.700000047684,14439.200000047684,20584.5,21386],"key_events":[],"mouse_events":[3597.300000011921,4618.5,7198.400000035763,14060.700000047684,14439.200000047684,17062.900000035763,19384.400000035763,20584.5,21386,23321.400000035763,25790.600000023842,28189.700000047684,29894.900000035763,31329.30000001192,31912.5],"honeypot":0,"survey":"mace","page":2,"trial_type":"survey-mace","trial_index":10,"time_elapsed":398525,"internal_node_id":"0.0-10.0","task_version":"prescreen-v0.3","browser_interactions":0},{"responses":{"01":"Yes","01_ages_9":"9","01_ages_10":"10","02":"No","03":"No","04":"No"},"rt":26041.899999976158,"item_order":[0,1,2,3],"radio_events":[16794.899999976158,22160.099999964237,23360.099999964237,25095.599999964237],"checkbox_events":[18108.599999964237,18454.19999998808],"key_events":[],"mouse_events":[16794.899999976158,18108.599999964237,18454.19999998808,22160.099999964237,23360.099999964237,25095.599999964237,26025.69999998808],"honeypot":0,"survey":"mace","page":3,"trial_type":"survey-mace","trial_index":11,"time_elapsed":424593,"internal_node_id":"0.0-11.0","task_version":"prescreen-v0.3","browser_interactions":0},{"responses":{"01":"No","02":"Yes","02_ages_17":"17","02_ages_18":"18"},"rt":49625.69999998808,"item_order":[0,1],"radio_events":[8417.399999976158,10468.300000011921,19997.30000001192],"checkbox_events":[46647.80000001192,47261],"key_events":[],"mouse_events":[8417.399999976158,10468.300000011921,19997.30000001192,46647.80000001192,47261,49617.39999997616],"honeypot":0,"survey":"mace","page":4,"trial_type":"survey-mace","trial_index":12,"time_elapsed":474235,"internal_node_id":"0.0-12.0","task_version":"prescreen-v0.3","browser_interactions":0},{"responses":{"01":"No","02":"No","03":"Yes","03_ages_8":"8","03_ages_9":"9","04":"No","05":"No"},"rt":13222.700000047684,"item_order":[0,1,2,3,4],"radio_events":[3095,4560.800000011921,5916.700000047684,9685.600000023842,12436.800000011921],"checkbox_events":[7032.100000023842,7513.700000047684],"key_events":[],"mouse_events":[3095,4560.800000011921,5916.700000047684,7032.100000023842,7513.700000047684,9685.600000023842,12436.800000011921,13203.5],"honeypot":0,"survey":"mace","page":5,"trial_type":"survey-mace","trial_index":13,"time_elapsed":487483,"internal_node_id":"0.0-13.0","task_version":"prescreen-v0.3","browser_interactions":0},{"responses":{"01":"Yes","01_ages_15":"15","01_ages_16":"16","02":"No","03":"No","04":"No","05":"No"},"rt":18414.5,"item_order":[0,1,2,3,4],"radio_events":[4530.200000047684,13009,14630,16724.400000035763,17830.700000047684],"checkbox_events":[5748.300000011921,6179.700000047684],"key_events":[],"mouse_events":[4530.200000047684,5748.300000011921,6179.700000047684,13009,14630,16724.400000035763,17830.700000047684,18395.30000001192],"honeypot":0,"survey":"mace","page":6,"trial_type":"survey-mace","trial_index":14,"time_elapsed":505925,"internal_node_id":"0.0-14.0","task_version":"prescreen-v0.3","browser_interactions":0},{"responses":{"01":"Yes","01_ages_4":"4","01_ages_5":"5","02":"Yes","02_ages_9":"9","02_ages_10":"10","03":"No","04":"No","05":"No","06":"No","07":"No"},"rt":18856,"item_order":[0,1,2,3,4,5,6],"radio_events":[3058.300000011921,7912.5,10702.900000035763,13722.300000011921,15205.300000011921,16758.30000001192,17891.80000001192],"checkbox_events":[4144.600000023842,4777.400000035763,8931.700000047684,9329.900000035763],"key_events":[],"mouse_events":[3058.300000011921,4144.600000023842,4777.400000035763,7912.5,8931.700000047684,9329.900000035763,10702.900000035763,13722.300000011921,15205.300000011921,16758.30000001192,17891.80000001192,18829.5],"honeypot":0,"survey":"mace","page":7,"trial_type":"survey-mace","trial_index":15,"time_elapsed":524812,"internal_node_id":"0.0-15.0","task_version":"prescreen-v0.3","browser_interactions":0},{"responses":{"01":"Yes","01_ages_13":"13","01_ages_14":"14","02":"No","03":"No","04":"No"},"rt":31297.100000023842,"item_order":[0,1,2,3],"radio_events":[4781.600000023842,19984.5,23639.80000001192,30678.900000035763],"checkbox_events":[5886.100000023842,6236.199999988079,7148.800000011921,8052.900000035763],"key_events":[],"mouse_events":[4781.600000023842,5886.100000023842,6236.199999988079,7148.800000011921,8052.900000035763,19984.5,23639.80000001192,30678.900000035763,31281.30000001192],"honeypot":0,"survey":"mace","page":8,"trial_type":"survey-mace","trial_index":16,"time_elapsed":556132,"internal_node_id":"0.0-16.0","task_version":"prescreen-v0.3","browser_interactions":0},{"responses":{"01":"Yes","01_ages_8":"8","01_ages_9":"9","01_ages_10":"10","02":"Yes","02_ages_8":"8","02_ages_9":"9","02_ages_10":"10","03":"Yes","03_ages_8":"8","03_ages_9":"9","03_ages_10":"10","04":"Yes","04_ages_10":"10","04_ages_11":"11"},"rt":51540.30000001192,"item_order":[0,1,2,3],"radio_events":[3233.900000035763,10708,21155.600000023842,34783.700000047684],"checkbox_events":[6218.800000011921,6599.700000047684,7437.900000035763,13194.100000023842,13594.200000047684,13910.600000023842,15076.300000011921,16414.200000047684,23103.700000047684,23539,24526.400000035763,37362.80000001192,37938.90000003576,39175.40000003576,39610],"key_events":[],"mouse_events":[3233.900000035763,6218.800000011921,6599.700000047684,7437.900000035763,9542.100000023842,10708,13194.100000023842,13594.200000047684,13910.600000023842,15076.300000011921,15578.400000035763,16414.200000047684,21155.600000023842,22758.5,23103.700000047684,23539,24526.400000035763,34783.700000047684,37362.80000001192,37938.90000003576,39175.40000003576,39610,50514.200000047684,51524.80000001192],"honeypot":0,"survey":"mace","page":9,"trial_type":"survey-mace","trial_index":17,"time_elapsed":607695,"internal_node_id":"0.0-17.0","task_version":"prescreen-v0.3","browser_interactions":0},{"responses":{"01":"No","02":"No","03":"No","04":"Yes","04_ages_8":"8","04_ages_9":"9","05":"No","06":"Yes","06_ages_17":"17","07":"Yes","07_ages_12":"12","07_ages_13":"13","08":"Yes","08_ages_13":"13","08_ages_14":"14","08_ages_15":"15"},"rt":52152.799999952316,"item_order":[0,1,2,3,4,5,6,7],"radio_events":[2045.5999999642372,2848.899999976158,7205.5,13309.399999976158,28711.69999998808,30598.69999998808,32317.799999952316,41944,45379.59999996424],"checkbox_events":[14159.399999976158,14642.5,15647,16241,17063.599999964237,17744.799999952316,35019.59999996424,43163.89999997616,43759,46398.799999952316,47215.299999952316,47813.5],"key_events":[],"mouse_events":[2045.5999999642372,2848.899999976158,5350.5,7205.5,12311.399999976158,13309.399999976158,14159.399999976158,14642.5,15647,16241,17063.599999964237,17744.799999952316,28711.69999998808,30598.69999998808,32317.799999952316,35019.59999996424,41944,43163.89999997616,43759,45379.59999996424,46398.799999952316,47215.299999952316,47813.5,52122.69999998808],"honeypot":0,"survey":"mace","page":10,"trial_type":"survey-mace","trial_index":18,"time_elapsed":659884,"internal_node_id":"0.0-18.0","task_version":"prescreen-v0.3","browser_interactions":0,"instructed":0},{"rt":5228.699999988079,"trial_type":"mental-health-alert","trial_index":19,"time_elapsed":665126,"internal_node_id":"0.0-19.0","task_version":"prescreen-v0.3","interactions":"[]"}]