[{"view_history":[{"page_index":0,"viewing_time":6577.299999982119},{"page_index":1,"viewing_time":2660.9000000059605},{"page_index":2,"viewing_time":4494.0999999940395},{"page_index":3,"viewing_time":1128.1000000238419}],"rt":14862.59999999404,"trial_type":"instructions","trial_index":0,"time_elapsed":14927,"internal_node_id":"0.0-0.0","task_version":"prescreen-v0.3"},{"rt":14064,"responses":{"age":"26","gender-categorical":"Male","gender-free-response":"","ethnicity":"Hispanic or Latino","race":["White"],"education":"Bachelor degree"},"trial_type":"survey-demo","trial_index":1,"time_elapsed":29005,"internal_node_id":"0.0-1.0","task_version":"prescreen-v0.3"},{"responses":{"Q09":"2","Q17":"1","Q21":"2","Q05":"2","Q08":"3","Q15":"2","Q04":"3","Q20":"0","Q03":"1","Q16":"1","Q01":"1","Q07":"2","Q13":"2","Q18":"2","Q02":"2","Q14":"1","Q12":"2","Q10":"2","Q11":"3","Q06":"2","Q19":"2"},"rt":126255.19999998808,"item_order":[8,16,20,4,7,14,3,19,2,15,0,6,12,17,1,13,11,9,10,5,18],"radio_events":[12154.09999999404,15971.59999999404,20870.5,28797.29999998212,33568.29999998212,41857.09999999404,45789.29999998212,48071.19999998808,51764.29999998212,55088.29999998212,60768.5,65024,72424.19999998808,77190.19999998808,83171,89774.90000000596,95189,99967.69999998808,103889.79999998212,107815.79999998212,119820.69999998808,125225.69999998808],"key_events":[],"mouse_events":[12154.09999999404,15971.59999999404,20870.5,28797.29999998212,33568.29999998212,41857.09999999404,45789.29999998212,48071.19999998808,51764.29999998212,55088.29999998212,60768.5,65024,72424.19999998808,77190.19999998808,83171,89774.90000000596,95189,99967.69999998808,103889.79999998212,107815.79999998212,119820.69999998808,125225.69999998808,126248],"straightlining":0.5714285714285714,"zigzagging":0.6,"honeypot":0,"survey":"sns","trial_type":"survey-template","trial_index":2,"time_elapsed":155283,"internal_node_id":"0.0-2.0","task_version":"prescreen-v0.3","browser_interactions":0,"infrequency":0.5},{"responses":{"Q10":"2","Q11":"1","Q08":"2","Q07":"3","Q06":"2","Q01":"3","Q12":"2","Q03":"3","Q05":"2","Q13":"0","Q09":"2","Q02":"2","Q04":"3"},"rt":70912.80000001192,"item_order":[9,10,7,6,5,0,11,2,4,12,8,1,3],"radio_events":[9822.800000011921,14559.59999999404,19625.69999998808,23544.90000000596,28163.5,31318.40000000596,37074.19999998808,43384.80000001192,47992.5,54575.40000000596,61841,65855.30000001192,69840.30000001192],"key_events":[],"mouse_events":[9822.800000011921,14559.59999999404,19625.69999998808,23544.90000000596,28163.5,31318.40000000596,37074.19999998808,43384.80000001192,47992.5,54575.40000000596,61841,65855.30000001192,69840.30000001192,70908.5],"straightlining":0.5384615384615384,"zigzagging":0.75,"honeypot":0,"survey":"bisbas","trial_type":"survey-template","trial_index":3,"time_elapsed":226214,"internal_node_id":"0.0-3.0","task_version":"prescreen-v0.3","browser_interactions":0,"infrequency":0},{"responses":{"Q01":"2","Q02":"1","Q03":"3"},"rt":33560.5,"radio_events":[15443.699999988079,22354.09999999404,32610.29999998212],"key_events":[],"mouse_events":[15443.699999988079,22354.09999999404,32610.29999998212,33558.5],"survey":"map","page":1,"trial_type":"survey-map","trial_index":4,"time_elapsed":259790,"internal_node_id":"0.0-4.0","task_version":"prescreen-v0.3","browser_interactions":0},{"responses":{"Q04":"2","Q05":"2","Q06":"3"},"rt":17231.80000001192,"radio_events":[6751.0999999940395,13004,16451],"key_events":[],"mouse_events":[6751.0999999940395,13004,16451,17229.90000000596],"survey":"map","page":2,"trial_type":"survey-map","trial_index":5,"time_elapsed":277035,"internal_node_id":"0.0-5.0","task_version":"prescreen-v0.3","browser_interactions":0},{"responses":{"Q07":"3","Q08":"4","Q09":"3"},"rt":35945.5,"radio_events":[9531.699999988079,17367.59999999404,27682.5,32549.69999998808],"key_events":[],"mouse_events":[9531.699999988079,17367.59999999404,27682.5,32549.69999998808,35943.5],"survey":"map","page":3,"trial_type":"survey-map","trial_index":6,"time_elapsed":312995,"internal_node_id":"0.0-6.0","task_version":"prescreen-v0.3","browser_interactions":0},{"responses":{"Q10":"1","Q11":"0","Q12":"2","Q13":"2","Q16":"1","Q14":"3","Q15":"2"},"rt":77209.5,"radio_events":[7284.199999988079,11872.09999999404,21975.09999999404,44398,59680.69999998808,66827.69999998808,74667.79999998212,76072.59999999404],"key_events":[],"mouse_events":[7284.199999988079,11872.09999999404,21975.09999999404,44398,59680.69999998808,61967,66827.69999998808,74667.79999998212,76072.59999999404,77205.89999997616],"survey":"map","page":4,"trial_type":"survey-map","trial_index":7,"time_elapsed":390221,"internal_node_id":"0.0-7.0","task_version":"prescreen-v0.3","browser_interactions":0,"infrequency":1},{"view_history":[{"page_index":0,"viewing_time":2048.300000011921},{"page_index":1,"viewing_time":6028.699999988079}],"rt":8079.0999999940395,"trial_type":"instructions","trial_index":8,"time_elapsed":398312,"internal_node_id":"0.0-8.0","task_version":"prescreen-v0.3"},{"responses":{"01":"Yes","01_ages_4":"4","01_ages_5":"5","01_ages_6":"6","01_ages_7":"7","01_ages_8":"8","01_ages_9":"9","01_ages_10":"10","01_ages_11":"11","01_ages_12":"12","02":"Yes","02_ages_4":"4","02_ages_5":"5","02_ages_6":"6","02_ages_7":"7","02_ages_8":"8","02_ages_9":"9","02_ages_10":"10","02_ages_11":"11","02_ages_12":"12","02_ages_13":"13","02_ages_14":"14","03":"Yes","03_ages_9":"9","03_ages_10":"10","04":"No","05":"No","06":"Yes","06_ages_10":"10"},"rt":81068.69999998808,"item_order":[0,1,2,3,4,5],"radio_events":[14640.40000000596,39082.19999998808,59632.09999999404,66290.90000000596,71878.19999998808,76302.80000001192],"checkbox_events":[24846.09999999404,25401.30000001192,26127.40000000596,28162.40000000596,29000.19999998808,29762.19999998808,30485.40000000596,31176.19999998808,32084.30000001192,40972.30000001192,41475.09999999404,42005.09999999404,42546.30000001192,43517.19999998808,44080.09999999404,45690,46222,51869,52623.80000001192,53300.09999999404,60971.90000000596,77147.80000001192,78951],"key_events":[],"mouse_events":[0.19999998807907104,14640.40000000596,24846.09999999404,25401.30000001192,26127.40000000596,28162.40000000596,29000.19999998808,29762.19999998808,30485.40000000596,31176.19999998808,32084.30000001192,39082.19999998808,40972.30000001192,41475.09999999404,42005.09999999404,42546.30000001192,43517.19999998808,44080.09999999404,44585.19999998808,45690,46222,51869,52623.80000001192,53300.09999999404,59632.09999999404,60971.90000000596,66290.90000000596,70967,71398.5,71878.19999998808,76302.80000001192,77147.80000001192,78951,81058],"honeypot":0,"survey":"mace","page":1,"trial_type":"survey-mace","trial_index":9,"time_elapsed":479403,"internal_node_id":"0.0-9.0","task_version":"prescreen-v0.3","browser_interactions":0},{"responses":{"01":"No","02":"No","03":"Yes","03_ages_4":"4","03_ages_5":"5","03_ages_6":"6","03_ages_7":"7","03_ages_8":"8","03_ages_9":"9","03_ages_10":"10","04":"Yes","04_ages_4":"4","04_ages_5":"5","04_ages_6":"6","04_ages_7":"7","05":"Yes","05_ages_10":"10","06":"No","07":"No","08":"No"},"rt":56908.09999999404,"item_order":[0,1,2,3,4,5,6,7],"radio_events":[8022.199999988079,9761.5,11973.40000000596,31927,37971.19999998808,45536.30000001192,47623.19999998808,50488.19999998808],"checkbox_events":[14802.800000011921,15304.40000000596,15970.40000000596,16720.5,17299.40000000596,17768.40000000596,18373,33131.40000000596,33607.30000001192,34079.40000000596,34567.40000000596,38874.19999998808],"key_events":[],"mouse_events":[8022.199999988079,9761.5,11973.40000000596,14802.800000011921,15304.40000000596,15970.40000000596,16720.5,17299.40000000596,17768.40000000596,18373,31927,33131.40000000596,33607.30000001192,34079.40000000596,34567.40000000596,37971.19999998808,38874.19999998808,45536.30000001192,47623.19999998808,50488.19999998808,56894.69999998808],"honeypot":0,"survey":"mace","page":2,"trial_type":"survey-mace","trial_index":10,"time_elapsed":536333,"internal_node_id":"0.0-10.0","task_version":"prescreen-v0.3","browser_interactions":0},{"responses":{"01":"No","02":"No","03":"No","04":"No"},"rt":17016.19999998808,"item_order":[0,1,2,3],"radio_events":[7940.299999982119,12896.199999988079,14358.09999999404,16295.199999988079],"checkbox_events":[],"key_events":[],"mouse_events":[7940.299999982119,10631,12896.199999988079,14358.09999999404,16295.199999988079,17009.19999998808],"honeypot":0,"survey":"mace","page":3,"trial_type":"survey-mace","trial_index":11,"time_elapsed":553366,"internal_node_id":"0.0-11.0","task_version":"prescreen-v0.3","browser_interactions":0},{"responses":{"01":"No","02":"No"},"rt":9881,"item_order":[0,1],"radio_events":[8179.9000000059605,9094.800000011921],"checkbox_events":[],"key_events":[],"mouse_events":[6843.5,8179.9000000059605,9094.800000011921,9876.800000011921],"honeypot":0,"survey":"mace","page":4,"trial_type":"survey-mace","trial_index":12,"time_elapsed":563262,"internal_node_id":"0.0-12.0","task_version":"prescreen-v0.3","browser_interactions":0},{"responses":{"01":"No","02":"No","03":"No","04":"No","05":"No"},"rt":24419.90000000596,"item_order":[0,1,2,3,4],"radio_events":[13556.90000000596,15710.90000000596,19008.80000001192,22879.80000001192,23489.70000001788],"checkbox_events":[],"key_events":[],"mouse_events":[13556.90000000596,15710.90000000596,19008.80000001192,21767.80000001192,22879.80000001192,23489.70000001788,24410.90000000596],"honeypot":0,"survey":"mace","page":5,"trial_type":"survey-mace","trial_index":13,"time_elapsed":587700,"internal_node_id":"0.0-13.0","task_version":"prescreen-v0.3","browser_interactions":0},{"responses":{"01":"Yes","01_ages_3":"3","01_ages_4":"4","01_ages_5":"5","01_ages_6":"6","01_ages_7":"7","01_ages_8":"8","01_ages_9":"9","01_ages_10":"10","01_ages_11":"11","01_ages_12":"12","01_ages_13":"13","01_ages_14":"14","01_ages_15":"15","02":"Yes","02_ages_3":"3","02_ages_4":"4","02_ages_5":"5","02_ages_6":"6","02_ages_7":"7","02_ages_8":"8","02_ages_9":"9","02_ages_10":"10","02_ages_11":"11","02_ages_12":"12","02_ages_13":"13","02_ages_14":"14","02_ages_15":"15","03":"Yes","03_ages_11":"11","03_ages_12":"12","03_ages_13":"13","03_ages_14":"14","03_ages_15":"15","03_ages_16":"16","03_ages_17":"17","04":"No","05":"Yes","05_ages_12":"12"},"rt":80615.80000001192,"item_order":[0,1,2,3,4],"radio_events":[6638.4000000059605,26110.09999999404,39398.20000001788,66783.90000000596,77123.80000001192],"checkbox_events":[11015.300000011921,11609.200000017881,12372,13091.300000011921,13660,14267,15412.40000000596,17781.20000001788,18788.20000001788,19280.20000001788,20557.20000001788,21111.30000001192,22280.20000001788,28172.90000000596,28632.09999999404,29194.09999999404,29654.09999999404,30175.20000001788,30753.09999999404,31291.09999999404,32052.90000000596,33019.20000001788,33551.20000001788,34201.30000001192,34780.90000000596,35586.09999999404,40883.09999999404,41330.90000000596,42023,44560,45633.80000001192,47272,56398,57129,57984.80000001192,78698.90000000596],"key_events":[],"mouse_events":[6638.4000000059605,11015.300000011921,11609.200000017881,12372,13091.300000011921,13660,14267,15412.40000000596,17781.20000001788,18194.20000001788,18788.20000001788,19280.20000001788,19991.09999999404,20557.20000001788,21111.30000001192,22280.20000001788,26110.09999999404,28172.90000000596,28632.09999999404,29194.09999999404,29654.09999999404,30175.20000001788,30753.09999999404,31291.09999999404,32052.90000000596,33019.20000001788,33551.20000001788,34201.30000001192,34780.90000000596,35586.09999999404,39398.20000001788,40883.09999999404,41330.90000000596,42023,44560,45633.80000001192,47272,56398,57129,57628.30000001192,57984.80000001192,66783.90000000596,77123.80000001192,78698.90000000596,80606.90000000596],"honeypot":0,"survey":"mace","page":6,"trial_type":"survey-mace","trial_index":14,"time_elapsed":668333,"internal_node_id":"0.0-14.0","task_version":"prescreen-v0.3","browser_interactions":0},{"responses":{"01":"No","02":"No","03":"Yes","03_ages_11":"11","03_ages_12":"12","04":"Yes","04_ages_11":"11","05":"No","06":"No","07":"No"},"rt":41316.30000001192,"item_order":[0,1,2,3,4,5,6],"radio_events":[4848.600000023842,10602.100000023842,12257,23716.20000001788,31532.20000001788,38296.20000001788,39166.10000002384],"checkbox_events":[13680.300000011921,21239,24891],"key_events":[],"mouse_events":[4848.600000023842,10602.100000023842,12257,13680.300000011921,21239,23716.20000001788,24891,31532.20000001788,38296.20000001788,39166.10000002384,41304.40000000596],"honeypot":0,"survey":"mace","page":7,"trial_type":"survey-mace","trial_index":15,"time_elapsed":709669,"internal_node_id":"0.0-15.0","task_version":"prescreen-v0.3","browser_interactions":0},{"responses":{"01":"Yes","01_ages_3":"3","01_ages_4":"4","01_ages_5":"5","01_ages_6":"6","01_ages_7":"7","01_ages_8":"8","01_ages_9":"9","01_ages_10":"10","01_ages_11":"11","01_ages_12":"12","01_ages_13":"13","02":"Yes","02_ages_3":"3","02_ages_4":"4","02_ages_5":"5","02_ages_6":"6","02_ages_7":"7","02_ages_8":"8","02_ages_9":"9","02_ages_10":"10","02_ages_11":"11","02_ages_12":"12","02_ages_13":"13","02_ages_14":"14","02_ages_15":"15","03":"No","03_ages_6":"6","03_ages_7":"7","03_ages_8":"8","03_ages_9":"9","03_ages_10":"10","03_ages_11":"11","03_ages_12":"12","03_ages_13":"13","03_ages_14":"14","03_ages_15":"15","04":"No"},"rt":81144.39999997616,"item_order":[0,1,2,3],"radio_events":[7597.5,42322.29999998212,62765.09999999404,75211,80178.19999998808],"checkbox_events":[15900.299999982119,16834.19999998808,17846.5,18276.399999976158,18792.69999998808,19705.29999998212,21170.5,21684.5,22439.399999976158,23177.399999976158,24250.399999976158,26218.5,30352.19999998808,30785.399999976158,31652.5,32919.39999997616,34958.39999997616,45281.29999998212,45680.29999998212,46073.29999998212,46553.19999998808,47067.39999997616,47522.29999998212,48029.29999998212,48776.29999998212,50537.29999998212,51147.79999998212,51835,52360,53026,66655.19999998808,67085,67844.09999999404,68897.19999998808,69457.89999997616,69882.19999998808,70981,72301.69999998808,73361,74420.09999999404],"key_events":[],"mouse_events":[7597.5,15900.299999982119,16834.19999998808,17365.399999976158,17846.5,18276.399999976158,18792.69999998808,19705.29999998212,21170.5,21684.5,22439.399999976158,23177.399999976158,24250.399999976158,26218.5,30352.19999998808,30785.399999976158,31652.5,32919.39999997616,34958.39999997616,42322.29999998212,45281.29999998212,45680.29999998212,46073.29999998212,46553.19999998808,47067.39999997616,47522.29999998212,48029.29999998212,48776.29999998212,49376.89999997616,50537.29999998212,51147.79999998212,51835,52360,53026,62765.09999999404,66655.19999998808,67085,67844.09999999404,68897.19999998808,69457.89999997616,69882.19999998808,70981,71491.19999998808,72301.69999998808,72962.09999999404,73361,73861.79999998212,74420.09999999404,75211,80178.19999998808,81137.39999997616],"honeypot":0,"survey":"mace","page":8,"trial_type":"survey-mace","trial_index":16,"time_elapsed":790831,"internal_node_id":"0.0-16.0","task_version":"prescreen-v0.3","browser_interactions":0},{"responses":{"01":"Yes","01_ages_7":"7","01_ages_8":"8","01_ages_16":"16","01_ages_17":"17","01_ages_18":"18","02":"Yes","02_ages_7":"7","02_ages_8":"8","02_ages_15":"15","02_ages_16":"16","02_ages_17":"17","02_ages_18":"18","03":"Yes","03_ages_1":"1","03_ages_2":"2","03_ages_3":"3","03_ages_4":"4","03_ages_5":"5","03_ages_6":"6","03_ages_7":"7","03_ages_8":"8","03_ages_9":"9","03_ages_10":"10","03_ages_11":"11","03_ages_12":"12","03_ages_13":"13","03_ages_14":"14","03_ages_15":"15","03_ages_16":"16","03_ages_17":"17","03_ages_18":"18","04":"Yes","04_ages_1":"1","04_ages_2":"2","04_ages_3":"3","04_ages_4":"4","04_ages_5":"5","04_ages_6":"6","04_ages_7":"7","04_ages_8":"8","04_ages_9":"9","04_ages_10":"10","04_ages_11":"11","04_ages_12":"12","04_ages_13":"13","04_ages_14":"14","04_ages_15":"15","04_ages_16":"16","04_ages_17":"17","04_ages_18":"18"},"rt":135812.59999999404,"item_order":[0,1,2,3],"radio_events":[6618,59597.5,103650.40000000596,122862.30000001192],"checkbox_events":[14149,14687.59999999404,15816.90000000596,16316.59999999404,16749.69999998808,17901.59999999404,19068.80000001192,35691,38301.80000001192,38989.5,39454.80000001192,41970.69999998808,45964.59999999404,49391.80000001192,52918.69999998808,62138.69999998808,62701.69999998808,63581.40000000596,64059.40000000596,64561.5,65971.59999999404,66475.5,66967.40000000596,67576.59999999404,68410.59999999404,68921.40000000596,69232.5,70000.59999999404,70447.30000001192,70995.5,71746.40000000596,72125.5,77673.5,78173.59999999404,80248.40000000596,83933.59999999404,87049.40000000596,87736.5,89584.30000001192,91996.5,93381.5,96471.40000000596,96980.69999998808,106229.5,107275.40000000596,107975.30000001192,108721.5,109224.40000000596,109744.40000000596,110312.5,111143.09999999404,111646,112303.40000000596,112916.30000001192,113439.40000000596,113904,114417.59999999404,114916.19999998808,116044.30000001192,116618.5,117177.69999998808,124135.09999999404,124742.30000001192,125438.5,126400.09999999404,126933.09999999404,127685.19999998808,128376.40000000596,128871.30000001192,129499.19999998808,130077.30000001192,130565,131054.09999999404,131741.30000001192,132225.40000000596,132927,133923.19999998808,134611.30000001192,135074.19999998808],"key_events":[],"mouse_events":[6618,14149,14687.59999999404,15816.90000000596,16316.59999999404,16749.69999998808,17901.59999999404,19068.80000001192,35691,36383.69999998808,38301.80000001192,38989.5,39454.80000001192,41970.69999998808,45964.59999999404,49391.80000001192,52918.69999998808,59597.5,62138.69999998808,62701.69999998808,63581.40000000596,64059.40000000596,64561.5,64986.5,65971.59999999404,66475.5,66967.40000000596,67576.59999999404,68410.59999999404,68921.40000000596,69232.5,70000.59999999404,70447.30000001192,70995.5,71746.40000000596,72125.5,77673.5,78173.59999999404,80248.40000000596,83933.59999999404,87049.40000000596,87736.5,89584.30000001192,91471.80000001192,91996.5,93381.5,96471.40000000596,96980.69999998808,103650.40000000596,106229.5,107275.40000000596,107975.30000001192,108721.5,109224.40000000596,109744.40000000596,110312.5,110798.40000000596,111143.09999999404,111646,112303.40000000596,112916.30000001192,113439.40000000596,113904,114417.59999999404,114916.19999998808,116044.30000001192,116618.5,117177.69999998808,122862.30000001192,124135.09999999404,124742.30000001192,125438.5,126400.09999999404,126933.09999999404,127685.19999998808,128376.40000000596,128871.30000001192,129499.19999998808,130077.30000001192,130565,131054.09999999404,131741.30000001192,132225.40000000596,132927,133923.19999998808,134611.30000001192,135074.19999998808,135805.59999999404],"honeypot":0,"survey":"mace","page":9,"trial_type":"survey-mace","trial_index":17,"time_elapsed":926660,"internal_node_id":"0.0-17.0","task_version":"prescreen-v0.3","browser_interactions":0},{"responses":{"01":"No","02":"No","03":"Yes","03_ages_7":"7","03_ages_8":"8","03_ages_9":"9","03_ages_10":"10","03_ages_11":"11","03_ages_12":"12","03_ages_13":"13","03_ages_14":"14","03_ages_15":"15","03_ages_16":"16","03_ages_17":"17","03_ages_18":"18","04":"Yes","04_ages_11":"11","04_ages_12":"12","04_ages_13":"13","04_ages_14":"14","04_ages_15":"15","04_ages_16":"16","04_ages_17":"17","04_ages_18":"18","05":"No","06":"Yes","06_ages_17":"17","07":"Yes","07_ages_16":"16","07_ages_17":"17","07_ages_18":"18","08":"Yes","08_ages_17":"17","08_ages_18":"18"},"rt":77264,"item_order":[0,1,2,3,4,5,6,7],"radio_events":[8061.5999999940395,9811.59999999404,17742.30000001192,36390.19999998808,51427.19999998808,53711.69999998808,59874.80000001192,69766.90000000596],"checkbox_events":[22902.5,23614.30000001192,24037,25884.5,27062.30000001192,27555.19999998808,28046.30000001192,28568.30000001192,29120.40000000596,29991.30000001192,30528.40000000596,31055.19999998808,39190.19999998808,39689.19999998808,40181.19999998808,40926.09999999404,41441.19999998808,42011.19999998808,42551.19999998808,42977.09999999404,54937.19999998808,63822.90000000596,64526.90000000596,65093.90000000596,72080.69999998808,72588.80000001192],"key_events":[],"mouse_events":[8061.5999999940395,9811.59999999404,17742.30000001192,22902.5,23614.30000001192,24037,24950.09999999404,25884.5,26621.90000000596,27062.30000001192,27555.19999998808,28046.30000001192,28568.30000001192,29120.40000000596,29991.30000001192,30528.40000000596,31055.19999998808,36390.19999998808,39190.19999998808,39689.19999998808,40181.19999998808,40926.09999999404,41441.19999998808,42011.19999998808,42551.19999998808,42977.09999999404,51427.19999998808,53711.69999998808,54937.19999998808,59874.80000001192,63822.90000000596,64526.90000000596,65093.90000000596,69422.09999999404,69766.90000000596,72080.69999998808,72588.80000001192,77250.69999998808],"honeypot":0,"survey":"mace","page":10,"trial_type":"survey-mace","trial_index":18,"time_elapsed":1003945,"internal_node_id":"0.0-18.0","task_version":"prescreen-v0.3","browser_interactions":0,"instructed":0},{"rt":1800.5999999940395,"trial_type":"mental-health-alert","trial_index":19,"time_elapsed":1005759,"internal_node_id":"0.0-19.0","task_version":"prescreen-v0.3","interactions":"[]"}]