[{"view_history":[{"page_index":0,"viewing_time":4129.30000000447},{"page_index":1,"viewing_time":2927.60000000149},{"page_index":2,"viewing_time":3862.5999999940395},{"page_index":3,"viewing_time":1745.8000000044703}],"rt":12668.20000000298,"trial_type":"instructions","trial_index":0,"time_elapsed":12680,"internal_node_id":"0.0-0.0","task_version":"prescreen-v0.3"},{"rt":21453.70000000298,"responses":{"age":"31","gender-categorical":"Male","gender-free-response":"","ethnicity":"Hispanic or Latino","race":["White"],"education":"Bachelor degree","siblings":"2"},"trial_type":"survey-demo","trial_index":1,"time_elapsed":34154,"internal_node_id":"0.0-1.0","task_version":"prescreen-v0.3"},{"responses":{"Q17":"0","Q02":"0","Q11":"0","Q10":"0","Q12":"0","Q03":"0","Q06":"0","Q09":"0","Q20":"0","Q05":"0","Q16":"0","Q15":"0","Q13":"0","Q19":"0","Q14":"0","Q04":"0","Q21":"3","Q08":"0","Q07":"0","Q18":"0","Q01":"0"},"rt":117729.89999999851,"item_order":[16,1,10,9,11,2,5,8,19,4,15,14,12,18,13,3,20,7,6,17,0],"radio_events":[35431.09999999404,38785.79999999702,40653.5,42943.29999999702,45700.69999999553,47184.59999999404,47942.39999999851,51330.89999999851,52533.39999999851,55260.89999999851,62052.59999999404,65364,66945.39999999851,76411.89999999851,81269.79999999702,83376.09999999404,86043.09999999404,88885.59999999404,95703.39999999851,96990.89999999851,100233.89999999851,116195.5],"key_events":[],"mouse_events":[35431.09999999404,38785.79999999702,40653.5,42943.29999999702,45700.69999999553,46428.89999999851,47184.59999999404,47942.39999999851,50528.89999999851,51330.89999999851,52533.39999999851,54079,55260.89999999851,62052.59999999404,64376.59999999404,65364,66945.39999999851,70159.79999999702,71028.5,76411.89999999851,79698.19999999553,81269.79999999702,82338.29999999702,83376.09999999404,86043.09999999404,88885.59999999404,91180.79999999702,94285.19999999553,95703.39999999851,96990.89999999851,100233.89999999851,101304,106924.5,108857.79999999702,109637.79999999702,110223.79999999702,111770.59999999404,112438,112948.19999999553,116195.5,117719.29999999702],"straightlining":0.9523809523809523,"zigzagging":0.1,"honeypot":0,"survey":"sns","trial_type":"survey-template","trial_index":2,"time_elapsed":151908,"internal_node_id":"0.0-2.0","task_version":"prescreen-v0.3","browser_interactions":0,"infrequency":0},{"responses":{"Q06":"3","Q08":"3","Q05":"3","Q12":"3","Q01":"0","Q10":"3","Q07":"3","Q13":"0","Q03":"2","Q09":"3","Q04":"3","Q11":"3","Q02":"3"},"rt":55180.60000000149,"item_order":[5,7,4,11,0,9,6,12,2,8,3,10,1],"radio_events":[16849.90000000596,17658.70000000298,20962.40000000596,21658.20000000298,24557.40000000596,26827.5,28805.30000000447,31460.60000000149,37301.70000000298,42584,44217.80000000447,46342.10000000149,48303.40000000596,51692.60000000149,53859],"key_events":[],"mouse_events":[16849.90000000596,17658.70000000298,19535.5,20962.40000000596,21658.20000000298,23711.10000000149,24557.40000000596,26827.5,28031,28805.30000000447,31460.60000000149,37301.70000000298,40010.20000000298,42584,44217.80000000447,46342.10000000149,48303.40000000596,51692.60000000149,53026.60000000149,53859,55174.5],"straightlining":0.7692307692307693,"zigzagging":0.3333333333333333,"honeypot":0,"survey":"bisbas","trial_type":"survey-template","trial_index":3,"time_elapsed":207097,"internal_node_id":"0.0-3.0","task_version":"prescreen-v0.3","browser_interactions":2,"infrequency":0},{"responses":{"Q01":"4","Q02":"4","Q03":"4"},"rt":12920,"radio_events":[4969.29999999702,7685.10000000149,12024.39999999851],"key_events":[],"mouse_events":[4969.29999999702,7685.10000000149,12024.39999999851,12916.29999999702],"survey":"map","page":1,"trial_type":"survey-map","trial_index":4,"time_elapsed":220025,"internal_node_id":"0.0-4.0","task_version":"prescreen-v0.3","browser_interactions":0},{"responses":{"Q04":"4","Q05":"4","Q06":"4"},"rt":16339.60000000149,"radio_events":[8488.5,12692.19999999553,15496.39999999851],"key_events":[],"mouse_events":[8488.5,10571.19999999553,12692.19999999553,14266,15496.39999999851,16336.69999999553],"survey":"map","page":2,"trial_type":"survey-map","trial_index":5,"time_elapsed":236371,"internal_node_id":"0.0-5.0","task_version":"prescreen-v0.3","browser_interactions":2},{"responses":{"Q07":"4","Q08":"4","Q09":"4"},"rt":12300.69999999553,"radio_events":[4268.60000000149,5466.39999999851,10171.89999999851],"key_events":[],"mouse_events":[4268.60000000149,5466.39999999851,10171.89999999851,12297.79999999702],"survey":"map","page":3,"trial_type":"survey-map","trial_index":6,"time_elapsed":248680,"internal_node_id":"0.0-6.0","task_version":"prescreen-v0.3","browser_interactions":0},{"responses":{"Q10":"4","Q11":"4","Q12":"4","Q13":"4","Q16":"0","Q14":"4","Q15":"4"},"rt":43856.29999999702,"radio_events":[6943.5999999940395,15826.19999999553,21699.89999999851,28009.29999999702,31440.69999999553,40609.09999999404,42199.59999999404],"key_events":[],"mouse_events":[6943.5999999940395,15826.19999999553,21699.89999999851,25828.39999999851,28009.29999999702,31440.69999999553,39051.89999999851,40609.09999999404,42199.59999999404,43850.29999999702],"survey":"map","page":4,"trial_type":"survey-map","trial_index":7,"time_elapsed":292545,"internal_node_id":"0.0-7.0","task_version":"prescreen-v0.3","browser_interactions":0,"infrequency":0},{"view_history":[{"page_index":0,"viewing_time":3010.2999999970198},{"page_index":1,"viewing_time":17995.89999999851}],"rt":21009.89999999851,"trial_type":"instructions","trial_index":8,"time_elapsed":313559,"internal_node_id":"0.0-8.0","task_version":"prescreen-v0.3"},{"responses":{"01":"No","02":"No","03":"No","04":"No","05":"No","06":"No"},"rt":15580.39999999851,"item_order":[0,1,2,3,4,5],"radio_events":[6720.80000000447,7951.5,9133.39999999851,10280.10000000149,13103.70000000298,14270.30000000447],"checkbox_events":[],"key_events":[],"mouse_events":[0.20000000298023224,6720.80000000447,7951.5,9133.39999999851,10280.10000000149,11338.89999999851,12148.30000000447,13103.70000000298,13490.70000000298,14270.30000000447,15570.20000000298],"honeypot":0,"survey":"mace","page":1,"trial_type":"survey-mace","trial_index":9,"time_elapsed":329161,"internal_node_id":"0.0-9.0","task_version":"prescreen-v0.3","browser_interactions":0},{"responses":{"01":"No","02":"No","03":"No","04":"No","05":"No","06":"No","07":"No","08":"No"},"rt":16819.70000000298,"item_order":[0,1,2,3,4,5,6,7],"radio_events":[2232.89999999851,3793.3000000044703,8641.10000000149,11456,12532.70000000298,13698.89999999851,14869,15791.39999999851],"checkbox_events":[],"key_events":[],"mouse_events":[2232.89999999851,3793.3000000044703,6908.30000000447,7938.10000000149,8641.10000000149,9942.39999999851,11456,12532.70000000298,13698.89999999851,14869,15791.39999999851,16805.30000000447],"honeypot":0,"survey":"mace","page":2,"trial_type":"survey-mace","trial_index":10,"time_elapsed":345992,"internal_node_id":"0.0-10.0","task_version":"prescreen-v0.3","browser_interactions":0},{"responses":{"01":"No","02":"No","03":"No","04":"No"},"rt":13018.5,"item_order":[0,1,2,3],"radio_events":[3723.1999999955297,8226.10000000149,8850.39999999851,12140.29999999702],"checkbox_events":[],"key_events":[],"mouse_events":[3723.1999999955297,5037,6222.69999999553,8226.10000000149,8850.39999999851,9737.19999999553,11351.19999999553,12140.29999999702,13010.60000000149],"honeypot":0,"survey":"mace","page":3,"trial_type":"survey-mace","trial_index":11,"time_elapsed":359018,"internal_node_id":"0.0-11.0","task_version":"prescreen-v0.3","browser_interactions":0},{"responses":{"01":"No","02":"No"},"rt":8059,"item_order":[0,1],"radio_events":[3053.0999999940395,6190.0999999940395],"checkbox_events":[],"key_events":[],"mouse_events":[3053.0999999940395,6190.0999999940395,8053.5],"honeypot":0,"survey":"mace","page":4,"trial_type":"survey-mace","trial_index":12,"time_elapsed":367085,"internal_node_id":"0.0-12.0","task_version":"prescreen-v0.3","browser_interactions":0},{"responses":{"01":"No","02":"No","03":"No","04":"No","05":"No"},"rt":10118.10000000149,"item_order":[0,1,2,3,4],"radio_events":[2388.10000000149,3748.39999999851,6530.39999999851,7390,8931.39999999851],"checkbox_events":[],"key_events":[],"mouse_events":[2388.10000000149,3748.39999999851,5022.20000000298,6530.39999999851,7390,8931.39999999851,10110.5],"honeypot":0,"survey":"mace","page":5,"trial_type":"survey-mace","trial_index":13,"time_elapsed":377212,"internal_node_id":"0.0-13.0","task_version":"prescreen-v0.3","browser_interactions":0},{"responses":{"01":"No","02":"No","03":"No","04":"No","05":"No"},"rt":10408.89999999851,"item_order":[0,1,2,3,4],"radio_events":[5447.39999999851,6084.69999999553,8080.5,8743.19999999553,9450.5],"checkbox_events":[],"key_events":[],"mouse_events":[5447.39999999851,6084.69999999553,6866,8080.5,8743.19999999553,9450.5,10399.10000000149],"honeypot":0,"survey":"mace","page":6,"trial_type":"survey-mace","trial_index":14,"time_elapsed":387629,"internal_node_id":"0.0-14.0","task_version":"prescreen-v0.3","browser_interactions":0},{"responses":{"01":"No","02":"No","03":"No","04":"No","05":"No","06":"No","07":"No"},"rt":17012.69999999553,"item_order":[0,1,2,3,4,5,6],"radio_events":[2850.7999999970198,3600.6999999955297,6710.39999999851,9259.29999999702,10421.69999999553,12426.79999999702,15889.79999999702],"checkbox_events":[],"key_events":[],"mouse_events":[2850.7999999970198,3600.6999999955297,4580.0999999940395,5684.89999999851,6710.39999999851,7950.39999999851,9259.29999999702,10421.69999999553,11527.29999999702,12426.79999999702,13351.69999999553,15889.79999999702,17001.39999999851],"honeypot":0,"survey":"mace","page":7,"trial_type":"survey-mace","trial_index":15,"time_elapsed":404652,"internal_node_id":"0.0-15.0","task_version":"prescreen-v0.3","browser_interactions":0},{"responses":{"01":"No","02":"No","03":"No","04":"No"},"rt":13768.70000000298,"item_order":[0,1,2,3],"radio_events":[6566.39999999851,9736.79999999702,10796.70000000298,12852.79999999702],"checkbox_events":[],"key_events":[],"mouse_events":[6566.39999999851,7482.39999999851,9736.79999999702,10796.70000000298,12055.5,12852.79999999702,13761.60000000149],"honeypot":0,"survey":"mace","page":8,"trial_type":"survey-mace","trial_index":16,"time_elapsed":418428,"internal_node_id":"0.0-16.0","task_version":"prescreen-v0.3","browser_interactions":0},{"responses":{"01":"Yes","01_ages_1":"1","01_ages_2":"2","01_ages_3":"3","01_ages_4":"4","01_ages_5":"5","01_ages_6":"6","01_ages_7":"7","01_ages_8":"8","01_ages_9":"9","01_ages_10":"10","01_ages_11":"11","01_ages_12":"12","01_ages_13":"13","01_ages_14":"14","01_ages_15":"15","01_ages_16":"16","01_ages_17":"17","01_ages_18":"18","02":"Yes","02_ages_1":"1","02_ages_2":"2","02_ages_3":"3","02_ages_4":"4","02_ages_5":"5","02_ages_6":"6","02_ages_7":"7","02_ages_8":"8","02_ages_9":"9","02_ages_10":"10","02_ages_11":"11","02_ages_12":"12","02_ages_13":"13","02_ages_14":"14","02_ages_15":"15","02_ages_16":"16","02_ages_17":"17","02_ages_18":"18","03":"Yes","03_ages_1":"1","03_ages_2":"2","03_ages_3":"3","03_ages_4":"4","03_ages_5":"5","03_ages_6":"6","03_ages_7":"7","03_ages_8":"8","03_ages_9":"9","03_ages_10":"10","03_ages_11":"11","03_ages_12":"12","03_ages_13":"13","03_ages_14":"14","03_ages_15":"15","03_ages_16":"16","03_ages_17":"17","03_ages_18":"18","04":"Yes","04_ages_1":"1","04_ages_2":"2","04_ages_3":"3","04_ages_4":"4","04_ages_5":"5","04_ages_6":"6","04_ages_7":"7","04_ages_8":"8","04_ages_9":"9","04_ages_10":"10","04_ages_11":"11","04_ages_12":"12","04_ages_13":"13","04_ages_14":"14","04_ages_15":"15","04_ages_16":"16","04_ages_17":"17"},"rt":84680.70000000298,"item_order":[0,1,2,3],"radio_events":[3151.39999999851,28412.89999999851,34876.5,35700.60000000149],"checkbox_events":[9840.20000000298,10487.10000000149,10922.10000000149,11436.5,11862.20000000298,13416.70000000298,14036.70000000298,14519.20000000298,15273.89999999851,15876.70000000298,16422.20000000298,16986.10000000149,17866.10000000149,18327,18980,19788.89999999851,21371.29999999702,21968.39999999851,23509.39999999851,24431.10000000149,25087.89999999851,25939,36750.79999999702,37131.89999999851,39042.10000000149,39591.89999999851,40174.10000000149,40718.5,41281.29999999702,42467.60000000149,42974.70000000298,43592,44138.39999999851,44766.39999999851,47083.10000000149,47681.60000000149,48457.20000000298,49142.60000000149,49731.10000000149,50296.79999999702,50977.20000000298,51497.89999999851,52096.29999999702,52875.20000000298,53534.70000000298,54321.29999999702,55152.5,56238.20000000298,56967.20000000298,58333.79999999702,59268.39999999851,59931.89999999851,60868.5,61518.60000000149,62129.5,62729.10000000149,63471.89999999851,64125.79999999702,64814.29999999702,65433.10000000149,66035.29999999702,66683.10000000149,67452,68190.20000000298,68864.70000000298,69479.10000000149,70249.10000000149,70796.5,71334,72080.29999999702,72686.60000000149,73242.89999999851,73754.10000000149,74289.10000000149,74965.60000000149,75592,76204.70000000298,76810.39999999851,77510.89999999851,78162.10000000149,78718.29999999702,79242.5,79738,80352.10000000149,81132.29999999702,83568.10000000149,84095.10000000149],"key_events":[],"mouse_events":[3151.39999999851,9840.20000000298,10487.10000000149,10922.10000000149,11436.5,11862.20000000298,12934.79999999702,13416.70000000298,14036.70000000298,14519.20000000298,15273.89999999851,15876.70000000298,16422.20000000298,16986.10000000149,17866.10000000149,18327,18980,19788.89999999851,20660.70000000298,21371.29999999702,21968.39999999851,23509.39999999851,24431.10000000149,25087.89999999851,25939,28412.89999999851,31189.79999999702,33461.10000000149,34876.5,35700.60000000149,36750.79999999702,37131.89999999851,39042.10000000149,39591.89999999851,40174.10000000149,40718.5,41281.29999999702,41832.79999999702,42467.60000000149,42974.70000000298,43592,44138.39999999851,44766.39999999851,47083.10000000149,47681.60000000149,48457.20000000298,49142.60000000149,49731.10000000149,50296.79999999702,50977.20000000298,51497.89999999851,52096.29999999702,52875.20000000298,53534.70000000298,54321.29999999702,55152.5,56238.20000000298,56967.20000000298,57672.10000000149,58333.79999999702,59268.39999999851,59931.89999999851,60868.5,61518.60000000149,62129.5,62729.10000000149,63471.89999999851,64125.79999999702,64814.29999999702,65433.10000000149,66035.29999999702,66683.10000000149,67452,68190.20000000298,68864.70000000298,69479.10000000149,70249.10000000149,70796.5,71334,72080.29999999702,72686.60000000149,73242.89999999851,73754.10000000149,74289.10000000149,74965.60000000149,75592,76204.70000000298,76810.39999999851,77510.89999999851,78162.10000000149,78718.29999999702,79242.5,79738,80352.10000000149,81132.29999999702,83568.10000000149,84095.10000000149,84670.79999999702],"honeypot":0,"survey":"mace","page":9,"trial_type":"survey-mace","trial_index":17,"time_elapsed":503117,"internal_node_id":"0.0-17.0","task_version":"prescreen-v0.3","browser_interactions":0},{"responses":{"01":"No","02":"No","03":"No","04":"No","05":"No","06":"Yes","06_ages_17":"17","07":"Yes","07_ages_1":"1","07_ages_2":"2","07_ages_3":"3","07_ages_4":"4","07_ages_5":"5","07_ages_6":"6","07_ages_7":"7","07_ages_8":"8","07_ages_9":"9","07_ages_10":"10","07_ages_11":"11","07_ages_12":"12","07_ages_13":"13","07_ages_14":"14","07_ages_15":"15","07_ages_16":"16","07_ages_17":"17","07_ages_18":"18","08":"Yes","08_ages_1":"1","08_ages_2":"2","08_ages_3":"3","08_ages_4":"4","08_ages_5":"5","08_ages_6":"6","08_ages_7":"7","08_ages_8":"8","08_ages_9":"9","08_ages_10":"10","08_ages_11":"11","08_ages_12":"12","08_ages_13":"13","08_ages_14":"14","08_ages_15":"15","08_ages_16":"16","08_ages_17":"17","08_ages_18":"18"},"rt":63459.59999999404,"item_order":[0,1,2,3,4,5,6,7],"radio_events":[5476.39999999851,6238.79999999702,8316.59999999404,10648.39999999851,11730.5,16215.89999999851,26141.69999999553,27054.29999999702],"checkbox_events":[17896.79999999702,33820.79999999702,34354.19999999553,34866.5,36143.59999999404,36811.19999999553,37737.79999999702,39097.29999999702,40437.5,40899.39999999851,41674.09999999404,42641.39999999851,43285.09999999404,44287,44938,45761.29999999702,46516.19999999553,47375,48278,50287.09999999404,51037.09999999404,51733.69999999553,52434.69999999553,53110.09999999404,53827.5,54509.19999999553,55191.69999999553,55911,56621.59999999404,57293.19999999553,57969.69999999553,58690.19999999553,59506.5,60358.59999999404,60997.09999999404,61536.79999999702,62304.39999999851],"key_events":[],"mouse_events":[3007.5,4123.29999999702,4641.5,5476.39999999851,6238.79999999702,7315.79999999702,8316.59999999404,9164,9982.19999999553,10648.39999999851,11730.5,16215.89999999851,17896.79999999702,22170.29999999702,23280.69999999553,25531,26141.69999999553,27054.29999999702,33820.79999999702,34354.19999999553,34866.5,35345.09999999404,36143.59999999404,36811.19999999553,37737.79999999702,38387.79999999702,39097.29999999702,39659.29999999702,40437.5,40899.39999999851,41674.09999999404,42641.39999999851,43285.09999999404,44287,44938,45761.29999999702,46516.19999999553,47375,48278,50287.09999999404,51037.09999999404,51733.69999999553,52434.69999999553,53110.09999999404,53827.5,54509.19999999553,55191.69999999553,55911,56621.59999999404,57293.19999999553,57969.69999999553,58690.19999999553,59506.5,60358.59999999404,60997.09999999404,61536.79999999702,62304.39999999851,63446.79999999702],"honeypot":0,"survey":"mace","page":10,"trial_type":"survey-mace","trial_index":18,"time_elapsed":566588,"internal_node_id":"0.0-18.0","task_version":"prescreen-v0.3","browser_interactions":0,"instructed":0},{"rt":1010888.799999997,"trial_type":"mental-health-alert","trial_index":19,"time_elapsed":1580918,"internal_node_id":"0.0-19.0","task_version":"prescreen-v0.3","interactions":"[{\"event\":\"blur\",\"trial\":1,\"time\":17013},{\"event\":\"focus\",\"trial\":1,\"time\":19219},{\"event\":\"blur\",\"trial\":3,\"time\":153967},{\"event\":\"focus\",\"trial\":3,\"time\":164951},{\"event\":\"blur\",\"trial\":5,\"time\":221610},{\"event\":\"focus\",\"trial\":5,\"time\":224519},{\"event\":\"blur\",\"trial\":8,\"time\":297229},{\"event\":\"focus\",\"trial\":8,\"time\":308037},{\"event\":\"blur\",\"trial\":19,\"time\":571764},{\"event\":\"focus\",\"trial\":19,\"time\":1579603}]"}]