[{"view_history":[{"page_index":0,"viewing_time":2370.800000011921},{"page_index":1,"viewing_time":5960.4000000059605},{"page_index":2,"viewing_time":4556.299999982119},{"page_index":3,"viewing_time":1502.1000000238419}],"rt":14391.800000011921,"trial_type":"instructions","trial_index":0,"time_elapsed":14427,"internal_node_id":"0.0-0.0","task_version":"prescreen-v0.3"},{"rt":21119.09999999404,"responses":{"age":"24","gender-categorical":"Female","gender-free-response":"","ethnicity":"Not Hispanic or Latino","race":["White"],"education":"Master degree or higher"},"trial_type":"survey-demo","trial_index":1,"time_elapsed":35567,"internal_node_id":"0.0-1.0","task_version":"prescreen-v0.3"},{"responses":{"Q16":"2","Q20":"1","Q09":"3","Q06":"2","Q15":"3","Q17":"2","Q10":"2","Q18":"3","Q04":"3","Q13":"3","Q01":"1","Q11":"1","Q19":"2","Q05":"1","Q07":"2","Q14":"3","Q12":"1","Q02":"1","Q08":"0","Q21":"3","Q03":"2"},"rt":101326.5,"item_order":[15,19,8,5,14,16,9,17,3,12,0,10,18,4,6,13,11,1,7,20,2],"radio_events":[12994.5,18078,22849.09999999404,26972.80000001192,33355.09999999404,36319.30000001192,40882.40000000596,44894.40000000596,46628.5,50544.59999999404,53357.59999999404,56176.80000001192,58263.59999999404,61780.19999998808,68743.40000000596,75397.19999998808,79001.19999998808,82556.80000001192,88568.80000001192,91855,96081.59999999404,99925],"key_events":[],"mouse_events":[12994.5,18078,22849.09999999404,26972.80000001192,32691.90000000596,33355.09999999404,36319.30000001192,40882.40000000596,44894.40000000596,46628.5,50544.59999999404,53357.59999999404,56176.80000001192,58263.59999999404,61780.19999998808,68743.40000000596,75397.19999998808,79001.19999998808,82556.80000001192,88568.80000001192,91855,96081.59999999404,99925,101322.5],"straightlining":0.3333333333333333,"zigzagging":0.6,"honeypot":0,"survey":"sns","trial_type":"survey-template","trial_index":2,"time_elapsed":136903,"internal_node_id":"0.0-2.0","task_version":"prescreen-v0.3","browser_interactions":0,"infrequency":0},{"responses":{"Q07":"2","Q10":"1","Q11":"0","Q03":"3","Q13":"0","Q01":"3","Q09":"1","Q02":"3","Q12":"1","Q06":"3","Q04":"3","Q05":"2","Q08":"2"},"rt":78066.10000002384,"item_order":[6,9,10,2,12,0,8,1,11,5,3,4,7],"radio_events":[24193.70000001788,29517.600000023842,35326.20000001788,38913.90000000596,44332.20000001788,48864.20000001788,53850,57086.40000000596,61553,65540.5,68634.30000001192,73300.40000000596,77183.80000001192],"key_events":[],"mouse_events":[24193.70000001788,29517.600000023842,35326.20000001788,38913.90000000596,44332.20000001788,48864.20000001788,53850,57086.40000000596,61553,65540.5,68634.30000001192,73300.40000000596,77183.80000001192,78062.80000001192],"straightlining":0.38461538461538464,"zigzagging":0.5,"honeypot":0,"survey":"bisbas","trial_type":"survey-template","trial_index":3,"time_elapsed":214973,"internal_node_id":"0.0-3.0","task_version":"prescreen-v0.3","browser_interactions":0,"infrequency":0},{"responses":{"Q01":"2","Q02":"1","Q03":"2"},"rt":21893.80000001192,"radio_events":[9710.40000000596,14788.199999988079,19574.80000001192],"key_events":[],"mouse_events":[9710.40000000596,14788.199999988079,19574.80000001192,21892.19999998808],"survey":"map","page":1,"trial_type":"survey-map","trial_index":4,"time_elapsed":236872,"internal_node_id":"0.0-4.0","task_version":"prescreen-v0.3","browser_interactions":0},{"responses":{"Q04":"2","Q05":"1","Q06":"2"},"rt":15210.5,"radio_events":[6054.5999999940395,9730.90000000596,13287.59999999404],"key_events":[],"mouse_events":[6054.5999999940395,9730.90000000596,13287.59999999404,15208.699999988079],"survey":"map","page":2,"trial_type":"survey-map","trial_index":5,"time_elapsed":252088,"internal_node_id":"0.0-5.0","task_version":"prescreen-v0.3","browser_interactions":0},{"responses":{"Q07":"1","Q08":"3","Q09":"3"},"rt":19289.09999999404,"radio_events":[4592.9000000059605,8428.799999982119,12632.199999988079,17799.69999998808],"key_events":[],"mouse_events":[4592.9000000059605,8428.799999982119,12632.199999988079,17799.69999998808,19287.29999998212],"survey":"map","page":3,"trial_type":"survey-map","trial_index":6,"time_elapsed":271380,"internal_node_id":"0.0-6.0","task_version":"prescreen-v0.3","browser_interactions":0},{"responses":{"Q10":"2","Q11":"2","Q12":"0","Q13":"1","Q16":"0","Q14":"2","Q15":"2"},"rt":43922.59999999404,"radio_events":[7377,10213.09999999404,13586.5,20570.69999998808,27645.59999999404,38875.09999999404,42081.39999997616],"key_events":[],"mouse_events":[7377,10213.09999999404,13586.5,20570.69999998808,27645.59999999404,38875.09999999404,42081.39999997616,43919.29999998212],"survey":"map","page":4,"trial_type":"survey-map","trial_index":7,"time_elapsed":315307,"internal_node_id":"0.0-7.0","task_version":"prescreen-v0.3","browser_interactions":0,"infrequency":0},{"view_history":[{"page_index":0,"viewing_time":3500.5},{"page_index":1,"viewing_time":5729.699999988079}],"rt":9230.799999982119,"trial_type":"instructions","trial_index":8,"time_elapsed":324540,"internal_node_id":"0.0-8.0","task_version":"prescreen-v0.3"},{"responses":{"01":"Yes","01_ages_13":"13","01_ages_14":"14","01_ages_15":"15","01_ages_16":"16","01_ages_17":"17","01_ages_18":"18","02":"Yes","02_ages_13":"13","02_ages_14":"14","02_ages_15":"15","02_ages_16":"16","02_ages_17":"17","02_ages_18":"18","03":"Yes","03_ages_13":"13","03_ages_14":"14","03_ages_15":"15","03_ages_16":"16","03_ages_17":"17","03_ages_18":"18","04":"No","05":"No","06":"Yes","06_ages_14":"14","06_ages_15":"15","06_ages_16":"16"},"rt":69621.5,"item_order":[0,1,2,3,4,5],"radio_events":[9869.200000017881,32460.70000001788,41579.90000000596,54455.30000001192,57810,60422.80000001192],"checkbox_events":[18290,18891.40000000596,19466.20000001788,20041.5,20624.80000001192,21656.100000023842,35154,35696.90000000596,36241.10000002384,37287.20000001788,37839.10000002384,38390.60000002384,43264,43816.80000001192,44488,45095.10000002384,46158.60000002384,47676.70000001788,48635.90000000596,49249.5,50146.30000001192,50722.10000002384,51561.20000001788,52261,63412.20000001788,64331.20000001788,65090.30000001192,65785.70000001788,67055.90000000596],"key_events":[],"mouse_events":[0.10000002384185791,9869.200000017881,18290,18891.40000000596,19466.20000001788,20041.5,20624.80000001192,21656.100000023842,32460.70000001788,35154,35696.90000000596,36241.10000002384,36816.30000001192,37287.20000001788,37839.10000002384,38390.60000002384,41579.90000000596,43264,43816.80000001192,44488,45095.10000002384,46158.60000002384,47676.70000001788,48635.90000000596,49249.5,50146.30000001192,50722.10000002384,51561.20000001788,52261,54455.30000001192,57810,60422.80000001192,63412.20000001788,64331.20000001788,65090.30000001192,65785.70000001788,67055.90000000596,69614.70000001788],"honeypot":0,"survey":"mace","page":1,"trial_type":"survey-mace","trial_index":9,"time_elapsed":394171,"internal_node_id":"0.0-9.0","task_version":"prescreen-v0.3","browser_interactions":0},{"responses":{"01":"No","02":"No","03":"No","04":"No","05":"No","06":"No","07":"No","08":"No"},"rt":40368.89999997616,"item_order":[0,1,2,3,4,5,6,7],"radio_events":[5235.5,8696.299999982119,11812.699999988079,23904.19999998808,27412.19999998808,29953.79999998212,32550.79999998212,34557.5,36371.09999999404],"checkbox_events":[],"key_events":[],"mouse_events":[5235.5,8696.299999982119,11812.699999988079,23904.19999998808,27412.19999998808,29953.79999998212,32550.79999998212,34557.5,36371.09999999404,40359.5],"honeypot":0,"survey":"mace","page":2,"trial_type":"survey-mace","trial_index":10,"time_elapsed":434545,"internal_node_id":"0.0-10.0","task_version":"prescreen-v0.3","browser_interactions":0},{"responses":{"01":"No","02":"No","03":"No","04":"No"},"rt":11569.40000000596,"item_order":[0,1,2,3],"radio_events":[3387.5,6529.5,8726.699999988079,10429.299999982119],"checkbox_events":[],"key_events":[],"mouse_events":[3387.5,6529.5,8726.699999988079,10429.299999982119,11564.5],"honeypot":0,"survey":"mace","page":3,"trial_type":"survey-mace","trial_index":11,"time_elapsed":446119,"internal_node_id":"0.0-11.0","task_version":"prescreen-v0.3","browser_interactions":0},{"responses":{"01":"No","02":"No"},"rt":19144.09999999404,"item_order":[0,1],"radio_events":[7801.5,11205.90000000596],"checkbox_events":[],"key_events":[],"mouse_events":[7170.0999999940395,7801.5,11205.90000000596,19141.40000000596],"honeypot":0,"survey":"mace","page":4,"trial_type":"survey-mace","trial_index":12,"time_elapsed":465267,"internal_node_id":"0.0-12.0","task_version":"prescreen-v0.3","browser_interactions":0},{"responses":{"01":"No","02":"No","03":"No","04":"No","05":"No"},"rt":29265.70000001788,"item_order":[0,1,2,3,4],"radio_events":[9988.800000011921,13457.200000017881,16957.600000023842,19465.600000023842,25527.20000001788],"checkbox_events":[],"key_events":[],"mouse_events":[9988.800000011921,13457.200000017881,16957.600000023842,19465.600000023842,25527.20000001788,29259.80000001192],"honeypot":0,"survey":"mace","page":5,"trial_type":"survey-mace","trial_index":13,"time_elapsed":494538,"internal_node_id":"0.0-13.0","task_version":"prescreen-v0.3","browser_interactions":0},{"responses":{"01":"No","02":"No","03":"Yes","03_ages_12":"12","03_ages_13":"13","03_ages_14":"14","03_ages_15":"15","03_ages_16":"16","03_ages_17":"17","03_ages_18":"18","04":"Yes","04_ages_12":"12","04_ages_13":"13","04_ages_14":"14","04_ages_15":"15","04_ages_16":"16","04_ages_17":"17","04_ages_18":"18","05":"Yes","05_ages_13":"13","05_ages_14":"14","05_ages_15":"15","05_ages_16":"16"},"rt":55677.69999998808,"item_order":[0,1,2,3,4],"radio_events":[9672.5,12317.5,15714.09999999404,30855.90000000596,49941.5],"checkbox_events":[21506.5,22051.30000001192,22554.40000000596,23160.90000000596,23913.40000000596,24632.30000001192,25431.59999999404,26054.90000000596,26686.30000001192,27268.59999999404,28235.09999999404,33958,34525.69999998808,35061.19999998808,35588.5,36114.40000000596,37210.40000000596,37754.5,39447.80000001192,40311.40000000596,41038.30000001192,41653.80000001192,52671.59999999404,53295.19999998808,53969.30000001192,54576.09999999404],"key_events":[],"mouse_events":[9672.5,12317.5,15714.09999999404,21506.5,22051.30000001192,22554.40000000596,23160.90000000596,23913.40000000596,24632.30000001192,25431.59999999404,26054.90000000596,26686.30000001192,27268.59999999404,28235.09999999404,30855.90000000596,33958,34525.69999998808,35061.19999998808,35588.5,36114.40000000596,36699.40000000596,37210.40000000596,37754.5,39447.80000001192,40311.40000000596,41038.30000001192,41653.80000001192,49941.5,52671.59999999404,53295.19999998808,53969.30000001192,54576.09999999404,55671.69999998808],"honeypot":0,"survey":"mace","page":6,"trial_type":"survey-mace","trial_index":14,"time_elapsed":550219,"internal_node_id":"0.0-14.0","task_version":"prescreen-v0.3","browser_interactions":0},{"responses":{"01":"No","02":"Yes","02_ages_13":"13","02_ages_14":"14","02_ages_15":"15","02_ages_16":"16","03":"No","04":"No","05":"No","06":"Yes","06_ages_5":"5","06_ages_6":"6","07":"Yes","07_ages_5":"5","07_ages_6":"6"},"rt":45718.40000000596,"item_order":[0,1,2,3,4,5,6],"radio_events":[6929.199999988079,9545.299999982119,22121.5,24103.5,25709.40000000596,34051.40000000596,41907.59999999404],"checkbox_events":[15184.5,16183.799999982119,17014.5,17628.29999998212,36170.19999998808,37648.09999999404,38863.5,39709.90000000596,43761.69999998808,44504.79999998212],"key_events":[],"mouse_events":[6929.199999988079,9545.299999982119,15184.5,16183.799999982119,17014.5,17628.29999998212,22121.5,24103.5,25709.40000000596,34051.40000000596,36170.19999998808,37648.09999999404,38863.5,39709.90000000596,41907.59999999404,43761.69999998808,44504.79999998212,45711.09999999404],"honeypot":0,"survey":"mace","page":7,"trial_type":"survey-mace","trial_index":15,"time_elapsed":595943,"internal_node_id":"0.0-15.0","task_version":"prescreen-v0.3","browser_interactions":0},{"responses":{"01":"No","02":"Yes","02_ages_16":"16","02_ages_17":"17","02_ages_18":"18","03":"Yes","03_ages_14":"14","03_ages_15":"15","03_ages_16":"16","03_ages_17":"17","03_ages_18":"18","04":"Yes","04_ages_16":"16","04_ages_17":"17","04_ages_18":"18"},"rt":41300.69999998808,"item_order":[0,1,2,3],"radio_events":[11716.90000000596,16896.69999998808,25999.90000000596,36881.40000000596],"checkbox_events":[19191.40000000596,19758.40000000596,20310,29228,29779.09999999404,30354.29999998212,31537.90000000596,32312.40000000596,38138.40000000596,39624.29999998212,40176],"key_events":[],"mouse_events":[11716.90000000596,16896.69999998808,19191.40000000596,19758.40000000596,20310,25999.90000000596,29228,29779.09999999404,30354.29999998212,31537.90000000596,32312.40000000596,36881.40000000596,38138.40000000596,38977,39624.29999998212,40176,41296.09999999404],"honeypot":0,"survey":"mace","page":8,"trial_type":"survey-mace","trial_index":16,"time_elapsed":637247,"internal_node_id":"0.0-16.0","task_version":"prescreen-v0.3","browser_interactions":0},{"responses":{"01":"Yes","01_ages_1":"1","01_ages_2":"2","01_ages_3":"3","01_ages_4":"4","01_ages_5":"5","01_ages_6":"6","01_ages_7":"7","01_ages_8":"8","01_ages_9":"9","01_ages_10":"10","01_ages_11":"11","01_ages_12":"12","01_ages_13":"13","01_ages_14":"14","01_ages_15":"15","01_ages_16":"16","01_ages_17":"17","01_ages_18":"18","02":"Yes","02_ages_1":"1","02_ages_2":"2","02_ages_3":"3","02_ages_4":"4","02_ages_5":"5","02_ages_6":"6","02_ages_7":"7","02_ages_8":"8","02_ages_9":"9","02_ages_10":"10","02_ages_11":"11","02_ages_12":"12","02_ages_13":"13","02_ages_14":"14","02_ages_15":"15","02_ages_16":"16","02_ages_17":"17","02_ages_18":"18","03":"Yes","03_ages_1":"1","03_ages_2":"2","03_ages_3":"3","03_ages_4":"4","03_ages_5":"5","03_ages_6":"6","03_ages_7":"7","03_ages_8":"8","03_ages_9":"9","03_ages_10":"10","03_ages_11":"11","03_ages_12":"12","03_ages_13":"13","03_ages_14":"14","03_ages_15":"15","04":"Yes","04_ages_1":"1","04_ages_2":"2","04_ages_3":"3","04_ages_4":"4","04_ages_5":"5","04_ages_6":"6","04_ages_7":"7","04_ages_8":"8","04_ages_9":"9","04_ages_10":"10","04_ages_11":"11","04_ages_12":"12","04_ages_13":"13","04_ages_14":"14","04_ages_15":"15","04_ages_16":"16","04_ages_17":"17","04_ages_18":"18"},"rt":73647.59999999404,"item_order":[0,1,2,3],"radio_events":[5499.9000000059605,26701.19999998808,43028.5,60744.79999998212],"checkbox_events":[11598.5,12157.5,12717.299999982119,13788,14347.299999982119,15026.5,15585.199999988079,16568.79999998212,17335.5,17952.19999998808,18823,19573.79999998212,20205.09999999404,20980.5,21763.19999998808,22507.09999999404,23306,23945.29999998212,27756.90000000596,28284.5,28972.09999999404,29730.5,30314.09999999404,31001.40000000596,31585.09999999404,32879.79999998212,33574,34197.90000000596,34932.79999998212,35546.90000000596,36179.69999998808,36866.69999998808,37490.09999999404,38144.29999998212,38800.90000000596,39440,44171.29999998212,44746.29999998212,45543.79999998212,46127.40000000596,46832.09999999404,47479.29999998212,48087,48710,49316.59999999404,49948.59999999404,50556.09999999404,51155.09999999404,51770.69999998808,53697.40000000596,54551.59999999404,62151.40000000596,62678.59999999404,63214.19999998808,63781.59999999404,64396.59999999404,65626.40000000596,66202.79999998212,66753.69999998808,67305,67880.59999999404,68463.79999998212,69015.5,69622.19999998808,70230.29999998212,70869.09999999404,71477,72068,72683.5],"key_events":[],"mouse_events":[5499.9000000059605,11598.5,12157.5,12717.299999982119,13276.699999988079,13788,14347.299999982119,15026.5,15585.199999988079,16568.79999998212,17335.5,17952.19999998808,18823,19573.79999998212,20205.09999999404,20980.5,21763.19999998808,22507.09999999404,23306,23945.29999998212,26701.19999998808,27756.90000000596,28284.5,28972.09999999404,29730.5,30314.09999999404,31001.40000000596,31585.09999999404,32191.90000000596,32879.79999998212,33574,34197.90000000596,34932.79999998212,35546.90000000596,36179.69999998808,36866.69999998808,37490.09999999404,38144.29999998212,38800.90000000596,39440,43028.5,44171.29999998212,44746.29999998212,45543.79999998212,46127.40000000596,46832.09999999404,47479.29999998212,48087,48710,49316.59999999404,49948.59999999404,50556.09999999404,51155.09999999404,51770.69999998808,52601.40000000596,53161,53697.40000000596,54551.59999999404,59042.40000000596,60744.79999998212,62151.40000000596,62678.59999999404,63214.19999998808,63781.59999999404,64396.59999999404,65059.79999998212,65626.40000000596,66202.79999998212,66753.69999998808,67305,67880.59999999404,68463.79999998212,69015.5,69622.19999998808,70230.29999998212,70869.09999999404,71477,72068,72683.5,73642.5],"honeypot":0,"survey":"mace","page":9,"trial_type":"survey-mace","trial_index":17,"time_elapsed":710898,"internal_node_id":"0.0-17.0","task_version":"prescreen-v0.3","browser_interactions":0},{"responses":{"01":"No","02":"No","03":"Yes","03_ages_16":"16","03_ages_17":"17","03_ages_18":"18","04":"Yes","04_ages_16":"16","04_ages_17":"17","04_ages_18":"18","05":"No","06":"Yes","06_ages_17":"17","07":"Yes","07_ages_1":"1","07_ages_2":"2","07_ages_3":"3","07_ages_4":"4","07_ages_5":"5","07_ages_6":"6","07_ages_7":"7","07_ages_8":"8","07_ages_9":"9","07_ages_10":"10","07_ages_11":"11","07_ages_12":"12","07_ages_13":"13","07_ages_14":"14","07_ages_15":"15","07_ages_16":"16","07_ages_17":"17","07_ages_18":"18","08":"Yes","08_ages_1":"1","08_ages_2":"2","08_ages_3":"3","08_ages_4":"4","08_ages_5":"5","08_ages_6":"6","08_ages_7":"7","08_ages_8":"8","08_ages_9":"9","08_ages_10":"10","08_ages_11":"11","08_ages_12":"12","08_ages_18":"18"},"rt":67174.40000000596,"item_order":[0,1,2,3,4,5,6,7],"radio_events":[5924.700000017881,7339,9664.40000000596,15954.59999999404,27035.90000000596,29808.5,40204.30000001192,54772.59999999404],"checkbox_events":[11694,12229.5,12796.5,16870.80000001192,17343.40000000596,17862.59999999404,20819.59999999404,21872.59999999404,31143,42441.80000001192,42953.09999999404,43664.59999999404,44431.80000001192,44950.59999999404,45670.5,46229.80000001192,46875.5,47460.40000000596,48579.09999999404,49146.80000001192,50001.70000001788,50576.40000000596,51248.59999999404,51925.5,52566.40000000596,53221.90000000596,53965.09999999404,58727.59999999404,59582.59999999404,60132.30000001192,60693.59999999404,61252.59999999404,61811.59999999404,62331.40000000596,62923,63497.80000001192,64360.80000001192,65000.20000001788,65599.30000001192,66462.80000001192],"key_events":[],"mouse_events":[5924.700000017881,7339,9664.40000000596,11694,12229.5,12796.5,15306.5,15954.59999999404,16870.80000001192,17343.40000000596,17862.59999999404,20819.59999999404,21872.59999999404,27035.90000000596,29808.5,31143,40204.30000001192,42441.80000001192,42953.09999999404,43664.59999999404,44431.80000001192,44950.59999999404,45670.5,46229.80000001192,46875.5,47460.40000000596,48004.20000001788,48579.09999999404,49146.80000001192,50001.70000001788,50576.40000000596,51248.59999999404,51925.5,52566.40000000596,53221.90000000596,53965.09999999404,54772.59999999404,58727.59999999404,59582.59999999404,60132.30000001192,60693.59999999404,61252.59999999404,61811.59999999404,62331.40000000596,62923,63497.80000001192,64360.80000001192,65000.20000001788,65599.30000001192,66462.80000001192,67166.09999999404],"honeypot":0,"survey":"mace","page":10,"trial_type":"survey-mace","trial_index":18,"time_elapsed":778078,"internal_node_id":"0.0-18.0","task_version":"prescreen-v0.3","browser_interactions":0,"instructed":0},{"rt":13689.300000011921,"trial_type":"mental-health-alert","trial_index":19,"time_elapsed":791770,"internal_node_id":"0.0-19.0","task_version":"prescreen-v0.3","interactions":"[]"}]