[{"view_history":[{"page_index":0,"viewing_time":5961.799999952316},{"page_index":1,"viewing_time":5903.800000011921},{"page_index":2,"viewing_time":7683.800000011921},{"page_index":3,"viewing_time":2268.100000023842}],"rt":21818.299999952316,"trial_type":"instructions","trial_index":0,"time_elapsed":21836,"internal_node_id":"0.0-0.0","task_version":"prescreen-v0.3"},{"rt":94547.80000001192,"responses":{"age":"33","gender-categorical":"Male","gender-free-response":"","ethnicity":"Not Hispanic or Latino","race":["Black or African American"],"education":"Associate degree","siblings":"12"},"trial_type":"survey-demo","trial_index":1,"time_elapsed":116388,"internal_node_id":"0.0-1.0","task_version":"prescreen-v0.3"},{"responses":{"Q05":"2","Q17":"1","Q09":"2","Q08":"2","Q07":"2","Q03":"2","Q16":"0","Q19":"0","Q12":"1","Q20":"0","Q02":"0","Q10":"0","Q21":"3","Q13":"0","Q14":"0","Q06":"1","Q18":"0","Q01":"0","Q04":"2","Q15":"0","Q11":"2"},"rt":290333.89999997616,"item_order":[4,16,8,7,6,2,15,18,11,19,1,9,20,12,13,5,17,0,3,14,10],"radio_events":[40361.10000002384,44912.60000002384,53128.69999998808,63760.60000002384,71792.5,88160.5,95336.30000001192,111304.39999997616,155728.19999998808,164912.30000001192,169440.19999998808,176360.5,190140.30000001192,201548.19999998808,211228.10000002384,221684.19999998808,239732.10000002384,248852,252444.30000001192,263676.1999999881,281036.10000002384,286824],"key_events":[],"mouse_events":[40361.10000002384,44912.60000002384,53128.69999998808,63760.60000002384,71792.5,88160.5,95336.30000001192,111304.39999997616,155728.19999998808,164912.30000001192,169440.19999998808,175260.69999998808,176360.5,190140.30000001192,201548.19999998808,211228.10000002384,221684.19999998808,239732.10000002384,248852,252444.30000001192,263676.1999999881,281036.10000002384,286824,290332.3000000119],"straightlining":0.47619047619047616,"zigzagging":0.4,"honeypot":0,"survey":"sns","trial_type":"survey-template","trial_index":2,"time_elapsed":406734,"internal_node_id":"0.0-2.0","task_version":"prescreen-v0.3","browser_interactions":0,"infrequency":0},{"responses":{"Q10":"2","Q01":"1","Q12":"2","Q06":"3","Q04":"2","Q08":"3","Q07":"3","Q05":"3","Q11":"3","Q02":"1","Q13":"0","Q03":"2","Q09":"2"},"rt":165327.69999998808,"item_order":[9,0,11,5,3,7,6,4,10,1,12,2,8],"radio_events":[13278.699999988079,26050.80000001192,52694.69999998808,64046.80000001192,70502.69999998808,82526.80000001192,86878.69999998808,97966.80000001192,104230.80000001192,114710.69999998808,122086.5,137446.60000002384,164006.5],"key_events":[],"mouse_events":[13278.699999988079,26050.80000001192,52694.69999998808,64046.80000001192,70502.69999998808,82526.80000001192,86878.69999998808,97966.80000001192,104230.80000001192,114710.69999998808,122086.5,137446.60000002384,164006.5,165326.69999998808],"straightlining":0.38461538461538464,"zigzagging":0.5,"honeypot":0,"survey":"bisbas","trial_type":"survey-template","trial_index":3,"time_elapsed":572072,"internal_node_id":"0.0-3.0","task_version":"prescreen-v0.3","browser_interactions":0,"infrequency":0},{"responses":{"Q01":"2","Q02":"2","Q03":"2"},"rt":48100.5,"radio_events":[20212.099999964237,36624,45472.19999998808],"key_events":[],"mouse_events":[20212.099999964237,36624,45472.19999998808,48100.09999996424],"survey":"map","page":1,"trial_type":"survey-map","trial_index":4,"time_elapsed":620183,"internal_node_id":"0.0-4.0","task_version":"prescreen-v0.3","browser_interactions":0},{"responses":{"Q04":"2","Q05":"2","Q06":"2"},"rt":67530.5,"radio_events":[49066.19999998808,53626.10000002384,60010.10000002384,63610.10000002384],"key_events":[],"mouse_events":[47770.19999998808,49066.19999998808,53626.10000002384,60010.10000002384,63610.10000002384,67530],"survey":"map","page":2,"trial_type":"survey-map","trial_index":5,"time_elapsed":687722,"internal_node_id":"0.0-5.0","task_version":"prescreen-v0.3","browser_interactions":0},{"responses":{"Q07":"3","Q08":"3","Q09":"1"},"rt":42951.30000001192,"radio_events":[10262.800000011921,20686.69999998808,28886.900000035763,40106.80000001192],"key_events":[],"mouse_events":[10262.800000011921,20686.69999998808,28886.900000035763,40106.80000001192,42950.80000001192],"survey":"map","page":3,"trial_type":"survey-map","trial_index":6,"time_elapsed":730682,"internal_node_id":"0.0-6.0","task_version":"prescreen-v0.3","browser_interactions":0},{"responses":{"Q10":"2","Q11":"1","Q12":"4","Q13":"4","Q16":"0","Q14":"1","Q15":"1"},"rt":91588.10000002384,"radio_events":[9099.400000035763,21219.400000035763,32091.19999998808,45547.19999998808,52555.30000001192,66203.19999998808,77867.30000001192,90003.19999998808],"key_events":[],"mouse_events":[9099.400000035763,21219.400000035763,32091.19999998808,45547.19999998808,52555.30000001192,66203.19999998808,77867.30000001192,90003.19999998808,91587.30000001192],"survey":"map","page":4,"trial_type":"survey-map","trial_index":7,"time_elapsed":822279,"internal_node_id":"0.0-7.0","task_version":"prescreen-v0.3","browser_interactions":0,"infrequency":0},{"view_history":[{"page_index":0,"viewing_time":4491.5},{"page_index":1,"viewing_time":6419.800000011921}],"rt":10912.300000011921,"trial_type":"instructions","trial_index":8,"time_elapsed":833198,"internal_node_id":"0.0-8.0","task_version":"prescreen-v0.3"},{"responses":{"01":"No","02":"No","03":"No","04":"No","05":"No","06":"Yes","06_ages_9":"9","06_ages_13":"13"},"rt":139848.30000001192,"item_order":[0,1,2,3,4,5],"radio_events":[15242,24770,30785.599999964237,58065.69999998808,62165.69999998808,75461.5,115549.59999996424,117741.39999997616,130837.59999996424],"checkbox_events":[45105.89999997616,54085.89999997616,89429.5,90957.5,112661.89999997616,114237.69999998808],"key_events":[],"mouse_events":[0.09999996423721313,15242,24770,30785.599999964237,45105.89999997616,54085.89999997616,58065.69999998808,62165.69999998808,75461.5,89429.5,90957.5,112661.89999997616,114237.69999998808,115549.59999996424,117741.39999997616,130837.59999996424,139845.89999997616],"honeypot":0,"survey":"mace","page":1,"trial_type":"survey-mace","trial_index":9,"time_elapsed":973054,"internal_node_id":"0.0-9.0","task_version":"prescreen-v0.3","browser_interactions":0},{"responses":{"01":"No","02":"No","03":"Yes","03_ages_9":"9","03_ages_13":"13","04":"No","05":"No","06":"No","07":"No","08":"No"},"rt":52512.69999998808,"item_order":[0,1,2,3,4,5,6,7],"radio_events":[9401.100000023842,15401.199999988079,23961,35845,42053.10000002384,46249.10000002384,48641,51193.10000002384],"checkbox_events":[27617.100000023842,29681.100000023842],"key_events":[],"mouse_events":[9401.100000023842,15401.199999988079,23961,27617.100000023842,29681.100000023842,35845,42053.10000002384,46249.10000002384,48641,51193.10000002384,52509.5],"honeypot":0,"survey":"mace","page":2,"trial_type":"survey-mace","trial_index":10,"time_elapsed":1025579,"internal_node_id":"0.0-10.0","task_version":"prescreen-v0.3","browser_interactions":0},{"responses":{"01":"No","02":"No","03":"No","04":"No"},"rt":25855.80000001192,"item_order":[0,1,2,3],"radio_events":[14274.200000047684,18162.200000047684,22834.200000047684,24798.200000047684],"checkbox_events":[],"key_events":[],"mouse_events":[14274.200000047684,18162.200000047684,21806.30000001192,22834.200000047684,24798.200000047684,25854.400000035763],"honeypot":0,"survey":"mace","page":3,"trial_type":"survey-mace","trial_index":11,"time_elapsed":1051443,"internal_node_id":"0.0-11.0","task_version":"prescreen-v0.3","browser_interactions":0},{"responses":{"01":"No","02":"No"},"rt":12723.900000035763,"item_order":[0,1],"radio_events":[5626.700000047684,11130.700000047684],"checkbox_events":[],"key_events":[],"mouse_events":[5626.700000047684,11130.700000047684,12723.100000023842],"honeypot":0,"survey":"mace","page":4,"trial_type":"survey-mace","trial_index":12,"time_elapsed":1064175,"internal_node_id":"0.0-12.0","task_version":"prescreen-v0.3","browser_interactions":0},{"responses":{"01":"No","02":"No","03":"No","04":"No","05":"No"},"rt":37793,"item_order":[0,1,2,3,4],"radio_events":[16903,21958.80000001192,27966.80000001192,33406.80000001192,36710.69999998808],"checkbox_events":[],"key_events":[],"mouse_events":[16903,21958.80000001192,27966.80000001192,33406.80000001192,36710.69999998808,37791.09999996424],"honeypot":0,"survey":"mace","page":5,"trial_type":"survey-mace","trial_index":13,"time_elapsed":1101976,"internal_node_id":"0.0-13.0","task_version":"prescreen-v0.3","browser_interactions":0},{"responses":{"01":"No","02":"No","03":"No","04":"Yes","04_ages_16":"16","04_ages_18":"18","05":"No"},"rt":62174.19999998808,"item_order":[0,1,2,3,4],"radio_events":[19303.899999976158,24788.19999998808,30400,38531.799999952316,60528],"checkbox_events":[41611.89999997616,45840],"key_events":[],"mouse_events":[19303.899999976158,24788.19999998808,30400,38531.799999952316,41611.89999997616,45840,60528,62172.299999952316],"honeypot":0,"survey":"mace","page":6,"trial_type":"survey-mace","trial_index":14,"time_elapsed":1164161,"internal_node_id":"0.0-14.0","task_version":"prescreen-v0.3","browser_interactions":0},{"responses":{"01":"No","02":"No","03":"No","04":"No","05":"No","06":"No","07":"No"},"rt":21667.5,"item_order":[0,1,2,3,4,5,6],"radio_events":[6133.099999964237,9477,11356.899999976158,13273.099999964237,16476.899999976158,18712.899999976158,20276.899999976158],"checkbox_events":[],"key_events":[],"mouse_events":[6133.099999964237,9477,11356.899999976158,13273.099999964237,16476.899999976158,18712.899999976158,20276.899999976158,21665],"honeypot":0,"survey":"mace","page":7,"trial_type":"survey-mace","trial_index":15,"time_elapsed":1185837,"internal_node_id":"0.0-15.0","task_version":"prescreen-v0.3","browser_interactions":0},{"responses":{"01":"No","02":"No","02_ages_6":"6","02_ages_7":"7","02_ages_8":"8","02_ages_9":"9","02_ages_10":"10","02_ages_11":"11","02_ages_12":"12","02_ages_13":"13","02_ages_14":"14","02_ages_15":"15","02_ages_16":"16","02_ages_17":"17","02_ages_18":"18","03":"No","04":"No"},"rt":110221.30000001192,"item_order":[0,1,2,3],"radio_events":[21224,28856.100000023842,74883.80000001192,83019.80000001192,91475.70000004768,92971.80000001192,105612],"checkbox_events":[52656,53696.10000002384,54199.90000003576,55607.90000003576,56264,57164,57924.10000002384,58568,59532,60371.90000003576,60968,61507.90000003576,62652],"key_events":[],"mouse_events":[19763.80000001192,21224,28856.100000023842,52656,53696.10000002384,54199.90000003576,54772.200000047684,55607.90000003576,56264,57164,57924.10000002384,58568,59532,60371.90000003576,60968,61507.90000003576,62652,74883.80000001192,83019.80000001192,91475.70000004768,92971.80000001192,105612,110219.90000003576],"honeypot":0,"survey":"mace","page":8,"trial_type":"survey-mace","trial_index":16,"time_elapsed":1296067,"internal_node_id":"0.0-16.0","task_version":"prescreen-v0.3","browser_interactions":0},{"responses":{"01":"Yes","01_ages_10":"10","01_ages_11":"11","01_ages_12":"12","01_ages_13":"13","01_ages_14":"14","01_ages_15":"15","01_ages_16":"16","01_ages_17":"17","01_ages_18":"18","02":"Yes","02_ages_11":"11","02_ages_15":"15","03":"Yes","03_ages_5":"5","03_ages_6":"6","03_ages_7":"7","03_ages_8":"8","03_ages_9":"9","03_ages_10":"10","03_ages_11":"11","03_ages_12":"12","03_ages_13":"13","03_ages_14":"14","03_ages_15":"15","03_ages_16":"16","03_ages_17":"17","04":"Yes","04_ages_1":"1","04_ages_2":"2","04_ages_3":"3","04_ages_4":"4","04_ages_5":"5","04_ages_6":"6","04_ages_7":"7","04_ages_8":"8","04_ages_9":"9","04_ages_10":"10","04_ages_11":"11","04_ages_12":"12","04_ages_13":"13","04_ages_14":"14","04_ages_15":"15","04_ages_16":"16","04_ages_17":"17","04_ages_18":"18"},"rt":154558.5,"item_order":[0,1,2,3],"radio_events":[6777.400000035763,60225,90488.90000003576,128840.80000001192],"checkbox_events":[33605,34521,35253,37245,37793.10000002384,41049.10000002384,42081.10000002384,43888.90000003576,45385.10000002384,80000.90000003576,81744.90000003576,98921,99672.90000003576,100656.80000001192,104188.90000003576,104804.90000003576,107848.80000001192,109384.90000003576,110008.80000001192,110593,111448.90000003576,112384.90000003576,113175.69999998808,114205.30000001192,136665.10000002384,137440.90000003576,138088.69999998808,138876.90000003576,140832.69999998808,142681.10000002384,143600.80000001192,144264.90000003576,145000.80000001192,147688.80000001192,148280.80000001192,149136.90000003576,149904.69999998808,150520.69999998808,151080.90000003576,152056.69999998808,152732.80000001192,153664.90000003576],"key_events":[],"mouse_events":[5078.600000023842,6777.400000035763,33605,34521,35253,37245,37793.10000002384,39113.19999998808,41049.10000002384,42081.10000002384,43888.90000003576,45385.10000002384,60225,80000.90000003576,81744.90000003576,90488.90000003576,98921,99672.90000003576,100656.80000001192,104188.90000003576,104804.90000003576,107848.80000001192,108576.80000001192,109384.90000003576,110008.80000001192,110593,111448.90000003576,112384.90000003576,113175.69999998808,114205.30000001192,128840.80000001192,136665.10000002384,137440.90000003576,138088.69999998808,138876.90000003576,139600.60000002384,140832.69999998808,142681.10000002384,143600.80000001192,144264.90000003576,145000.80000001192,146297.10000002384,147688.80000001192,148280.80000001192,149136.90000003576,149904.69999998808,150520.69999998808,151080.90000003576,152056.69999998808,152732.80000001192,153664.90000003576,154556.90000003576],"honeypot":0,"survey":"mace","page":9,"trial_type":"survey-mace","trial_index":17,"time_elapsed":1450635,"internal_node_id":"0.0-17.0","task_version":"prescreen-v0.3","browser_interactions":0},{"responses":{"01":"No","02":"No","03":"No","04":"No","05":"Yes","05_ages_1":"1","05_ages_2":"2","05_ages_3":"3","05_ages_4":"4","05_ages_5":"5","05_ages_6":"6","05_ages_7":"7","05_ages_8":"8","05_ages_9":"9","05_ages_10":"10","05_ages_11":"11","05_ages_12":"12","05_ages_13":"13","05_ages_14":"14","05_ages_15":"15","05_ages_16":"16","05_ages_17":"17","05_ages_18":"18","06":"Yes","06_ages_17":"17","07":"Yes","07_ages_5":"5","07_ages_6":"6","07_ages_7":"7","07_ages_8":"8","07_ages_9":"9","07_ages_10":"10","07_ages_11":"11","07_ages_12":"12","07_ages_13":"13","07_ages_14":"14","07_ages_15":"15","07_ages_16":"16","07_ages_17":"17","07_ages_18":"18","08":"Yes","08_ages_5":"5","08_ages_6":"6","08_ages_7":"7","08_ages_8":"8","08_ages_9":"9","08_ages_10":"10","08_ages_11":"11","08_ages_12":"12","08_ages_13":"13","08_ages_14":"14","08_ages_15":"15","08_ages_16":"16","08_ages_17":"17","08_ages_18":"18"},"rt":114832,"item_order":[0,1,2,3,4,5,6,7],"radio_events":[8552.199999988079,10840.699999988079,14344.699999988079,19652.399999976158,25724.299999952316,49340.39999997616,56896.299999952316,87924.29999995232],"checkbox_events":[30740.5,31272.399999976158,31840.399999976158,32316.399999976158,33296.39999997616,34012.799999952316,34676.5,36172.39999997616,36720.19999998808,37404.39999997616,38056.39999997616,38684.39999997616,39588.39999997616,40080.5,40676.39999997616,41364.39999997616,42000.69999998808,43032.39999997616,51376.299999952316,64596.39999997616,65388.299999952316,65900.39999997616,66428.5,66948.5,67404.39999997616,70700.19999998808,71196.59999996424,71780.19999998808,72928.59999996424,75020.29999995232,75484.39999997616,75932.19999998808,76476.39999997616,77492.29999995232,78324.19999998808,79212.39999997616,80262.29999995232,82012.29999995232,82600.19999998808,83412.29999995232,84084.39999997616,97700.29999995232,99644.59999996424,100400.09999996424,102936.19999998808,103620.19999998808,104368.29999995232,106028.39999997616,107028.39999997616,107836.19999998808,108724.29999995232,109404.19999998808,110092.19999998808,111436.19999998808,112384.19999998808],"key_events":[],"mouse_events":[8552.199999988079,10840.699999988079,14344.699999988079,19652.399999976158,25724.299999952316,30740.5,31272.399999976158,31840.399999976158,32316.399999976158,33296.39999997616,34012.799999952316,34676.5,35196.5,36172.39999997616,36720.19999998808,37404.39999997616,38056.39999997616,38684.39999997616,39588.39999997616,40080.5,40676.39999997616,41364.39999997616,42000.69999998808,43032.39999997616,49340.39999997616,51376.299999952316,56896.299999952316,64596.39999997616,65388.299999952316,65900.39999997616,66428.5,66948.5,67404.39999997616,70700.19999998808,71196.59999996424,71780.19999998808,72256.29999995232,72928.59999996424,73660.29999995232,75020.29999995232,75484.39999997616,75932.19999998808,76476.39999997616,76932.39999997616,77492.29999995232,78324.19999998808,79212.39999997616,80262.29999995232,82012.29999995232,82600.19999998808,83412.29999995232,84084.39999997616,87924.29999995232,95868.5,97700.29999995232,99644.59999996424,100400.09999996424,101380.5,102060,102936.19999998808,103620.19999998808,104368.29999995232,105324.19999998808,106028.39999997616,107028.39999997616,107836.19999998808,108724.29999995232,109404.19999998808,110092.19999998808,110748.09999996424,111436.19999998808,112384.19999998808,114828.69999998808],"honeypot":0,"survey":"mace","page":10,"trial_type":"survey-mace","trial_index":18,"time_elapsed":1565478,"internal_node_id":"0.0-18.0","task_version":"prescreen-v0.3","browser_interactions":0,"instructed":0},{"rt":12898.400000035763,"trial_type":"mental-health-alert","trial_index":19,"time_elapsed":1578385,"internal_node_id":"0.0-19.0","task_version":"prescreen-v0.3","interactions":"[]"}]