[{"view_history":[{"page_index":0,"viewing_time":3733.199999988079},{"page_index":1,"viewing_time":3788.199999988079},{"page_index":2,"viewing_time":3357.300000011921},{"page_index":3,"viewing_time":1776.0999999642372}],"rt":12656.299999952316,"trial_type":"instructions","trial_index":0,"time_elapsed":12672,"internal_node_id":"0.0-0.0","task_version":"prescreen-v0.3"},{"rt":18073,"responses":{"age":"54","gender-categorical":"Female","gender-free-response":"","ethnicity":"Not Hispanic or Latino","race":["White"],"education":"Some college"},"trial_type":"survey-demo","trial_index":1,"time_elapsed":30758,"internal_node_id":"0.0-1.0","task_version":"prescreen-v0.3"},{"responses":{"Q11":"0","Q09":"2","Q14":"2","Q01":"0","Q05":"0","Q19":"0","Q10":"0","Q21":"3","Q16":"0","Q15":"2","Q08":"0","Q18":"0","Q17":"0","Q20":"0","Q13":"2","Q03":"0","Q06":"2","Q02":"0","Q07":"0","Q04":"0","Q12":"0"},"rt":139973.10000002384,"item_order":[10,8,13,0,4,18,9,20,15,14,7,17,16,19,12,2,5,1,6,3,11],"radio_events":[7541.200000047684,12563.100000023842,21477.200000047684,25571.600000023842,35004.60000002384,40801.60000002384,44703.80000001192,50774.90000003576,61291.90000003576,67677.80000001192,72028,78420.60000002384,82098.10000002384,91879.20000004768,100711.20000004768,104354.90000003576,114947.10000002384,118760.30000001192,128453.90000003576,133711.10000002384,138542.10000002384],"key_events":[],"mouse_events":[7541.200000047684,12563.100000023842,21477.200000047684,25571.600000023842,35004.60000002384,40801.60000002384,44703.80000001192,50774.90000003576,61291.90000003576,67677.80000001192,72028,77523,78420.60000002384,82098.10000002384,91879.20000004768,100711.20000004768,104354.90000003576,114947.10000002384,118760.30000001192,128453.90000003576,133711.10000002384,138542.10000002384,139968],"straightlining":0.7142857142857143,"zigzagging":0.1,"honeypot":0,"survey":"sns","trial_type":"survey-template","trial_index":2,"time_elapsed":170746,"internal_node_id":"0.0-2.0","task_version":"prescreen-v0.3","browser_interactions":0,"infrequency":0},{"responses":{"Q04":"3","Q01":"3","Q07":"3","Q11":"3","Q02":"3","Q12":"3","Q08":"3","Q09":"3","Q05":"3","Q13":"0","Q03":"3","Q06":"3","Q10":"3"},"rt":59243.19999998808,"item_order":[3,0,6,10,1,11,7,8,4,12,2,5,9],"radio_events":[10125.800000011921,12305.300000011921,14300.899999976158,18701.69999998808,23203.5,27140.600000023842,29623.30000001192,33981.69999998808,36554.30000001192,40134.69999998808,51021.19999998808,54499.19999998808,58584],"key_events":[],"mouse_events":[10125.800000011921,12305.300000011921,14300.899999976158,18701.69999998808,23203.5,27140.600000023842,29623.30000001192,33981.69999998808,36554.30000001192,40134.69999998808,51021.19999998808,54499.19999998808,58584,59240.39999997616],"straightlining":0.9230769230769231,"zigzagging":0.16666666666666666,"honeypot":0,"survey":"bisbas","trial_type":"survey-template","trial_index":3,"time_elapsed":230001,"internal_node_id":"0.0-3.0","task_version":"prescreen-v0.3","browser_interactions":0,"infrequency":0},{"responses":{"Q01":"3","Q02":"4","Q03":"3"},"rt":32726.69999998808,"radio_events":[12313,22894.80000001192,29977.80000001192],"key_events":[],"mouse_events":[12313,22109.80000001192,22894.80000001192,29977.80000001192,32725.099999964237],"survey":"map","page":1,"trial_type":"survey-map","trial_index":4,"time_elapsed":262736,"internal_node_id":"0.0-4.0","task_version":"prescreen-v0.3","browser_interactions":0},{"responses":{"Q04":"3","Q05":"4","Q06":"3"},"rt":19388.5,"radio_events":[8627.899999976158,13843,17920.69999998808],"key_events":[],"mouse_events":[8627.899999976158,13843,17920.69999998808,19387],"survey":"map","page":2,"trial_type":"survey-map","trial_index":5,"time_elapsed":282130,"internal_node_id":"0.0-5.0","task_version":"prescreen-v0.3","browser_interactions":0},{"responses":{"Q07":"4","Q08":"4","Q09":"2"},"rt":19309.19999998808,"radio_events":[10872.599999964237,14260.699999988079,18059.19999998808],"key_events":[],"mouse_events":[10872.599999964237,14260.699999988079,18059.19999998808,19307.899999976158],"survey":"map","page":3,"trial_type":"survey-map","trial_index":6,"time_elapsed":301446,"internal_node_id":"0.0-6.0","task_version":"prescreen-v0.3","browser_interactions":0},{"responses":{"Q10":"3","Q11":"2","Q12":"4","Q13":"3","Q16":"0","Q14":"2","Q15":"2"},"rt":57036.19999998808,"radio_events":[13154.199999988079,18784.399999976158,26891.600000023842,38680,45103.89999997616,50055.10000002384,55992],"key_events":[],"mouse_events":[13154.199999988079,18784.399999976158,26891.600000023842,38680,45103.89999997616,50055.10000002384,55992,57033.69999998808],"survey":"map","page":4,"trial_type":"survey-map","trial_index":7,"time_elapsed":358490,"internal_node_id":"0.0-7.0","task_version":"prescreen-v0.3","browser_interactions":0,"infrequency":0},{"view_history":[{"page_index":0,"viewing_time":5750.300000011921},{"page_index":1,"viewing_time":4415.599999964237}],"rt":10167.300000011921,"trial_type":"instructions","trial_index":8,"time_elapsed":368659,"internal_node_id":"0.0-8.0","task_version":"prescreen-v0.3"},{"responses":{"01":"Yes","01_ages_10":"10","01_ages_11":"11","01_ages_12":"12","01_ages_13":"13","01_ages_14":"14","01_ages_15":"15","01_ages_16":"16","01_ages_17":"17","02":"Yes","02_ages_10":"10","02_ages_11":"11","02_ages_12":"12","02_ages_13":"13","02_ages_14":"14","02_ages_15":"15","02_ages_16":"16","02_ages_17":"17","03":"Yes","03_ages_10":"10","03_ages_11":"11","03_ages_12":"12","03_ages_13":"13","03_ages_14":"14","03_ages_15":"15","04":"No","05":"No","06":"Yes","06_ages_10":"10","06_ages_11":"11","06_ages_12":"12","06_ages_13":"13"},"rt":111088.09999996424,"item_order":[0,1,2,3,4,5],"radio_events":[8542.599999964237,35448.39999997616,51191.59999996424,62808.09999996424,67872.09999996424,71210.5],"checkbox_events":[23841.80000001192,25787,27316.899999976158,28039,28655,29225,30201.899999976158,38333.80000001192,39069.39999997616,39727.5,40351.69999998808,40930.59999996424,41441,41937.89999997616,43908.59999996424,45078.89999997616,53033.19999998808,53579.09999996424,54043.30000001192,54538.69999998808,55005.19999998808,55588.59999996424,56711.30000001192,57318.69999998808,72589.30000001192,73406.80000001192,73967.69999998808,74689.19999998808,75296.69999998808,76003.19999998808,77588.09999996424,78341.89999997616,83628.19999998808,84597.69999998808,85686.39999997616,87129.5,98683.69999998808,100285.89999997616],"key_events":[],"mouse_events":[0.699999988079071,8542.599999964237,23841.80000001192,25787,27316.899999976158,28039,28655,29225,30201.899999976158,35448.39999997616,38333.80000001192,39069.39999997616,39727.5,40351.69999998808,40930.59999996424,41441,41937.89999997616,43908.59999996424,45078.89999997616,51191.59999996424,53033.19999998808,53579.09999996424,54043.30000001192,54538.69999998808,55005.19999998808,55588.59999996424,56711.30000001192,57318.69999998808,62808.09999996424,67872.09999996424,71210.5,72589.30000001192,73406.80000001192,73967.69999998808,74689.19999998808,75296.69999998808,76003.19999998808,76868.80000001192,77588.09999996424,78341.89999997616,83628.19999998808,84597.69999998808,85686.39999997616,87129.5,98683.69999998808,100285.89999997616,111081.80000001192],"honeypot":0,"survey":"mace","page":1,"trial_type":"survey-mace","trial_index":9,"time_elapsed":479770,"internal_node_id":"0.0-9.0","task_version":"prescreen-v0.3","browser_interactions":0},{"responses":{"01":"No","02":"No","03":"Yes","03_ages_10":"10","03_ages_11":"11","03_ages_12":"12","03_ages_13":"13","04":"Yes","04_ages_10":"10","04_ages_11":"11","04_ages_12":"12","04_ages_13":"13","05":"Yes","05_ages_10":"10","05_ages_11":"11","05_ages_12":"12","05_ages_13":"13","06":"No","07":"No","08":"No"},"rt":64437,"item_order":[0,1,2,3,4,5,6,7],"radio_events":[11424.400000035763,17453.600000023842,20897,34006,39468.60000002384,48152.80000001192,54762,59849.90000003576],"checkbox_events":[25200.69999998808,26651,27619.19999998808,30794.19999998808,35111,35646.80000001192,36305.5,36833.40000003576,40830.5,41408.5,41968.60000002384,42762.30000001192],"key_events":[],"mouse_events":[11424.400000035763,17453.600000023842,20897,25200.69999998808,26651,27619.19999998808,30794.19999998808,34006,35111,35646.80000001192,36305.5,36833.40000003576,39468.60000002384,40830.5,41408.5,41968.60000002384,42762.30000001192,48152.80000001192,54762,59849.90000003576,64428.10000002384],"honeypot":0,"survey":"mace","page":2,"trial_type":"survey-mace","trial_index":10,"time_elapsed":544223,"internal_node_id":"0.0-10.0","task_version":"prescreen-v0.3","browser_interactions":0},{"responses":{"01":"No","02":"No","03":"No","04":"No"},"rt":14824.400000035763,"item_order":[0,1,2,3],"radio_events":[5607,8379.200000047684,10686,13745.800000011921],"checkbox_events":[],"key_events":[],"mouse_events":[5607,8379.200000047684,10686,13745.800000011921,14820],"honeypot":0,"survey":"mace","page":3,"trial_type":"survey-mace","trial_index":11,"time_elapsed":559058,"internal_node_id":"0.0-11.0","task_version":"prescreen-v0.3","browser_interactions":0},{"responses":{"01":"No","02":"No"},"rt":8887.800000011921,"item_order":[0,1],"radio_events":[3405.900000035763,6483.200000047684],"checkbox_events":[],"key_events":[],"mouse_events":[3405.900000035763,6483.200000047684,8885.400000035763],"honeypot":0,"survey":"mace","page":4,"trial_type":"survey-mace","trial_index":12,"time_elapsed":567954,"internal_node_id":"0.0-12.0","task_version":"prescreen-v0.3","browser_interactions":0},{"responses":{"01":"No","02":"No","03":"No","04":"No","05":"No"},"rt":26908.900000035763,"item_order":[0,1,2,3,4],"radio_events":[11168.400000035763,15350.600000023842,19916.200000047684,22961.5,25317.700000047684],"checkbox_events":[],"key_events":[],"mouse_events":[11168.400000035763,15350.600000023842,19916.200000047684,22961.5,25317.700000047684,26903.30000001192],"honeypot":0,"survey":"mace","page":5,"trial_type":"survey-mace","trial_index":13,"time_elapsed":594875,"internal_node_id":"0.0-13.0","task_version":"prescreen-v0.3","browser_interactions":0},{"responses":{"01":"Yes","01_ages_10":"10","01_ages_11":"11","01_ages_12":"12","01_ages_13":"13","01_ages_14":"14","01_ages_15":"15","01_ages_16":"16","01_ages_17":"17","01_ages_18":"18","02":"Yes","02_ages_10":"10","02_ages_11":"11","02_ages_12":"12","02_ages_13":"13","02_ages_14":"14","02_ages_15":"15","02_ages_16":"16","02_ages_17":"17","02_ages_18":"18","03":"Yes","03_ages_14":"14","03_ages_15":"15","03_ages_16":"16","03_ages_17":"17","03_ages_18":"18","04":"Yes","04_ages_14":"14","04_ages_15":"15","04_ages_16":"16","04_ages_17":"17","04_ages_18":"18","05":"Yes","05_ages_13":"13","05_ages_14":"14","05_ages_15":"15"},"rt":104303,"item_order":[0,1,2,3,4],"radio_events":[9819.699999988079,29319.80000001192,40888.80000001192,58200.60000002384,75615.19999998808],"checkbox_events":[13600.399999976158,14657.399999976158,15236.300000011921,15779.5,16629.30000001192,17189.5,17797.69999998808,18535.30000001192,21923.5,31198.5,32405.899999976158,33254.5,33870.89999997616,34510.80000001192,35025,35553.39999997616,36034,36578.69999998808,48434.80000001192,49115,50109.19999998808,52872.80000001192,54466.19999998808,66250.39999997616,66829.39999997616,67373.10000002384,68527.10000002384,69294.80000001192,96775.60000002384,98634.10000002384,100373.30000001192],"key_events":[],"mouse_events":[9819.699999988079,13600.399999976158,14657.399999976158,15236.300000011921,15779.5,16629.30000001192,17189.5,17797.69999998808,18535.30000001192,21923.5,29319.80000001192,31198.5,32405.899999976158,33254.5,33870.89999997616,34510.80000001192,35025,35553.39999997616,36034,36578.69999998808,40888.80000001192,48434.80000001192,49115,50109.19999998808,52872.80000001192,54466.19999998808,58200.60000002384,66250.39999997616,66829.39999997616,67373.10000002384,67868.69999998808,68527.10000002384,69294.80000001192,75615.19999998808,96775.60000002384,98634.10000002384,100373.30000001192,104297.89999997616],"honeypot":0,"survey":"mace","page":6,"trial_type":"survey-mace","trial_index":14,"time_elapsed":699191,"internal_node_id":"0.0-14.0","task_version":"prescreen-v0.3","browser_interactions":0},{"responses":{"01":"Yes","01_ages_15":"15","01_ages_16":"16","02":"No","03":"No","04":"No","05":"No","06":"Yes","06_ages_18":"18","07":"Yes","07_ages_18":"18"},"rt":50252.799999952316,"item_order":[0,1,2,3,4,5,6],"radio_events":[4162.899999976158,14603.799999952316,18896.5,21475.5,24167.599999964237,34199.39999997616,46655.39999997616],"checkbox_events":[6918.399999976158,10059.5,35866.799999952316,48386.5],"key_events":[],"mouse_events":[4162.899999976158,6918.399999976158,10059.5,14603.799999952316,18896.5,21475.5,24167.599999964237,34199.39999997616,35866.799999952316,41737.69999998808,46655.39999997616,48386.5,50244.39999997616],"honeypot":0,"survey":"mace","page":7,"trial_type":"survey-mace","trial_index":15,"time_elapsed":749460,"internal_node_id":"0.0-15.0","task_version":"prescreen-v0.3","browser_interactions":0},{"responses":{"01":"Yes","01_ages_2":"2","01_ages_3":"3","01_ages_4":"4","01_ages_5":"5","01_ages_6":"6","01_ages_7":"7","01_ages_8":"8","01_ages_9":"9","01_ages_10":"10","01_ages_11":"11","01_ages_12":"12","01_ages_13":"13","01_ages_14":"14","01_ages_15":"15","01_ages_16":"16","01_ages_17":"17","01_ages_18":"18","02":"Yes","02_ages_2":"2","02_ages_3":"3","02_ages_4":"4","02_ages_5":"5","02_ages_6":"6","02_ages_7":"7","02_ages_8":"8","02_ages_9":"9","02_ages_10":"10","02_ages_11":"11","02_ages_12":"12","02_ages_13":"13","02_ages_14":"14","02_ages_15":"15","02_ages_16":"16","02_ages_17":"17","02_ages_18":"18","03":"Yes","03_ages_10":"10","03_ages_11":"11","03_ages_12":"12","03_ages_13":"13","03_ages_14":"14","03_ages_15":"15","03_ages_16":"16","04":"Yes","04_ages_3":"3","04_ages_4":"4","04_ages_5":"5","04_ages_6":"6","04_ages_7":"7","04_ages_8":"8","04_ages_9":"9","04_ages_10":"10","04_ages_11":"11","04_ages_12":"12","04_ages_13":"13","04_ages_14":"14","04_ages_15":"15","04_ages_16":"16","04_ages_17":"17","04_ages_18":"18"},"rt":101214.80000001192,"item_order":[0,1,2,3],"radio_events":[8816.100000023842,42537.69999998808,61059.19999998808,80952.5],"checkbox_events":[16637.100000023842,18312.19999998808,25274.19999998808,25868.30000001192,26476.399999976158,26956.100000023842,27485.5,28094.69999998808,29328.399999976158,30066.100000023842,31010.69999998808,31540.80000001192,32387.80000001192,32862.39999997616,33517,34016,34479.39999997616,46303.39999997616,46943,47561.89999997616,48073.39999997616,48979.80000001192,49923.39999997616,50725.30000001192,51367.60000002384,52022.69999998808,52550.30000001192,53080.30000001192,53576.19999998808,54411,54986.30000001192,55756.19999998808,56276.10000002384,56933.69999998808,73542,74021.5,74630.10000002384,75272.60000002384,75767.39999997616,76231.69999998808,76970,87207.19999998808,88272.39999997616,88849.30000001192,89793.39999997616,90851.30000001192,91509.5,91990.10000002384,92504.19999998808,93047.60000002384,94635.69999998808,95192.10000002384,95834.89999997616,96315.60000002384,97221.30000001192,97684.10000002384,98205.69999998808],"key_events":[],"mouse_events":[8816.100000023842,16637.100000023842,18312.19999998808,25274.19999998808,25868.30000001192,26476.399999976158,26956.100000023842,27485.5,28094.69999998808,29328.399999976158,30066.100000023842,31010.69999998808,31540.80000001192,32387.80000001192,32862.39999997616,33517,34016,34479.39999997616,42537.69999998808,46303.39999997616,46943,47561.89999997616,48073.39999997616,48520.39999997616,48979.80000001192,49923.39999997616,50725.30000001192,51367.60000002384,52022.69999998808,52550.30000001192,53080.30000001192,53576.19999998808,54411,54986.30000001192,55756.19999998808,56276.10000002384,56933.69999998808,61059.19999998808,73542,74021.5,74630.10000002384,75272.60000002384,75767.39999997616,76231.69999998808,76970,80952.5,87207.19999998808,88272.39999997616,88849.30000001192,89793.39999997616,90851.30000001192,91509.5,91990.10000002384,92504.19999998808,93047.60000002384,94635.69999998808,95192.10000002384,95834.89999997616,96315.60000002384,96772.80000001192,97221.30000001192,97684.10000002384,98205.69999998808,101210.60000002384],"honeypot":0,"survey":"mace","page":8,"trial_type":"survey-mace","trial_index":16,"time_elapsed":850688,"internal_node_id":"0.0-16.0","task_version":"prescreen-v0.3","browser_interactions":0},{"responses":{"01":"No","02":"No","03":"Yes","03_ages_1":"1","03_ages_2":"2","03_ages_3":"3","03_ages_4":"4","03_ages_5":"5","03_ages_6":"6","03_ages_7":"7","03_ages_8":"8","03_ages_9":"9","03_ages_10":"10","03_ages_11":"11","03_ages_12":"12","03_ages_13":"13","03_ages_14":"14","03_ages_15":"15","03_ages_16":"16","03_ages_17":"17","03_ages_18":"18","04":"Yes","04_ages_1":"1","04_ages_2":"2","04_ages_3":"3","04_ages_4":"4","04_ages_5":"5","04_ages_6":"6","04_ages_7":"7","04_ages_8":"8","04_ages_9":"9","04_ages_10":"10","04_ages_11":"11","04_ages_12":"12","04_ages_13":"13","04_ages_14":"14","04_ages_15":"15","04_ages_16":"16","04_ages_17":"17","04_ages_18":"18"},"rt":61493.19999998808,"item_order":[0,1,2,3],"radio_events":[7659.600000023842,10998.699999988079,17609.80000001192,43928.10000002384],"checkbox_events":[23338.5,24237.399999976158,25119,28050.30000001192,29309.899999976158,30043.80000001192,30637.399999976158,31470.100000023842,31975.899999976158,32952.30000001192,33802.89999997616,34587.69999998808,36646.19999998808,37415,38232.10000002384,38809.69999998808,39754,40538.5,45257.69999998808,45738,46186.39999997616,46867.60000002384,47523,48677.60000002384,49221.80000001192,49751.39999997616,50584.19999998808,51401.39999997616,52331.19999998808,52890.89999997616,55486.80000001192,56062.10000002384,56880.30000001192,57618.19999998808,58145.89999997616,58966.69999998808],"key_events":[],"mouse_events":[7659.600000023842,10998.699999988079,17609.80000001192,23338.5,24237.399999976158,25119,28050.30000001192,29309.899999976158,30043.80000001192,30637.399999976158,31470.100000023842,31975.899999976158,32952.30000001192,33802.89999997616,34587.69999998808,36646.19999998808,37415,38232.10000002384,38809.69999998808,39754,40538.5,43928.10000002384,45257.69999998808,45738,46186.39999997616,46867.60000002384,47523,48677.60000002384,49221.80000001192,49751.39999997616,50584.19999998808,51401.39999997616,52331.19999998808,52890.89999997616,54157.30000001192,55486.80000001192,56062.10000002384,56880.30000001192,57618.19999998808,58145.89999997616,58966.69999998808,61488.19999998808],"honeypot":0,"survey":"mace","page":9,"trial_type":"survey-mace","trial_index":17,"time_elapsed":912191,"internal_node_id":"0.0-17.0","task_version":"prescreen-v0.3","browser_interactions":0},{"responses":{"01":"Yes","01_ages_12":"12","01_ages_13":"13","01_ages_14":"14","01_ages_15":"15","01_ages_16":"16","02":"No","03":"No","04":"Yes","04_ages_13":"13","04_ages_14":"14","04_ages_15":"15","04_ages_16":"16","04_ages_17":"17","04_ages_18":"18","05":"Yes","05_ages_3":"3","05_ages_4":"4","05_ages_5":"5","05_ages_6":"6","05_ages_7":"7","05_ages_8":"8","05_ages_9":"9","05_ages_10":"10","05_ages_11":"11","05_ages_12":"12","05_ages_13":"13","05_ages_14":"14","05_ages_15":"15","05_ages_16":"16","05_ages_17":"17","05_ages_18":"18","06":"Yes","06_ages_17":"17","07":"No","08":"No"},"rt":70729.20000004768,"item_order":[0,1,2,3,4,5,6,7],"radio_events":[5517.5,16941,20384.100000023842,24143.5,38146.90000003576,60025.200000047684,66826.40000003576,69822.10000002384],"checkbox_events":[11638.100000023842,12222,12736,13327.900000035763,13960.100000023842,30343.700000047684,30839.400000035763,31271.80000001192,31722.5,32201.100000023842,32632.5,42048.10000002384,43522.5,44017.10000002384,44530.80000001192,45796.60000002384,46341.40000003576,46838.700000047684,47271.40000003576,47719.80000001192,50746.30000001192,51211.60000002384,51684.200000047684,52275.5,52838.90000003576,53414,53880,62189.30000001192],"key_events":[],"mouse_events":[5517.5,11638.100000023842,12222,12736,13327.900000035763,13960.100000023842,16941,20384.100000023842,24143.5,30343.700000047684,30839.400000035763,31271.80000001192,31722.5,32201.100000023842,32632.5,38146.90000003576,42048.10000002384,42528.10000002384,43522.5,44017.10000002384,44530.80000001192,44963.60000002384,45796.60000002384,46341.40000003576,46838.700000047684,47271.40000003576,47719.80000001192,49337.30000001192,50746.30000001192,51211.60000002384,51684.200000047684,52275.5,52838.90000003576,53414,53880,60025.200000047684,62189.30000001192,66826.40000003576,69822.10000002384,70721.10000002384],"honeypot":0,"survey":"mace","page":10,"trial_type":"survey-mace","trial_index":18,"time_elapsed":982938,"internal_node_id":"0.0-18.0","task_version":"prescreen-v0.3","browser_interactions":0,"instructed":0},{"rt":7980.599999964237,"trial_type":"mental-health-alert","trial_index":19,"time_elapsed":990923,"internal_node_id":"0.0-19.0","task_version":"prescreen-v0.3","interactions":"[]"}]