[{"view_history":[{"page_index":0,"viewing_time":5289.5},{"page_index":1,"viewing_time":5751.099999904633},{"page_index":2,"viewing_time":4655.600000023842},{"page_index":3,"viewing_time":3406.600000023842}],"rt":19105.199999928474,"trial_type":"instructions","trial_index":0,"time_elapsed":19254,"internal_node_id":"0.0-0.0","task_version":"prescreen-v0.3"},{"rt":34930.89999997616,"responses":{"age":"38","gender-categorical":"Male","gender-free-response":"","ethnicity":"Rather not say","race":["Asian"],"education":"Bachelor degree","siblings":"1"},"trial_type":"survey-demo","trial_index":1,"time_elapsed":54202,"internal_node_id":"0.0-1.0","task_version":"prescreen-v0.3"},{"responses":{"Q09":"1","Q18":"1","Q02":"2","Q08":"2","Q11":"1","Q20":"1","Q04":"1","Q07":"2","Q03":"1","Q21":"3","Q16":"2","Q01":"2","Q05":"2","Q15":"1","Q19":"1","Q17":"1","Q10":"1","Q13":"1","Q06":"2","Q14":"0","Q12":"1"},"rt":140800.89999997616,"item_order":[8,17,1,7,10,19,3,6,2,20,15,0,4,14,18,16,9,12,5,13,11],"radio_events":[14289.699999928474,21448.299999952316,30128.100000023842,34592.5,36105,39960.39999997616,44984,50240.39999997616,58640.299999952316,62339.10000002384,66424.10000002384,76863.5,81103.19999992847,87280.10000002384,94303.5,101703.89999997616,105263.5,109456,116576.39999997616,123792.29999995232,131672.19999992847,139736.19999992847],"key_events":[],"mouse_events":[14289.699999928474,21448.299999952316,30128.100000023842,33865.199999928474,34592.5,35642,36105,39960.39999997616,44984,49288.60000002384,50240.39999997616,58640.299999952316,62339.10000002384,65913.5,66424.10000002384,75368,76863.5,81103.19999992847,87280.10000002384,92992.10000002384,93945.19999992847,94303.5,101703.89999997616,105263.5,109456,116576.39999997616,123232.69999992847,123792.29999995232,130225.39999997616,131024.89999997616,131672.19999992847,139736.19999992847,140792.79999995232],"straightlining":0.5714285714285714,"zigzagging":0.4,"honeypot":0,"survey":"sns","trial_type":"survey-template","trial_index":2,"time_elapsed":195029,"internal_node_id":"0.0-2.0","task_version":"prescreen-v0.3","browser_interactions":0,"infrequency":0},{"responses":{"Q05":"2","Q03":"1","Q01":"1","Q12":"1","Q04":"2","Q06":"2","Q13":"0","Q02":"1","Q11":"3","Q09":"2","Q10":"1","Q07":"1","Q08":"1"},"rt":75871.30000007153,"item_order":[4,2,0,11,3,5,12,1,10,8,9,6,7],"radio_events":[9241.5,15722.100000023842,18321,27089.5,32857.60000002384,38448.700000047684,43561.90000009537,50450.10000002384,55833.200000047684,62361.5,62713.300000071526,63617.200000047684,66449,70897,75089.20000004768],"key_events":[],"mouse_events":[8153.700000047684,9241.5,15722.100000023842,18321,26201.5,27089.5,32332.300000071526,32857.60000002384,38448.700000047684,43561.90000009537,50450.10000002384,55377.60000002384,55833.200000047684,61697,62361.5,62713.300000071526,63363.300000071526,63617.200000047684,66449,70897,75089.20000004768,75866.30000007153],"straightlining":0.5384615384615384,"zigzagging":0.4166666666666667,"honeypot":0,"survey":"bisbas","trial_type":"survey-template","trial_index":3,"time_elapsed":270916,"internal_node_id":"0.0-3.0","task_version":"prescreen-v0.3","browser_interactions":0,"infrequency":0},{"responses":{"Q01":"3","Q02":"2","Q03":"3"},"rt":25880.600000023842,"radio_events":[15052.600000023842,20220.700000047684,25317.100000023842],"key_events":[],"mouse_events":[14453.100000023842,15052.600000023842,19613.200000047684,20220.700000047684,24950.100000023842,25317.100000023842,25876.299999952316],"survey":"map","page":1,"trial_type":"survey-map","trial_index":4,"time_elapsed":296810,"internal_node_id":"0.0-4.0","task_version":"prescreen-v0.3","browser_interactions":0},{"responses":{"Q04":"3","Q05":"2","Q06":"3"},"rt":13946,"radio_events":[5608.599999904633,11135.299999952316,13359.899999976158],"key_events":[],"mouse_events":[5608.599999904633,10376.399999976158,11135.299999952316,13359.899999976158,13943.799999952316],"survey":"map","page":2,"trial_type":"survey-map","trial_index":5,"time_elapsed":310766,"internal_node_id":"0.0-5.0","task_version":"prescreen-v0.3","browser_interactions":0},{"responses":{"Q07":"3","Q08":"3","Q09":"3"},"rt":7113.200000047684,"radio_events":[4663.100000023842,5574.300000071526,6438.600000023842],"key_events":[],"mouse_events":[4134,4663.100000023842,5222.300000071526,5574.300000071526,6438.600000023842,7110],"survey":"map","page":3,"trial_type":"survey-map","trial_index":6,"time_elapsed":317888,"internal_node_id":"0.0-6.0","task_version":"prescreen-v0.3","browser_interactions":0},{"responses":{"Q10":"3","Q11":"2","Q12":"2","Q13":"2","Q16":"0","Q14":"3","Q15":"2"},"rt":45759.299999952316,"radio_events":[5962.5,9411.299999952316,10953.899999976158,22354.899999976158,27482.199999928474,40081.89999997616,44546.199999928474],"key_events":[],"mouse_events":[5338.599999904633,5962.5,8882.5,9411.299999952316,10953.899999976158,21297.899999976158,22050,22354.899999976158,27482.199999928474,39459.799999952316,40081.89999997616,44546.199999928474,45753.89999997616],"survey":"map","page":4,"trial_type":"survey-map","trial_index":7,"time_elapsed":363660,"internal_node_id":"0.0-7.0","task_version":"prescreen-v0.3","browser_interactions":0,"infrequency":0},{"view_history":[{"page_index":0,"viewing_time":3626.2999999523163},{"page_index":1,"viewing_time":7943.200000047684}],"rt":11573.600000023842,"trial_type":"instructions","trial_index":8,"time_elapsed":375238,"internal_node_id":"0.0-8.0","task_version":"prescreen-v0.3"},{"responses":{"01":"No","02":"Yes","02_ages_12":"12","02_ages_13":"13","02_ages_14":"14","03":"No","04":"Yes","04_ages_8":"8","04_ages_9":"9","05":"Yes","05_ages_5":"5","05_ages_6":"6","06":"No"},"rt":55958.5,"item_order":[0,1,2,3,4,5],"radio_events":[7786.600000023842,18033.700000047684,33481.89999997616,37473.60000002384,47041.10000002384,54689.10000002384],"checkbox_events":[22643.600000023842,24265.799999952316,26066.5,38850.60000002384,39857.39999997616,48617,49058.700000047684],"key_events":[],"mouse_events":[0.20000004768371582,7786.600000023842,18033.700000047684,22643.600000023842,24265.799999952316,26066.5,33481.89999997616,36970.299999952316,37473.60000002384,38850.60000002384,39497.299999952316,39857.39999997616,47041.10000002384,48617,49058.700000047684,54689.10000002384,55947.299999952316],"honeypot":0,"survey":"mace","page":1,"trial_type":"survey-mace","trial_index":9,"time_elapsed":431229,"internal_node_id":"0.0-9.0","task_version":"prescreen-v0.3","browser_interactions":0},{"responses":{"01":"No","02":"No","03":"No","04":"No","05":"No","06":"No","07":"No","08":"No"},"rt":29313.600000023842,"item_order":[0,1,2,3,4,5,6,7],"radio_events":[6730.5,10210.399999976158,14690.5,16282.199999928474,20434.299999952316,23786.100000023842,26403.199999928474,27210.100000023842],"checkbox_events":[],"key_events":[],"mouse_events":[6730.5,10210.399999976158,14690.5,16282.199999928474,20434.299999952316,23786.100000023842,26403.199999928474,27210.100000023842,29298.100000023842],"honeypot":0,"survey":"mace","page":2,"trial_type":"survey-mace","trial_index":10,"time_elapsed":460559,"internal_node_id":"0.0-10.0","task_version":"prescreen-v0.3","browser_interactions":0},{"responses":{"01":"No","02":"No","03":"No","04":"No"},"rt":20266.5,"item_order":[0,1,2,3],"radio_events":[14660,17835.799999952316,19115.600000023842,19779.799999952316],"checkbox_events":[],"key_events":[],"mouse_events":[14660,16267,17835.799999952316,18484.899999976158,19115.600000023842,19779.799999952316,20258.899999976158],"honeypot":0,"survey":"mace","page":3,"trial_type":"survey-mace","trial_index":11,"time_elapsed":480835,"internal_node_id":"0.0-11.0","task_version":"prescreen-v0.3","browser_interactions":0},{"responses":{"01":"No","02":"No"},"rt":6059.100000023842,"item_order":[0,1],"radio_events":[4375.399999976158,5423.200000047684],"checkbox_events":[],"key_events":[],"mouse_events":[4375.399999976158,5423.200000047684,6054.600000023842],"honeypot":0,"survey":"mace","page":4,"trial_type":"survey-mace","trial_index":12,"time_elapsed":486905,"internal_node_id":"0.0-12.0","task_version":"prescreen-v0.3","browser_interactions":0},{"responses":{"01":"Yes","01_ages_11":"11","01_ages_12":"12","02":"No","03":"No","04":"Yes","04_ages_11":"11","04_ages_12":"12","05":"No"},"rt":41650.89999997616,"item_order":[0,1,2,3,4],"radio_events":[10590.899999976158,19928.5,27959.5,34495,40734.89999997616],"checkbox_events":[11584.5,11984.5,35664.39999997616,36000.200000047684],"key_events":[],"mouse_events":[10590.899999976158,11584.5,11984.5,19554.299999952316,19928.5,27959.5,34495,35664.39999997616,36000.200000047684,39735.299999952316,40734.89999997616,41640.39999997616],"honeypot":0,"survey":"mace","page":5,"trial_type":"survey-mace","trial_index":13,"time_elapsed":528568,"internal_node_id":"0.0-13.0","task_version":"prescreen-v0.3","browser_interactions":0},{"responses":{"01":"No","02":"Yes","02_ages_14":"14","02_ages_15":"15","03":"Yes","03_ages_10":"10","03_ages_11":"11","03_ages_12":"12","03_ages_13":"13","03_ages_14":"14","04":"Yes","04_ages_11":"11","04_ages_12":"12","04_ages_13":"13","05":"No"},"rt":52194.300000071526,"item_order":[0,1,2,3,4],"radio_events":[11889.800000071526,16024.400000095367,35120.200000047684,45320,50433.10000002384],"checkbox_events":[24208.5,25576.100000023842,36560.10000002384,36880.90000009537,37201.200000047684,37768.10000002384,38160.200000047684,46737.40000009537,47056.700000047684,47424.40000009537],"key_events":[],"mouse_events":[11889.800000071526,16024.400000095367,24208.5,25152.5,25576.100000023842,35120.200000047684,36560.10000002384,36880.90000009537,37201.200000047684,37506.700000047684,37768.10000002384,38160.200000047684,45320,46737.40000009537,47056.700000047684,47424.40000009537,50433.10000002384,52184.800000071526],"honeypot":0,"survey":"mace","page":6,"trial_type":"survey-mace","trial_index":14,"time_elapsed":580774,"internal_node_id":"0.0-14.0","task_version":"prescreen-v0.3","browser_interactions":0},{"responses":{"01":"Yes","01_ages_10":"10","01_ages_11":"11","01_ages_12":"12","02":"No","03":"Yes","03_ages_13":"13","03_ages_14":"14","03_ages_15":"15","04":"No","05":"No","06":"No","07":"No"},"rt":33950.5,"item_order":[0,1,2,3,4,5,6],"radio_events":[6632.700000047684,14680.200000047684,19216.100000023842,25520.200000047684,30055.899999976158,32359.700000047684,32952.10000002384],"checkbox_events":[9072.200000047684,9535.600000023842,9944.5,20144.700000047684,20584,21168.100000023842],"key_events":[],"mouse_events":[6632.700000047684,9072.200000047684,9535.600000023842,9944.5,14680.200000047684,18159.799999952316,19216.100000023842,20144.700000047684,20584,21168.100000023842,24888.299999952316,25520.200000047684,30055.899999976158,32359.700000047684,32952.10000002384,33928.39999997616],"honeypot":0,"survey":"mace","page":7,"trial_type":"survey-mace","trial_index":15,"time_elapsed":614743,"internal_node_id":"0.0-15.0","task_version":"prescreen-v0.3","browser_interactions":0},{"responses":{"01":"No","02":"No","03":"Yes","03_ages_11":"11","03_ages_12":"12","03_ages_14":"14","04":"No"},"rt":31246.899999976158,"item_order":[0,1,2,3],"radio_events":[9199.799999952316,13454.899999976158,21582.600000023842,30702.600000023842],"checkbox_events":[23111.200000047684,24838.899999976158,25246.700000047684],"key_events":[],"mouse_events":[9199.799999952316,13454.899999976158,20910.700000047684,21582.600000023842,23111.200000047684,24838.899999976158,25246.700000047684,30702.600000023842,31239.5],"honeypot":0,"survey":"mace","page":8,"trial_type":"survey-mace","trial_index":16,"time_elapsed":646004,"internal_node_id":"0.0-16.0","task_version":"prescreen-v0.3","browser_interactions":0},{"responses":{"01":"Yes","01_ages_7":"7","01_ages_8":"8","01_ages_9":"9","01_ages_10":"10","01_ages_11":"11","02":"Yes","02_ages_9":"9","02_ages_10":"10","02_ages_11":"11","02_ages_12":"12","02_ages_13":"13","02_ages_14":"14","02_ages_15":"15","03":"Yes","03_ages_9":"9","03_ages_10":"10","03_ages_11":"11","03_ages_12":"12","03_ages_13":"13","03_ages_14":"14","03_ages_15":"15","04":"Yes","04_ages_8":"8","04_ages_9":"9","04_ages_10":"10","04_ages_11":"11","04_ages_12":"12","04_ages_13":"13","04_ages_14":"14","04_ages_15":"15"},"rt":44836.700000047684,"item_order":[0,1,2,3],"radio_events":[5885.200000047684,16149.700000047684,26284.800000071526,38581.10000002384],"checkbox_events":[8742.300000071526,10309.800000071526,10661.300000071526,11917.600000023842,12406.600000023842,17077.100000023842,18973.200000047684,19333.399999976158,19789.600000023842,21141.800000071526,21470.100000023842,21988.5,27341.899999976158,27909.800000071526,28309.600000023842,29437.399999976158,29756.800000071526,30046.700000047684,30364.899999976158,39789.200000047684,40117.300000071526,40846.5,41189.700000047684,41628.60000002384,42933.300000071526,43254.10000002384,43668.800000071526],"key_events":[],"mouse_events":[5885.200000047684,8742.300000071526,10309.800000071526,10661.300000071526,11197.100000023842,11917.600000023842,12406.600000023842,16149.700000047684,17077.100000023842,17781,18292.899999976158,18550,18973.200000047684,19333.399999976158,19789.600000023842,20231.5,21141.800000071526,21470.100000023842,21988.5,26284.800000071526,27341.899999976158,27629.700000047684,27909.800000071526,28309.600000023842,28622.899999976158,29060.399999976158,29437.399999976158,29756.800000071526,30046.700000047684,30364.899999976158,38581.10000002384,39789.200000047684,40117.300000071526,40501.800000071526,40846.5,41189.700000047684,41628.60000002384,41909.300000071526,42198,42509,42933.300000071526,43254.10000002384,43668.800000071526,44829.60000002384],"honeypot":0,"survey":"mace","page":9,"trial_type":"survey-mace","trial_index":17,"time_elapsed":690851,"internal_node_id":"0.0-17.0","task_version":"prescreen-v0.3","browser_interactions":0},{"responses":{"01":"No","02":"No","03":"No","04":"No","05":"No","06":"Yes","06_ages_17":"17","07":"Yes","07_ages_8":"8","07_ages_9":"9","07_ages_10":"10","07_ages_11":"11","07_ages_12":"12","07_ages_13":"13","07_ages_14":"14","07_ages_15":"15","07_ages_16":"16","07_ages_17":"17","07_ages_18":"18","08":"Yes","08_ages_14":"14","08_ages_15":"15","08_ages_16":"16","08_ages_17":"17","08_ages_18":"18"},"rt":47306.10000002384,"item_order":[0,1,2,3,4,5,6,7],"radio_events":[4866.399999976158,5866.300000071526,9458.100000023842,13074.200000047684,18771.300000071526,23225.800000071526,29001.899999976158,42106.200000047684],"checkbox_events":[24610,32458.800000071526,32833.60000002384,33738.800000071526,34146.60000002384,34554.200000047684,34955.300000071526,35354.800000071526,36633.700000047684,37050.10000002384,37617.200000047684,38098.300000071526,43803.700000047684,44186.10000002384,44633.700000047684,45017.89999997616,46395.200000047684],"key_events":[],"mouse_events":[4866.399999976158,5866.300000071526,9458.100000023842,13074.200000047684,18771.300000071526,23225.800000071526,24610,29001.899999976158,32458.800000071526,32833.60000002384,33206.60000002384,33738.800000071526,34146.60000002384,34554.200000047684,34955.300000071526,35354.800000071526,35891.10000002384,36633.700000047684,37050.10000002384,37617.200000047684,38098.300000071526,42106.200000047684,43803.700000047684,44186.10000002384,44633.700000047684,45017.89999997616,46395.200000047684,47290.300000071526],"honeypot":0,"survey":"mace","page":10,"trial_type":"survey-mace","trial_index":18,"time_elapsed":738174,"internal_node_id":"0.0-18.0","task_version":"prescreen-v0.3","browser_interactions":0,"instructed":0},{"rt":5820.899999976158,"trial_type":"mental-health-alert","trial_index":19,"time_elapsed":744002,"internal_node_id":"0.0-19.0","task_version":"prescreen-v0.3","interactions":"[]"}]