[{"view_history":[{"page_index":0,"viewing_time":3799.9000000059605},{"page_index":1,"viewing_time":2112.5999999940395},{"page_index":2,"viewing_time":3947.300000011921},{"page_index":3,"viewing_time":1412.7999999970198}],"rt":11274.20000000298,"trial_type":"instructions","trial_index":0,"time_elapsed":11283,"internal_node_id":"0.0-0.0","task_version":"prescreen-v0.3"},{"rt":13069.90000000596,"responses":{"age":"22","gender-categorical":"Female","gender-free-response":"","ethnicity":"Not Hispanic or Latino","race":["Black or African American","White"],"education":"Bachelor degree"},"trial_type":"survey-demo","trial_index":1,"time_elapsed":24363,"internal_node_id":"0.0-1.0","task_version":"prescreen-v0.3"},{"responses":{"Q08":"1","Q05":"2","Q16":"2","Q15":"3","Q01":"0","Q18":"2","Q03":"1","Q19":"2","Q02":"1","Q07":"2","Q21":"3","Q14":"2","Q12":"2","Q09":"3","Q10":"2","Q20":"0","Q06":"1","Q04":"3","Q17":"2","Q13":"2","Q11":"3"},"rt":128816.5,"item_order":[7,4,15,14,0,17,2,18,1,6,20,13,11,8,9,19,5,3,16,12,10],"radio_events":[12524.09999999404,23677.19999998808,35172.39999999106,38633.59999999404,40769.5,42905.69999998808,45181.59999999404,48660.19999998808,52713.69999998808,53646.89999999106,54420.59999999404,58912.89999999106,60482.09999999404,82062.59999999404,89356.29999999702,94338.5,99319.59999999404,101832.29999999702,109654.29999999702,111804.89999999106,117218.5,122419.29999999702,124513.69999998808,128074.29999999702],"key_events":[],"mouse_events":[12524.09999999404,23677.19999998808,35172.39999999106,38633.59999999404,40769.5,42905.69999998808,45181.59999999404,48660.19999998808,52226.09999999404,52713.69999998808,53646.89999999106,54420.59999999404,55176.79999999702,55948.29999999702,58912.89999999106,60482.09999999404,82062.59999999404,89356.29999999702,94338.5,99319.59999999404,101832.29999999702,109654.29999999702,111804.89999999106,116561.19999998808,117218.5,121971.79999999702,122419.29999999702,124513.69999998808,127783,128074.29999999702,128807.29999999702],"straightlining":0.47619047619047616,"zigzagging":0.7,"honeypot":0,"survey":"sns","trial_type":"survey-template","trial_index":2,"time_elapsed":153187,"internal_node_id":"0.0-2.0","task_version":"prescreen-v0.3","browser_interactions":2,"infrequency":0},{"responses":{"Q05":"2","Q09":"3","Q07":"3","Q12":"1","Q11":"2","Q08":"2","Q10":"3","Q01":"1","Q04":"3","Q13":"0","Q06":"2","Q02":"2","Q03":"3"},"rt":85305.10000000894,"item_order":[4,8,6,11,10,7,9,0,3,12,5,1,2],"radio_events":[9991.20000000298,14216.29999999702,19247.90000000596,23406.29999999702,25578.70000000298,36853.70000000298,43235.20000000298,45823.10000000894,60053.29999999702,65917,69892.40000000596,76327.40000000596,79659,80917.40000000596,84605],"key_events":[],"mouse_events":[9991.20000000298,14216.29999999702,18109.60000000894,19247.90000000596,23406.29999999702,25578.70000000298,35860.70000000298,36853.70000000298,43235.20000000298,45823.10000000894,60053.29999999702,65917,69892.40000000596,75057.90000000596,75512.60000000894,76327.40000000596,79659,80917.40000000596,84605,85301.10000000894],"straightlining":0.38461538461538464,"zigzagging":0.4166666666666667,"honeypot":0,"survey":"bisbas","trial_type":"survey-template","trial_index":3,"time_elapsed":238496,"internal_node_id":"0.0-3.0","task_version":"prescreen-v0.3","browser_interactions":0,"infrequency":0},{"responses":{"Q01":"1","Q02":"0","Q03":"2"},"rt":16879,"radio_events":[4931.79999999702,6226.100000008941,10638.5,15763.5],"key_events":[],"mouse_events":[4455.100000008941,4931.79999999702,6226.100000008941,10020.10000000894,10638.5,15763.5,16877.20000000298],"survey":"map","page":1,"trial_type":"survey-map","trial_index":4,"time_elapsed":255381,"internal_node_id":"0.0-4.0","task_version":"prescreen-v0.3","browser_interactions":0},{"responses":{"Q04":"2","Q05":"2","Q06":"2"},"rt":22540.20000000298,"radio_events":[4711.20000000298,10211.29999999702,12072.90000000596,14379.90000000596,20262],"key_events":[],"mouse_events":[4711.20000000298,10211.29999999702,12072.90000000596,12737.60000000894,13185.29999999702,13793.29999999702,14379.90000000596,20262,22537.90000000596],"survey":"map","page":2,"trial_type":"survey-map","trial_index":5,"time_elapsed":277926,"internal_node_id":"0.0-5.0","task_version":"prescreen-v0.3","browser_interactions":0},{"responses":{"Q07":"1","Q08":"4","Q09":"3"},"rt":69319.89999999106,"radio_events":[63390.19999998808,64471.19999998808,65763.69999998808,66834.09999999404],"key_events":[],"mouse_events":[63390.19999998808,64471.19999998808,65763.69999998808,66834.09999999404,69318.79999999702],"survey":"map","page":3,"trial_type":"survey-map","trial_index":6,"time_elapsed":347248,"internal_node_id":"0.0-6.0","task_version":"prescreen-v0.3","browser_interactions":0},{"responses":{"Q10":"0","Q11":"2","Q12":"3","Q13":"3","Q16":"0","Q14":"0","Q15":"1"},"rt":47660.10000000894,"radio_events":[6890.70000000298,9495.60000000894,13543.10000000894,16761.5,19500.40000000596,23195.40000000596,29125.10000000894,38148.70000000298,40045.20000000298,42651.29999999702],"key_events":[],"mouse_events":[6890.70000000298,8838.20000000298,9495.60000000894,13543.10000000894,16761.5,18460.40000000596,19500.40000000596,22462.79999999702,23195.40000000596,29125.10000000894,38148.70000000298,40045.20000000298,42651.29999999702,47658],"survey":"map","page":4,"trial_type":"survey-map","trial_index":7,"time_elapsed":394911,"internal_node_id":"0.0-7.0","task_version":"prescreen-v0.3","browser_interactions":0,"infrequency":0},{"view_history":[{"page_index":0,"viewing_time":2962.5},{"page_index":1,"viewing_time":4747.5}],"rt":7711.5,"trial_type":"instructions","trial_index":8,"time_elapsed":402627,"internal_node_id":"0.0-8.0","task_version":"prescreen-v0.3"},{"responses":{"01":"Yes","01_ages_11":"11","01_ages_13":"13","01_ages_14":"14","01_ages_16":"16","02":"Yes","02_ages_11":"11","02_ages_12":"12","02_ages_13":"13","03":"No","04":"No","05":"No","06":"No"},"rt":42996.5,"item_order":[0,1,2,3,4,5],"radio_events":[7425.79999999702,27708.89999999106,36126.79999999702,38512.79999999702,39944.70000000298,41740.70000000298],"checkbox_events":[15026.09999999404,15855,16376,19023.89999999106,30056.39999999106,30568.5,31292.20000000298],"key_events":[],"mouse_events":[0.29999999701976776,7425.79999999702,14655.89999999106,15026.09999999404,15855,16376,18600,19023.89999999106,27708.89999999106,30056.39999999106,30568.5,31292.20000000298,36126.79999999702,38512.79999999702,39944.70000000298,41740.70000000298,42983.09999999404],"honeypot":0,"survey":"mace","page":1,"trial_type":"survey-mace","trial_index":9,"time_elapsed":445636,"internal_node_id":"0.0-9.0","task_version":"prescreen-v0.3","browser_interactions":0},{"responses":{"01":"No","02":"No","03":"Yes","03_ages_6":"6","03_ages_7":"7","03_ages_8":"8","04":"No","05":"No","06":"No","07":"No","08":"No"},"rt":24583.60000000894,"item_order":[0,1,2,3,4,5,6,7],"radio_events":[2655.5,4235.20000000298,7204.300000011921,13323.5,18385.30000001192,20903.80000001192,22366.30000001192,23762.30000001192],"checkbox_events":[8643.10000000894,9151.10000000894,9743],"key_events":[],"mouse_events":[2655.5,4235.20000000298,5808.600000008941,7204.300000011921,8203.90000000596,8643.10000000894,9151.10000000894,9743,13323.5,18385.30000001192,20334.5,20903.80000001192,22366.30000001192,23762.30000001192,24567.90000000596],"honeypot":0,"survey":"mace","page":2,"trial_type":"survey-mace","trial_index":10,"time_elapsed":470229,"internal_node_id":"0.0-10.0","task_version":"prescreen-v0.3","browser_interactions":0},{"responses":{"01":"No","02":"No","03":"No","04":"No"},"rt":10913.40000000596,"item_order":[0,1,2,3],"radio_events":[5518.20000000298,6941.4000000059605,8664.09999999404,10020.40000000596],"checkbox_events":[],"key_events":[],"mouse_events":[5518.20000000298,6941.4000000059605,8664.09999999404,10020.40000000596,10905.70000000298],"honeypot":0,"survey":"mace","page":3,"trial_type":"survey-mace","trial_index":11,"time_elapsed":481149,"internal_node_id":"0.0-11.0","task_version":"prescreen-v0.3","browser_interactions":0},{"responses":{"01":"No","02":"No"},"rt":10131.5,"item_order":[0,1],"radio_events":[8547,9392.20000000298],"checkbox_events":[],"key_events":[],"mouse_events":[8547,9392.20000000298,10128.59999999404],"honeypot":0,"survey":"mace","page":4,"trial_type":"survey-mace","trial_index":12,"time_elapsed":491288,"internal_node_id":"0.0-12.0","task_version":"prescreen-v0.3","browser_interactions":0},{"responses":{"01":"No","02":"No","03":"No","04":"No","05":"No"},"rt":9514.20000000298,"item_order":[0,1,2,3,4],"radio_events":[4051.5,5295.5,6290.9000000059605,7221.4000000059605,7951.29999999702],"checkbox_events":[],"key_events":[],"mouse_events":[2996.6000000089407,4051.5,5295.5,6290.9000000059605,7221.4000000059605,7951.29999999702,9123,9505.29999999702],"honeypot":0,"survey":"mace","page":5,"trial_type":"survey-mace","trial_index":13,"time_elapsed":500809,"internal_node_id":"0.0-13.0","task_version":"prescreen-v0.3","browser_interactions":0},{"responses":{"01":"No","02":"No","03":"No","04":"No","05":"No"},"rt":7393.600000008941,"item_order":[0,1,2,3,4],"radio_events":[1492.2999999970198,3669.7000000029802,4728.100000008941,5611.9000000059605,6302.5],"checkbox_events":[],"key_events":[],"mouse_events":[1492.2999999970198,3669.7000000029802,4728.100000008941,5611.9000000059605,6302.5,7384.5],"honeypot":0,"survey":"mace","page":6,"trial_type":"survey-mace","trial_index":14,"time_elapsed":508209,"internal_node_id":"0.0-14.0","task_version":"prescreen-v0.3","browser_interactions":0},{"responses":{"01":"Yes","01_ages_6":"6","01_ages_7":"7","01_ages_8":"8","01_ages_9":"9","01_ages_10":"10","01_ages_11":"11","01_ages_12":"12","01_ages_13":"13","01_ages_14":"14","01_ages_15":"15","01_ages_16":"16","02":"No","03":"No","04":"No","05":"No","06":"No","07":"No"},"rt":23026,"item_order":[0,1,2,3,4,5,6],"radio_events":[3434.2999999970198,14338.199999988079,15850.09999999404,17677.79999999702,19905.59999999404,20756.69999998808,21798.19999998808],"checkbox_events":[5839.899999991059,6368.79999999702,6871.899999991059,7375.79999999702,8139.29999999702,8643.29999999702,9172,9693.5,10212.39999999106,10723.39999999106,11325.09999999404],"key_events":[],"mouse_events":[3434.2999999970198,5839.899999991059,6368.79999999702,6871.899999991059,7375.79999999702,8139.29999999702,8643.29999999702,9172,9693.5,10212.39999999106,10723.39999999106,11325.09999999404,14338.199999988079,15850.09999999404,17040.39999999106,17677.79999999702,19905.59999999404,20756.69999998808,21798.19999998808,23015.79999999702],"honeypot":0,"survey":"mace","page":7,"trial_type":"survey-mace","trial_index":15,"time_elapsed":531242,"internal_node_id":"0.0-15.0","task_version":"prescreen-v0.3","browser_interactions":0},{"responses":{"01":"Yes","01_ages_1":"1","01_ages_2":"2","01_ages_3":"3","01_ages_4":"4","01_ages_5":"5","01_ages_6":"6","01_ages_7":"7","01_ages_8":"8","01_ages_9":"9","01_ages_10":"10","01_ages_11":"11","02":"No","03":"No","04":"No"},"rt":56761.89999999106,"item_order":[0,1,2,3],"radio_events":[7484.29999999702,53126,53827.20000000298,55089.39999999106],"checkbox_events":[9094.20000000298,9604.70000000298,10122.39999999106,10682,11284.70000000298,12032.29999999702,12714.79999999702,13332.70000000298,13929.09999999404,14534.29999999702,15113.5],"key_events":[],"mouse_events":[6711.29999999702,7029,7484.29999999702,9094.20000000298,9604.70000000298,10122.39999999106,10682,11284.70000000298,12032.29999999702,12714.79999999702,13332.70000000298,13929.09999999404,14534.29999999702,15113.5,49969,53126,53827.20000000298,55089.39999999106,56757.29999999702],"honeypot":0,"survey":"mace","page":8,"trial_type":"survey-mace","trial_index":16,"time_elapsed":588010,"internal_node_id":"0.0-16.0","task_version":"prescreen-v0.3","browser_interactions":2},{"responses":{"01":"Yes","01_ages_1":"1","01_ages_2":"2","01_ages_3":"3","01_ages_4":"4","01_ages_5":"5","01_ages_6":"6","01_ages_7":"7","01_ages_8":"8","01_ages_9":"9","01_ages_10":"10","01_ages_11":"11","01_ages_12":"12","01_ages_13":"13","01_ages_14":"14","01_ages_15":"15","01_ages_16":"16","01_ages_17":"17","01_ages_18":"18","02":"No","03":"Yes","03_ages_1":"1","03_ages_2":"2","03_ages_3":"3","03_ages_4":"4","03_ages_5":"5","03_ages_6":"6","03_ages_7":"7","03_ages_8":"8","03_ages_9":"9","03_ages_10":"10","03_ages_11":"11","03_ages_12":"12","03_ages_13":"13","03_ages_14":"14","03_ages_15":"15","03_ages_16":"16","03_ages_17":"17","03_ages_18":"18","04":"Yes","04_ages_1":"1","04_ages_2":"2","04_ages_3":"3","04_ages_4":"4","04_ages_5":"5","04_ages_6":"6","04_ages_7":"7","04_ages_8":"8","04_ages_9":"9","04_ages_10":"10","04_ages_11":"11","04_ages_12":"12","04_ages_13":"13","04_ages_14":"14","04_ages_15":"15","04_ages_16":"16","04_ages_17":"17","04_ages_18":"18"},"rt":69018.5,"item_order":[0,1,2,3],"radio_events":[3338.3999999910593,26460.09999999404,30854,53509.69999998808],"checkbox_events":[11730.39999999106,12727.699999988079,14215.699999988079,14922.39999999106,15514.699999988079,16379.5,16985.69999998808,17782.29999999702,18359.39999999106,19018.5,19935.09999999404,20601.19999998808,21228.79999999702,21762.29999999702,22265.5,22802.09999999404,23412.59999999404,23997.29999999702,32268.59999999404,32944.5,33463.09999999404,34025.59999999404,35195,35759.69999998808,36362.59999999404,37445.79999999702,38151.19999998808,39031,39719,40490.89999999106,41148.19999998808,41806,42691.79999999702,43545.79999999702,44382.59999999404,45055.19999998808,54802.59999999404,55426.59999999404,56347.69999998808,57540,58343.39999999106,58889.29999999702,59578,60733.59999999404,61506,62113.89999999106,62918.09999999404,63780.5,64365.79999999702,64852.09999999404,65444.89999999106,66088.09999999404,67111.59999999404,67715.89999999106],"key_events":[],"mouse_events":[3338.3999999910593,8202.29999999702,11730.39999999106,12200.29999999702,12727.699999988079,14215.699999988079,14922.39999999106,15514.699999988079,16379.5,16985.69999998808,17782.29999999702,18359.39999999106,19018.5,19935.09999999404,20601.19999998808,21228.79999999702,21762.29999999702,22265.5,22802.09999999404,23412.59999999404,23997.29999999702,26460.09999999404,30854,32268.59999999404,32944.5,33463.09999999404,34025.59999999404,34623.79999999702,35195,35759.69999998808,36362.59999999404,37013,37445.79999999702,38151.19999998808,39031,39719,40490.89999999106,41148.19999998808,41806,42691.79999999702,43545.79999999702,44382.59999999404,45055.19999998808,53509.69999998808,54802.59999999404,55426.59999999404,56347.69999998808,56848.39999999106,57540,58343.39999999106,58889.29999999702,59578,60318.29999999702,60733.59999999404,61506,62113.89999999106,62918.09999999404,63780.5,64365.79999999702,64852.09999999404,65444.89999999106,66088.09999999404,66713.69999998808,67111.59999999404,67715.89999999106,68693.89999999106,69011.69999998808],"honeypot":0,"survey":"mace","page":9,"trial_type":"survey-mace","trial_index":17,"time_elapsed":657032,"internal_node_id":"0.0-17.0","task_version":"prescreen-v0.3","browser_interactions":0},{"responses":{"01":"No","02":"No","03":"Yes","03_ages_9":"9","03_ages_10":"10","03_ages_11":"11","03_ages_12":"12","03_ages_13":"13","03_ages_14":"14","03_ages_15":"15","03_ages_16":"16","03_ages_17":"17","03_ages_18":"18","04":"No","05":"No","06":"Yes","06_ages_17":"17","07":"Yes","07_ages_1":"1","07_ages_2":"2","07_ages_3":"3","07_ages_4":"4","07_ages_5":"5","07_ages_6":"6","07_ages_7":"7","07_ages_8":"8","07_ages_9":"9","07_ages_10":"10","07_ages_11":"11","07_ages_12":"12","07_ages_13":"13","07_ages_14":"14","07_ages_15":"15","07_ages_16":"16","07_ages_17":"17","07_ages_18":"18","08":"No","08_ages_16":"16","08_ages_17":"17","08_ages_18":"18"},"rt":60517,"item_order":[0,1,2,3,4,5,6,7],"radio_events":[3683.0999999940395,5600.0999999940395,6836.9000000059605,9931.29999999702,20286.40000000596,21410.5,22646,25864.29999999702,36271.5,55695.79999999702,59571.29999999702],"checkbox_events":[12091.40000000596,12662.29999999702,13514.29999999702,14115.90000000596,14603.29999999702,15206.59999999404,15804.29999999702,16390.90000000596,16910.79999999702,17430.79999999702,27234.5,37927.40000000596,38569.40000000596,39308.70000000298,39909.5,40835.40000000596,41777.70000000298,42534.70000000298,43272.29999999702,44605.70000000298,45172.29999999702,46302.79999999702,47034.5,48373.90000000596,48918.40000000596,49393.29999999702,49891.79999999702,50454.70000000298,50992.70000000298,57264.40000000596,58369.59999999404,58856.20000000298],"key_events":[],"mouse_events":[3683.0999999940395,5600.0999999940395,6836.9000000059605,9549,9931.29999999702,12091.40000000596,12662.29999999702,13108.20000000298,13514.29999999702,14115.90000000596,14603.29999999702,15206.59999999404,15804.29999999702,16390.90000000596,16910.79999999702,17430.79999999702,20286.40000000596,21410.5,22646,25864.29999999702,27234.5,35774.79999999702,36271.5,37927.40000000596,38569.40000000596,39308.70000000298,39909.5,40471.09999999404,40835.40000000596,41777.70000000298,42534.70000000298,43272.29999999702,44605.70000000298,45172.29999999702,45694.29999999702,46302.79999999702,47034.5,48001.70000000298,48373.90000000596,48918.40000000596,49393.29999999702,49891.79999999702,50454.70000000298,50992.70000000298,55695.79999999702,57264.40000000596,57843.29999999702,58369.59999999404,58856.20000000298,59571.29999999702,60499.79999999702],"honeypot":0,"survey":"mace","page":10,"trial_type":"survey-mace","trial_index":18,"time_elapsed":717554,"internal_node_id":"0.0-18.0","task_version":"prescreen-v0.3","browser_interactions":0,"instructed":0},{"rt":1665.0999999940395,"trial_type":"mental-health-alert","trial_index":19,"time_elapsed":719223,"internal_node_id":"0.0-19.0","task_version":"prescreen-v0.3","interactions":"[{\"event\":\"blur\",\"trial\":2,\"time\":51056},{\"event\":\"focus\",\"trial\":2,\"time\":58705},{\"event\":\"blur\",\"trial\":16,\"time\":546964},{\"event\":\"focus\",\"trial\":16,\"time\":579564}]"}]