[{"view_history":[{"page_index":0,"viewing_time":3126},{"page_index":1,"viewing_time":3943},{"page_index":2,"viewing_time":3024},{"page_index":3,"viewing_time":1385}],"rt":11478,"trial_type":"instructions","trial_index":0,"time_elapsed":11486,"internal_node_id":"0.0-0.0","task_version":"prescreen-v0.3"},{"rt":13710,"responses":{"age":"64","gender-categorical":"Female","gender-free-response":"","ethnicity":"Not Hispanic or Latino","race":["White"],"education":"Some college"},"trial_type":"survey-demo","trial_index":1,"time_elapsed":25208,"internal_node_id":"0.0-1.0","task_version":"prescreen-v0.3"},{"responses":{"Q07":"1","Q03":"2","Q09":"1","Q20":"3","Q19":"0","Q05":"0","Q12":"0","Q01":"0","Q10":"0","Q15":"0","Q06":"2","Q17":"0","Q21":"3","Q18":"0","Q08":"0","Q13":"2","Q04":"0","Q14":"0","Q02":"0","Q11":"0","Q16":"0"},"rt":66153,"item_order":[6,2,8,19,18,4,11,0,9,14,5,16,20,17,7,12,3,13,1,10,15],"radio_events":[6583,12119,16543,18088,21495,27831,30311,32423,33630,37063,41455,43911,46111,48071,50663,53279,55999,58223,61855,62622,64774],"key_events":[],"mouse_events":[6583,12119,15375,16543,18088,21495,27831,30311,32423,33630,37063,41455,43911,46111,48071,50663,53279,55999,58223,60807,61855,62622,64774,66153],"straightlining":0.6666666666666666,"zigzagging":0.25,"honeypot":0,"survey":"sns","trial_type":"survey-template","trial_index":2,"time_elapsed":91369,"internal_node_id":"0.0-2.0","task_version":"prescreen-v0.3","browser_interactions":0,"infrequency":0},{"responses":{"Q10":"2","Q08":"2","Q13":"0","Q12":"0","Q01":"2","Q02":"2","Q03":"2","Q09":"1","Q05":"2","Q07":"3","Q11":"2","Q04":"3","Q06":"3"},"rt":30151,"item_order":[9,7,12,11,0,1,2,8,4,6,10,3,5],"radio_events":[2982,4550,6733,8029,9517,11654,13830,18486,21357,22742,25278,28165,29574],"key_events":[],"mouse_events":[2982,4550,6733,8029,9517,11654,13830,18486,21357,22742,25278,28165,29574,30151],"straightlining":0.5384615384615384,"zigzagging":0.4166666666666667,"honeypot":0,"survey":"bisbas","trial_type":"survey-template","trial_index":3,"time_elapsed":121528,"internal_node_id":"0.0-3.0","task_version":"prescreen-v0.3","browser_interactions":0,"infrequency":0},{"responses":{"Q01":"2","Q02":"2","Q03":"2"},"rt":12593,"radio_events":[6456,8767,11607],"key_events":[],"mouse_events":[6456,8767,11607,12593],"survey":"map","page":1,"trial_type":"survey-map","trial_index":4,"time_elapsed":134126,"internal_node_id":"0.0-4.0","task_version":"prescreen-v0.3","browser_interactions":0},{"responses":{"Q04":"3","Q05":"3","Q06":"3"},"rt":13765,"radio_events":[5923,9211,12884],"key_events":[],"mouse_events":[5923,9211,11884,12884,13764],"survey":"map","page":2,"trial_type":"survey-map","trial_index":5,"time_elapsed":147894,"internal_node_id":"0.0-5.0","task_version":"prescreen-v0.3","browser_interactions":0},{"responses":{"Q07":"0","Q08":"0","Q09":"3"},"rt":14421,"radio_events":[5203,9403,13595],"key_events":[],"mouse_events":[5203,9403,13595,14421],"survey":"map","page":3,"trial_type":"survey-map","trial_index":6,"time_elapsed":162319,"internal_node_id":"0.0-6.0","task_version":"prescreen-v0.3","browser_interactions":0},{"responses":{"Q10":"0","Q11":"0","Q12":"0","Q13":"0","Q16":"0","Q14":"2","Q15":"1"},"rt":28203,"radio_events":[3321,6057,9729,17145,18393,22480,27073],"key_events":[],"mouse_events":[3321,6057,9729,16225,17145,18393,22480,27073,28203],"survey":"map","page":4,"trial_type":"survey-map","trial_index":7,"time_elapsed":190526,"internal_node_id":"0.0-7.0","task_version":"prescreen-v0.3","browser_interactions":0,"infrequency":0},{"view_history":[{"page_index":0,"viewing_time":2620},{"page_index":1,"viewing_time":3041}],"rt":5661,"trial_type":"instructions","trial_index":8,"time_elapsed":196189,"internal_node_id":"0.0-8.0","task_version":"prescreen-v0.3"},{"responses":{"01":"Yes","01_ages_2":"2","01_ages_3":"3","01_ages_4":"4","01_ages_5":"5","01_ages_6":"6","01_ages_7":"7","01_ages_8":"8","01_ages_9":"9","01_ages_10":"10","01_ages_11":"11","01_ages_12":"12","01_ages_13":"13","01_ages_14":"14","01_ages_15":"15","01_ages_16":"16","01_ages_17":"17","01_ages_18":"18","02":"Yes","02_ages_2":"2","02_ages_3":"3","02_ages_4":"4","02_ages_5":"5","02_ages_6":"6","02_ages_7":"7","02_ages_8":"8","02_ages_9":"9","02_ages_10":"10","02_ages_11":"11","02_ages_12":"12","02_ages_13":"13","02_ages_14":"14","02_ages_15":"15","02_ages_16":"16","02_ages_17":"17","02_ages_18":"18","03":"Yes","03_ages_3":"3","03_ages_4":"4","03_ages_5":"5","03_ages_6":"6","03_ages_7":"7","03_ages_8":"8","03_ages_9":"9","03_ages_10":"10","03_ages_11":"11","03_ages_12":"12","03_ages_13":"13","03_ages_14":"14","03_ages_15":"15","03_ages_16":"16","03_ages_17":"17","03_ages_18":"18","04":"No","05":"No","06":"No"},"rt":68383,"item_order":[0,1,2,3,4,5],"radio_events":[4420,25307,47395,62044,63987,67427],"checkbox_events":[10108,10548,10988,11973,12491,13668,14332,15180,15756,16276,16796,17372,17996,18972,19483,20020,28037,29003,31876,32660,33955,34628,36196,36764,37380,37893,38563,39283,41092,41732,42580,43051,43587,44131,49124,50027,50547,51028,51588,52059,52612,53124,53644,54148,55332,56492,56995,57723,58460,59092],"key_events":[],"mouse_events":[0,4420,10108,10548,10988,11388,11973,12491,12963,13668,14332,15180,15756,16276,16796,17372,17996,18485,18972,19483,20020,25307,28037,29003,31876,32660,33099,33955,34628,35419,36196,36764,37380,37893,38563,39283,41092,41732,42580,43051,43587,44131,47395,49124,50027,50547,51028,51588,52059,52612,53124,53644,54148,54635,55332,55804,56492,56995,57723,58460,59092,62044,63987,67427,68382],"honeypot":0,"survey":"mace","page":1,"trial_type":"survey-mace","trial_index":9,"time_elapsed":264589,"internal_node_id":"0.0-9.0","task_version":"prescreen-v0.3","browser_interactions":0},{"responses":{"01":"No","02":"No","03":"No","04":"No","05":"No","06":"No","07":"Yes","07_ages_1":"1","07_ages_2":"2","07_ages_3":"3","07_ages_4":"4","07_ages_5":"5","07_ages_6":"6","07_ages_7":"7","07_ages_8":"8","07_ages_9":"9","08":"No"},"rt":34287,"item_order":[0,1,2,3,4,5,6,7],"radio_events":[3821,5388,6677,8388,9709,13324,15524,33517],"checkbox_events":[20237,22988,23908,24509,26597,27765,28228,28653,30124],"key_events":[],"mouse_events":[3821,5388,6677,8388,9709,13324,15524,20237,22988,23908,24509,25092,26597,27028,27765,28228,28653,29132,30124,33517,34287],"honeypot":0,"survey":"mace","page":2,"trial_type":"survey-mace","trial_index":10,"time_elapsed":298889,"internal_node_id":"0.0-10.0","task_version":"prescreen-v0.3","browser_interactions":0},{"responses":{"01":"No","02":"No","03":"No","04":"No"},"rt":10269,"item_order":[0,1,2,3],"radio_events":[2756,4892,6812,8668],"checkbox_events":[],"key_events":[],"mouse_events":[2756,4892,6812,8668,10269],"honeypot":0,"survey":"mace","page":3,"trial_type":"survey-mace","trial_index":11,"time_elapsed":309165,"internal_node_id":"0.0-11.0","task_version":"prescreen-v0.3","browser_interactions":0},{"responses":{"01":"No","02":"No"},"rt":11828,"item_order":[0,1],"radio_events":[4915,6347],"checkbox_events":[],"key_events":[],"mouse_events":[4915,6347,11828],"honeypot":0,"survey":"mace","page":4,"trial_type":"survey-mace","trial_index":12,"time_elapsed":320997,"internal_node_id":"0.0-12.0","task_version":"prescreen-v0.3","browser_interactions":0},{"responses":{"01":"No","02":"No","03":"No","04":"No","05":"No"},"rt":12681,"item_order":[0,1,2,3,4],"radio_events":[3887,5407,8511,9583,11655],"checkbox_events":[],"key_events":[],"mouse_events":[3887,5407,8511,9583,11655,12681],"honeypot":0,"survey":"mace","page":5,"trial_type":"survey-mace","trial_index":13,"time_elapsed":333685,"internal_node_id":"0.0-13.0","task_version":"prescreen-v0.3","browser_interactions":0},{"responses":{"01":"Yes","01_ages_15":"15","01_ages_16":"16","01_ages_17":"17","01_ages_18":"18","02":"Yes","02_ages_15":"15","02_ages_16":"16","02_ages_17":"17","02_ages_18":"18","03":"No","04":"No","05":"No"},"rt":30922,"item_order":[0,1,2,3,4],"radio_events":[9144,18535,25616,27855,29880],"checkbox_events":[13336,13760,14168,15456,19856,20936,21592,22487],"key_events":[],"mouse_events":[9144,13336,13760,14168,14568,15456,18535,19856,20287,20936,21592,22487,25616,27855,29880,30922],"honeypot":0,"survey":"mace","page":6,"trial_type":"survey-mace","trial_index":14,"time_elapsed":364617,"internal_node_id":"0.0-14.0","task_version":"prescreen-v0.3","browser_interactions":0},{"responses":{"01":"No","02":"No","03":"No","04":"No","05":"No","06":"No","07":"No"},"rt":13630,"item_order":[0,1,2,3,4,5,6],"radio_events":[3731,5747,7314,8659,10403,11756,12955],"checkbox_events":[],"key_events":[],"mouse_events":[3731,5747,7314,8171,8659,10403,11756,12955,13629],"honeypot":0,"survey":"mace","page":7,"trial_type":"survey-mace","trial_index":15,"time_elapsed":378255,"internal_node_id":"0.0-15.0","task_version":"prescreen-v0.3","browser_interactions":0},{"responses":{"01":"Yes","01_ages_1":"1","01_ages_2":"2","01_ages_3":"3","01_ages_4":"4","01_ages_5":"5","01_ages_6":"6","01_ages_7":"7","01_ages_8":"8","01_ages_9":"9","01_ages_10":"10","01_ages_11":"11","01_ages_12":"12","01_ages_13":"13","01_ages_14":"14","01_ages_15":"15","01_ages_16":"16","01_ages_17":"17","01_ages_18":"18","02":"Yes","02_ages_1":"1","02_ages_2":"2","02_ages_3":"3","02_ages_4":"4","02_ages_5":"5","02_ages_6":"6","02_ages_7":"7","02_ages_8":"8","02_ages_9":"9","02_ages_10":"10","02_ages_11":"11","02_ages_12":"12","02_ages_13":"13","02_ages_14":"14","02_ages_15":"15","02_ages_16":"16","02_ages_17":"17","02_ages_18":"18","03":"Yes","03_ages_1":"1","03_ages_2":"2","03_ages_3":"3","03_ages_4":"4","03_ages_5":"5","03_ages_6":"6","03_ages_7":"7","03_ages_8":"8","03_ages_9":"9","03_ages_10":"10","03_ages_11":"11","03_ages_12":"12","03_ages_13":"13","03_ages_14":"14","03_ages_15":"15","03_ages_16":"16","03_ages_17":"17","03_ages_18":"18","04":"Yes","04_ages_1":"1","04_ages_2":"2","04_ages_3":"3","04_ages_4":"4","04_ages_5":"5","04_ages_6":"6","04_ages_7":"7","04_ages_8":"8","04_ages_9":"9","04_ages_10":"10","04_ages_11":"11","04_ages_12":"12","04_ages_13":"13","04_ages_14":"14","04_ages_15":"15","04_ages_16":"16","04_ages_17":"17","04_ages_18":"18"},"rt":74016,"item_order":[0,1,2,3],"radio_events":[4574,23949,41190,58757],"checkbox_events":[8462,9133,9614,11246,12022,12701,13557,14390,14878,15398,16085,16797,17477,18310,18998,19614,21165,21878,25238,25709,26157,26983,27405,27869,28438,28950,29501,30557,31053,31542,32053,34166,34941,35877,36453,38117,44093,45013,45509,46654,47381,47838,48349,48869,49405,49934,50637,51101,51590,52381,53229,53845,55445,56469,60221,60669,61101,61549,61973,62461,62941,63413,63877,64469,65013,66429,66926,67421,68620,69069,69862,71165],"key_events":[],"mouse_events":[4574,8462,9133,9614,10021,10693,11246,12022,12701,13557,14390,14878,15398,16085,16797,17477,18310,18998,19614,20133,21165,21878,23949,25238,25709,26157,26983,27405,27869,28438,28950,29501,30557,31053,31542,32053,34166,34941,35405,35877,36453,36965,38117,41190,44093,44543,45013,45509,45965,46654,47381,47838,48349,48869,49405,49934,50637,51101,51590,52381,53229,53845,55445,55981,56469,58757,60221,60669,61101,61549,61973,62461,62941,63413,63877,64469,65013,66429,66926,67421,68620,69069,69862,71165,74016],"honeypot":0,"survey":"mace","page":8,"trial_type":"survey-mace","trial_index":16,"time_elapsed":452284,"internal_node_id":"0.0-16.0","task_version":"prescreen-v0.3","browser_interactions":0},{"responses":{"01":"No","02":"No","03":"No","04":"Yes","04_ages_5":"5","04_ages_10":"10","04_ages_13":"13","04_ages_15":"15","04_ages_16":"16","04_ages_17":"17"},"rt":30583,"item_order":[0,1,2,3],"radio_events":[5181,8653,11077,16780],"checkbox_events":[23252,25045,26149,26980,28005,28813],"key_events":[],"mouse_events":[5181,8653,11077,16780,23252,25045,26149,26980,27381,28005,28813,30583],"honeypot":0,"survey":"mace","page":9,"trial_type":"survey-mace","trial_index":17,"time_elapsed":482876,"internal_node_id":"0.0-17.0","task_version":"prescreen-v0.3","browser_interactions":0},{"responses":{"01":"No","02":"No","03":"No","04":"No","05":"Yes","05_ages_1":"1","05_ages_2":"2","05_ages_3":"3","05_ages_4":"4","05_ages_5":"5","05_ages_6":"6","05_ages_7":"7","05_ages_8":"8","05_ages_9":"9","05_ages_10":"10","05_ages_11":"11","05_ages_12":"12","05_ages_13":"13","05_ages_14":"14","05_ages_15":"15","05_ages_16":"16","05_ages_17":"17","05_ages_18":"18","06":"Yes","06_ages_17":"17","07":"No","08":"No"},"rt":32344,"item_order":[0,1,2,3,4,5,6,7],"radio_events":[2999,3807,6287,7486,9662,24359,29910,31222],"checkbox_events":[11359,12479,12886,13310,13735,14168,15871,16518,17199,17703,18262,18719,19279,19767,20263,20718,21358,21855,26534],"key_events":[],"mouse_events":[2999,3807,6287,7486,9662,11359,12479,12886,13310,13735,14168,15016,15871,16518,17199,17703,18262,18719,19279,19767,20263,20718,21358,21855,24359,26534,29910,31222,32344],"honeypot":0,"survey":"mace","page":10,"trial_type":"survey-mace","trial_index":18,"time_elapsed":515234,"internal_node_id":"0.0-18.0","task_version":"prescreen-v0.3","browser_interactions":0,"instructed":0},{"rt":5229,"trial_type":"mental-health-alert","trial_index":19,"time_elapsed":520466,"internal_node_id":"0.0-19.0","task_version":"prescreen-v0.3","interactions":"[{\"event\":\"focus\",\"trial\":0,\"time\":5}]"}]