[{"view_history":[{"page_index":0,"viewing_time":3252.8000000715256},{"page_index":1,"viewing_time":20138.399999976158},{"page_index":2,"viewing_time":4980.100000023842},{"page_index":3,"viewing_time":965.7999999523163}],"rt":29339,"trial_type":"instructions","trial_index":0,"time_elapsed":29353,"internal_node_id":"0.0-0.0","task_version":"prescreen-v0.3"},{"rt":12968,"responses":{"age":"22","gender-categorical":"Female","gender-free-response":"","ethnicity":"Not Hispanic or Latino","race":["White"],"education":"Bachelor degree"},"trial_type":"survey-demo","trial_index":1,"time_elapsed":42331,"internal_node_id":"0.0-1.0","task_version":"prescreen-v0.3"},{"responses":{"Q17":"1","Q05":"0","Q19":"0","Q10":"2","Q02":"0","Q07":"0","Q18":"1","Q20":"0","Q13":"0","Q21":"3","Q01":"2","Q09":"2","Q11":"1","Q14":"2","Q16":"0","Q08":"0","Q03":"0","Q06":"0","Q12":"2","Q15":"1","Q04":"1"},"rt":166192.29999995232,"item_order":[16,4,18,9,1,6,17,19,12,20,0,8,10,13,15,7,2,5,11,14,3],"radio_events":[12746.299999952316,20669.600000023842,26362.399999976158,29273,33325.799999952316,40250.89999997616,43942.89999997616,55953.299999952316,82693.39999997616,87487.10000002384,92597.89999997616,95836.5,101594.60000002384,108429.5,110726.5,114959.10000002384,123320.89999997616,137206.69999992847,139472.29999995232,143047.79999995232,147072.60000002384,150516.39999997616,153093.79999995232,165091.29999995232],"key_events":[],"mouse_events":[12746.299999952316,20669.600000023842,26362.399999976158,29273,33325.799999952316,40250.89999997616,43942.89999997616,55953.299999952316,82693.39999997616,87487.10000002384,92597.89999997616,95836.5,101594.60000002384,107419.10000002384,108429.5,110726.5,114959.10000002384,123320.89999997616,134881.89999997616,137206.69999992847,139472.29999995232,143047.79999995232,147072.60000002384,150516.39999997616,153093.79999995232,156068.69999992847,165091.29999995232,166186.5],"straightlining":0.47619047619047616,"zigzagging":0.4,"honeypot":0,"survey":"sns","trial_type":"survey-template","trial_index":2,"time_elapsed":208538,"internal_node_id":"0.0-2.0","task_version":"prescreen-v0.3","browser_interactions":0,"infrequency":0},{"responses":{"Q11":"3","Q08":"3","Q09":"3","Q06":"2","Q12":"1","Q07":"3","Q01":"3","Q02":"3","Q04":"3","Q05":"3","Q10":"2","Q03":"3","Q13":"0"},"rt":42423.799999952316,"item_order":[10,7,8,5,11,6,0,1,3,4,9,2,12],"radio_events":[7649.399999976158,10375.299999952316,13161.600000023842,16449.799999952316,19829,21841.600000023842,22575.200000047684,26296.200000047684,27983.799999952316,29218.600000023842,30196,32822.5,38270.700000047684,40823.39999997616],"key_events":[],"mouse_events":[7649.399999976158,10375.299999952316,13161.600000023842,16449.799999952316,18954.899999976158,19829,21841.600000023842,22575.200000047684,26296.200000047684,27983.799999952316,29218.600000023842,30196,32822.5,38270.700000047684,40823.39999997616,42421],"straightlining":0.6923076923076923,"zigzagging":0.4166666666666667,"honeypot":0,"survey":"bisbas","trial_type":"survey-template","trial_index":3,"time_elapsed":250978,"internal_node_id":"0.0-3.0","task_version":"prescreen-v0.3","browser_interactions":0,"infrequency":0},{"responses":{"Q01":"4","Q02":"4","Q03":"3"},"rt":20407.700000047684,"radio_events":[4411.600000023842,10389.600000023842,19320.800000071526],"key_events":[],"mouse_events":[4411.600000023842,10389.600000023842,18574.900000095367,19320.800000071526,20407.100000023842],"survey":"map","page":1,"trial_type":"survey-map","trial_index":4,"time_elapsed":271393,"internal_node_id":"0.0-4.0","task_version":"prescreen-v0.3","browser_interactions":0},{"responses":{"Q04":"2","Q05":"2","Q06":"3"},"rt":10510.199999928474,"radio_events":[5168.799999952316,7153.5,9887.799999952316],"key_events":[],"mouse_events":[5168.799999952316,7153.5,9887.799999952316,10508.899999976158],"survey":"map","page":2,"trial_type":"survey-map","trial_index":5,"time_elapsed":281907,"internal_node_id":"0.0-5.0","task_version":"prescreen-v0.3","browser_interactions":0},{"responses":{"Q07":"4","Q08":"4","Q09":"4"},"rt":10771.600000023842,"radio_events":[5088.799999952316,8385.5,10256.799999952316],"key_events":[],"mouse_events":[5088.799999952316,8385.5,10256.799999952316,10770.600000023842],"survey":"map","page":3,"trial_type":"survey-map","trial_index":6,"time_elapsed":292683,"internal_node_id":"0.0-6.0","task_version":"prescreen-v0.3","browser_interactions":0},{"responses":{"Q10":"2","Q11":"1","Q12":"3","Q13":"4","Q16":"0","Q14":"2","Q15":"1"},"rt":29740.300000071526,"radio_events":[5033.5,7587.200000047684,14398.5,19075.399999976158,21725.700000047684,26805.800000071526,28931.200000047684],"key_events":[],"mouse_events":[5033.5,7587.200000047684,14398.5,19075.399999976158,21725.700000047684,26805.800000071526,28931.200000047684,29737.800000071526],"survey":"map","page":4,"trial_type":"survey-map","trial_index":7,"time_elapsed":322429,"internal_node_id":"0.0-7.0","task_version":"prescreen-v0.3","browser_interactions":0,"infrequency":0},{"view_history":[{"page_index":0,"viewing_time":1781.2999999523163},{"page_index":1,"viewing_time":3882.8000000715256}],"rt":5665.299999952316,"trial_type":"instructions","trial_index":8,"time_elapsed":328098,"internal_node_id":"0.0-8.0","task_version":"prescreen-v0.3"},{"responses":{"01":"No","02":"No","03":"No","04":"No","05":"No","06":"No"},"rt":16912.600000023842,"item_order":[0,1,2,3,4,5],"radio_events":[7764.200000047684,9728.100000023842,12057.600000023842,12883.5,15173.100000023842,16046.899999976158],"checkbox_events":[],"key_events":[],"mouse_events":[0.2999999523162842,7764.200000047684,9728.100000023842,12057.600000023842,12883.5,13782,15173.100000023842,16046.899999976158,16905.299999952316],"honeypot":0,"survey":"mace","page":1,"trial_type":"survey-mace","trial_index":9,"time_elapsed":345023,"internal_node_id":"0.0-9.0","task_version":"prescreen-v0.3","browser_interactions":0},{"responses":{"01":"No","02":"No","03":"No","04":"No","05":"No","06":"No","07":"No","08":"No"},"rt":12740,"item_order":[0,1,2,3,4,5,6,7],"radio_events":[2467.399999976158,3782.7000000476837,4849.100000023842,6147.700000047684,7539,9287.300000071526,10803.300000071526,11713.399999976158],"checkbox_events":[],"key_events":[],"mouse_events":[2467.399999976158,3782.7000000476837,4849.100000023842,6147.700000047684,7539,8854.200000047684,9287.300000071526,10803.300000071526,11713.399999976158,12731.600000023842],"honeypot":0,"survey":"mace","page":2,"trial_type":"survey-mace","trial_index":10,"time_elapsed":357770,"internal_node_id":"0.0-10.0","task_version":"prescreen-v0.3","browser_interactions":0},{"responses":{"01":"No","02":"No","03":"No","04":"No"},"rt":8499.100000023842,"item_order":[0,1,2,3],"radio_events":[3535,4882,7143.200000047684,7900.700000047684],"checkbox_events":[],"key_events":[],"mouse_events":[3535,4882,6517.600000023842,7143.200000047684,7900.700000047684,8494.600000023842],"honeypot":0,"survey":"mace","page":3,"trial_type":"survey-mace","trial_index":11,"time_elapsed":366274,"internal_node_id":"0.0-11.0","task_version":"prescreen-v0.3","browser_interactions":0},{"responses":{"01":"Yes","01_ages_15":"15","01_ages_16":"16","02":"No"},"rt":16722.400000095367,"item_order":[0,1],"radio_events":[7298.100000023842,16006.5],"checkbox_events":[13749.400000095367,14944.300000071526],"key_events":[],"mouse_events":[7298.100000023842,13749.400000095367,14262.100000023842,14944.300000071526,16006.5,16719.900000095367],"honeypot":0,"survey":"mace","page":4,"trial_type":"survey-mace","trial_index":12,"time_elapsed":383001,"internal_node_id":"0.0-12.0","task_version":"prescreen-v0.3","browser_interactions":0},{"responses":{"01":"No","02":"No","03":"No","04":"No","05":"No"},"rt":23864.899999976158,"item_order":[0,1,2,3,4],"radio_events":[16673.299999952316,18341.5,20438.600000023842,22162.299999952316,23197.399999976158],"checkbox_events":[],"key_events":[],"mouse_events":[16673.299999952316,18341.5,20438.600000023842,22162.299999952316,23197.399999976158,23858.600000023842],"honeypot":0,"survey":"mace","page":5,"trial_type":"survey-mace","trial_index":13,"time_elapsed":406874,"internal_node_id":"0.0-13.0","task_version":"prescreen-v0.3","browser_interactions":0},{"responses":{"01":"Yes","01_ages_11":"11","01_ages_12":"12","01_ages_13":"13","01_ages_14":"14","02":"Yes","02_ages_10":"10","02_ages_11":"11","02_ages_12":"12","02_ages_13":"13","02_ages_14":"14","02_ages_15":"15","02_ages_16":"16","02_ages_17":"17","02_ages_18":"18","03":"Yes","03_ages_12":"12","03_ages_13":"13","03_ages_14":"14","03_ages_17":"17","03_ages_18":"18","04":"Yes","04_ages_9":"9","04_ages_10":"10","04_ages_11":"11","04_ages_12":"12","04_ages_13":"13","04_ages_14":"14","04_ages_15":"15","04_ages_16":"16","04_ages_17":"17","04_ages_18":"18","05":"No"},"rt":47421.5,"item_order":[0,1,2,3,4],"radio_events":[6518.600000023842,16895.100000023842,27139,35870.800000071526,46673.800000071526],"checkbox_events":[10347.600000023842,10812.700000047684,11285.700000047684,12256.399999976158,19818,20299.100000023842,20732.200000047684,21293.600000023842,22179.800000071526,22588.700000047684,23695.100000023842,24721.5,25170.5,29151.399999976158,30334.300000071526,30727.200000047684,33452.89999997616,33950.300000071526,39115.300000071526,39644.60000002384,40085.300000071526,40542.800000071526,41055.700000047684,41505.10000002384,42596.10000002384,43121.200000047684,44147.89999997616,44564.89999997616],"key_events":[],"mouse_events":[6518.600000023842,10347.600000023842,10812.700000047684,11285.700000047684,12256.399999976158,16895.100000023842,19818,20299.100000023842,20732.200000047684,21293.600000023842,21698.5,22179.800000071526,22588.700000047684,23133.899999976158,23695.100000023842,24312.700000047684,24721.5,25170.5,27139,29151.399999976158,29792.899999976158,30334.300000071526,30727.200000047684,33452.89999997616,33950.300000071526,35870.800000071526,39115.300000071526,39644.60000002384,40085.300000071526,40542.800000071526,41055.700000047684,41505.10000002384,41938.39999997616,42596.10000002384,43121.200000047684,43754.200000047684,44147.89999997616,44564.89999997616,46673.800000071526,47416],"honeypot":0,"survey":"mace","page":6,"trial_type":"survey-mace","trial_index":14,"time_elapsed":454302,"internal_node_id":"0.0-14.0","task_version":"prescreen-v0.3","browser_interactions":0},{"responses":{"01":"No","02":"No","03":"No","04":"No","05":"No","06":"No","07":"No"},"rt":14862.699999928474,"item_order":[0,1,2,3,4,5,6],"radio_events":[3917.399999976158,6948.299999952316,8636.399999976158,9774.899999976158,11161.899999976158,12481,13588],"checkbox_events":[],"key_events":[],"mouse_events":[3917.399999976158,6948.299999952316,8636.399999976158,9774.899999976158,11161.899999976158,12481,13588,14855],"honeypot":0,"survey":"mace","page":7,"trial_type":"survey-mace","trial_index":15,"time_elapsed":469172,"internal_node_id":"0.0-15.0","task_version":"prescreen-v0.3","browser_interactions":0},{"responses":{"01":"No","02":"Yes","02_ages_11":"11","02_ages_12":"12","02_ages_13":"13","02_ages_14":"14","02_ages_15":"15","02_ages_16":"16","02_ages_17":"17","03":"No","04":"No"},"rt":27037.799999952316,"item_order":[0,1,2,3],"radio_events":[7104.100000023842,12396.399999976158,23357.199999928474,25867.100000023842],"checkbox_events":[15860.399999976158,16470,17235.699999928474,17941.399999976158,18703.199999928474,19745.299999952316,20562.600000023842],"key_events":[],"mouse_events":[6221.699999928474,7104.100000023842,11406.399999976158,11822.899999976158,12396.399999976158,15860.399999976158,16470,17235.699999928474,17941.399999976158,18703.199999928474,19745.299999952316,20562.600000023842,23357.199999928474,25345.5,25867.100000023842,27033.199999928474],"honeypot":0,"survey":"mace","page":8,"trial_type":"survey-mace","trial_index":16,"time_elapsed":496217,"internal_node_id":"0.0-16.0","task_version":"prescreen-v0.3","browser_interactions":0},{"responses":{"01":"Yes","01_ages_1":"1","01_ages_2":"2","01_ages_3":"3","01_ages_4":"4","01_ages_5":"5","01_ages_6":"6","01_ages_7":"7","01_ages_8":"8","01_ages_9":"9","01_ages_10":"10","01_ages_11":"11","01_ages_12":"12","01_ages_13":"13","01_ages_14":"14","01_ages_15":"15","01_ages_16":"16","01_ages_17":"17","01_ages_18":"18","02":"Yes","02_ages_1":"1","02_ages_2":"2","02_ages_3":"3","02_ages_4":"4","02_ages_5":"5","02_ages_6":"6","02_ages_7":"7","02_ages_8":"8","02_ages_9":"9","02_ages_10":"10","02_ages_11":"11","02_ages_12":"12","02_ages_13":"13","02_ages_14":"14","02_ages_15":"15","02_ages_16":"16","02_ages_17":"17","02_ages_18":"18","03":"Yes","03_ages_1":"1","03_ages_2":"2","03_ages_3":"3","03_ages_4":"4","03_ages_5":"5","03_ages_6":"6","03_ages_7":"7","03_ages_8":"8","03_ages_9":"9","03_ages_10":"10","03_ages_11":"11","03_ages_12":"12","03_ages_13":"13","03_ages_14":"14","03_ages_15":"15","03_ages_16":"16","03_ages_17":"17","03_ages_18":"18","04":"Yes","04_ages_1":"1","04_ages_2":"2","04_ages_3":"3","04_ages_4":"4","04_ages_5":"5","04_ages_6":"6","04_ages_7":"7","04_ages_8":"8","04_ages_9":"9","04_ages_10":"10","04_ages_11":"11","04_ages_12":"12","04_ages_13":"13","04_ages_14":"14","04_ages_15":"15","04_ages_16":"16","04_ages_17":"17","04_ages_18":"18"},"rt":62857.39999997616,"item_order":[0,1,2,3],"radio_events":[5136.5,21355.899999976158,36829.10000002384,50706.799999952316],"checkbox_events":[8107.600000023842,8572.100000023842,9285.899999976158,9819.199999928474,10348.100000023842,10997.899999976158,11534.699999928474,11943.899999976158,13250.399999976158,13879.699999928474,14785.899999976158,15475.399999976158,16060.699999928474,16750.100000023842,17808.299999952316,18413.5,19111.199999928474,19744.699999928474,22125.699999928474,22650.699999928474,23220.399999976158,23933.399999976158,24639.199999928474,25288.600000023842,26234.299999952316,26875.799999952316,28299,28780,30182.899999976158,30736.100000023842,31489.5,32479.899999976158,33009.10000002384,33489.699999928474,34379.699999928474,35254.10000002384,37839.799999952316,38609.39999997616,39339.10000002384,40076.60000002384,40666.5,41163.39999997616,43521,44130.39999997616,44596,45113.199999928474,45577.89999997616,46131.199999928474,46588.199999928474,47109.60000002384,47687,48336.39999997616,48865.89999997616,49298.799999952316,51452.5,52150.89999997616,52679.89999997616,53193.299999952316,53642.799999952316,54095.5,54505,55057.89999997616,55515.5,56053,56878.699999928474,57319.39999997616,57945.39999997616,59521.199999928474,60065.799999952316,60868.199999928474,61349.39999997616,61782.199999928474],"key_events":[],"mouse_events":[5136.5,8107.600000023842,8572.100000023842,9285.899999976158,9819.199999928474,10348.100000023842,10997.899999976158,11534.699999928474,11943.899999976158,12745.600000023842,13250.399999976158,13879.699999928474,14336.799999952316,14785.899999976158,15475.399999976158,16060.699999928474,16750.100000023842,17231.399999976158,17808.299999952316,18413.5,19111.199999928474,19744.699999928474,21355.899999976158,22125.699999928474,22650.699999928474,23220.399999976158,23933.399999976158,24639.199999928474,25288.600000023842,25833.799999952316,26234.299999952316,26875.799999952316,27858.399999976158,28299,28780,29237,29662,30182.899999976158,30736.100000023842,31489.5,32479.899999976158,33009.10000002384,33489.699999928474,33922.799999952316,34379.699999928474,34852.60000002384,35254.10000002384,36829.10000002384,37839.799999952316,38609.39999997616,39339.10000002384,40076.60000002384,40666.5,41163.39999997616,41965.39999997616,43521,44130.39999997616,44596,45113.199999928474,45577.89999997616,46131.199999928474,46588.199999928474,47109.60000002384,47687,48336.39999997616,48865.89999997616,49298.799999952316,50706.799999952316,51452.5,52150.89999997616,52679.89999997616,53193.299999952316,53642.799999952316,54095.5,54505,55057.89999997616,55515.5,56053,56878.699999928474,57319.39999997616,57945.39999997616,58558.799999952316,59136.299999952316,59521.199999928474,60065.799999952316,60868.199999928474,61349.39999997616,61782.199999928474,62852.89999997616],"honeypot":0,"survey":"mace","page":9,"trial_type":"survey-mace","trial_index":17,"time_elapsed":559082,"internal_node_id":"0.0-17.0","task_version":"prescreen-v0.3","browser_interactions":0},{"responses":{"01":"No","02":"No","03":"Yes","03_ages_11":"11","03_ages_12":"12","03_ages_13":"13","03_ages_14":"14","04":"No","05":"Yes","05_ages_5":"5","05_ages_6":"6","05_ages_7":"7","05_ages_8":"8","05_ages_9":"9","05_ages_10":"10","05_ages_11":"11","05_ages_12":"12","05_ages_13":"13","05_ages_14":"14","05_ages_15":"15","05_ages_16":"16","05_ages_17":"17","05_ages_18":"18","06":"Yes","06_ages_17":"17","07":"Yes","07_ages_1":"1","07_ages_2":"2","07_ages_3":"3","07_ages_4":"4","07_ages_5":"5","07_ages_6":"6","07_ages_7":"7","07_ages_8":"8","07_ages_9":"9","07_ages_10":"10","07_ages_11":"11","07_ages_12":"12","07_ages_13":"13","07_ages_14":"14","07_ages_15":"15","07_ages_16":"16","07_ages_17":"17","07_ages_18":"18","08":"Yes","08_ages_1":"1","08_ages_2":"2","08_ages_3":"3","08_ages_4":"4","08_ages_5":"5","08_ages_6":"6","08_ages_7":"7","08_ages_8":"8","08_ages_9":"9","08_ages_10":"10","08_ages_11":"11","08_ages_12":"12","08_ages_13":"13","08_ages_14":"14","08_ages_15":"15","08_ages_16":"16","08_ages_17":"17","08_ages_18":"18"},"rt":61775.39999997616,"item_order":[0,1,2,3,4,5,6,7],"radio_events":[3395.8000000715256,4426.200000047684,6879.600000023842,15108.300000071526,17330.300000071526,29803.5,37389.700000047684,49888.39999997616],"checkbox_events":[11382.899999976158,11960.600000023842,12538.300000071526,13047.200000047684,20204.700000047684,20774.399999976158,21263.5,21728.300000071526,22261.600000023842,22767,23368.600000023842,23841.5,24354.899999976158,24835.800000071526,25725.800000071526,26071.300000071526,26571.5,27750.399999976158,32060.800000071526,38208.200000047684,38717.200000047684,39647.60000002384,40232.89999997616,40698.200000047684,41243.700000047684,41804.60000002384,42253.5,42606.5,43147.700000047684,44302.200000047684,44831.800000071526,45938.800000071526,46483.39999997616,46932.89999997616,47361.60000002384,47971.10000002384,48516.89999997616,50538.200000047684,51099.800000071526,51593.700000047684,52989.200000047684,53374.300000071526,53975.10000002384,54432.300000071526,54921.89999997616,55379.300000071526,55816.200000047684,57082.60000002384,57491.89999997616,58029.300000071526,58459.200000047684,59180,59741.39999997616,60110.800000071526,60719.89999997616],"key_events":[],"mouse_events":[3395.8000000715256,4426.200000047684,6021.5,6879.600000023842,11382.899999976158,11960.600000023842,12538.300000071526,13047.200000047684,15108.300000071526,17330.300000071526,20204.700000047684,20774.399999976158,21263.5,21728.300000071526,22261.600000023842,22767,23368.600000023842,23841.5,24354.899999976158,24835.800000071526,25301.100000023842,25725.800000071526,26071.300000071526,26571.5,27173.300000071526,27750.399999976158,29803.5,32060.800000071526,37389.700000047684,38208.200000047684,38717.200000047684,39238.89999997616,39647.60000002384,40232.89999997616,40698.200000047684,41243.700000047684,41804.60000002384,42253.5,42606.5,43147.700000047684,44302.200000047684,44831.800000071526,45377.300000071526,45938.800000071526,46483.39999997616,46932.89999997616,47361.60000002384,47971.10000002384,48516.89999997616,49888.39999997616,50538.200000047684,51099.800000071526,51593.700000047684,52138.60000002384,52532.300000071526,52989.200000047684,53374.300000071526,53975.10000002384,54432.300000071526,54921.89999997616,55379.300000071526,55816.200000047684,57082.60000002384,57491.89999997616,58029.300000071526,58459.200000047684,58843.300000071526,59180,59741.39999997616,60110.800000071526,60719.89999997616,61766.60000002384],"honeypot":0,"survey":"mace","page":10,"trial_type":"survey-mace","trial_index":18,"time_elapsed":620867,"internal_node_id":"0.0-18.0","task_version":"prescreen-v0.3","browser_interactions":0,"instructed":0},{"rt":5732.199999928474,"trial_type":"mental-health-alert","trial_index":19,"time_elapsed":626602,"internal_node_id":"0.0-19.0","task_version":"prescreen-v0.3","interactions":"[]"}]