[{"view_history":[{"page_index":0,"viewing_time":3258.100000023842},{"page_index":1,"viewing_time":3884.100000023842},{"page_index":2,"viewing_time":3161.600000023842},{"page_index":3,"viewing_time":1173.6999999284744}],"rt":11478.300000071526,"trial_type":"instructions","trial_index":0,"time_elapsed":11481,"internal_node_id":"0.0-0.0","task_version":"prescreen-v0.3"},{"rt":9718.5,"responses":{"age":"35","gender-categorical":"Male","gender-free-response":"","ethnicity":"Not Hispanic or Latino","race":["White"],"education":"Bachelor degree"},"trial_type":"survey-demo","trial_index":1,"time_elapsed":21204,"internal_node_id":"0.0-1.0","task_version":"prescreen-v0.3"},{"responses":{"Q12":"1","Q20":"0","Q16":"0","Q14":"0","Q03":"1","Q08":"2","Q10":"0","Q09":"2","Q15":"0","Q17":"3","Q21":"3","Q18":"0","Q19":"1","Q01":"2","Q04":"2","Q05":"3","Q02":"2","Q07":"3","Q06":"2","Q13":"0","Q11":"3"},"rt":118436.10000002384,"item_order":[11,19,15,13,2,7,9,8,14,16,20,17,18,0,3,4,1,6,5,12,10],"radio_events":[14158.699999928474,16974.699999928474,22654.699999928474,25112.699999928474,27594.299999952316,29802.399999976158,35000.699999928474,43636.60000002384,47838.5,51868.39999997616,55748.199999928474,63850.299999952316,64808.5,68906.60000002384,70786.69999992847,77478.79999995232,87696.60000002384,100160.60000002384,105510.29999995232,112962.79999995232,115888.29999995232,118002.19999992847],"key_events":[],"mouse_events":[14158.699999928474,16974.699999928474,22654.699999928474,25112.699999928474,27594.299999952316,29802.399999976158,35000.699999928474,42325.10000002384,43636.60000002384,47838.5,51868.39999997616,55200.5,55748.199999928474,63850.299999952316,64808.5,68906.60000002384,70786.69999992847,77478.79999995232,87696.60000002384,100160.60000002384,104950.60000002384,105510.29999995232,112962.79999995232,115888.29999995232,118002.19999992847,118434.39999997616],"straightlining":0.3333333333333333,"zigzagging":0.6,"honeypot":0,"survey":"sns","trial_type":"survey-template","trial_index":2,"time_elapsed":139644,"internal_node_id":"0.0-2.0","task_version":"prescreen-v0.3","browser_interactions":0,"infrequency":0},{"responses":{"Q11":"2","Q10":"2","Q01":"1","Q04":"1","Q07":"2","Q02":"0","Q06":"3","Q09":"2","Q05":"2","Q03":"1","Q13":"0","Q08":"1","Q12":"1"},"rt":79919.5,"item_order":[10,9,0,3,6,1,5,8,4,2,12,7,11],"radio_events":[6258.800000071526,9308.100000023842,11282.600000023842,13144.900000095367,16782.800000071526,19364.600000023842,21552.900000095367,26456.700000047684,36227,39530.60000002384,44627,63994.700000047684,78569,79124.60000002384],"key_events":[],"mouse_events":[6258.800000071526,8974.700000047684,9308.100000023842,11282.600000023842,13144.900000095367,16782.800000071526,19364.600000023842,21552.900000095367,26456.700000047684,36227,39530.60000002384,44627,63680.700000047684,63994.700000047684,75914.80000007153,78569,79124.60000002384,79918.70000004768],"straightlining":0.38461538461538464,"zigzagging":0.5833333333333334,"honeypot":0,"survey":"bisbas","trial_type":"survey-template","trial_index":3,"time_elapsed":219567,"internal_node_id":"0.0-3.0","task_version":"prescreen-v0.3","browser_interactions":8,"infrequency":0},{"responses":{"Q01":"2","Q02":"1","Q03":"2"},"rt":22343.199999928474,"radio_events":[7314.399999976158,7974.099999904633,11870.399999976158,21564.299999952316],"key_events":[],"mouse_events":[7314.399999976158,7974.099999904633,11870.399999976158,21564.299999952316,22342.599999904633],"survey":"map","page":1,"trial_type":"survey-map","trial_index":4,"time_elapsed":241912,"internal_node_id":"0.0-4.0","task_version":"prescreen-v0.3","browser_interactions":0},{"responses":{"Q04":"1","Q05":"1","Q06":"1"},"rt":13493.799999952316,"radio_events":[6641.5,9293.5,12541.5],"key_events":[],"mouse_events":[6129.299999952316,6641.5,9293.5,12541.5,13493.299999952316],"survey":"map","page":2,"trial_type":"survey-map","trial_index":5,"time_elapsed":255408,"internal_node_id":"0.0-5.0","task_version":"prescreen-v0.3","browser_interactions":0},{"responses":{"Q07":"4","Q08":"3","Q09":"0"},"rt":23032.400000095367,"radio_events":[11698.300000071526,13245.900000095367,17336.100000023842,21328.300000071526,22270.100000023842],"key_events":[],"mouse_events":[11698.300000071526,13245.900000095367,17336.100000023842,21328.300000071526,21940,22270.100000023842,23032.100000023842],"survey":"map","page":3,"trial_type":"survey-map","trial_index":6,"time_elapsed":278442,"internal_node_id":"0.0-6.0","task_version":"prescreen-v0.3","browser_interactions":0},{"responses":{"Q10":"1","Q11":"2","Q12":"1","Q13":"3","Q16":"0","Q14":"2","Q15":"1"},"rt":48019,"radio_events":[4394.300000071526,7734.300000071526,17267.800000071526,20881.800000071526,26780.100000023842,43681.800000071526,47260.200000047684],"key_events":[],"mouse_events":[4394.300000071526,7734.300000071526,17267.800000071526,20881.800000071526,26780.100000023842,43681.800000071526,47260.200000047684,48018.300000071526],"survey":"map","page":4,"trial_type":"survey-map","trial_index":7,"time_elapsed":326463,"internal_node_id":"0.0-7.0","task_version":"prescreen-v0.3","browser_interactions":0,"infrequency":0},{"view_history":[{"page_index":0,"viewing_time":2921.5},{"page_index":1,"viewing_time":3357.7999999523163}],"rt":6279.799999952316,"trial_type":"instructions","trial_index":8,"time_elapsed":332743,"internal_node_id":"0.0-8.0","task_version":"prescreen-v0.3"},{"responses":{"01":"No","02":"No","03":"No","04":"No","05":"No","06":"No"},"rt":19055.899999976158,"item_order":[0,1,2,3,4,5],"radio_events":[8010,10632.200000047684,13161.600000023842,14347.600000023842,15536.100000023842,18505.899999976158],"checkbox_events":[],"key_events":[],"mouse_events":[0,8010,10632.200000047684,13161.600000023842,14347.600000023842,15536.100000023842,18505.899999976158,19054.200000047684],"honeypot":0,"survey":"mace","page":1,"trial_type":"survey-mace","trial_index":9,"time_elapsed":351805,"internal_node_id":"0.0-9.0","task_version":"prescreen-v0.3","browser_interactions":0},{"responses":{"01":"No","02":"No","03":"Yes","03_ages_3":"3","03_ages_4":"4","03_ages_5":"5","03_ages_6":"6","03_ages_7":"7","03_ages_8":"8","04":"No","05":"No","06":"No","07":"No","08":"No"},"rt":41977.300000071526,"item_order":[0,1,2,3,4,5,6,7],"radio_events":[2278.8000000715256,10732.200000047684,12842.5,14438.899999976158,33702.5,36680.5,38252.700000047684,39824.800000071526,41238.5],"checkbox_events":[20554.700000047684,21244.600000023842,21816.5,23528.300000071526,24274.600000023842,25176.600000023842],"key_events":[],"mouse_events":[2278.8000000715256,10732.200000047684,12842.5,14438.899999976158,20554.700000047684,21244.600000023842,21816.5,23528.300000071526,24274.600000023842,25176.600000023842,30254.5,33702.5,36680.5,38252.700000047684,39824.800000071526,41238.5,41974.700000047684],"honeypot":0,"survey":"mace","page":2,"trial_type":"survey-mace","trial_index":10,"time_elapsed":393786,"internal_node_id":"0.0-10.0","task_version":"prescreen-v0.3","browser_interactions":0},{"responses":{"01":"No","02":"No","03":"No","04":"No"},"rt":18237.700000047684,"item_order":[0,1,2,3],"radio_events":[3704.100000023842,5616.700000047684,16297.900000095367,17787.900000095367],"checkbox_events":[],"key_events":[],"mouse_events":[3704.100000023842,5616.700000047684,16297.900000095367,17787.900000095367,18236.300000071526],"honeypot":0,"survey":"mace","page":3,"trial_type":"survey-mace","trial_index":11,"time_elapsed":412027,"internal_node_id":"0.0-11.0","task_version":"prescreen-v0.3","browser_interactions":0},{"responses":{"01":"No","02":"No"},"rt":9074.100000023842,"item_order":[0,1],"radio_events":[2429.899999976158,8391.600000023842],"checkbox_events":[],"key_events":[],"mouse_events":[2429.899999976158,8391.600000023842,9073.399999976158],"honeypot":0,"survey":"mace","page":4,"trial_type":"survey-mace","trial_index":12,"time_elapsed":421103,"internal_node_id":"0.0-12.0","task_version":"prescreen-v0.3","browser_interactions":0},{"responses":{"01":"No","02":"No","03":"No","04":"No","05":"No"},"rt":18326.299999952316,"item_order":[0,1,2,3,4],"radio_events":[9802.899999976158,11342.799999952316,13332.699999928474,16898.5,17912.600000023842],"checkbox_events":[],"key_events":[],"mouse_events":[9802.899999976158,11342.799999952316,13332.699999928474,16898.5,17912.600000023842,18324.899999976158],"honeypot":0,"survey":"mace","page":5,"trial_type":"survey-mace","trial_index":13,"time_elapsed":439433,"internal_node_id":"0.0-13.0","task_version":"prescreen-v0.3","browser_interactions":0},{"responses":{"01":"No","02":"No","03":"No","04":"No","05":"No"},"rt":25739.400000095367,"item_order":[0,1,2,3,4],"radio_events":[8606,11084.100000023842,13529.900000095367,23732.100000023842,25231.900000095367],"checkbox_events":[],"key_events":[],"mouse_events":[8606,11084.100000023842,13529.900000095367,23732.100000023842,25231.900000095367,25738],"honeypot":0,"survey":"mace","page":6,"trial_type":"survey-mace","trial_index":14,"time_elapsed":465176,"internal_node_id":"0.0-14.0","task_version":"prescreen-v0.3","browser_interactions":0},{"responses":{"01":"No","02":"No","03":"No","04":"Yes","04_ages_13":"13","05":"No","06":"No","07":"No"},"rt":26129.700000047684,"item_order":[0,1,2,3,4,5,6],"radio_events":[2130.100000023842,3802.5,5418.899999976158,6676.200000047684,8655.200000047684,22546.100000023842,24509.899999976158,25600.5],"checkbox_events":[13754.399999976158],"key_events":[],"mouse_events":[2130.100000023842,3802.5,5418.899999976158,6676.200000047684,8655.200000047684,13754.399999976158,22546.100000023842,24509.899999976158,25600.5,26127.899999976158],"honeypot":0,"survey":"mace","page":7,"trial_type":"survey-mace","trial_index":15,"time_elapsed":491310,"internal_node_id":"0.0-15.0","task_version":"prescreen-v0.3","browser_interactions":0},{"responses":{"01":"No","02":"Yes","02_ages_12":"12","02_ages_13":"13","02_ages_14":"14","02_ages_15":"15","02_ages_16":"16","02_ages_17":"17","02_ages_18":"18","03":"No","04":"No"},"rt":49964.799999952316,"item_order":[0,1,2,3],"radio_events":[10295.799999952316,29607.700000047684,46345.60000002384,48956.60000002384],"checkbox_events":[36235.60000002384,37222,37779.799999952316,38201.700000047684,38734.39999997616,40015.799999952316,40575.799999952316,41045.799999952316,41557.799999952316],"key_events":[],"mouse_events":[10295.799999952316,29607.700000047684,36235.60000002384,37222,37779.799999952316,38201.700000047684,38734.39999997616,39257.89999997616,40015.799999952316,40575.799999952316,41045.799999952316,41557.799999952316,42677.60000002384,46345.60000002384,48956.60000002384,49963.799999952316],"honeypot":0,"survey":"mace","page":8,"trial_type":"survey-mace","trial_index":16,"time_elapsed":541276,"internal_node_id":"0.0-16.0","task_version":"prescreen-v0.3","browser_interactions":0},{"responses":{"01":"Yes","01_ages_1":"1","01_ages_2":"2","01_ages_3":"3","01_ages_4":"4","01_ages_5":"5","01_ages_6":"6","01_ages_7":"7","01_ages_8":"8","01_ages_9":"9","01_ages_10":"10","01_ages_11":"11","01_ages_12":"12","01_ages_13":"13","01_ages_14":"14","01_ages_15":"15","01_ages_16":"16","01_ages_17":"17","01_ages_18":"18","02":"Yes","02_ages_1":"1","02_ages_2":"2","02_ages_3":"3","02_ages_4":"4","02_ages_5":"5","02_ages_6":"6","02_ages_7":"7","02_ages_8":"8","02_ages_9":"9","02_ages_10":"10","02_ages_11":"11","02_ages_12":"12","02_ages_13":"13","02_ages_14":"14","02_ages_15":"15","02_ages_16":"16","02_ages_17":"17","02_ages_18":"18","03":"Yes","03_ages_1":"1","03_ages_2":"2","03_ages_3":"3","03_ages_4":"4","03_ages_5":"5","03_ages_6":"6","03_ages_7":"7","03_ages_8":"8","03_ages_9":"9","03_ages_10":"10","03_ages_11":"11","03_ages_12":"12","03_ages_13":"13","03_ages_14":"14","03_ages_15":"15","03_ages_16":"16","03_ages_17":"17","03_ages_18":"18","04":"Yes","04_ages_7":"7","04_ages_8":"8","04_ages_9":"9","04_ages_10":"10","04_ages_15":"15","04_ages_16":"16","04_ages_17":"17","04_ages_18":"18"},"rt":84756.29999995232,"item_order":[0,1,2,3],"radio_events":[4194.600000023842,6888.600000023842,34578.39999997616,48712.60000002384,70986.5],"checkbox_events":[9210.600000023842,9596.699999928474,10196.899999976158,10608.699999928474,10974.799999952316,11839.100000023842,12189,12619.600000023842,13058.699999928474,13630.5,14502,15240.600000023842,15890.399999976158,16426.5,16802.100000023842,17232.699999928474,17618.699999928474,18274.600000023842,36005.799999952316,36450.5,37208.299999952316,37554.60000002384,38725,39428.60000002384,39809.199999928474,40286.39999997616,40862.5,41508.5,42166.39999997616,42712.39999997616,43268.60000002384,43864.60000002384,44630.799999952316,45436.60000002384,45993.10000002384,46556.199999928474,51960.5,52509.10000002384,52976.699999928474,53450.89999997616,53967.89999997616,54498.60000002384,55126.5,55558.699999928474,56012.39999997616,57274.5,57818.199999928474,58390.299999952316,59042.89999997616,59494.60000002384,60616,61444.10000002384,62000.299999952316,62726.5,75172.19999992847,75640.69999992847,76116.5,76598.39999997616,82748.5,83256.39999997616,83706.39999997616,84326.5],"key_events":[],"mouse_events":[4194.600000023842,6888.600000023842,9210.600000023842,9596.699999928474,10196.899999976158,10608.699999928474,10974.799999952316,11320.799999952316,11839.100000023842,12189,12619.600000023842,13058.699999928474,13630.5,14138.5,14502,15240.600000023842,15890.399999976158,16426.5,16802.100000023842,17232.699999928474,17618.699999928474,18274.600000023842,34578.39999997616,36005.799999952316,36450.5,37208.299999952316,37554.60000002384,37950.39999997616,38360.5,38725,39428.60000002384,39809.199999928474,40286.39999997616,40862.5,41508.5,42166.39999997616,42712.39999997616,43268.60000002384,43864.60000002384,44630.799999952316,45436.60000002384,45993.10000002384,46556.199999928474,48712.60000002384,51016.60000002384,51960.5,52509.10000002384,52976.699999928474,53450.89999997616,53967.89999997616,54498.60000002384,55126.5,55558.699999928474,56012.39999997616,56550.39999997616,57274.5,57818.199999928474,58390.299999952316,59042.89999997616,59494.60000002384,60164.60000002384,60616,61106.299999952316,61444.10000002384,62000.299999952316,62726.5,70986.5,75172.19999992847,75640.69999992847,76116.5,76598.39999997616,82122.39999997616,82748.5,83256.39999997616,83706.39999997616,84326.5,84754.69999992847],"honeypot":0,"survey":"mace","page":9,"trial_type":"survey-mace","trial_index":17,"time_elapsed":626035,"internal_node_id":"0.0-17.0","task_version":"prescreen-v0.3","browser_interactions":0},{"responses":{"01":"No","02":"No","03":"No","04":"No","05":"No","06":"Yes","06_ages_17":"17","07":"Yes","07_ages_1":"1","07_ages_2":"2","07_ages_3":"3","07_ages_4":"4","07_ages_5":"5","07_ages_6":"6","07_ages_7":"7","07_ages_8":"8","07_ages_9":"9","07_ages_10":"10","07_ages_11":"11","07_ages_12":"12","07_ages_13":"13","07_ages_14":"14","07_ages_15":"15","07_ages_16":"16","07_ages_17":"17","07_ages_18":"18","08":"Yes","08_ages_1":"1","08_ages_2":"2","08_ages_3":"3","08_ages_4":"4","08_ages_5":"5","08_ages_6":"6","08_ages_7":"7","08_ages_8":"8","08_ages_9":"9","08_ages_10":"10","08_ages_11":"11","08_ages_12":"12","08_ages_13":"13","08_ages_14":"14","08_ages_15":"15","08_ages_16":"16","08_ages_17":"17","08_ages_18":"18"},"rt":47608,"item_order":[0,1,2,3,4,5,6,7],"radio_events":[2668.899999976158,4983.700000047684,6361.600000023842,7703.600000023842,9601.899999976158,12155.5,17397.5,34611.700000047684],"checkbox_events":[13461.799999952316,23648.299999952316,24095.899999976158,24827.5,25721.399999976158,26455.399999976158,27117.299999952316,27773.399999976158,29071.399999976158,29538.100000023842,30001.399999976158,30441.399999976158,30903.799999952316,31585.399999976158,31983.600000023842,32428.100000023842,32939.5,33773.60000002384,35747.5,36561.5,37347.299999952316,37741.700000047684,38129.5,38555.799999952316,39019.60000002384,39547.60000002384,40273.39999997616,40655.89999997616,41095.5,41877.799999952316,42637.799999952316,43241.60000002384,43887.200000047684,44467.5,44987.5,45603.60000002384,46325.5],"key_events":[],"mouse_events":[2668.899999976158,3859.399999976158,4983.700000047684,5555.799999952316,6361.600000023842,7703.600000023842,9601.899999976158,12155.5,13461.799999952316,17397.5,23648.299999952316,24095.899999976158,24827.5,25721.399999976158,26455.399999976158,27117.299999952316,27773.399999976158,28631.5,29071.399999976158,29538.100000023842,30001.399999976158,30441.399999976158,30903.799999952316,31585.399999976158,31983.600000023842,32428.100000023842,32939.5,33341.799999952316,33773.60000002384,34611.700000047684,35747.5,36561.5,36993.60000002384,37347.299999952316,37741.700000047684,38129.5,38555.799999952316,39019.60000002384,39547.60000002384,39949.700000047684,40273.39999997616,40655.89999997616,41095.5,41877.799999952316,42259.60000002384,42637.799999952316,43241.60000002384,43887.200000047684,44467.5,44987.5,45603.60000002384,45997.60000002384,46325.5,47605.799999952316],"honeypot":0,"survey":"mace","page":10,"trial_type":"survey-mace","trial_index":18,"time_elapsed":673647,"internal_node_id":"0.0-18.0","task_version":"prescreen-v0.3","browser_interactions":0,"instructed":0},{"rt":8880.100000023842,"trial_type":"mental-health-alert","trial_index":19,"time_elapsed":682529,"internal_node_id":"0.0-19.0","task_version":"prescreen-v0.3","interactions":"[{\"event\":\"blur\",\"trial\":3,\"time\":191797},{\"event\":\"focus\",\"trial\":3,\"time\":194515},{\"event\":\"blur\",\"trial\":3,\"time\":195168},{\"event\":\"focus\",\"trial\":3,\"time\":197635},{\"event\":\"blur\",\"trial\":3,\"time\":197638},{\"event\":\"focus\",\"trial\":3,\"time\":197666},{\"event\":\"blur\",\"trial\":3,\"time\":197666},{\"event\":\"focus\",\"trial\":3,\"time\":199140}]"}]