[{"view_history":[{"page_index":0,"viewing_time":3837},{"page_index":1,"viewing_time":2732.300000011921},{"page_index":2,"viewing_time":4397.199999988079},{"page_index":3,"viewing_time":1050.9000000059605}],"rt":12018.100000023842,"trial_type":"instructions","trial_index":0,"time_elapsed":12025,"internal_node_id":"0.0-0.0","task_version":"prescreen-v0.3"},{"rt":27002.600000023842,"responses":{"age":"21","gender-categorical":"Male","gender-free-response":"","ethnicity":"Not Hispanic or Latino","race":["White"],"education":"Some college"},"trial_type":"survey-demo","trial_index":1,"time_elapsed":39032,"internal_node_id":"0.0-1.0","task_version":"prescreen-v0.3"},{"responses":{"Q19":"2","Q07":"2","Q01":"3","Q08":"3","Q17":"2","Q02":"3","Q16":"2","Q13":"2","Q06":"2","Q20":"1","Q04":"2","Q09":"3","Q15":"2","Q12":"2","Q11":"3","Q05":"2","Q10":"3","Q21":"3","Q03":"2","Q18":"3","Q14":"2"},"rt":137822,"item_order":[18,6,0,7,16,1,15,12,5,19,3,8,14,11,10,4,9,20,2,17,13],"radio_events":[39119.89999997616,45130.5,47781.19999998808,52824.09999999404,57539.89999997616,60488.39999997616,65302.19999998808,69659.89999997616,77654.19999998808,80410.59999999404,82052.09999999404,88769.5,93528.69999998808,97434.59999999404,100330.19999998808,104641.39999997616,109294.39999997616,113957.19999998808,119884.19999998808,123840.5,126832.29999998212,135941.39999997616],"key_events":[],"mouse_events":[39119.89999997616,45130.5,47781.19999998808,52824.09999999404,56669.89999997616,57539.89999997616,60488.39999997616,65302.19999998808,69659.89999997616,72749.59999999404,77654.19999998808,80410.59999999404,82052.09999999404,88769.5,93528.69999998808,97434.59999999404,100330.19999998808,103199.69999998808,104641.39999997616,109294.39999997616,112706.59999999404,113471.29999998212,113957.19999998808,119884.19999998808,123840.5,126832.29999998212,128278.29999998212,135180.39999997616,135941.39999997616,137820.19999998808],"straightlining":0.5714285714285714,"zigzagging":0.7,"honeypot":0,"survey":"sns","trial_type":"survey-template","trial_index":2,"time_elapsed":176859,"internal_node_id":"0.0-2.0","task_version":"prescreen-v0.3","browser_interactions":0,"infrequency":0},{"responses":{"Q05":"2","Q03":"2","Q10":"2","Q07":"3","Q12":"0","Q06":"1","Q01":"3","Q11":"2","Q13":"0","Q09":"0","Q04":"3","Q08":"1","Q02":"2"},"rt":76771.70000001788,"item_order":[4,2,9,6,11,5,0,10,12,8,3,7,1],"radio_events":[5585.300000011921,9966.40000000596,14290.600000023842,20340.90000000596,24834.80000001192,26099.5,31996.5,34803.20000001788,35831.40000000596,40670.80000001192,44368.60000002384,62774.90000000596,67643.40000000596,71377.30000001192,75371.30000001192],"key_events":[],"mouse_events":[5585.300000011921,9966.40000000596,14290.600000023842,18537.5,19710.600000023842,20340.90000000596,24109.70000001788,24834.80000001192,25681.600000023842,26099.5,31996.5,34803.20000001788,35831.40000000596,40670.80000001192,44368.60000002384,62774.90000000596,67643.40000000596,71377.30000001192,74951.40000000596,75371.30000001192,76770.70000001788],"straightlining":0.38461538461538464,"zigzagging":0.5,"honeypot":0,"survey":"bisbas","trial_type":"survey-template","trial_index":3,"time_elapsed":253635,"internal_node_id":"0.0-3.0","task_version":"prescreen-v0.3","browser_interactions":0,"infrequency":0},{"responses":{"Q01":"2","Q02":"2","Q03":"1"},"rt":18885.80000001192,"radio_events":[6754.4000000059605,11801.09999999404,17388.30000001192],"key_events":[],"mouse_events":[6754.4000000059605,10841.700000017881,11801.09999999404,16720.70000001788,17388.30000001192,18885.20000001788],"survey":"map","page":1,"trial_type":"survey-map","trial_index":4,"time_elapsed":272524,"internal_node_id":"0.0-4.0","task_version":"prescreen-v0.3","browser_interactions":0},{"responses":{"Q04":"2","Q05":"2","Q06":"3"},"rt":15059.199999988079,"radio_events":[6753.699999988079,10783.90000000596,14174.300000011921],"key_events":[],"mouse_events":[6753.699999988079,10783.90000000596,12639.40000000596,13121.40000000596,13642.90000000596,14174.300000011921,15058.699999988079],"survey":"map","page":2,"trial_type":"survey-map","trial_index":5,"time_elapsed":287585,"internal_node_id":"0.0-5.0","task_version":"prescreen-v0.3","browser_interactions":0},{"responses":{"Q07":"0","Q08":"1","Q09":"2"},"rt":15896.199999988079,"radio_events":[5850.5,9729.40000000596,11077.90000000596,15032.5],"key_events":[],"mouse_events":[5850.5,9729.40000000596,11077.90000000596,15032.5,15895.699999988079],"survey":"map","page":3,"trial_type":"survey-map","trial_index":6,"time_elapsed":303483,"internal_node_id":"0.0-6.0","task_version":"prescreen-v0.3","browser_interactions":0},{"responses":{"Q10":"1","Q11":"1","Q12":"2","Q13":"3","Q16":"0","Q14":"1","Q15":"2"},"rt":35270.10000002384,"radio_events":[5742.4000000059605,13556.40000000596,17644.600000023842,22104.30000001192,27469.70000001788,31810.20000001788,34024.70000001788],"key_events":[],"mouse_events":[5742.4000000059605,12407.600000023842,13556.40000000596,17644.600000023842,22104.30000001192,27469.70000001788,31810.20000001788,34024.70000001788,35269.20000001788],"survey":"map","page":4,"trial_type":"survey-map","trial_index":7,"time_elapsed":338756,"internal_node_id":"0.0-7.0","task_version":"prescreen-v0.3","browser_interactions":0,"infrequency":0},{"view_history":[{"page_index":0,"viewing_time":2509.2999999821186},{"page_index":1,"viewing_time":4508}],"rt":7018,"trial_type":"instructions","trial_index":8,"time_elapsed":345775,"internal_node_id":"0.0-8.0","task_version":"prescreen-v0.3"},{"responses":{"01":"No","02":"Yes","02_ages_9":"9","02_ages_10":"10","02_ages_11":"11","02_ages_12":"12","02_ages_13":"13","02_ages_14":"14","02_ages_15":"15","03":"No","04":"No","05":"No","06":"No"},"rt":51206.10000002384,"item_order":[0,1,2,3,4,5],"radio_events":[9759.40000000596,16332.90000000596,42055.40000000596,43956.40000000596,46206.30000001192,50257.20000001788],"checkbox_events":[22941.40000000596,23370.5,24286.100000023842,25197.70000001788,27238.90000000596,27799.70000001788,28414.20000001788,28930.5,30337.80000001192,30697.600000023842,32256.20000001788,32914.5,34162.60000002384,34543.90000000596,35002.40000000596,35597.40000000596,36130.5],"key_events":[],"mouse_events":[0.10000002384185791,9759.40000000596,16332.90000000596,22941.40000000596,23370.5,23784.30000001192,24286.100000023842,25197.70000001788,25617.600000023842,26297.30000001192,26689.30000001192,27238.90000000596,27799.70000001788,28414.20000001788,28930.5,29804.20000001788,30337.80000001192,30697.600000023842,32256.20000001788,32914.5,33311.5,34162.60000002384,34543.90000000596,35002.40000000596,35597.40000000596,36130.5,37615.40000000596,42055.40000000596,43956.40000000596,45752.40000000596,46206.30000001192,50257.20000001788,51203.70000001788],"honeypot":0,"survey":"mace","page":1,"trial_type":"survey-mace","trial_index":9,"time_elapsed":396987,"internal_node_id":"0.0-9.0","task_version":"prescreen-v0.3","browser_interactions":0},{"responses":{"01":"No","02":"No","03":"No","04":"No","05":"No","06":"No","07":"No","08":"No"},"rt":20795.69999998808,"item_order":[0,1,2,3,4,5,6,7],"radio_events":[4965,9375.59999999404,10960,13175.799999982119,15568.699999988079,16985.19999998808,18636,20007],"checkbox_events":[],"key_events":[],"mouse_events":[4965,9375.59999999404,10960,13175.799999982119,15568.699999988079,16985.19999998808,18636,20007,20792.69999998808],"honeypot":0,"survey":"mace","page":2,"trial_type":"survey-mace","trial_index":10,"time_elapsed":417788,"internal_node_id":"0.0-10.0","task_version":"prescreen-v0.3","browser_interactions":0},{"responses":{"01":"No","02":"No","03":"No","04":"No"},"rt":10231.800000011921,"item_order":[0,1,2,3],"radio_events":[2227.4000000059605,4152.9000000059605,7753,9038.90000000596],"checkbox_events":[],"key_events":[],"mouse_events":[2227.4000000059605,4152.9000000059605,7753,9038.90000000596,10230.199999988079],"honeypot":0,"survey":"mace","page":3,"trial_type":"survey-mace","trial_index":11,"time_elapsed":428023,"internal_node_id":"0.0-11.0","task_version":"prescreen-v0.3","browser_interactions":0},{"responses":{"01":"No","02":"No"},"rt":11120.299999982119,"item_order":[0,1],"radio_events":[2897.7999999821186,4610.5999999940395],"checkbox_events":[],"key_events":[],"mouse_events":[2897.7999999821186,4610.5999999940395,11119.40000000596],"honeypot":0,"survey":"mace","page":4,"trial_type":"survey-mace","trial_index":12,"time_elapsed":439145,"internal_node_id":"0.0-12.0","task_version":"prescreen-v0.3","browser_interactions":0},{"responses":{"01":"No","02":"No","03":"No","04":"No","05":"No"},"rt":25947.5,"item_order":[0,1,2,3,4],"radio_events":[11190.699999988079,14389.59999999404,18824.899999976158,22220.69999998808,25091.79999998212],"checkbox_events":[],"key_events":[],"mouse_events":[11190.699999988079,14389.59999999404,18824.899999976158,22220.69999998808,25091.79999998212,25945.5],"honeypot":0,"survey":"mace","page":5,"trial_type":"survey-mace","trial_index":13,"time_elapsed":465096,"internal_node_id":"0.0-13.0","task_version":"prescreen-v0.3","browser_interactions":0},{"responses":{"01":"Yes","01_ages_8":"8","01_ages_9":"9","01_ages_10":"10","01_ages_11":"11","01_ages_12":"12","02":"Yes","02_ages_7":"7","02_ages_8":"8","02_ages_9":"9","02_ages_10":"10","02_ages_11":"11","02_ages_12":"12","02_ages_13":"13","02_ages_14":"14","02_ages_15":"15","02_ages_16":"16","03":"No","04":"Yes","04_ages_9":"9","04_ages_10":"10","04_ages_11":"11","04_ages_12":"12","04_ages_13":"13","04_ages_14":"14","04_ages_15":"15","04_ages_16":"16","05":"Yes","05_ages_8":"8","05_ages_9":"9","05_ages_10":"10","05_ages_11":"11"},"rt":51739,"item_order":[0,1,2,3,4],"radio_events":[9225.300000011921,19970.80000001192,35392.80000001192,36719.70000001788,46855.80000001192],"checkbox_events":[14567,15239.09999999404,15736.800000011921,16359.700000017881,16732.90000000596,21722.59999999404,22525.5,22968,23517,24331,24999,25628.70000001788,26936.90000000596,27900.90000000596,29420.90000000596,38659.40000000596,39850,40310.80000001192,40768.40000000596,41426.80000001192,41945.09999999404,42556.90000000596,43429.90000000596,48100.80000001192,48934.70000001788,49425.80000001192,50353.5],"key_events":[],"mouse_events":[9225.300000011921,14567,15239.09999999404,15736.800000011921,16359.700000017881,16732.90000000596,19970.80000001192,21722.59999999404,22100.40000000596,22525.5,22968,23517,23957.59999999404,24331,24999,25628.70000001788,26221.40000000596,26936.90000000596,27900.90000000596,29420.90000000596,35392.80000001192,36719.70000001788,38659.40000000596,39509.5,39850,40310.80000001192,40768.40000000596,41426.80000001192,41945.09999999404,42556.90000000596,43429.90000000596,46855.80000001192,48100.80000001192,48498.90000000596,48934.70000001788,49425.80000001192,49925.59999999404,50353.5,51737.09999999404],"honeypot":0,"survey":"mace","page":6,"trial_type":"survey-mace","trial_index":14,"time_elapsed":516839,"internal_node_id":"0.0-14.0","task_version":"prescreen-v0.3","browser_interactions":0},{"responses":{"01":"No","02":"No","03":"Yes","03_ages_10":"10","03_ages_11":"11","03_ages_12":"12","04":"No","05":"No","06":"No","07":"No"},"rt":24332.40000000596,"item_order":[0,1,2,3,4,5,6],"radio_events":[6258.699999988079,8824.699999988079,10596.699999988079,19593.5,20639.69999998808,21698.19999998808,23711.59999999404],"checkbox_events":[11619.699999988079,12394.300000011921,13454.40000000596,13966.59999999404,14361.199999988079],"key_events":[],"mouse_events":[6258.699999988079,8824.699999988079,10596.699999988079,11619.699999988079,12394.300000011921,13454.40000000596,13966.59999999404,14361.199999988079,19593.5,20639.69999998808,21698.19999998808,22655.59999999404,23711.59999999404,24329.69999998808],"honeypot":0,"survey":"mace","page":7,"trial_type":"survey-mace","trial_index":15,"time_elapsed":541175,"internal_node_id":"0.0-15.0","task_version":"prescreen-v0.3","browser_interactions":0},{"responses":{"01":"No","02":"Yes","02_ages_4":"4","02_ages_5":"5","02_ages_6":"6","02_ages_7":"7","02_ages_8":"8","02_ages_9":"9","02_ages_10":"10","02_ages_11":"11","02_ages_12":"12","03":"No","04":"Yes","04_ages_4":"4","04_ages_5":"5","04_ages_6":"6","04_ages_7":"7","04_ages_8":"8","04_ages_9":"9","04_ages_10":"10","04_ages_11":"11","04_ages_12":"12"},"rt":40840.90000000596,"item_order":[0,1,2,3],"radio_events":[9483.09999999404,12849.40000000596,30143.79999998212,34397.69999998808],"checkbox_events":[16409.5,17110,17875.40000000596,19768.29999998212,20174.5,21124.59999999404,22122,22692,23685.09999999404,36035.90000000596,36596.09999999404,37268.40000000596,37663.29999998212,38146.40000000596,38617.29999998212,39100.29999998212,39557.29999998212,40078.5],"key_events":[],"mouse_events":[9483.09999999404,12849.40000000596,16409.5,17110,17875.40000000596,18400.69999998808,19141.59999999404,19768.29999998212,20174.5,20697.69999998808,21124.59999999404,21654.59999999404,22122,22692,23685.09999999404,30143.79999998212,34397.69999998808,36035.90000000596,36596.09999999404,37268.40000000596,37663.29999998212,38146.40000000596,38617.29999998212,39100.29999998212,39557.29999998212,40078.5,40839.40000000596],"honeypot":0,"survey":"mace","page":8,"trial_type":"survey-mace","trial_index":16,"time_elapsed":582018,"internal_node_id":"0.0-16.0","task_version":"prescreen-v0.3","browser_interactions":0},{"responses":{"01":"Yes","01_ages_4":"4","01_ages_5":"5","01_ages_6":"6","01_ages_7":"7","01_ages_8":"8","01_ages_9":"9","01_ages_10":"10","01_ages_11":"11","01_ages_12":"12","01_ages_13":"13","01_ages_14":"14","01_ages_15":"15","01_ages_16":"16","02":"Yes","02_ages_4":"4","02_ages_5":"5","02_ages_6":"6","02_ages_7":"7","02_ages_8":"8","02_ages_9":"9","02_ages_10":"10","02_ages_11":"11","02_ages_12":"12","02_ages_13":"13","02_ages_14":"14","02_ages_15":"15","02_ages_16":"16","02_ages_17":"17","02_ages_18":"18","03":"Yes","03_ages_1":"1","03_ages_2":"2","03_ages_3":"3","03_ages_4":"4","03_ages_5":"5","03_ages_6":"6","03_ages_7":"7","03_ages_8":"8","03_ages_9":"9","03_ages_10":"10","03_ages_11":"11","03_ages_12":"12","03_ages_13":"13","03_ages_14":"14","03_ages_15":"15","03_ages_16":"16","03_ages_17":"17","03_ages_18":"18","04":"Yes","04_ages_1":"1","04_ages_2":"2","04_ages_3":"3","04_ages_4":"4","04_ages_5":"5","04_ages_6":"6","04_ages_7":"7","04_ages_8":"8","04_ages_9":"9","04_ages_10":"10","04_ages_11":"11","04_ages_12":"12","04_ages_13":"13","04_ages_14":"14","04_ages_15":"15","04_ages_16":"16","04_ages_17":"17","04_ages_18":"18"},"rt":63946.40000000596,"item_order":[0,1,2,3],"radio_events":[4906.4000000059605,20413.70000001788,31306.80000001192,52699.60000002384],"checkbox_events":[9258,9686.40000000596,10116,10568,11001.700000017881,11477.40000000596,11932.800000011921,13591.90000000596,14645.700000017881,15118.700000017881,15610.800000011921,16192.800000011921,16696.600000023842,21384.30000001192,21886.5,22471.30000001192,22884.80000001192,23378.80000001192,23823.80000001192,24319.80000001192,25493.70000001788,26054.5,26711.5,27063.40000000596,27593.600000023842,28006.600000023842,32729.5,33304.90000000596,33721.60000002384,34088.80000001192,35327.60000002384,35811.90000000596,36787.90000000596,37182.90000000596,37670.60000002384,39448.40000000596,40299.70000001788,41113.60000002384,41501.90000000596,41904.70000001788,42430.70000001788,43838.60000002384,45073,45495.30000001192,46477.70000001788,47172.90000000596,53729.40000000596,54388.60000002384,54947.70000001788,55511.80000001192,56027.40000000596,56569.5,57103.70000001788,57663.40000000596,58206.90000000596,58784.60000002384,59313.80000001192,59783.5,60276.60000002384,60917.60000002384,61413.90000000596,62073.90000000596,62778.40000000596,63352.40000000596],"key_events":[],"mouse_events":[4906.4000000059605,9258,9686.40000000596,10116,10568,11001.700000017881,11477.40000000596,11932.800000011921,12387.200000017881,13019.300000011921,13591.90000000596,14214.90000000596,14645.700000017881,15118.700000017881,15610.800000011921,16192.800000011921,16696.600000023842,20413.70000001788,21384.30000001192,21886.5,22471.30000001192,22884.80000001192,23378.80000001192,23823.80000001192,24319.80000001192,24827.70000001788,25493.70000001788,26054.5,26711.5,27063.40000000596,27593.600000023842,28006.600000023842,31306.80000001192,32271.70000001788,32729.5,33304.90000000596,33721.60000002384,34088.80000001192,34460.80000001192,34892.5,35327.60000002384,35811.90000000596,36787.90000000596,37182.90000000596,37670.60000002384,39072.60000002384,39448.40000000596,39954.5,40299.70000001788,41113.60000002384,41501.90000000596,41904.70000001788,42430.70000001788,42998.30000001192,43512.70000001788,43838.60000002384,44200.20000001788,45073,45495.30000001192,46477.70000001788,47172.90000000596,52699.60000002384,53729.40000000596,54388.60000002384,54947.70000001788,55511.80000001192,56027.40000000596,56569.5,57103.70000001788,57663.40000000596,58206.90000000596,58784.60000002384,59313.80000001192,59783.5,60276.60000002384,60917.60000002384,61413.90000000596,62073.90000000596,62778.40000000596,63352.40000000596,63944.80000001192],"honeypot":0,"survey":"mace","page":9,"trial_type":"survey-mace","trial_index":17,"time_elapsed":645968,"internal_node_id":"0.0-17.0","task_version":"prescreen-v0.3","browser_interactions":0},{"responses":{"01":"No","02":"No","03":"No","04":"Yes","04_ages_5":"5","04_ages_6":"6","04_ages_7":"7","04_ages_8":"8","04_ages_9":"9","04_ages_10":"10","04_ages_11":"11","05":"No","06":"Yes","06_ages_17":"17","07":"Yes","07_ages_5":"5","07_ages_6":"6","07_ages_7":"7","07_ages_8":"8","07_ages_9":"9","07_ages_10":"10","07_ages_11":"11","07_ages_12":"12","07_ages_13":"13","07_ages_14":"14","07_ages_15":"15","07_ages_16":"16","07_ages_17":"17","07_ages_18":"18","08":"Yes","08_ages_5":"5","08_ages_6":"6","08_ages_7":"7","08_ages_8":"8","08_ages_9":"9","08_ages_10":"10","08_ages_11":"11","08_ages_12":"12","08_ages_13":"13","08_ages_14":"14","08_ages_15":"15","08_ages_16":"16","08_ages_17":"17","08_ages_18":"18"},"rt":50960.5,"item_order":[0,1,2,3,4,5,6,7],"radio_events":[5085.899999976158,5900.5,7895.5999999940395,10332.699999988079,24554.59999999404,25875.399999976158,29710.399999976158,41176.19999998808],"checkbox_events":[13227.299999982119,13659.899999976158,14167.199999988079,14690.199999988079,16509.29999998212,18241.29999998212,19000.69999998808,26866.79999998212,31432.19999998808,32037.5,32391.5,32862.19999998808,33295.79999998212,33695.5,34065.09999999404,34405.29999998212,35365.19999998808,35727.39999997616,36079.39999997616,36413.59999999404,36765.89999997616,37131.5,42343.39999997616,42708.19999998808,44019.39999997616,44491.29999998212,45300.5,45694.69999998808,46147.39999997616,46925.79999998212,47444.69999998808,47794.09999999404,48198.29999998212,48922.59999999404,49324.29999998212,49943.5],"key_events":[],"mouse_events":[5085.899999976158,5900.5,7895.5999999940395,10332.699999988079,12598.5,13227.299999982119,13659.899999976158,14167.199999988079,14690.199999988079,16020.699999988079,16509.29999998212,18241.29999998212,19000.69999998808,22939.899999976158,24554.59999999404,25413.19999998808,25875.399999976158,26866.79999998212,29710.399999976158,31432.19999998808,32037.5,32391.5,32862.19999998808,33295.79999998212,33695.5,34065.09999999404,34405.29999998212,34777.59999999404,35365.19999998808,35727.39999997616,36079.39999997616,36413.59999999404,36765.89999997616,37131.5,41176.19999998808,42343.39999997616,42708.19999998808,43134.5,43680.69999998808,44019.39999997616,44491.29999998212,44885.39999997616,45300.5,45694.69999998808,46147.39999997616,46532.5,46925.79999998212,47444.69999998808,47794.09999999404,48198.29999998212,48922.59999999404,49324.29999998212,49943.5,50957.5],"honeypot":0,"survey":"mace","page":10,"trial_type":"survey-mace","trial_index":18,"time_elapsed":696932,"internal_node_id":"0.0-18.0","task_version":"prescreen-v0.3","browser_interactions":0,"instructed":0},{"rt":7572.0999999940395,"trial_type":"mental-health-alert","trial_index":19,"time_elapsed":704506,"internal_node_id":"0.0-19.0","task_version":"prescreen-v0.3","interactions":"[]"}]