[{"view_history":[{"page_index":0,"viewing_time":1777},{"page_index":1,"viewing_time":1073},{"page_index":2,"viewing_time":1256.000000000001},{"page_index":3,"viewing_time":852.9999999999991}],"rt":4960,"trial_type":"instructions","trial_index":0,"time_elapsed":4965,"internal_node_id":"0.0-0.0","task_version":"prescreen-v0.3"},{"rt":10824,"responses":{"age":"22","gender-categorical":"Female","gender-free-response":"","ethnicity":"Not Hispanic or Latino","race":["White"],"education":"Bachelor degree"},"trial_type":"survey-demo","trial_index":1,"time_elapsed":15794,"internal_node_id":"0.0-1.0","task_version":"prescreen-v0.3"},{"responses":{"Q11":"2","Q04":"1","Q06":"1","Q18":"0","Q01":"1","Q12":"1","Q21":"3","Q15":"2","Q20":"0","Q09":"2","Q16":"1","Q08":"2","Q19":"0","Q17":"1","Q07":"0","Q14":"1","Q02":"0","Q13":"1","Q10":"2","Q03":"0","Q05":"0"},"rt":73890,"item_order":[10,3,5,17,0,11,20,14,19,8,15,7,18,16,6,13,1,12,9,2,4],"radio_events":[5002,9077,13386,16243.000000000004,17555,22126,25483,29480,32664,36439,40494,42463,45499,48043.00000000001,56526,57612,60632,65688,66787,68814.00000000001,72892],"key_events":[],"mouse_events":[5002,9077,13386,16243.000000000004,17555,22126,24826,25483,29480,32664,36439,40494,42463,45499,48043.00000000001,55485,56526,57612,60632,63086,65688,66787,68814.00000000001,71170,71752,72892,73879],"straightlining":0.38095238095238093,"zigzagging":0.6,"honeypot":0,"survey":"sns","trial_type":"survey-template","trial_index":2,"time_elapsed":89687,"internal_node_id":"0.0-2.0","task_version":"prescreen-v0.3","browser_interactions":0,"infrequency":0},{"responses":{"Q09":"2","Q08":"3","Q11":"2","Q05":"3","Q10":"2","Q02":"2","Q04":"3","Q13":"0","Q01":"3","Q03":"3","Q06":"2","Q07":"3","Q12":"2"},"rt":33373,"item_order":[8,7,10,4,9,1,3,12,0,2,5,6,11],"radio_events":[5540,7814,10719,12394,14945,16512,19205.000000000015,21248,25466,26926,29169.000000000015,30802,32697],"key_events":[],"mouse_events":[5540,7814,10719,12394,14945,16512,19205.000000000015,21248,25466,26926,29169.000000000015,30802,32697,33363],"straightlining":0.46153846153846156,"zigzagging":0.8333333333333334,"honeypot":0,"survey":"bisbas","trial_type":"survey-template","trial_index":3,"time_elapsed":123064,"internal_node_id":"0.0-3.0","task_version":"prescreen-v0.3","browser_interactions":0,"infrequency":0},{"responses":{"Q01":"3","Q02":"2","Q03":"3"},"rt":14737,"radio_events":[5516,8398,11812,14148],"key_events":[],"mouse_events":[5516,8398,11812,14148,14732],"survey":"map","page":1,"trial_type":"survey-map","trial_index":4,"time_elapsed":137804,"internal_node_id":"0.0-4.0","task_version":"prescreen-v0.3","browser_interactions":0},{"responses":{"Q04":"2","Q05":"2","Q06":"2"},"rt":11752.00000000003,"radio_events":[7612,9811,11058],"key_events":[],"mouse_events":[7612,9811,11058,11747],"survey":"map","page":2,"trial_type":"survey-map","trial_index":5,"time_elapsed":149558,"internal_node_id":"0.0-5.0","task_version":"prescreen-v0.3","browser_interactions":0},{"responses":{"Q07":"3","Q08":"4","Q09":"2"},"rt":7161,"radio_events":[3004,4932,6393],"key_events":[],"mouse_events":[3004,4932,6393,7156],"survey":"map","page":3,"trial_type":"survey-map","trial_index":6,"time_elapsed":156721,"internal_node_id":"0.0-6.0","task_version":"prescreen-v0.3","browser_interactions":0},{"responses":{"Q10":"2","Q11":"2","Q12":"1","Q13":"1","Q16":"0","Q14":"2","Q15":"2"},"rt":24929,"radio_events":[5466,7460,11596.00000000003,14870.00000000003,18260,22510,24126.00000000003],"key_events":[],"mouse_events":[5466,7460,10029,11596.00000000003,14870.00000000003,18260,22510,24126.00000000003,24923],"survey":"map","page":4,"trial_type":"survey-map","trial_index":7,"time_elapsed":181652,"internal_node_id":"0.0-7.0","task_version":"prescreen-v0.3","browser_interactions":0,"infrequency":0},{"view_history":[{"page_index":0,"viewing_time":1674},{"page_index":1,"viewing_time":2568}],"rt":4242,"trial_type":"instructions","trial_index":8,"time_elapsed":185897,"internal_node_id":"0.0-8.0","task_version":"prescreen-v0.3"},{"responses":{"01":"No","02":"No","03":"No","04":"No","05":"No","06":"No"},"rt":21705,"item_order":[0,1,2,3,4,5],"radio_events":[5228,10020,12194,17578,18931,19793,20917],"checkbox_events":[],"key_events":[],"mouse_events":[1,5228,10020,12194,17578,18931,19793,20917,21696.00000000003],"honeypot":0,"survey":"mace","page":1,"trial_type":"survey-mace","trial_index":9,"time_elapsed":207608,"internal_node_id":"0.0-9.0","task_version":"prescreen-v0.3","browser_interactions":0},{"responses":{"01":"No","02":"No","03":"Yes","03_ages_6":"6","03_ages_7":"7","03_ages_8":"8","03_ages_9":"9","03_ages_10":"10","04":"No","05":"No","06":"No","07":"No","08":"No"},"rt":22167,"item_order":[0,1,2,3,4,5,6,7],"radio_events":[2366,3440,4934,16554,17645,18966,20320,21001],"checkbox_events":[8430,9341,10194.00000000003,12238,13050],"key_events":[],"mouse_events":[2366,3440,4934,8430,9341,10194.00000000003,12238,13050,16554,17645,18966,20320,21001,21600,22158],"honeypot":0,"survey":"mace","page":2,"trial_type":"survey-mace","trial_index":10,"time_elapsed":229780,"internal_node_id":"0.0-10.0","task_version":"prescreen-v0.3","browser_interactions":0},{"responses":{"01":"No","02":"No","03":"No","04":"No"},"rt":7188,"item_order":[0,1,2,3],"radio_events":[2284.000000000029,3293,5698,6560],"checkbox_events":[],"key_events":[],"mouse_events":[2284.000000000029,3293,4179,5000,5698,6560,7183.000000000029],"honeypot":0,"survey":"mace","page":3,"trial_type":"survey-mace","trial_index":11,"time_elapsed":236973,"internal_node_id":"0.0-11.0","task_version":"prescreen-v0.3","browser_interactions":0},{"responses":{"01":"No","02":"No"},"rt":3763,"item_order":[0,1],"radio_events":[1880,3044],"checkbox_events":[],"key_events":[],"mouse_events":[1880,3044,3759],"honeypot":0,"survey":"mace","page":4,"trial_type":"survey-mace","trial_index":12,"time_elapsed":240738,"internal_node_id":"0.0-12.0","task_version":"prescreen-v0.3","browser_interactions":0},{"responses":{"01":"No","02":"No","03":"No","04":"No","05":"No"},"rt":9412,"item_order":[0,1,2,3,4],"radio_events":[5122,5950,6935,7788,8526],"checkbox_events":[],"key_events":[],"mouse_events":[5122,5950,6935,7788,8526,9406],"honeypot":0,"survey":"mace","page":5,"trial_type":"survey-mace","trial_index":13,"time_elapsed":250155,"internal_node_id":"0.0-13.0","task_version":"prescreen-v0.3","browser_interactions":0},{"responses":{"01":"No","02":"Yes","02_ages_10":"10","02_ages_11":"11","02_ages_12":"12","03":"Yes","03_ages_9":"9","03_ages_10":"10","03_ages_11":"11","03_ages_12":"12","04":"Yes","04_ages_5":"5","04_ages_6":"6","04_ages_7":"7","04_ages_8":"8","04_ages_9":"9","04_ages_10":"10","05":"No"},"rt":35452,"item_order":[0,1,2,3,4],"radio_events":[5527,6897.000000000029,15923,26655,34754],"checkbox_events":[12419,13461,14224,18056,18770,19738,22216.00000000006,23069,23586,28945,29437,30191,31070,32194,32785],"key_events":[],"mouse_events":[5527,6897.000000000029,12419,13461,14224,15923,18056,18770,19738,22216.00000000006,23069,23586,26655,28945,29437,30191,31070,32194,32785,34754,35443],"honeypot":0,"survey":"mace","page":6,"trial_type":"survey-mace","trial_index":14,"time_elapsed":285611,"internal_node_id":"0.0-14.0","task_version":"prescreen-v0.3","browser_interactions":0},{"responses":{"01":"No","02":"No","03":"No","04":"No","05":"No","06":"No","07":"No"},"rt":10382,"item_order":[0,1,2,3,4,5,6],"radio_events":[2293,3859,5780,6592,7757,8798,9529],"checkbox_events":[],"key_events":[],"mouse_events":[2293,3859,5780,6592,7757,8798,9529,10374],"honeypot":0,"survey":"mace","page":7,"trial_type":"survey-mace","trial_index":15,"time_elapsed":295998,"internal_node_id":"0.0-15.0","task_version":"prescreen-v0.3","browser_interactions":0},{"responses":{"01":"No","02":"No","03":"No","04":"No"},"rt":7623,"item_order":[0,1,2,3],"radio_events":[3474,4312.000000000058,6190,6814],"checkbox_events":[],"key_events":[],"mouse_events":[3474,4312.000000000058,5214,6190,6814,7617],"honeypot":0,"survey":"mace","page":8,"trial_type":"survey-mace","trial_index":16,"time_elapsed":303625,"internal_node_id":"0.0-16.0","task_version":"prescreen-v0.3","browser_interactions":0},{"responses":{"01":"Yes","01_ages_1":"1","01_ages_2":"2","01_ages_3":"3","01_ages_4":"4","01_ages_5":"5","01_ages_6":"6","01_ages_7":"7","01_ages_8":"8","01_ages_9":"9","01_ages_10":"10","01_ages_11":"11","01_ages_12":"12","01_ages_13":"13","01_ages_14":"14","01_ages_15":"15","01_ages_16":"16","01_ages_17":"17","01_ages_18":"18","02":"Yes","02_ages_1":"1","02_ages_2":"2","02_ages_3":"3","02_ages_4":"4","02_ages_5":"5","02_ages_6":"6","02_ages_7":"7","02_ages_8":"8","02_ages_9":"9","02_ages_10":"10","02_ages_11":"11","02_ages_12":"12","02_ages_13":"13","02_ages_14":"14","02_ages_15":"15","02_ages_16":"16","02_ages_17":"17","02_ages_18":"18","03":"Yes","03_ages_1":"1","03_ages_2":"2","03_ages_3":"3","03_ages_4":"4","03_ages_5":"5","03_ages_6":"6","03_ages_7":"7","03_ages_8":"8","03_ages_9":"9","03_ages_10":"10","03_ages_11":"11","03_ages_12":"12","03_ages_13":"13","03_ages_14":"14","03_ages_15":"15","03_ages_16":"16","03_ages_17":"17","03_ages_18":"18","04":"Yes","04_ages_1":"1","04_ages_2":"2","04_ages_3":"3","04_ages_4":"4","04_ages_5":"5","04_ages_6":"6","04_ages_7":"7","04_ages_8":"8","04_ages_9":"9","04_ages_10":"10","04_ages_11":"11","04_ages_12":"12","04_ages_13":"13","04_ages_14":"14","04_ages_15":"15","04_ages_16":"16","04_ages_17":"17","04_ages_18":"18"},"rt":70084.00000000006,"item_order":[0,1,2,3],"radio_events":[3264,21045,21972,24588],"checkbox_events":[5660,6743,8195,9213,10468,11034,11781.000000000058,12429,13602,14137,15277,15834.000000000058,16384,16942.00000000006,17459.00000000006,17943,18518,19108.00000000006,27263,27846.00000000006,28379,28880,29380,29881,30422,30940,31932,32441,32971.00000000006,33538,34139,35271,35797,36560.00000000006,37576,38102,41450,42336,43148,44017,44691,45494,46086,47505,48128,49022,49646,50565,51229,52173.00000000006,52772,53625,54249,55086,55742,56522,57187,58023,58704.00000000006,59500,60197.00000000006,60952,61617,62429,63077,64537,65144.00000000006,65801,66728,68106,68623,69277],"key_events":[],"mouse_events":[3264,5660,6743,7383,8195,8696,9213,9877,10468,11034,11781.000000000058,12429,13004,13602,14137,15277,15834.000000000058,16384,16942.00000000006,17459.00000000006,17943,18518,19108.00000000006,20289,21045,21972,24588,26459.00000000006,27263,27846.00000000006,28379,28880,29380,29881,30422,30940,31464,31932,32441,32971.00000000006,33538,34139,34697.00000000006,35271,35797,36560.00000000006,37109,37576,38102,41450,42336,43148,44017,44691,45494,46086,46832,47505,48128,49022,49646,50565,51229,52173.00000000006,52772,53625,54249,55086,55742,56522,57187,58023,58704.00000000006,59500,60197.00000000006,60952,61617,62429,63077,63915,64537,65144.00000000006,65801,66728,67573,68106,68623,69277,70076],"honeypot":0,"survey":"mace","page":9,"trial_type":"survey-mace","trial_index":17,"time_elapsed":373712,"internal_node_id":"0.0-17.0","task_version":"prescreen-v0.3","browser_interactions":0},{"responses":{"01":"No","02":"No","03":"No","04":"No","05":"No","06":"Yes","06_ages_17":"17","07":"Yes","07_ages_1":"1","07_ages_2":"2","07_ages_3":"3","07_ages_4":"4","07_ages_5":"5","07_ages_6":"6","07_ages_7":"7","07_ages_8":"8","07_ages_9":"9","07_ages_10":"10","07_ages_11":"11","07_ages_12":"12","07_ages_13":"13","07_ages_14":"14","07_ages_15":"15","07_ages_16":"16","07_ages_17":"17","07_ages_18":"18","08":"Yes","08_ages_1":"1","08_ages_2":"2","08_ages_3":"3","08_ages_4":"4","08_ages_5":"5","08_ages_6":"6","08_ages_7":"7","08_ages_8":"8","08_ages_9":"9","08_ages_10":"10","08_ages_11":"11","08_ages_12":"12","08_ages_13":"13","08_ages_14":"14","08_ages_15":"15","08_ages_16":"16","08_ages_17":"17","08_ages_18":"18"},"rt":40305.99999999994,"item_order":[0,1,2,3,4,5,6,7],"radio_events":[4133.999999999942,5044.999999999942,5840.999999999942,7383.999999999942,8728.999999999942,10196.999999999942,16045.999999999942,17827],"checkbox_events":[11993.999999999942,19393.99999999994,20255,21059.99999999994,21608.99999999994,22158.99999999994,22723.99999999994,23535.99999999994,24062.99999999994,24579.99999999994,25121.99999999994,25643.99999999994,26185.99999999994,26759.99999999994,27260.99999999994,27776.99999999994,28613.99999999994,29114.99999999994,29648.99999999994,30140.99999999994,30649.99999999994,31142,31616.99999999994,32226,32888.99999999994,33488.99999999994,34079.99999999994,34604.99999999994,35155.99999999994,35694.99999999994,36214.99999999994,36941.99999999994,37672.99999999994,38190,38697.99999999994,39207,39715.99999999994],"key_events":[],"mouse_events":[4133.999999999942,5044.999999999942,5840.999999999942,7383.999999999942,8728.999999999942,10196.999999999942,11993.999999999942,16045.999999999942,17827,19393.99999999994,20255,21059.99999999994,21608.99999999994,22158.99999999994,22723.99999999994,23535.99999999994,24062.99999999994,24579.99999999994,25121.99999999994,25643.99999999994,26185.99999999994,26759.99999999994,27260.99999999994,27776.99999999994,28613.99999999994,29114.99999999994,29648.99999999994,30140.99999999994,30649.99999999994,31142,31616.99999999994,32226,32888.99999999994,33488.99999999994,34079.99999999994,34604.99999999994,35155.99999999994,35694.99999999994,36214.99999999994,36941.99999999994,37672.99999999994,38190,38697.99999999994,39207,39715.99999999994,40298.99999999994],"honeypot":0,"survey":"mace","page":10,"trial_type":"survey-mace","trial_index":18,"time_elapsed":414025,"internal_node_id":"0.0-18.0","task_version":"prescreen-v0.3","browser_interactions":0,"instructed":0},{"rt":3460,"trial_type":"mental-health-alert","trial_index":19,"time_elapsed":417487,"internal_node_id":"0.0-19.0","task_version":"prescreen-v0.3","interactions":"[]"}]