[{"view_history":[{"page_index":0,"viewing_time":4609.39999999851},{"page_index":1,"viewing_time":3916.699999999255},{"page_index":2,"viewing_time":4948.900000002235},{"page_index":3,"viewing_time":2137}],"rt":15613,"trial_type":"instructions","trial_index":0,"time_elapsed":15623,"internal_node_id":"0.0-0.0","task_version":"prescreen-v0.3"},{"rt":13978.39999999851,"responses":{"age":"29","gender-categorical":"Female","gender-free-response":"","ethnicity":"Not Hispanic or Latino","race":["White"],"education":"Bachelor degree"},"trial_type":"survey-demo","trial_index":1,"time_elapsed":29605,"internal_node_id":"0.0-1.0","task_version":"prescreen-v0.3"},{"responses":{"Q05":"1","Q01":"2","Q12":"1","Q18":"2","Q21":"3","Q11":"1","Q04":"1","Q20":"1","Q16":"2","Q14":"3","Q09":"2","Q07":"3","Q15":"2","Q06":"1","Q08":"2","Q19":"1","Q03":"2","Q13":"0","Q17":"1","Q02":"2","Q10":"2"},"rt":131174.59999999776,"item_order":[4,0,11,17,20,10,3,19,15,13,8,6,14,5,7,18,2,12,16,1,9],"radio_events":[12709.39999999851,15678.099999997765,23082.79999999702,27717.79999999702,33756.29999999702,40326.39999999851,44795.5,50575.39999999851,55930.39999999851,59364,63413.199999999255,69724.09999999776,75246.69999999925,84651.89999999851,94090.69999999925,98950.5,102856.59999999776,106477.19999999925,110112.89999999851,115298.89999999851,118879.59999999776,126290.29999999702],"key_events":[],"mouse_events":[12709.39999999851,15678.099999997765,23082.79999999702,27717.79999999702,33756.29999999702,40326.39999999851,44795.5,50575.39999999851,55930.39999999851,59364,63413.199999999255,69724.09999999776,75246.69999999925,84651.89999999851,94090.69999999925,98950.5,102856.59999999776,106477.19999999925,110112.89999999851,115298.89999999851,118879.59999999776,126290.29999999702,131171.29999999702],"straightlining":0.42857142857142855,"zigzagging":0.75,"honeypot":0,"survey":"sns","trial_type":"survey-template","trial_index":2,"time_elapsed":160782,"internal_node_id":"0.0-2.0","task_version":"prescreen-v0.3","browser_interactions":0,"infrequency":0},{"responses":{"Q01":"3","Q03":"3","Q10":"1","Q12":"0","Q06":"2","Q04":"3","Q02":"2","Q13":"0","Q07":"2","Q08":"2","Q05":"2","Q11":"2","Q09":"1"},"rt":74321.89999999851,"item_order":[0,2,9,11,5,3,1,12,6,7,4,10,8],"radio_events":[9532.5,16868.5,26878.5,28713.300000000745,33842.300000000745,38437.199999999255,41953,47004.699999999255,51810.300000000745,55883,59829.199999999255,64794.39999999851,70376.19999999925],"key_events":[],"mouse_events":[9532.5,16868.5,26878.5,28713.300000000745,33842.300000000745,38437.199999999255,41953,47004.699999999255,51810.300000000745,55883,59829.199999999255,64794.39999999851,70376.19999999925,74319.59999999776],"straightlining":0.46153846153846156,"zigzagging":0.3333333333333333,"honeypot":0,"survey":"bisbas","trial_type":"survey-template","trial_index":3,"time_elapsed":235108,"internal_node_id":"0.0-3.0","task_version":"prescreen-v0.3","browser_interactions":0,"infrequency":0},{"responses":{"Q01":"2","Q02":"3","Q03":"2"},"rt":31899.5,"radio_events":[13548.5,23347.5,29773.699999999255],"key_events":[],"mouse_events":[13548.5,23347.5,29773.699999999255,31898.199999999255],"survey":"map","page":1,"trial_type":"survey-map","trial_index":4,"time_elapsed":267011,"internal_node_id":"0.0-4.0","task_version":"prescreen-v0.3","browser_interactions":0},{"responses":{"Q04":"2","Q05":"2","Q06":"2"},"rt":18818.20000000298,"radio_events":[8838.900000002235,12482.900000002235,15609.20000000298],"key_events":[],"mouse_events":[8838.900000002235,12482.900000002235,15609.20000000298,18817.300000000745],"survey":"map","page":2,"trial_type":"survey-map","trial_index":5,"time_elapsed":285831,"internal_node_id":"0.0-5.0","task_version":"prescreen-v0.3","browser_interactions":0},{"responses":{"Q07":"1","Q08":"1","Q09":"2"},"rt":22416.900000002235,"radio_events":[9188.300000000745,15643.60000000149,20527.900000002235],"key_events":[],"mouse_events":[9188.300000000745,15643.60000000149,20527.900000002235,22416.10000000149],"survey":"map","page":3,"trial_type":"survey-map","trial_index":6,"time_elapsed":308251,"internal_node_id":"0.0-6.0","task_version":"prescreen-v0.3","browser_interactions":0},{"responses":{"Q10":"1","Q11":"1","Q12":"2","Q13":"3","Q16":"0","Q14":"1","Q15":"1"},"rt":53585.599999997765,"radio_events":[6239.39999999851,11909.099999997765,20809.89999999851,29323.5,35828.39999999851,44792.199999999255,51837.199999999255],"key_events":[],"mouse_events":[6239.39999999851,11909.099999997765,20809.89999999851,29323.5,35828.39999999851,44792.199999999255,51837.199999999255,53583.39999999851],"survey":"map","page":4,"trial_type":"survey-map","trial_index":7,"time_elapsed":361839,"internal_node_id":"0.0-7.0","task_version":"prescreen-v0.3","browser_interactions":0,"infrequency":0},{"view_history":[{"page_index":0,"viewing_time":102833.5},{"page_index":1,"viewing_time":11718.699999999255}],"rt":114553.10000000149,"trial_type":"instructions","trial_index":8,"time_elapsed":476391,"internal_node_id":"0.0-8.0","task_version":"prescreen-v0.3"},{"responses":{"01":"Yes","01_ages_5":"5","01_ages_6":"6","01_ages_7":"7","01_ages_8":"8","01_ages_9":"9","01_ages_10":"10","01_ages_11":"11","01_ages_12":"12","01_ages_13":"13","01_ages_14":"14","01_ages_15":"15","01_ages_16":"16","01_ages_17":"17","02":"Yes","02_ages_5":"5","02_ages_6":"6","02_ages_7":"7","02_ages_8":"8","02_ages_9":"9","02_ages_10":"10","02_ages_11":"11","02_ages_12":"12","02_ages_13":"13","02_ages_14":"14","02_ages_15":"15","02_ages_16":"16","02_ages_17":"17","02_ages_18":"18","03":"Yes","03_ages_5":"5","03_ages_6":"6","03_ages_7":"7","03_ages_8":"8","03_ages_9":"9","03_ages_10":"10","03_ages_11":"11","03_ages_12":"12","03_ages_13":"13","03_ages_14":"14","03_ages_15":"15","03_ages_16":"16","03_ages_17":"17","03_ages_18":"18","04":"Yes","04_ages_8":"8","04_ages_9":"9","05":"No","06":"Yes","06_ages_7":"7","06_ages_8":"8","06_ages_9":"9","06_ages_16":"16","06_ages_17":"17"},"rt":100167,"item_order":[0,1,2,3,4,5],"radio_events":[7448.5,38481.699999999255,56599.60000000149,73871.40000000224,83567.90000000224,86389.60000000149],"checkbox_events":[17812.60000000149,19160,19915.199999999255,20622.199999999255,21343.60000000149,22244.300000000745,23188.900000002235,23963.400000002235,24729.800000000745,25515.800000000745,26494.60000000149,27734.199999999255,35376.60000000149,40175.5,40795.300000000745,41467.300000000745,42446.800000000745,44100.400000002235,44845.5,45891.10000000149,46789.60000000149,47680.199999999255,48510.900000002235,49422,50209.5,51289.699999999255,52921,58198.60000000149,60053.199999999255,62044.60000000149,62811.60000000149,64058.199999999255,64992.699999999255,65736.80000000075,66728.60000000149,67885.40000000224,68670.80000000075,69494.5,70416.90000000224,71417.19999999925,72151.10000000149,75940.5,76894.5,90597.30000000075,91680.30000000075,92466,94523.69999999925,96010.30000000075,97028.69999999925,97693],"key_events":[],"mouse_events":[0,7448.5,17812.60000000149,19160,19915.199999999255,20622.199999999255,21343.60000000149,22244.300000000745,23188.900000002235,23963.400000002235,24729.800000000745,25515.800000000745,26494.60000000149,27734.199999999255,35376.60000000149,38481.699999999255,40175.5,40795.300000000745,41467.300000000745,42446.800000000745,43257,44100.400000002235,44845.5,45891.10000000149,46789.60000000149,47680.199999999255,48510.900000002235,49422,50209.5,51289.699999999255,52921,56599.60000000149,58198.60000000149,59215.900000002235,60053.199999999255,61031.400000002235,62044.60000000149,62811.60000000149,64058.199999999255,64992.699999999255,65736.80000000075,66728.60000000149,67885.40000000224,68670.80000000075,69494.5,70416.90000000224,71417.19999999925,72151.10000000149,73871.40000000224,75940.5,76894.5,83567.90000000224,86389.60000000149,90597.30000000075,91680.30000000075,92466,94523.69999999925,96010.30000000075,97028.69999999925,97693,100162.80000000075],"honeypot":0,"survey":"mace","page":1,"trial_type":"survey-mace","trial_index":9,"time_elapsed":576566,"internal_node_id":"0.0-9.0","task_version":"prescreen-v0.3","browser_interactions":0},{"responses":{"01":"Yes","01_ages_5":"5","01_ages_6":"6","01_ages_7":"7","01_ages_8":"8","01_ages_9":"9","01_ages_10":"10","01_ages_11":"11","02":"No","03":"Yes","03_ages_5":"5","03_ages_6":"6","03_ages_7":"7","03_ages_8":"8","03_ages_9":"9","03_ages_10":"10","03_ages_11":"11","04":"No","05":"No","06":"No","07":"No","08":"No"},"rt":45748.79999999702,"item_order":[0,1,2,3,4,5,6,7],"radio_events":[4995.5,20880.5,22508.599999997765,33627.39999999851,36167.199999999255,38450.5,39880.599999997765,41996.599999997765],"checkbox_events":[9639.89999999851,10270.5,11847.39999999851,12532.29999999702,13363,14074,15525.599999997765,24298.699999999255,25166.89999999851,26133.5,27045.39999999851,28349.39999999851,29551.699999999255,30677.699999999255],"key_events":[],"mouse_events":[4995.5,9639.89999999851,10270.5,11149.39999999851,11847.39999999851,12532.29999999702,13363,14074,15525.599999997765,18427.29999999702,19989.79999999702,20880.5,22508.599999997765,24298.699999999255,25166.89999999851,26133.5,27045.39999999851,28349.39999999851,29551.699999999255,30677.699999999255,33627.39999999851,36167.199999999255,38450.5,39880.599999997765,41996.599999997765,45743.599999997765],"honeypot":0,"survey":"mace","page":2,"trial_type":"survey-mace","trial_index":10,"time_elapsed":622319,"internal_node_id":"0.0-10.0","task_version":"prescreen-v0.3","browser_interactions":0},{"responses":{"01":"Yes","01_ages_5":"5","01_ages_6":"6","01_ages_7":"7","01_ages_8":"8","01_ages_9":"9","01_ages_10":"10","01_ages_11":"11","01_ages_12":"12","01_ages_13":"13","01_ages_14":"14","01_ages_15":"15","01_ages_16":"16","02":"No","03":"No","04":"No"},"rt":29749.300000000745,"item_order":[0,1,2,3],"radio_events":[3272.300000000745,22894.10000000149,24605.10000000149,26088.39999999851],"checkbox_events":[6942.300000000745,7614.89999999851,8236.89999999851,8976.60000000149,9696.300000000745,10450.300000000745,11225.39999999851,12815.199999999255,13479,15230.89999999851,16741.39999999851,18830.800000000745],"key_events":[],"mouse_events":[3272.300000000745,6942.300000000745,7614.89999999851,8236.89999999851,8976.60000000149,9696.300000000745,10450.300000000745,11225.39999999851,11858.300000000745,12815.199999999255,13479,15230.89999999851,16741.39999999851,18830.800000000745,22894.10000000149,24605.10000000149,26088.39999999851,29746],"honeypot":0,"survey":"mace","page":3,"trial_type":"survey-mace","trial_index":11,"time_elapsed":652072,"internal_node_id":"0.0-11.0","task_version":"prescreen-v0.3","browser_interactions":0},{"responses":{"01":"No","02":"No"},"rt":10738.5,"item_order":[0,1],"radio_events":[7418.900000002235,9227.900000002235],"checkbox_events":[],"key_events":[],"mouse_events":[7418.900000002235,9227.900000002235,10736.699999999255],"honeypot":0,"survey":"mace","page":4,"trial_type":"survey-mace","trial_index":12,"time_elapsed":662813,"internal_node_id":"0.0-12.0","task_version":"prescreen-v0.3","browser_interactions":0},{"responses":{"01":"Yes","01_ages_5":"5","01_ages_6":"6","01_ages_7":"7","01_ages_8":"8","01_ages_9":"9","01_ages_10":"10","01_ages_11":"11","01_ages_12":"12","01_ages_13":"13","01_ages_14":"14","01_ages_15":"15","01_ages_16":"16","01_ages_17":"17","02":"No","03":"No","04":"Yes","04_ages_7":"7","04_ages_8":"8","04_ages_16":"16","04_ages_17":"17","05":"No"},"rt":47722.199999999255,"item_order":[0,1,2,3,4],"radio_events":[9758.400000002235,29853.5,34531.900000002235,36645.300000000745,45118.5],"checkbox_events":[11119.400000002235,13147.60000000149,13743.699999999255,14349.5,15318.199999999255,16252.699999999255,17177.199999999255,18183.5,19097,20121.199999999255,20943.699999999255,21752.10000000149,23171.400000002235,39685.10000000149,40832.199999999255,42037,42868.800000000745],"key_events":[],"mouse_events":[9758.400000002235,11119.400000002235,12480.300000000745,13147.60000000149,13743.699999999255,14349.5,15318.199999999255,16252.699999999255,17177.199999999255,18183.5,19097,20121.199999999255,20943.699999999255,21752.10000000149,23171.400000002235,29853.5,34531.900000002235,36645.300000000745,39685.10000000149,40832.199999999255,42037,42868.800000000745,45118.5,47718.60000000149],"honeypot":0,"survey":"mace","page":5,"trial_type":"survey-mace","trial_index":13,"time_elapsed":710538,"internal_node_id":"0.0-13.0","task_version":"prescreen-v0.3","browser_interactions":0},{"responses":{"01":"Yes","01_ages_5":"5","01_ages_6":"6","01_ages_7":"7","01_ages_8":"8","01_ages_9":"9","01_ages_10":"10","01_ages_11":"11","01_ages_12":"12","01_ages_13":"13","01_ages_14":"14","01_ages_15":"15","01_ages_16":"16","01_ages_17":"17","01_ages_18":"18","02":"Yes","02_ages_5":"5","02_ages_6":"6","02_ages_7":"7","02_ages_8":"8","02_ages_9":"9","02_ages_10":"10","02_ages_11":"11","02_ages_12":"12","02_ages_13":"13","02_ages_14":"14","02_ages_15":"15","02_ages_16":"16","02_ages_17":"17","02_ages_18":"18","03":"Yes","03_ages_7":"7","03_ages_8":"8","03_ages_9":"9","03_ages_10":"10","03_ages_11":"11","03_ages_12":"12","03_ages_13":"13","03_ages_14":"14","03_ages_15":"15","03_ages_16":"16","03_ages_17":"17","03_ages_18":"18","04":"Yes","04_ages_7":"7","04_ages_8":"8","04_ages_9":"9","04_ages_10":"10","04_ages_11":"11","04_ages_12":"12","04_ages_13":"13","04_ages_14":"14","04_ages_15":"15","04_ages_16":"16","04_ages_17":"17","04_ages_18":"18","05":"No"},"rt":77458.5,"item_order":[0,1,2,3,4],"radio_events":[8272,23559.900000002235,40287.300000000745,56320.300000000745,74104.10000000149],"checkbox_events":[9597,10204.5,10972.300000000745,12479.10000000149,13311.400000002235,14740.300000000745,15606.300000000745,16347.400000002235,16990.400000002235,17621.300000000745,18318.60000000149,19069.800000000745,19778.800000000745,20889,26193.400000002235,26955.400000002235,27844.800000000745,28588.300000000745,29363.5,30088.300000000745,31051.699999999255,32299.60000000149,32985.60000000149,33840.800000000745,34786.10000000149,35865.60000000149,36655.300000000745,37510.300000000745,43416,44149.300000000745,44834.10000000149,46296.60000000149,47296,48206.900000002235,49231.199999999255,50119.400000002235,50786.400000002235,51834.300000000745,52561.5,53385.199999999255,60113.900000002235,61640,62609.199999999255,63442.60000000149,64713.300000000745,65748,66702.10000000149,67840.5,68549.60000000149,69806.80000000075,70619.40000000224,71360.40000000224],"key_events":[],"mouse_events":[8272,9597,10204.5,10972.300000000745,11701.10000000149,12479.10000000149,13311.400000002235,14052.199999999255,14740.300000000745,15606.300000000745,16347.400000002235,16990.400000002235,17621.300000000745,18318.60000000149,19069.800000000745,19778.800000000745,20889,23559.900000002235,26193.400000002235,26955.400000002235,27844.800000000745,28588.300000000745,29363.5,30088.300000000745,31051.699999999255,32299.60000000149,32985.60000000149,33840.800000000745,34786.10000000149,35865.60000000149,36655.300000000745,37510.300000000745,40287.300000000745,43416,44149.300000000745,44834.10000000149,45439.5,46296.60000000149,47296,48206.900000002235,49231.199999999255,50119.400000002235,50786.400000002235,51834.300000000745,52561.5,53385.199999999255,56320.300000000745,60113.900000002235,61640,62609.199999999255,63442.60000000149,64713.300000000745,65748,66702.10000000149,67840.5,68549.60000000149,69806.80000000075,70619.40000000224,71360.40000000224,74104.10000000149,77456.10000000149],"honeypot":0,"survey":"mace","page":6,"trial_type":"survey-mace","trial_index":14,"time_elapsed":787998,"internal_node_id":"0.0-14.0","task_version":"prescreen-v0.3","browser_interactions":0},{"responses":{"01":"No","02":"No","03":"No","04":"No","05":"No","06":"No","07":"No"},"rt":24032.39999999851,"item_order":[0,1,2,3,4,5,6],"radio_events":[9423.199999999255,13080.599999997765,16060.099999997765,18233.79999999702,20236.39999999851,21541.599999997765,22631.699999999255],"checkbox_events":[],"key_events":[],"mouse_events":[9423.199999999255,13080.599999997765,16060.099999997765,18233.79999999702,20236.39999999851,21541.599999997765,22631.699999999255,24027.29999999702],"honeypot":0,"survey":"mace","page":7,"trial_type":"survey-mace","trial_index":15,"time_elapsed":812034,"internal_node_id":"0.0-15.0","task_version":"prescreen-v0.3","browser_interactions":2},{"responses":{"01":"Yes","01_ages_5":"5","01_ages_6":"6","01_ages_7":"7","01_ages_8":"8","01_ages_9":"9","01_ages_10":"10","01_ages_11":"11","01_ages_12":"12","01_ages_13":"13","01_ages_14":"14","01_ages_15":"15","01_ages_16":"16","01_ages_17":"17","01_ages_18":"18","02":"Yes","02_ages_5":"5","02_ages_6":"6","02_ages_7":"7","02_ages_8":"8","02_ages_9":"9","02_ages_10":"10","02_ages_11":"11","02_ages_12":"12","02_ages_13":"13","02_ages_14":"14","02_ages_15":"15","02_ages_16":"16","02_ages_17":"17","03":"Yes","03_ages_5":"5","03_ages_6":"6","03_ages_7":"7","03_ages_8":"8","03_ages_9":"9","03_ages_10":"10","03_ages_11":"11","03_ages_12":"12","03_ages_13":"13","03_ages_14":"14","03_ages_15":"15","03_ages_16":"16","03_ages_17":"17","03_ages_18":"18","04":"Yes","04_ages_5":"5","04_ages_6":"6","04_ages_7":"7","04_ages_8":"8","04_ages_9":"9","04_ages_10":"10","04_ages_11":"11","04_ages_12":"12","04_ages_13":"13","04_ages_14":"14","04_ages_15":"15","04_ages_16":"16","04_ages_17":"17","04_ages_18":"18"},"rt":86654.39999999851,"item_order":[0,1,2,3],"radio_events":[8427.699999999255,34550.199999999255,52346.89999999851,69075.09999999776],"checkbox_events":[11028.199999999255,11646.699999999255,12432.89999999851,13165.89999999851,13826.5,14434.5,15300.599999997765,16054,16964.699999999255,17688.5,20363.29999999702,21015.5,22106.5,25167.099999997765,35809.29999999702,36487.39999999851,37487.39999999851,39085.89999999851,40333.89999999851,41175.5,41906.699999999255,43279.29999999702,44280.599999997765,45137.79999999702,45957,47894.199999999255,49277.599999997765,53519.5,54251.29999999702,55148.89999999851,56173.89999999851,57096.5,57940,58977.099999997765,59929.29999999702,60750.599999997765,61504.79999999702,62606.099999997765,63622.099999997765,64488.199999999255,65588.59999999776,71631.5,72385,73216.09999999776,74025.5,74869.09999999776,75853.69999999925,76884.5,78010.79999999702,78808.5,80362.29999999702,81394.59999999776,82465.39999999851,83554.59999999776,84713.19999999925],"key_events":[],"mouse_events":[8427.699999999255,11028.199999999255,11646.699999999255,12432.89999999851,13165.89999999851,13826.5,14434.5,15300.599999997765,16054,16964.699999999255,17688.5,18372.29999999702,20363.29999999702,21015.5,22106.5,25167.099999997765,34550.199999999255,35809.29999999702,36487.39999999851,37487.39999999851,38250.29999999702,39085.89999999851,40333.89999999851,41175.5,41906.699999999255,43279.29999999702,44280.599999997765,45137.79999999702,45957,46770.79999999702,47894.199999999255,49277.599999997765,52346.89999999851,53519.5,54251.29999999702,55148.89999999851,56173.89999999851,57096.5,57940,58977.099999997765,59929.29999999702,60750.599999997765,61504.79999999702,62606.099999997765,63622.099999997765,64488.199999999255,65588.59999999776,69075.09999999776,71631.5,72385,73216.09999999776,74025.5,74869.09999999776,75853.69999999925,76884.5,78010.79999999702,78808.5,80362.29999999702,81394.59999999776,82465.39999999851,83554.59999999776,84713.19999999925,86651.19999999925],"honeypot":0,"survey":"mace","page":8,"trial_type":"survey-mace","trial_index":16,"time_elapsed":898691,"internal_node_id":"0.0-16.0","task_version":"prescreen-v0.3","browser_interactions":0},{"responses":{"01":"Yes","01_ages_5":"5","01_ages_6":"6","01_ages_7":"7","01_ages_8":"8","01_ages_9":"9","01_ages_10":"10","01_ages_11":"11","01_ages_12":"12","01_ages_13":"13","01_ages_14":"14","01_ages_15":"15","01_ages_16":"16","01_ages_17":"17","01_ages_18":"18","02":"Yes","02_ages_5":"5","02_ages_6":"6","02_ages_7":"7","02_ages_8":"8","02_ages_9":"9","02_ages_10":"10","02_ages_11":"11","02_ages_12":"12","02_ages_13":"13","02_ages_14":"14","02_ages_15":"15","02_ages_16":"16","02_ages_17":"17","03":"Yes","03_ages_5":"5","03_ages_6":"6","03_ages_7":"7","03_ages_8":"8","03_ages_9":"9","03_ages_10":"10","03_ages_11":"11","03_ages_12":"12","03_ages_13":"13","03_ages_14":"14","03_ages_15":"15","03_ages_16":"16","04":"Yes","04_ages_5":"5","04_ages_6":"6","04_ages_7":"7","04_ages_8":"8","04_ages_9":"9","04_ages_10":"10","04_ages_11":"11","04_ages_12":"12","04_ages_13":"13","04_ages_14":"14","04_ages_15":"15","04_ages_16":"16"},"rt":209685.3999999985,"item_order":[0,1,2,3],"radio_events":[7720.199999999255,136217.19999999925,154307,193626.6000000015],"checkbox_events":[10398.300000000745,11231,11836.300000000745,12536,13343.39999999851,14007.89999999851,14616.10000000149,15773.89999999851,16685.10000000149,17767.5,18778.60000000149,20780,22918.800000000745,25741.39999999851,137769.19999999925,138996.1000000015,140040.80000000075,140896.1000000015,141628,142854.6000000015,143766,145678.19999999925,147477.6000000015,148704.80000000075,149585.8999999985,150819.6000000015,151775.5,152922.6000000015,157164.80000000075,158041.5,159121.80000000075,159864.80000000075,163522.8999999985,164196.1000000015,165522.69999999925,166233.69999999925,167075.3999999985,168953.8999999985,171655.1000000015,175051.30000000075,176279.3999999985,194820.30000000075,195830.80000000075,196910.69999999925,197742.8999999985,198533.19999999925,199351.80000000075,200502.3999999985,201625.5,202727.1000000015,203413,204347.1000000015,205382],"key_events":[],"mouse_events":[7720.199999999255,10398.300000000745,11231,11836.300000000745,12536,13343.39999999851,14007.89999999851,14616.10000000149,15773.89999999851,16685.10000000149,17767.5,18778.60000000149,19710.39999999851,20780,21996,22918.800000000745,24301.199999999255,25741.39999999851,136217.19999999925,137769.19999999925,138996.1000000015,140040.80000000075,140896.1000000015,141628,142854.6000000015,143766,144902,145678.19999999925,146679.5,147477.6000000015,148704.80000000075,149585.8999999985,150819.6000000015,151775.5,152922.6000000015,154307,157164.80000000075,158041.5,159121.80000000075,159864.80000000075,161079.19999999925,163522.8999999985,164196.1000000015,164838.3999999985,165522.69999999925,166233.69999999925,167075.3999999985,168953.8999999985,171655.1000000015,175051.30000000075,176279.3999999985,193626.6000000015,194820.30000000075,195830.80000000075,196910.69999999925,197742.8999999985,198533.19999999925,199351.80000000075,200502.3999999985,201625.5,202727.1000000015,203413,204347.1000000015,205382,209682.1000000015],"honeypot":0,"survey":"mace","page":9,"trial_type":"survey-mace","trial_index":17,"time_elapsed":1108372,"internal_node_id":"0.0-17.0","task_version":"prescreen-v0.3","browser_interactions":2},{"responses":{"01":"No","02":"No","03":"Yes","03_ages_13":"13","03_ages_14":"14","03_ages_15":"15","03_ages_16":"16","03_ages_17":"17","03_ages_18":"18","04":"Yes","04_ages_15":"15","04_ages_16":"16","04_ages_17":"17","04_ages_18":"18","05":"Yes","05_ages_5":"5","05_ages_6":"6","05_ages_7":"7","05_ages_8":"8","05_ages_9":"9","05_ages_10":"10","05_ages_11":"11","05_ages_12":"12","05_ages_13":"13","05_ages_14":"14","05_ages_15":"15","05_ages_16":"16","05_ages_17":"17","05_ages_18":"18","06":"Yes","06_ages_17":"17","07":"No","08":"No"},"rt":57673.89999999851,"item_order":[0,1,2,3,4,5,6,7],"radio_events":[5953,8124.800000000745,9911.800000000745,18273.300000000745,27878.89999999851,46769.599999997765,53674.599999997765,54956.89999999851],"checkbox_events":[12386.699999999255,13052.800000000745,13769.699999999255,14525.800000000745,15572.300000000745,16403.199999999255,21285.39999999851,22997.699999999255,24304,25473.300000000745,29522.300000000745,30487.599999997765,32096.699999999255,34999.199999999255,36214.099999997765,37227,37969.699999999255,38768.199999999255,40152,40928.199999999255,41660.5,42469.89999999851,43349.099999997765,44353.199999999255,48736.39999999851],"key_events":[],"mouse_events":[5953,8124.800000000745,9911.800000000745,12386.699999999255,13052.800000000745,13769.699999999255,14525.800000000745,15572.300000000745,16403.199999999255,18273.300000000745,21285.39999999851,22997.699999999255,24304,25473.300000000745,27878.89999999851,29522.300000000745,30487.599999997765,31275.89999999851,32096.699999999255,33097.800000000745,33898.599999997765,34999.199999999255,36214.099999997765,37227,37969.699999999255,38768.199999999255,40152,40928.199999999255,41660.5,42469.89999999851,43349.099999997765,44353.199999999255,46769.599999997765,48736.39999999851,53674.599999997765,54956.89999999851,57668.5],"honeypot":0,"survey":"mace","page":10,"trial_type":"survey-mace","trial_index":18,"time_elapsed":1166049,"internal_node_id":"0.0-18.0","task_version":"prescreen-v0.3","browser_interactions":0,"instructed":0},{"rt":6787.800000000745,"trial_type":"mental-health-alert","trial_index":19,"time_elapsed":1172839,"internal_node_id":"0.0-19.0","task_version":"prescreen-v0.3","interactions":"[{\"event\":\"blur\",\"trial\":8,\"time\":365958},{\"event\":\"focus\",\"trial\":8,\"time\":453088},{\"event\":\"blur\",\"trial\":8,\"time\":454651},{\"event\":\"focus\",\"trial\":8,\"time\":462900},{\"event\":\"blur\",\"trial\":15,\"time\":789611},{\"event\":\"focus\",\"trial\":15,\"time\":791717},{\"event\":\"blur\",\"trial\":17,\"time\":931065},{\"event\":\"focus\",\"trial\":17,\"time\":1031158}]"}]