[{"view_history":[{"page_index":0,"viewing_time":9011},{"page_index":1,"viewing_time":3689},{"page_index":2,"viewing_time":4670},{"page_index":3,"viewing_time":3062}],"rt":20433,"trial_type":"instructions","trial_index":0,"time_elapsed":20442,"internal_node_id":"0.0-0.0","task_version":"prescreen-v0.3"},{"rt":28476.000000000007,"responses":{"age":"22","gender-categorical":"Female","gender-free-response":"","ethnicity":"Not Hispanic or Latino","race":["White"],"education":"Bachelor degree"},"trial_type":"survey-demo","trial_index":1,"time_elapsed":48928,"internal_node_id":"0.0-1.0","task_version":"prescreen-v0.3"},{"responses":{"Q10":"1","Q14":"1","Q19":"0","Q02":"2","Q08":"2","Q12":"0","Q20":"2","Q09":"0","Q15":"1","Q07":"0","Q04":"1","Q18":"1","Q17":"1","Q13":"2","Q06":"1","Q16":"2","Q01":"1","Q03":"1","Q05":"0","Q11":"0","Q21":"3"},"rt":107799,"item_order":[9,13,18,1,7,11,19,8,14,6,3,17,16,12,5,15,0,2,4,10,20],"radio_events":[7036.999999999993,11288.999999999993,18533.999999999993,20157.000000000007,22887.999999999993,26250.999999999993,29571.999999999993,31214.999999999993,33261.99999999999,40830.99999999999,45050.00000000001,50194.99999999999,55204.99999999999,59359.99999999999,65958,71635,75894,76578,77123,84264,87856,90728,98005,99239,103917],"key_events":[],"mouse_events":[7036.999999999993,11288.999999999993,16594.999999999993,18533.999999999993,20157.000000000007,22887.999999999993,26250.999999999993,28582.999999999993,29571.999999999993,31214.999999999993,33261.99999999999,40830.99999999999,45050.00000000001,50194.99999999999,55204.99999999999,59359.99999999999,63854.99999999999,65958,70994,71635,75894,76578,77123,84264,87856,90728,96728,98005,99239,103917,107785],"straightlining":0.42857142857142855,"zigzagging":0.5,"honeypot":0,"survey":"sns","trial_type":"survey-template","trial_index":2,"time_elapsed":156738,"internal_node_id":"0.0-2.0","task_version":"prescreen-v0.3","browser_interactions":0,"infrequency":0},{"responses":{"Q11":"2","Q06":"2","Q07":"3","Q08":"2","Q09":"1","Q10":"2","Q13":"0","Q03":"3","Q01":"3","Q12":"2","Q02":"3","Q05":"3","Q04":"3"},"rt":54202,"item_order":[10,5,6,7,8,9,12,2,0,11,1,4,3],"radio_events":[5765,8768,11152,14581,19201,29400,33706,41768,44227,47636,49330.00000000003,51365,53124],"key_events":[],"mouse_events":[5765,8768,11152,14581,19201,29400,33706,41768,44227,47636,49330.00000000003,51365,52631,53124,54190],"straightlining":0.46153846153846156,"zigzagging":0.5833333333333334,"honeypot":0,"survey":"bisbas","trial_type":"survey-template","trial_index":3,"time_elapsed":210947,"internal_node_id":"0.0-3.0","task_version":"prescreen-v0.3","browser_interactions":0,"infrequency":0},{"responses":{"Q01":"3","Q02":"1","Q03":"2"},"rt":203204,"radio_events":[4565,5983,14182.00000000003,202470],"key_events":[],"mouse_events":[4565,5983,14182.00000000003,202470,203199],"survey":"map","page":1,"trial_type":"survey-map","trial_index":4,"time_elapsed":414203,"internal_node_id":"0.0-4.0","task_version":"prescreen-v0.3","browser_interactions":0},{"responses":{"Q04":"2","Q05":"3","Q06":"3"},"rt":11547,"radio_events":[4692.000000000058,7100,10789],"key_events":[],"mouse_events":[4692.000000000058,7100,10789,11543.000000000058],"survey":"map","page":2,"trial_type":"survey-map","trial_index":5,"time_elapsed":425754,"internal_node_id":"0.0-5.0","task_version":"prescreen-v0.3","browser_interactions":0},{"responses":{"Q07":"1","Q08":"0","Q09":"1"},"rt":17456.00000000006,"radio_events":[7086,11577,16696],"key_events":[],"mouse_events":[7086,11577,16213.000000000058,16696,17451.00000000006],"survey":"map","page":3,"trial_type":"survey-map","trial_index":6,"time_elapsed":443213,"internal_node_id":"0.0-6.0","task_version":"prescreen-v0.3","browser_interactions":0},{"responses":{"Q10":"1","Q11":"0","Q12":"3","Q13":"3","Q16":"0","Q14":"4","Q15":"3"},"rt":34583,"radio_events":[5442,10344,13112,16875,21542,22407.00000000006,24154,32824],"key_events":[],"mouse_events":[5442,7847,10344,13112,16875,21542,22407.00000000006,24154,25409,32824,34575.00000000006],"survey":"map","page":4,"trial_type":"survey-map","trial_index":7,"time_elapsed":477802,"internal_node_id":"0.0-7.0","task_version":"prescreen-v0.3","browser_interactions":0,"infrequency":0},{"view_history":[{"page_index":0,"viewing_time":2013},{"page_index":1,"viewing_time":4166}],"rt":6180,"trial_type":"instructions","trial_index":8,"time_elapsed":483986,"internal_node_id":"0.0-8.0","task_version":"prescreen-v0.3"},{"responses":{"01":"No","02":"Yes","02_ages_7":"7","02_ages_8":"8","02_ages_9":"9","02_ages_10":"10","02_ages_11":"11","02_ages_12":"12","02_ages_13":"13","02_ages_14":"14","02_ages_15":"15","02_ages_16":"16","02_ages_17":"17","02_ages_18":"18","03":"No","04":"Yes","04_ages_7":"7","04_ages_9":"9","04_ages_11":"11","04_ages_13":"13","04_ages_15":"15","04_ages_16":"16","04_ages_17":"17","04_ages_18":"18","05":"No","06":"No"},"rt":64561,"item_order":[0,1,2,3,4,5],"radio_events":[5631,8524,13552,18433,39309.00000000006,41569,60505,62569],"checkbox_events":[27607.00000000006,28648.99999999994,29129.99999999994,30095,30535.00000000006,30975.99999999994,31953.00000000006,32418,33379,33896.00000000006,34377.00000000006,34874,49157,53266,54035,54844,55605,57084,57556,58189],"key_events":[],"mouse_events":[0,5631,8524,12880,13552,18433,27607.00000000006,28224,28648.99999999994,29129.99999999994,29646.00000000006,30095,30535.00000000006,30975.99999999994,31504.99999999994,31953.00000000006,32418,32898.99999999994,33379,33896.00000000006,34377.00000000006,34874,39309.00000000006,41569,49157,53266,54035,54844,55605,57084,57556,58189,60505,62569,64548],"honeypot":0,"survey":"mace","page":1,"trial_type":"survey-mace","trial_index":9,"time_elapsed":548558,"internal_node_id":"0.0-9.0","task_version":"prescreen-v0.3","browser_interactions":0},{"responses":{"01":"No","02":"No","03":"Yes","03_ages_3":"3","04":"No","05":"No","06":"No","07":"No","08":"No"},"rt":18479.999999999884,"item_order":[0,1,2,3,4,5,6,7],"radio_events":[2050.9999999998836,3204.9999999998836,5668.999999999884,10343.999999999884,11449.999999999884,14409.999999999884,15178.999999999884,17029.999999999884],"checkbox_events":[7215.999999999884],"key_events":[],"mouse_events":[2050.9999999998836,3204.9999999998836,5668.999999999884,7215.999999999884,10343.999999999884,11449.999999999884,14409.999999999884,15178.999999999884,16284.999999999884,17029.999999999884,18467.999999999884],"honeypot":0,"survey":"mace","page":2,"trial_type":"survey-mace","trial_index":10,"time_elapsed":567046,"internal_node_id":"0.0-10.0","task_version":"prescreen-v0.3","browser_interactions":0},{"responses":{"01":"No","02":"No","03":"No","04":"No"},"rt":8909,"item_order":[0,1,2,3],"radio_events":[2161,6244.000000000116,7859,8444],"checkbox_events":[],"key_events":[],"mouse_events":[2161,4328,6244.000000000116,7269,7859,8444,8900],"honeypot":0,"survey":"mace","page":3,"trial_type":"survey-mace","trial_index":11,"time_elapsed":575961,"internal_node_id":"0.0-11.0","task_version":"prescreen-v0.3","browser_interactions":0},{"responses":{"01":"No","02":"No"},"rt":4185,"item_order":[0,1],"radio_events":[1829,3584],"checkbox_events":[],"key_events":[],"mouse_events":[1829,3584,4181.000000000116],"honeypot":0,"survey":"mace","page":4,"trial_type":"survey-mace","trial_index":12,"time_elapsed":580151,"internal_node_id":"0.0-12.0","task_version":"prescreen-v0.3","browser_interactions":0},{"responses":{"01":"No","01_ages_1":"1","01_ages_2":"2","01_ages_3":"3","02":"No","02_ages_1":"1","02_ages_2":"2","02_ages_3":"3","03":"No","04":"No","05":"No"},"rt":34518,"item_order":[0,1,2,3,4],"radio_events":[4263,9087,13441,21862.000000000116,24325,25247,31537,32330],"checkbox_events":[10337,11162,11867.000000000116,15525,16005,16639],"key_events":[],"mouse_events":[2572,4263,9087,10337,10761.000000000116,11162,11867.000000000116,13441,15525,16005,16639,21862.000000000116,24325,25247,31537,32330,34509],"honeypot":0,"survey":"mace","page":5,"trial_type":"survey-mace","trial_index":13,"time_elapsed":614675,"internal_node_id":"0.0-13.0","task_version":"prescreen-v0.3","browser_interactions":0},{"responses":{"01":"Yes","01_ages_5":"5","01_ages_8":"8","01_ages_9":"9","01_ages_10":"10","01_ages_11":"11","01_ages_12":"12","01_ages_13":"13","01_ages_14":"14","01_ages_15":"15","01_ages_16":"16","01_ages_17":"17","01_ages_18":"18","02":"Yes","02_ages_5":"5","02_ages_6":"6","02_ages_7":"7","02_ages_8":"8","02_ages_9":"9","02_ages_17":"17","02_ages_18":"18","03":"Yes","03_ages_13":"13","03_ages_14":"14","03_ages_15":"15","03_ages_16":"16","03_ages_17":"17","03_ages_18":"18","04":"Yes","04_ages_16":"16","04_ages_17":"17","05":"Yes","05_ages_16":"16","05_ages_17":"17"},"rt":50755,"item_order":[0,1,2,3,4],"radio_events":[9684,24408,33367,42119,47996],"checkbox_events":[12016,13791,14264,15441,16515.000000000116,17036,17561,18554,19003,19476,20205,23406,26700,27084,27525,27958,28687,30286,30807,37686,38062,38438.00000000012,38839,39223,39632,44715,45284.00000000012,49095,49615],"key_events":[],"mouse_events":[9023,9684,12016,13791,14264,15441,16515.000000000116,17036,17561,18097,18554,19003,19476,20205,21263,23406,24408,26700,27084,27525,27958,28687,30286,30807,33367,37686,38062,38438.00000000012,38839,39223,39632,42119,44163,44715,45284.00000000012,47996,49095,49615,50741.00000000012],"honeypot":0,"survey":"mace","page":6,"trial_type":"survey-mace","trial_index":14,"time_elapsed":665438,"internal_node_id":"0.0-14.0","task_version":"prescreen-v0.3","browser_interactions":0},{"responses":{"01":"No","02":"No","03":"No","04":"No","05":"No","06":"No","07":"No"},"rt":66545.00000000012,"item_order":[0,1,2,3,4,5,6],"radio_events":[57307,58228.00000000012,59670.00000000012,60864,62558,65218.00000000012,65943],"checkbox_events":[],"key_events":[],"mouse_events":[56181,57307,58228.00000000012,59670.00000000012,60864,62558,63768,65218.00000000012,65943,66536],"honeypot":0,"survey":"mace","page":7,"trial_type":"survey-mace","trial_index":15,"time_elapsed":731993,"internal_node_id":"0.0-15.0","task_version":"prescreen-v0.3","browser_interactions":0},{"responses":{"01":"Yes","01_ages_5":"5","01_ages_6":"6","01_ages_7":"7","01_ages_8":"8","01_ages_9":"9","01_ages_10":"10","01_ages_11":"11","01_ages_12":"12","01_ages_13":"13","01_ages_14":"14","01_ages_15":"15","01_ages_16":"16","01_ages_17":"17","01_ages_18":"18","02":"No","03":"Yes","03_ages_7":"7","03_ages_8":"8","03_ages_9":"9","03_ages_10":"10","03_ages_11":"11","03_ages_12":"12","03_ages_13":"13","03_ages_14":"14","03_ages_15":"15","03_ages_16":"16","03_ages_17":"17","03_ages_18":"18","04":"Yes","04_ages_5":"5","04_ages_6":"6","04_ages_10":"10","04_ages_11":"11","04_ages_12":"12","04_ages_13":"13","04_ages_14":"14","04_ages_15":"15","04_ages_16":"16","04_ages_17":"17","04_ages_18":"18"},"rt":60465,"item_order":[0,1,2,3],"radio_events":[7276.000000000116,25343.000000000116,35160,50089],"checkbox_events":[9771.000000000116,14875,15435,16330,17115,17539,17972,18372.000000000116,18861,19350,19782,20559,21321,21913,37902,39360,39833,40225,40722,41268,41628,42566,42926,43342,44489,44905,51147,51524,51941,52630,53559,54401.00000000012,54777,55995,56784,57193,57602,58098.00000000012,59684],"key_events":[],"mouse_events":[7276.000000000116,9771.000000000116,14875,15435,15824.000000000116,16330,16721,17115,17539,17972,18372.000000000116,18861,19350,19782,20216,20559,20968.000000000116,21321,21913,25343.000000000116,34721,35160,37902,38222,39360,39833,40225,40722,41268,41628,42020,42566,42926,43342,43936,44489,44905,49721,50089,51147,51524,51941,52630,52982,53559,54401.00000000012,54777,55995,56432,56784,57193,57602,58098.00000000012,59684,60454],"honeypot":0,"survey":"mace","page":8,"trial_type":"survey-mace","trial_index":16,"time_elapsed":792467,"internal_node_id":"0.0-16.0","task_version":"prescreen-v0.3","browser_interactions":0},{"responses":{"01":"Yes","01_ages_5":"5","01_ages_6":"6","01_ages_7":"7","01_ages_8":"8","01_ages_9":"9","01_ages_10":"10","01_ages_11":"11","01_ages_12":"12","01_ages_13":"13","01_ages_14":"14","01_ages_15":"15","01_ages_16":"16","01_ages_17":"17","01_ages_18":"18","02":"Yes","02_ages_5":"5","02_ages_6":"6","02_ages_7":"7","02_ages_8":"8","02_ages_9":"9","02_ages_10":"10","02_ages_11":"11","02_ages_12":"12","02_ages_13":"13","02_ages_14":"14","02_ages_15":"15","02_ages_16":"16","02_ages_17":"17","02_ages_18":"18","03":"Yes","03_ages_5":"5","03_ages_6":"6","03_ages_7":"7","03_ages_8":"8","03_ages_9":"9","03_ages_10":"10","03_ages_11":"11","03_ages_12":"12","03_ages_13":"13","03_ages_14":"14","03_ages_15":"15","03_ages_16":"16","03_ages_17":"17","03_ages_18":"18","04":"Yes","04_ages_5":"5","04_ages_6":"6","04_ages_7":"7","04_ages_8":"8","04_ages_9":"9","04_ages_10":"10","04_ages_11":"11","04_ages_12":"12","04_ages_13":"13","04_ages_14":"14","04_ages_15":"15","04_ages_16":"16","04_ages_17":"17","04_ages_18":"18"},"rt":55435,"item_order":[0,1,2,3],"radio_events":[4490,21711,33796,46724],"checkbox_events":[7844,8500,8926,9310,9735,10809,11234,12387,13261,13621,13998,14359,15296,15673,16074.000000000116,16747.000000000116,17140,17556,17973.000000000116,18374,18926,20008,23642,24308,25036,25653,26077,26607,27335,27832,28353.000000000116,28953,29386,29826,31268,31967,35526.00000000012,35920.00000000012,36769,37650,38051,38532,38964,39478.00000000012,39982,40431,40895,41336,41817,42321,47575,47926,48391.00000000012,49040.00000000012,49492.00000000012,49949.00000000012,50357,50766.00000000012,51223.00000000012,51623,52008,52416,53492.00000000012,54214],"key_events":[],"mouse_events":[4490,7844,8500,8926,9310,9735,10119,10809,11234,12387,13261,13621,13998,14359,14807,15296,15673,16074.000000000116,16747.000000000116,17140,17556,17973.000000000116,18374,18926,20008,21711,23210,23642,24308,24651.000000000116,25036,25653,26077,26607,27335,27832,28353.000000000116,28953,29386,29826,30531.000000000116,31268,31967,33796,35526.00000000012,35920.00000000012,36344,36769,37650,38051,38532,38964,39478.00000000012,39982,40431,40895,41336,41817,42321,46307,46724,47575,47926,48391.00000000012,49040.00000000012,49492.00000000012,49949.00000000012,50357,50766.00000000012,51223.00000000012,51623,52008,52416,52969,53492.00000000012,53835,54214,55424],"honeypot":0,"survey":"mace","page":9,"trial_type":"survey-mace","trial_index":17,"time_elapsed":847911,"internal_node_id":"0.0-17.0","task_version":"prescreen-v0.3","browser_interactions":0},{"responses":{"01":"No","02":"No","03":"Yes","03_ages_10":"10","03_ages_11":"11","03_ages_12":"12","03_ages_13":"13","03_ages_14":"14","03_ages_15":"15","03_ages_16":"16","03_ages_17":"17","03_ages_18":"18","04":"No","05":"No","06":"Yes","06_ages_17":"17","07":"No","08":"No"},"rt":34562,"item_order":[0,1,2,3,4,5,6,7],"radio_events":[3573,4750,6128,15221,17613.000000000116,20425.000000000116,22529,24876,31278,33425.00000000012],"checkbox_events":[7874,8759,9232,10250,10731,11195,11676,12173,12969,26226],"key_events":[],"mouse_events":[3573,4750,6128,7874,8759,9232,9673,10250,10731,11195,11676,12173,12969,15221,17613.000000000116,20425.000000000116,22529,24876,26226,31278,33425.00000000012,33926,34551],"honeypot":0,"survey":"mace","page":10,"trial_type":"survey-mace","trial_index":18,"time_elapsed":882481,"internal_node_id":"0.0-18.0","task_version":"prescreen-v0.3","browser_interactions":0,"instructed":0},{"rt":16005,"trial_type":"mental-health-alert","trial_index":19,"time_elapsed":898491,"internal_node_id":"0.0-19.0","task_version":"prescreen-v0.3","interactions":"[]"}]