[{"view_history":[{"page_index":0,"viewing_time":3593.2000000029802},{"page_index":1,"viewing_time":3871.3999999910593},{"page_index":2,"viewing_time":3833.2000000029802},{"page_index":3,"viewing_time":1271.6000000089407}],"rt":12570.70000000298,"trial_type":"instructions","trial_index":0,"time_elapsed":12595,"internal_node_id":"0.0-0.0","task_version":"prescreen-v0.3"},{"rt":18271.30000001192,"responses":{"age":"35","gender-categorical":"Male","gender-free-response":"","ethnicity":"Not Hispanic or Latino","race":["White"],"education":"Bachelor degree","siblings":"1"},"trial_type":"survey-demo","trial_index":1,"time_elapsed":30876,"internal_node_id":"0.0-1.0","task_version":"prescreen-v0.3"},{"responses":{"Q10":"0","Q18":"1","Q01":"1","Q07":"2","Q06":"1","Q19":"1","Q03":"0","Q15":"2","Q02":"0","Q14":"1","Q09":"1","Q04":"1","Q05":"2","Q13":"1","Q08":"1","Q20":"0","Q21":"3","Q11":"1","Q12":"0","Q16":"0","Q17":"1"},"rt":88836.20000000298,"item_order":[9,17,0,6,5,18,2,14,1,13,8,3,4,12,7,19,20,10,11,15,16],"radio_events":[4608.29999999702,9407.89999999106,11703.59999999404,22280.39999999106,27160.79999999702,31968,33944.70000000298,39968.39999999106,42320.39999999106,44807.5,47216.29999999702,51000.70000000298,59800.29999999702,60911.70000000298,64248.29999999702,66399.89999999106,72888.5,74927.89999999106,78920.20000000298,83664.70000000298,87632.70000000298],"key_events":[],"mouse_events":[4608.29999999702,9407.89999999106,11703.59999999404,19336.29999999702,22280.39999999106,27160.79999999702,31968,33944.70000000298,39968.39999999106,42320.39999999106,44807.5,47216.29999999702,51000.70000000298,57064.39999999106,59336.20000000298,59800.29999999702,60911.70000000298,64248.29999999702,66399.89999999106,68672.39999999106,72064.70000000298,72888.5,74088.09999999404,74600.59999999404,74927.89999999106,78920.20000000298,83664.70000000298,87632.70000000298,88832.5],"straightlining":0.5238095238095238,"zigzagging":0.55,"honeypot":0,"survey":"sns","trial_type":"survey-template","trial_index":2,"time_elapsed":119721,"internal_node_id":"0.0-2.0","task_version":"prescreen-v0.3","browser_interactions":0,"infrequency":0},{"responses":{"Q09":"2","Q07":"2","Q01":"1","Q03":"1","Q10":"2","Q02":"0","Q13":"0","Q04":"2","Q08":"2","Q12":"1","Q06":"2","Q05":"2","Q11":"2"},"rt":52467.5,"item_order":[8,6,0,2,9,1,12,3,7,11,5,4,10],"radio_events":[6264.0999999940395,8839.29999999702,12023.699999988079,15223.39999999106,17607.89999999106,19792.09999999404,21584,28199.89999999106,31487.89999999106,36575.59999999404,42431.5,45159.39999999106,51327.09999999404],"key_events":[],"mouse_events":[5856.699999988079,6264.0999999940395,8839.29999999702,10680.5,11431.699999988079,12023.699999988079,15223.39999999106,17607.89999999106,19792.09999999404,21584,28199.89999999106,31487.89999999106,36575.59999999404,42431.5,45159.39999999106,50792,51327.09999999404,52465.39999999106],"straightlining":0.6153846153846154,"zigzagging":0.3333333333333333,"honeypot":0,"survey":"bisbas","trial_type":"survey-template","trial_index":3,"time_elapsed":172194,"internal_node_id":"0.0-3.0","task_version":"prescreen-v0.3","browser_interactions":2,"infrequency":0},{"responses":{"Q01":"2","Q02":"2","Q03":"3"},"rt":18160.39999999106,"radio_events":[8566.699999988079,13014,16790.5],"key_events":[],"mouse_events":[8566.699999988079,12535.59999999404,13014,16790.5,18158.29999999702],"survey":"map","page":1,"trial_type":"survey-map","trial_index":4,"time_elapsed":190360,"internal_node_id":"0.0-4.0","task_version":"prescreen-v0.3","browser_interactions":0},{"responses":{"Q04":"1","Q05":"1","Q06":"2"},"rt":14274,"radio_events":[6912.5999999940395,11768.79999999702,13402],"key_events":[],"mouse_events":[6912.5999999940395,11768.79999999702,13402,14273],"survey":"map","page":2,"trial_type":"survey-map","trial_index":5,"time_elapsed":204638,"internal_node_id":"0.0-5.0","task_version":"prescreen-v0.3","browser_interactions":0},{"responses":{"Q07":"4","Q08":"4","Q09":"4"},"rt":10860.199999988079,"radio_events":[3955.2999999970198,6819.0999999940395,8795.5],"key_events":[],"mouse_events":[3546.8999999910593,3955.2999999970198,6819.0999999940395,8795.5,10859.199999988079],"survey":"map","page":3,"trial_type":"survey-map","trial_index":6,"time_elapsed":215502,"internal_node_id":"0.0-6.0","task_version":"prescreen-v0.3","browser_interactions":0},{"responses":{"Q10":"2","Q11":"2","Q12":"1","Q13":"1","Q16":"0","Q14":"2","Q15":"1"},"rt":26260.09999999404,"radio_events":[4393.5,6473.5,9865.5,14705.29999999702,17929.89999999106,22625.69999998808,25169.59999999404],"key_events":[],"mouse_events":[3393.5999999940395,4059.0999999940395,4393.5,6473.5,9865.5,14705.29999999702,17929.89999999106,22625.69999998808,25169.59999999404,26258.09999999404],"survey":"map","page":4,"trial_type":"survey-map","trial_index":7,"time_elapsed":241768,"internal_node_id":"0.0-7.0","task_version":"prescreen-v0.3","browser_interactions":0,"infrequency":0},{"view_history":[{"page_index":0,"viewing_time":2058.5},{"page_index":1,"viewing_time":4383.70000000298}],"rt":6442.899999991059,"trial_type":"instructions","trial_index":8,"time_elapsed":248213,"internal_node_id":"0.0-8.0","task_version":"prescreen-v0.3"},{"responses":{"01":"No","02":"No","03":"No","04":"No","05":"No","06":"No"},"rt":20255.59999999404,"item_order":[0,1,2,3,4,5],"radio_events":[10122.5,12913.90000000596,14577.79999999702,15978.5,17066,19201.59999999404],"checkbox_events":[],"key_events":[],"mouse_events":[0.09999999403953552,10122.5,12913.90000000596,14577.79999999702,15978.5,17066,19201.59999999404,20250.70000000298],"honeypot":0,"survey":"mace","page":1,"trial_type":"survey-mace","trial_index":9,"time_elapsed":268476,"internal_node_id":"0.0-9.0","task_version":"prescreen-v0.3","browser_interactions":0},{"responses":{"01":"No","02":"No","03":"No","04":"No","05":"No","06":"No","07":"No","08":"No"},"rt":24811.79999999702,"item_order":[0,1,2,3,4,5,6,7],"radio_events":[3694.1000000089407,4501.70000000298,12101.60000000894,17461.70000000298,18358.5,19573.90000000596,21446.40000000596,22861.79999999702,23982.29999999702],"checkbox_events":[],"key_events":[],"mouse_events":[2118.1000000089407,3694.1000000089407,4501.70000000298,10078,11021.79999999702,12101.60000000894,17461.70000000298,18358.5,19573.90000000596,21446.40000000596,22861.79999999702,23982.29999999702,24806.20000000298],"honeypot":0,"survey":"mace","page":2,"trial_type":"survey-mace","trial_index":10,"time_elapsed":293293,"internal_node_id":"0.0-10.0","task_version":"prescreen-v0.3","browser_interactions":0},{"responses":{"01":"No","02":"No","03":"No","04":"No"},"rt":7755.399999991059,"item_order":[0,1,2,3],"radio_events":[2494.2000000029802,3527.0999999940395,4847.399999991059,7071.29999999702],"checkbox_events":[],"key_events":[],"mouse_events":[1128.2000000029802,2494.2000000029802,3527.0999999940395,4847.399999991059,5815.29999999702,7071.29999999702,7751.399999991059],"honeypot":0,"survey":"mace","page":3,"trial_type":"survey-mace","trial_index":11,"time_elapsed":301051,"internal_node_id":"0.0-11.0","task_version":"prescreen-v0.3","browser_interactions":0},{"responses":{"01":"No","02":"No"},"rt":8794.70000000298,"item_order":[0,1],"radio_events":[4360.4000000059605,5105.29999999702],"checkbox_events":[],"key_events":[],"mouse_events":[4360.4000000059605,5105.29999999702,8792.79999999702],"honeypot":0,"survey":"mace","page":4,"trial_type":"survey-mace","trial_index":12,"time_elapsed":309848,"internal_node_id":"0.0-12.0","task_version":"prescreen-v0.3","browser_interactions":0},{"responses":{"01":"No","02":"No","03":"No","04":"No","05":"No"},"rt":17069,"item_order":[0,1,2,3,4],"radio_events":[8866.29999999702,10354.39999999106,13818.29999999702,14914.5,15626.39999999106],"checkbox_events":[],"key_events":[],"mouse_events":[8866.29999999702,10354.39999999106,13818.29999999702,14914.5,15626.39999999106,17066.79999999702],"honeypot":0,"survey":"mace","page":5,"trial_type":"survey-mace","trial_index":13,"time_elapsed":326921,"internal_node_id":"0.0-13.0","task_version":"prescreen-v0.3","browser_interactions":0},{"responses":{"01":"Yes","01_ages_5":"5","01_ages_6":"6","01_ages_7":"7","01_ages_8":"8","01_ages_9":"9","01_ages_10":"10","02":"Yes","02_ages_5":"5","02_ages_6":"6","02_ages_7":"7","02_ages_8":"8","02_ages_9":"9","02_ages_10":"10","02_ages_11":"11","02_ages_12":"12","02_ages_13":"13","03":"Yes","03_ages_8":"8","03_ages_9":"9","03_ages_10":"10","03_ages_11":"11","03_ages_12":"12","03_ages_13":"13","04":"Yes","04_ages_5":"5","04_ages_6":"6","04_ages_7":"7","04_ages_8":"8","04_ages_9":"9","04_ages_10":"10","04_ages_11":"11","04_ages_12":"12","04_ages_13":"13","04_ages_14":"14","04_ages_15":"15","04_ages_16":"16","05":"Yes","05_ages_7":"7","05_ages_8":"8","05_ages_9":"9"},"rt":53795.39999999106,"item_order":[0,1,2,3,4],"radio_events":[5930.399999991059,19609.70000000298,27809,35738.09999999404,48715.39999999106],"checkbox_events":[8954.79999999702,9618.29999999702,13889.79999999702,14474.59999999404,15249.79999999702,15842.5,16490,17210.29999999702,20873.70000000298,21314.20000000298,21723.39999999106,22067.89999999106,22537.89999999106,23866.09999999404,24602.39999999106,25002.29999999702,25874.5,29905.5,31136.89999999106,31665.59999999404,32123.70000000298,32713.89999999106,33658.09999999404,37299,38483.20000000298,38832.09999999404,39249.70000000298,39889.70000000298,41035.20000000298,41458.20000000298,42043.29999999702,42682.79999999702,43249.70000000298,43954.29999999702,44546.09999999404,50170,51162.39999999106,51665.59999999404],"key_events":[],"mouse_events":[5930.399999991059,8954.79999999702,9618.29999999702,13889.79999999702,14474.59999999404,15249.79999999702,15842.5,16490,17210.29999999702,18858.59999999404,19609.70000000298,20873.70000000298,21314.20000000298,21723.39999999106,22067.89999999106,22537.89999999106,23186.29999999702,23866.09999999404,24602.39999999106,25002.29999999702,25874.5,27809,29905.5,31136.89999999106,31665.59999999404,32123.70000000298,32713.89999999106,33658.09999999404,35738.09999999404,37299,37899.70000000298,38483.20000000298,38832.09999999404,39249.70000000298,39889.70000000298,40282.20000000298,41035.20000000298,41458.20000000298,42043.29999999702,42682.79999999702,43249.70000000298,43954.29999999702,44546.09999999404,48715.39999999106,50170,50665,51162.39999999106,51665.59999999404,53793.29999999702],"honeypot":0,"survey":"mace","page":6,"trial_type":"survey-mace","trial_index":14,"time_elapsed":380720,"internal_node_id":"0.0-14.0","task_version":"prescreen-v0.3","browser_interactions":0},{"responses":{"01":"No","02":"No","03":"Yes","03_ages_7":"7","03_ages_8":"8","03_ages_9":"9","03_ages_10":"10","04":"No","05":"No","06":"No","07":"No"},"rt":22008.70000000298,"item_order":[0,1,2,3,4,5,6],"radio_events":[6923.600000008941,9027.70000000298,9747.5,18155.5,19059.30000001192,20420.60000000894,21267.40000000596],"checkbox_events":[11380.5,11787.70000000298,12163,13483.60000000894],"key_events":[],"mouse_events":[5643.4000000059605,6923.600000008941,9027.70000000298,9747.5,11380.5,11787.70000000298,12163,13483.60000000894,16267.20000000298,18155.5,19059.30000001192,20420.60000000894,21267.40000000596,22003.5],"honeypot":0,"survey":"mace","page":7,"trial_type":"survey-mace","trial_index":15,"time_elapsed":402733,"internal_node_id":"0.0-15.0","task_version":"prescreen-v0.3","browser_interactions":0},{"responses":{"01":"No","02":"No","03":"No","04":"No"},"rt":13755.199999988079,"item_order":[0,1,2,3],"radio_events":[6655.79999999702,7703.5,11711.699999988079,12855.199999988079],"checkbox_events":[],"key_events":[],"mouse_events":[6655.79999999702,7703.5,11711.699999988079,12855.199999988079,13751.5],"honeypot":0,"survey":"mace","page":8,"trial_type":"survey-mace","trial_index":16,"time_elapsed":416492,"internal_node_id":"0.0-16.0","task_version":"prescreen-v0.3","browser_interactions":0},{"responses":{"01":"Yes","01_ages_1":"1","01_ages_2":"2","01_ages_3":"3","01_ages_4":"4","01_ages_5":"5","01_ages_6":"6","01_ages_7":"7","01_ages_8":"8","01_ages_9":"9","01_ages_10":"10","01_ages_11":"11","01_ages_12":"12","01_ages_13":"13","01_ages_14":"14","01_ages_15":"15","01_ages_16":"16","01_ages_17":"17","01_ages_18":"18","02":"Yes","02_ages_1":"1","02_ages_2":"2","02_ages_3":"3","02_ages_4":"4","02_ages_5":"5","02_ages_6":"6","02_ages_7":"7","02_ages_8":"8","02_ages_9":"9","02_ages_10":"10","02_ages_11":"11","02_ages_12":"12","02_ages_13":"13","02_ages_14":"14","02_ages_15":"15","02_ages_16":"16","02_ages_17":"17","02_ages_18":"18","03":"Yes","03_ages_1":"1","03_ages_2":"2","03_ages_3":"3","03_ages_4":"4","03_ages_5":"5","03_ages_6":"6","03_ages_7":"7","03_ages_8":"8","03_ages_9":"9","03_ages_10":"10","03_ages_11":"11","03_ages_12":"12","03_ages_13":"13","03_ages_14":"14","03_ages_15":"15","03_ages_16":"16","03_ages_17":"17","03_ages_18":"18","04":"Yes","04_ages_1":"1","04_ages_2":"2","04_ages_3":"3","04_ages_4":"4","04_ages_5":"5","04_ages_6":"6","04_ages_7":"7","04_ages_8":"8","04_ages_9":"9","04_ages_10":"10","04_ages_11":"11","04_ages_12":"12","04_ages_13":"13","04_ages_14":"14","04_ages_15":"15","04_ages_16":"16","04_ages_17":"17","04_ages_18":"18"},"rt":62132.70000000298,"item_order":[0,1,2,3],"radio_events":[6833,21234,37962.09999999404,51585.70000000298],"checkbox_events":[8608.5,9288.70000000298,9673,10186,10673.09999999404,11138.09999999404,12440.5,12960.89999999106,13648.59999999404,14095.70000000298,14935.5,15375.5,15983.70000000298,16799.79999999702,17199.39999999106,17743.59999999404,18224.59999999404,18800.79999999702,22098.20000000298,22417,22794,23490,24281.89999999106,24959.59999999404,25400.09999999404,26080.5,26458,26959.59999999404,27376.70000000298,27912.70000000298,28336.39999999106,28753,29152.89999999106,29768.59999999404,30208.89999999106,31048.59999999404,39360.59999999404,39705,40265.70000000298,40593.09999999404,41138.29999999702,41633.79999999702,42304.59999999404,42904.89999999106,44985,45346.29999999702,45896.09999999404,47066.09999999404,47264.20000000298,47873.70000000298,48322,48920.89999999106,49297,49928.70000000298,50369.39999999106,50937.89999999106,52447.59999999404,52800.59999999404,53361.79999999702,54168.89999999106,54545.09999999404,55033.79999999702,55560.39999999106,56226,56856.39999999106,57440.29999999702,57896.39999999106,58568.70000000298,59199.79999999702,59680.59999999404,60153.59999999404,60634.29999999702,61160.29999999702,61554.29999999702],"key_events":[],"mouse_events":[6833,8608.5,9288.70000000298,9673,10186,10673.09999999404,11138.09999999404,11752.70000000298,12440.5,12960.89999999106,13648.59999999404,14095.70000000298,14935.5,15375.5,15983.70000000298,16799.79999999702,17199.39999999106,17743.59999999404,18224.59999999404,18800.79999999702,21234,22098.20000000298,22417,22794,23490,23888.59999999404,24281.89999999106,24959.59999999404,25400.09999999404,26080.5,26458,26959.59999999404,27376.70000000298,27912.70000000298,28336.39999999106,28753,29152.89999999106,29768.59999999404,30208.89999999106,31048.59999999404,32896.20000000298,37962.09999999404,38914.20000000298,39360.59999999404,39705,40265.70000000298,40593.09999999404,41138.29999999702,41633.79999999702,42026.09999999404,42304.59999999404,42904.89999999106,44985,45346.29999999702,45896.09999999404,46488.5,47066.09999999404,47264.20000000298,47873.70000000298,48322,48920.89999999106,49297,49928.70000000298,50369.39999999106,50937.89999999106,51585.70000000298,52447.59999999404,52800.59999999404,53361.79999999702,53752.59999999404,54168.89999999106,54545.09999999404,55033.79999999702,55560.39999999106,56226,56856.39999999106,57440.29999999702,57896.39999999106,58568.70000000298,59199.79999999702,59680.59999999404,60153.59999999404,60634.29999999702,61160.29999999702,61554.29999999702,62129.09999999404],"honeypot":0,"survey":"mace","page":9,"trial_type":"survey-mace","trial_index":17,"time_elapsed":478629,"internal_node_id":"0.0-17.0","task_version":"prescreen-v0.3","browser_interactions":0},{"responses":{"01":"No","02":"No","03":"No","04":"No","05":"No","06":"Yes","06_ages_17":"17","07":"Yes","07_ages_1":"1","07_ages_2":"2","07_ages_3":"3","07_ages_4":"4","07_ages_5":"5","07_ages_6":"6","07_ages_7":"7","07_ages_8":"8","07_ages_9":"9","07_ages_10":"10","07_ages_11":"11","07_ages_12":"12","07_ages_13":"13","07_ages_14":"14","07_ages_15":"15","07_ages_16":"16","07_ages_17":"17","07_ages_18":"18","08":"Yes","08_ages_1":"1","08_ages_2":"2","08_ages_3":"3","08_ages_4":"4","08_ages_5":"5","08_ages_6":"6","08_ages_7":"7","08_ages_8":"8","08_ages_9":"9","08_ages_10":"10","08_ages_11":"11","08_ages_12":"12","08_ages_13":"13","08_ages_14":"14","08_ages_15":"15","08_ages_16":"16","08_ages_17":"17","08_ages_18":"18"},"rt":46474.40000000596,"item_order":[0,1,2,3,4,5,6,7],"radio_events":[3985.5999999940395,4800.4000000059605,6247.79999999702,8328.20000000298,12856.59999999404,13584.20000000298,18232.20000000298,31648.59999999404],"checkbox_events":[14879.90000000596,19496.70000000298,20031.40000000596,20664.70000000298,21103.59999999404,21696.90000000596,22337.20000000298,22768,23351.79999999702,23768.40000000596,24728.20000000298,25111.79999999702,27184.20000000298,27560.29999999702,28208.29999999702,28577.20000000298,29000.20000000298,29472.90000000596,30184.09999999404,33737,34464.79999999702,34857.29999999702,35447.59999999404,36313.20000000298,37889.29999999702,38288.29999999702,38928.29999999702,39569.40000000596,40216,41271.79999999702,42231.90000000596,42680.29999999702,43257.40000000596,43695.70000000298,44353,44798.79999999702,45433.29999999702],"key_events":[],"mouse_events":[3985.5999999940395,4800.4000000059605,6247.79999999702,7623.5,8328.20000000298,12856.59999999404,13584.20000000298,14879.90000000596,18232.20000000298,19496.70000000298,20031.40000000596,20664.70000000298,21103.59999999404,21696.90000000596,22337.20000000298,22768,23351.79999999702,23768.40000000596,24728.20000000298,25111.79999999702,26793.09999999404,27184.20000000298,27560.29999999702,28208.29999999702,28577.20000000298,29000.20000000298,29472.90000000596,30184.09999999404,31648.59999999404,32953.70000000298,33737,34096.20000000298,34464.79999999702,34857.29999999702,35447.59999999404,35928.29999999702,36313.20000000298,37040.59999999404,37889.29999999702,38288.29999999702,38928.29999999702,39569.40000000596,40216,40704.20000000298,41271.79999999702,42231.90000000596,42680.29999999702,43257.40000000596,43695.70000000298,44353,44798.79999999702,45433.29999999702,46471.09999999404],"honeypot":0,"survey":"mace","page":10,"trial_type":"survey-mace","trial_index":18,"time_elapsed":525108,"internal_node_id":"0.0-18.0","task_version":"prescreen-v0.3","browser_interactions":0,"instructed":0},{"rt":4010.4000000059605,"trial_type":"mental-health-alert","trial_index":19,"time_elapsed":529120,"internal_node_id":"0.0-19.0","task_version":"prescreen-v0.3","interactions":"[{\"event\":\"blur\",\"trial\":3,\"time\":158570},{\"event\":\"focus\",\"trial\":3,\"time\":159639}]"}]