[{"view_history":[{"page_index":0,"viewing_time":2890.899999976158},{"page_index":1,"viewing_time":5439.600000023842},{"page_index":2,"viewing_time":4592.799999982119},{"page_index":3,"viewing_time":2007.300000011921}],"rt":14931.09999999404,"trial_type":"instructions","trial_index":0,"time_elapsed":14940,"internal_node_id":"0.0-0.0","task_version":"prescreen-v0.3"},{"rt":10572.799999982119,"responses":{"age":"36","gender-categorical":"Male","gender-free-response":"","ethnicity":"Not Hispanic or Latino","race":["White"],"education":"Associate degree","siblings":"2"},"trial_type":"survey-demo","trial_index":1,"time_elapsed":25517,"internal_node_id":"0.0-1.0","task_version":"prescreen-v0.3"},{"responses":{"Q15":"2","Q14":"1","Q16":"0","Q08":"1","Q01":"0","Q07":"1","Q06":"1","Q20":"0","Q09":"1","Q19":"1","Q13":"1","Q21":"3","Q17":"2","Q04":"2","Q03":"1","Q12":"1","Q02":"0","Q11":"1","Q10":"0","Q18":"0","Q05":"1"},"rt":72515.89999997616,"item_order":[14,13,15,7,0,6,5,19,8,18,12,20,16,3,2,11,1,10,9,17,4],"radio_events":[6402.5999999940395,8602.59999999404,10946.699999988079,13170.59999999404,14746.699999988079,18794.59999999404,22954.5,25178.59999999404,29026.79999998212,33962.5,36226.59999999404,37770.5,40634.69999998808,43762.5,44874.5,49314.59999999404,52706.39999997616,54946.5,57450.5,59826.5,62570.69999998808,65066.59999999404,71146.39999997616],"key_events":[],"mouse_events":[5746.5999999940395,6402.5999999940395,8602.59999999404,10946.699999988079,13170.59999999404,14746.699999988079,18058.59999999404,18794.59999999404,22954.5,25178.59999999404,29026.79999998212,33962.5,36226.59999999404,37770.5,40634.69999998808,43762.5,44874.5,48754.59999999404,49314.59999999404,52706.39999997616,54946.5,56946.59999999404,57450.5,59826.5,62570.69999998808,65066.59999999404,71146.39999997616,72514.5],"straightlining":0.5238095238095238,"zigzagging":0.65,"honeypot":0,"survey":"sns","trial_type":"survey-template","trial_index":2,"time_elapsed":98038,"internal_node_id":"0.0-2.0","task_version":"prescreen-v0.3","browser_interactions":0,"infrequency":0},{"responses":{"Q01":"2","Q12":"1","Q06":"3","Q11":"1","Q02":"2","Q09":"1","Q13":"0","Q05":"2","Q10":"2","Q07":"3","Q04":"2","Q08":"1","Q03":"2"},"rt":27170.5,"item_order":[0,11,5,10,1,8,12,4,9,6,3,7,2],"radio_events":[2905.7000000178814,4553.800000011921,5841.800000011921,7945.9000000059605,9226.09999999404,10729.800000011921,12569.800000011921,14873.700000017881,17337.59999999404,18761.70000001788,22097.59999999404,24161.70000001788,26689.70000001788],"key_events":[],"mouse_events":[2905.7000000178814,4553.800000011921,5841.800000011921,7945.9000000059605,9226.09999999404,10729.800000011921,12569.800000011921,14873.700000017881,17337.59999999404,18097.5,18761.70000001788,21145.70000001788,22097.59999999404,24161.70000001788,26689.70000001788,27169.70000001788],"straightlining":0.46153846153846156,"zigzagging":0.6666666666666666,"honeypot":0,"survey":"bisbas","trial_type":"survey-template","trial_index":3,"time_elapsed":125212,"internal_node_id":"0.0-3.0","task_version":"prescreen-v0.3","browser_interactions":0,"infrequency":0},{"responses":{"Q01":"2","Q02":"3","Q03":"2"},"rt":17691.29999998212,"radio_events":[4418.9000000059605,8235,10810.699999988079,12850.799999982119,17066.90000000596],"key_events":[],"mouse_events":[4418.9000000059605,8235,10810.699999988079,12850.799999982119,17066.90000000596,17690.79999998212],"survey":"map","page":1,"trial_type":"survey-map","trial_index":4,"time_elapsed":142908,"internal_node_id":"0.0-4.0","task_version":"prescreen-v0.3","browser_interactions":0},{"responses":{"Q04":"3","Q05":"3","Q06":"3"},"rt":24396.600000023842,"radio_events":[18468,21748.100000023842,23964.100000023842],"key_events":[],"mouse_events":[18468,21748.100000023842,23564.20000001788,23964.100000023842,24396.20000001788],"survey":"map","page":2,"trial_type":"survey-map","trial_index":5,"time_elapsed":167308,"internal_node_id":"0.0-5.0","task_version":"prescreen-v0.3","browser_interactions":0},{"responses":{"Q07":"2","Q08":"3","Q09":"2"},"rt":11492.59999999404,"radio_events":[5244.200000017881,6788.200000017881,9372.09999999404,11028.200000017881],"key_events":[],"mouse_events":[5244.200000017881,6788.200000017881,9372.09999999404,11028.200000017881,11492.300000011921],"survey":"map","page":3,"trial_type":"survey-map","trial_index":6,"time_elapsed":178804,"internal_node_id":"0.0-6.0","task_version":"prescreen-v0.3","browser_interactions":0},{"responses":{"Q10":"2","Q11":"2","Q12":"4","Q13":"3","Q16":"0","Q14":"2","Q15":"2"},"rt":30372.59999999404,"radio_events":[6228.899999976158,7171.899999976158,9908,13635.899999976158,19164,26532,27212,29739.899999976158],"key_events":[],"mouse_events":[6228.899999976158,7171.899999976158,9908,13635.899999976158,19164,26532,27212,29739.899999976158,30372],"survey":"map","page":4,"trial_type":"survey-map","trial_index":7,"time_elapsed":209181,"internal_node_id":"0.0-7.0","task_version":"prescreen-v0.3","browser_interactions":0,"infrequency":0},{"view_history":[{"page_index":0,"viewing_time":3109},{"page_index":1,"viewing_time":4262.699999988079}],"rt":7372.199999988079,"trial_type":"instructions","trial_index":8,"time_elapsed":216556,"internal_node_id":"0.0-8.0","task_version":"prescreen-v0.3"},{"responses":{"01":"No","02":"No","03":"No","04":"No","05":"No","06":"Yes","06_ages_6":"6","06_ages_7":"7","06_ages_8":"8","06_ages_9":"9","06_ages_10":"10","06_ages_11":"11","06_ages_12":"12"},"rt":65693.59999999404,"item_order":[0,1,2,3,4,5],"radio_events":[13699.699999988079,17435.59999999404,30331.399999976158,32219.399999976158,34235.5,44828.39999997616],"checkbox_events":[53203.69999998808,53931.5,54491.5,54875.39999997616,55275.5,56147.39999997616,59475.39999997616],"key_events":[],"mouse_events":[0,13699.699999988079,17435.59999999404,30331.399999976158,32219.399999976158,34235.5,44828.39999997616,53203.69999998808,53931.5,54491.5,54875.39999997616,55275.5,55563.59999999404,56147.39999997616,59475.39999997616,65691.69999998808],"honeypot":0,"survey":"mace","page":1,"trial_type":"survey-mace","trial_index":9,"time_elapsed":282254,"internal_node_id":"0.0-9.0","task_version":"prescreen-v0.3","browser_interactions":0},{"responses":{"01":"No","02":"No","03":"Yes","03_ages_9":"9","04":"No","05":"No","06":"Yes","06_ages_6":"6","06_ages_7":"7","06_ages_8":"8","06_ages_9":"9","06_ages_10":"10","07":"No","08":"No"},"rt":66371,"item_order":[0,1,2,3,4,5,6,7],"radio_events":[3960.699999988079,6912.800000011921,9624.699999988079,16624.80000001192,18168.90000000596,39664.80000001192,57504.69999998808,60952.80000001192,64640.69999998808],"checkbox_events":[14673.699999988079,47664.80000001192,48936.69999998808,49456.80000001192,49944.69999998808,50328.69999998808,51136.69999998808,51545.30000001192,54136.69999998808,54585.09999999404],"key_events":[],"mouse_events":[3960.699999988079,6912.800000011921,9624.699999988079,14673.699999988079,16624.80000001192,18168.90000000596,39664.80000001192,47664.80000001192,48936.69999998808,49456.80000001192,49944.69999998808,50328.69999998808,51136.69999998808,51545.30000001192,54136.69999998808,54585.09999999404,57504.69999998808,60952.80000001192,64640.69999998808,66369],"honeypot":0,"survey":"mace","page":2,"trial_type":"survey-mace","trial_index":10,"time_elapsed":348630,"internal_node_id":"0.0-10.0","task_version":"prescreen-v0.3","browser_interactions":0},{"responses":{"01":"No","02":"No","03":"No","04":"No"},"rt":35499.59999999404,"item_order":[0,1,2,3],"radio_events":[17481.59999999404,26690.5,32265.59999999404,35065.69999998808],"checkbox_events":[],"key_events":[],"mouse_events":[17481.59999999404,26690.5,32265.59999999404,35065.69999998808,35498.5],"honeypot":0,"survey":"mace","page":3,"trial_type":"survey-mace","trial_index":11,"time_elapsed":384134,"internal_node_id":"0.0-11.0","task_version":"prescreen-v0.3","browser_interactions":0},{"responses":{"01":"No","02":"No"},"rt":6507.299999982119,"item_order":[0,1],"radio_events":[4827.799999982119,5562.699999988079],"checkbox_events":[],"key_events":[],"mouse_events":[4827.799999982119,5562.699999988079,6506.799999982119],"honeypot":0,"survey":"mace","page":4,"trial_type":"survey-mace","trial_index":12,"time_elapsed":390644,"internal_node_id":"0.0-12.0","task_version":"prescreen-v0.3","browser_interactions":0},{"responses":{"01":"No","02":"No","03":"No","04":"No","05":"No"},"rt":22141.90000000596,"item_order":[0,1,2,3,4],"radio_events":[5252.199999988079,11805.09999999404,14284.199999988079,15620.199999988079,18452.19999998808,21100.19999998808],"checkbox_events":[],"key_events":[],"mouse_events":[5252.199999988079,11805.09999999404,14284.199999988079,15620.199999988079,18452.19999998808,20332.30000001192,21100.19999998808,22140.30000001192],"honeypot":0,"survey":"mace","page":5,"trial_type":"survey-mace","trial_index":13,"time_elapsed":412790,"internal_node_id":"0.0-13.0","task_version":"prescreen-v0.3","browser_interactions":0},{"responses":{"01":"Yes","01_ages_10":"10","01_ages_11":"11","01_ages_12":"12","01_ages_13":"13","01_ages_14":"14","01_ages_15":"15","02":"No","03":"No","04":"No","05":"No"},"rt":38379.80000001192,"item_order":[0,1,2,3,4],"radio_events":[8849.90000000596,27194.09999999404,29722.20000001788,33946.09999999404,37698.09999999404],"checkbox_events":[12786.09999999404,13962,14690.09999999404,16066.09999999404,19298,19746.09999999404],"key_events":[],"mouse_events":[8849.90000000596,12786.09999999404,13962,14690.09999999404,16066.09999999404,19298,19746.09999999404,27194.09999999404,29722.20000001788,33146.20000001788,33521.90000000596,33946.09999999404,37698.09999999404,38378.40000000596],"honeypot":0,"survey":"mace","page":6,"trial_type":"survey-mace","trial_index":14,"time_elapsed":451173,"internal_node_id":"0.0-14.0","task_version":"prescreen-v0.3","browser_interactions":0},{"responses":{"01":"No","02":"No","03":"No","04":"No","05":"No","06":"No","07":"No"},"rt":21748.30000001192,"item_order":[0,1,2,3,4,5,6],"radio_events":[8906.300000011921,10697.5,12417.59999999404,12985.700000017881,15201.59999999404,18257.40000000596,21281.5],"checkbox_events":[],"key_events":[],"mouse_events":[8906.300000011921,10697.5,12417.59999999404,12985.700000017881,15201.59999999404,18257.40000000596,20681.59999999404,21281.5,21746.40000000596],"honeypot":0,"survey":"mace","page":7,"trial_type":"survey-mace","trial_index":15,"time_elapsed":472926,"internal_node_id":"0.0-15.0","task_version":"prescreen-v0.3","browser_interactions":0},{"responses":{"01":"No","02":"No","03":"No","04":"No"},"rt":20026.80000001192,"item_order":[0,1,2,3],"radio_events":[9585.5,15073.59999999404,17290,19481.69999998808],"checkbox_events":[],"key_events":[],"mouse_events":[9585.5,15073.59999999404,17290,19033.69999998808,19481.69999998808,20025.69999998808],"honeypot":0,"survey":"mace","page":8,"trial_type":"survey-mace","trial_index":16,"time_elapsed":492957,"internal_node_id":"0.0-16.0","task_version":"prescreen-v0.3","browser_interactions":0},{"responses":{"01":"Yes","01_ages_1":"1","01_ages_2":"2","01_ages_3":"3","01_ages_4":"4","01_ages_5":"5","01_ages_6":"6","01_ages_7":"7","01_ages_8":"8","01_ages_9":"9","01_ages_10":"10","01_ages_11":"11","01_ages_12":"12","01_ages_13":"13","01_ages_14":"14","01_ages_15":"15","01_ages_16":"16","01_ages_17":"17","01_ages_18":"18","02":"Yes","02_ages_6":"6","02_ages_7":"7","02_ages_8":"8","02_ages_9":"9","02_ages_10":"10","02_ages_11":"11","02_ages_12":"12","02_ages_13":"13","02_ages_14":"14","03":"Yes","03_ages_1":"1","03_ages_2":"2","03_ages_3":"3","03_ages_4":"4","03_ages_5":"5","03_ages_6":"6","03_ages_7":"7","03_ages_8":"8","03_ages_9":"9","03_ages_10":"10","03_ages_11":"11","03_ages_12":"12","03_ages_13":"13","03_ages_14":"14","03_ages_15":"15","03_ages_16":"16","03_ages_17":"17","03_ages_18":"18","04":"Yes","04_ages_1":"1","04_ages_2":"2","04_ages_3":"3","04_ages_4":"4","04_ages_5":"5","04_ages_6":"6","04_ages_7":"7","04_ages_8":"8","04_ages_9":"9","04_ages_10":"10","04_ages_11":"11","04_ages_12":"12","04_ages_13":"13","04_ages_14":"14","04_ages_15":"15","04_ages_16":"16","04_ages_17":"17","04_ages_18":"18"},"rt":50836.40000000596,"item_order":[0,1,2,3],"radio_events":[2402.9000000059605,19370.90000000596,28202.90000000596,41330.80000001192],"checkbox_events":[6699,7474.9000000059605,7931.800000011921,8426.90000000596,8835,9322.90000000596,9707,10122.90000000596,10835.100000023842,11179,11507.40000000596,12106.700000017881,12995,13314.90000000596,13850.90000000596,14282.90000000596,14731,15019,21674.90000000596,22043,22403,23435,23914.90000000596,24482.90000000596,24891,25243.100000023842,25595.100000023842,29514.80000001192,29811,30178.90000000596,30850.90000000596,31194.90000000596,31523.20000001788,31946.90000000596,32346.90000000596,33322.90000000596,34275.60000002384,34786.90000000596,35283,35714.80000001192,36051.20000001788,36435,36834.80000001192,37210.90000000596,37866.90000000596,42299,42762.90000000596,43138.90000000596,43482.80000001192,43835.10000002384,44834.80000001192,45179,45706.80000001192,46026.90000000596,46371.10000002384,46706.80000001192,47018.90000000596,47363,47658.90000000596,48675,49099,49482.90000000596,50514.90000000596],"key_events":[],"mouse_events":[2402.9000000059605,6699,7474.9000000059605,7931.800000011921,8426.90000000596,8835,9322.90000000596,9707,10122.90000000596,10835.100000023842,11179,11507.40000000596,12106.700000017881,12643,12995,13314.90000000596,13850.90000000596,14282.90000000596,14731,15019,19370.90000000596,21674.90000000596,22043,22403,22738.90000000596,23435,23914.90000000596,24482.90000000596,24891,25243.100000023842,25595.100000023842,28202.90000000596,29514.80000001192,29811,30178.90000000596,30850.90000000596,31194.90000000596,31523.20000001788,31946.90000000596,32346.90000000596,32683.20000001788,33322.90000000596,33651.90000000596,34275.60000002384,34786.90000000596,35283,35714.80000001192,36051.20000001788,36435,36834.80000001192,37210.90000000596,37491,37866.90000000596,41330.80000001192,42299,42762.90000000596,43138.90000000596,43482.80000001192,43835.10000002384,44130.90000000596,44490.90000000596,44834.80000001192,45179,45706.80000001192,46026.90000000596,46371.10000002384,46706.80000001192,47018.90000000596,47363,47658.90000000596,48026.90000000596,48675,49099,49482.90000000596,49898.80000001192,50514.90000000596,50835],"honeypot":0,"survey":"mace","page":9,"trial_type":"survey-mace","trial_index":17,"time_elapsed":543797,"internal_node_id":"0.0-17.0","task_version":"prescreen-v0.3","browser_interactions":0},{"responses":{"01":"No","02":"No","03":"No","04":"No","05":"No","06":"Yes","06_ages_17":"17","07":"Yes","07_ages_1":"1","07_ages_2":"2","07_ages_3":"3","07_ages_4":"4","07_ages_5":"5","07_ages_6":"6","07_ages_7":"7","07_ages_8":"8","07_ages_9":"9","07_ages_10":"10","07_ages_11":"11","07_ages_12":"12","07_ages_13":"13","07_ages_14":"14","07_ages_15":"15","07_ages_16":"16","07_ages_17":"17","07_ages_18":"18","08":"Yes","08_ages_1":"1","08_ages_2":"2","08_ages_3":"3","08_ages_4":"4","08_ages_5":"5","08_ages_6":"6","08_ages_7":"7","08_ages_8":"8","08_ages_9":"9","08_ages_10":"10","08_ages_11":"11","08_ages_12":"12","08_ages_13":"13","08_ages_14":"14","08_ages_15":"15","08_ages_16":"16","08_ages_17":"17","08_ages_18":"18"},"rt":67163.80000001192,"item_order":[0,1,2,3,4,5,6,7],"radio_events":[2538.2000000178814,3961.9000000059605,5394.800000011921,8801.90000000596,26241.90000000596,34769.90000000596,36689.80000001192,40962.5,54746],"checkbox_events":[11874,14033.800000011921,38545.90000000596,42329.90000000596,42721.90000000596,43097.90000000596,43449.90000000596,43850,45825.90000000596,46290,46786.10000002384,47322.5,47849.80000001192,48250.10000002384,48873.90000000596,49426.20000001788,50521.90000000596,50921.90000000596,51849.90000000596,52393.90000000596,52778,57761.90000000596,58209.90000000596,58801.90000000596,59337.90000000596,59706,60129.90000000596,60521.90000000596,60969.80000001192,61353.90000000596,61873.80000001192,62249.80000001192,62777.80000001192,63346,64153.90000000596,64657.90000000596,65146,65610.60000002384,66305.80000001192],"key_events":[],"mouse_events":[2538.2000000178814,3961.9000000059605,5394.800000011921,8801.90000000596,11874,14033.800000011921,26241.90000000596,34769.90000000596,36689.80000001192,38202,38545.90000000596,40962.5,42329.90000000596,42721.90000000596,43097.90000000596,43449.90000000596,43850,44169.90000000596,44857.80000001192,45345.80000001192,45825.90000000596,46290,46786.10000002384,47322.5,47849.80000001192,48250.10000002384,48873.90000000596,49426.20000001788,50521.90000000596,50921.90000000596,51282.10000002384,51849.90000000596,52393.90000000596,52778,54746,57761.90000000596,58209.90000000596,58801.90000000596,59337.90000000596,59706,60129.90000000596,60521.90000000596,60969.80000001192,61353.90000000596,61873.80000001192,62249.80000001192,62777.80000001192,63346,64153.90000000596,64657.90000000596,65146,65610.60000002384,65993.90000000596,66305.80000001192,67161.90000000596],"honeypot":0,"survey":"mace","page":10,"trial_type":"survey-mace","trial_index":18,"time_elapsed":610966,"internal_node_id":"0.0-18.0","task_version":"prescreen-v0.3","browser_interactions":0,"instructed":0},{"rt":4802.5999999940395,"trial_type":"mental-health-alert","trial_index":19,"time_elapsed":615771,"internal_node_id":"0.0-19.0","task_version":"prescreen-v0.3","interactions":"[]"}]