[{"view_history":[{"page_index":0,"viewing_time":2914.300000190735},{"page_index":1,"viewing_time":3515.9000000953674},{"page_index":2,"viewing_time":1919.8999996185303},{"page_index":3,"viewing_time":807.9000000953674}],"rt":9158.700000286102,"trial_type":"instructions","trial_index":0,"time_elapsed":9169,"internal_node_id":"0.0-0.0","task_version":"prescreen-v0.3"},{"rt":18420.10000038147,"responses":{"age":"24","gender-categorical":"Male","gender-free-response":"","ethnicity":"Not Hispanic or Latino","race":["White"],"education":"High school","siblings":"1"},"trial_type":"survey-demo","trial_index":1,"time_elapsed":27594,"internal_node_id":"0.0-1.0","task_version":"prescreen-v0.3"},{"responses":{"Q18":"2","Q12":"1","Q15":"2","Q07":"0","Q10":"3","Q13":"1","Q06":"2","Q09":"3","Q08":"3","Q03":"3","Q05":"3","Q04":"2","Q19":"1","Q14":"1","Q20":"1","Q01":"3","Q02":"2","Q21":"3","Q17":"2","Q16":"0","Q11":"3"},"rt":86392.60000038147,"item_order":[17,11,14,6,9,12,5,8,7,2,4,3,18,13,19,0,1,20,16,15,10],"radio_events":[5762.800000190735,14184.700000286102,16040.300000190735,22198.700000286102,26770.700000286102,31490.60000038147,33408.7000002861,34632.40000009537,37442.800000190735,39572.60000038147,41610.5,49068.5,52268.60000038147,55812.60000038147,57096.5,59844.60000038147,62594.5,64976.60000038147,67978.5,73874.5,76400.30000019073,78566.5,79762.90000009537,82436.5,83818.5,85852.60000038147],"key_events":[],"mouse_events":[5762.800000190735,13272.700000286102,14184.700000286102,16040.300000190735,21892.800000190735,22198.700000286102,26770.700000286102,31490.60000038147,33408.7000002861,34632.40000009537,36956.5,37442.800000190735,39572.60000038147,41610.5,49068.5,52268.60000038147,55362.7000002861,55812.60000038147,57096.5,59844.60000038147,62594.5,64976.60000038147,67978.5,73874.5,76400.30000019073,78566.5,79762.90000009537,82436.5,83818.5,85416.7000002861,85852.60000038147,86390.60000038147],"straightlining":0.38095238095238093,"zigzagging":0.55,"honeypot":0,"survey":"sns","trial_type":"survey-template","trial_index":2,"time_elapsed":113995,"internal_node_id":"0.0-2.0","task_version":"prescreen-v0.3","browser_interactions":0,"infrequency":0},{"responses":{"Q04":"3","Q05":"3","Q07":"3","Q11":"3","Q08":"2","Q03":"3","Q06":"3","Q10":"2","Q01":"1","Q02":"3","Q12":"1","Q09":"1","Q13":"0"},"rt":44771.2000002861,"item_order":[3,4,6,10,7,2,5,9,0,1,11,8,12],"radio_events":[6256,8700,10534,13872.10000038147,16702,23686,25713.200000286102,28046.10000038147,29661.900000095367,34072.10000038147,37044,38004.10000038147,40268.10000038147,43712],"key_events":[],"mouse_events":[5938.10000038147,6256,8700,10534,13872.10000038147,16702,23686,25713.200000286102,28046.10000038147,29661.900000095367,34072.10000038147,37044,38004.10000038147,40268.10000038147,42384,43051.90000009537,43712,44770.10000038147],"straightlining":0.5384615384615384,"zigzagging":0.4166666666666667,"honeypot":0,"survey":"bisbas","trial_type":"survey-template","trial_index":3,"time_elapsed":158769,"internal_node_id":"0.0-3.0","task_version":"prescreen-v0.3","browser_interactions":0,"infrequency":0},{"responses":{"Q01":"1","Q02":"1","Q03":"1"},"rt":14178,"radio_events":[7227.900000095367,9975.799999713898,13717.699999809265],"key_events":[],"mouse_events":[7227.900000095367,9488.400000095367,9975.799999713898,12573.799999713898,12846.099999904633,13717.699999809265,14177.5],"survey":"map","page":1,"trial_type":"survey-map","trial_index":4,"time_elapsed":172950,"internal_node_id":"0.0-4.0","task_version":"prescreen-v0.3","browser_interactions":0},{"responses":{"Q04":"3","Q05":"2","Q06":"2"},"rt":12368.099999904633,"radio_events":[6723.599999904633,10227.599999904633,11827.599999904633],"key_events":[],"mouse_events":[6723.599999904633,10227.599999904633,11827.599999904633,12367.700000286102],"survey":"map","page":2,"trial_type":"survey-map","trial_index":5,"time_elapsed":185320,"internal_node_id":"0.0-5.0","task_version":"prescreen-v0.3","browser_interactions":0},{"responses":{"Q07":"0","Q08":"0","Q09":"0"},"rt":12650.199999809265,"radio_events":[9393.800000190735,10695.699999809265,11987.900000095367],"key_events":[],"mouse_events":[9393.800000190735,10695.699999809265,11987.900000095367,12649.599999904633],"survey":"map","page":3,"trial_type":"survey-map","trial_index":6,"time_elapsed":197972,"internal_node_id":"0.0-6.0","task_version":"prescreen-v0.3","browser_interactions":0},{"responses":{"Q10":"0","Q11":"0","Q12":"2","Q13":"2","Q16":"0","Q14":"1","Q15":"1"},"rt":36818.7000002861,"radio_events":[4634.10000038147,7217.60000038147,13475.5,22775.700000286102,25603.400000095367,33313.5,36111.10000038147],"key_events":[],"mouse_events":[4317.300000190735,4634.10000038147,7217.60000038147,11176.300000190735,13475.5,22235.60000038147,22775.700000286102,25603.400000095367,33313.5,36111.10000038147,36817.60000038147],"survey":"map","page":4,"trial_type":"survey-map","trial_index":7,"time_elapsed":234793,"internal_node_id":"0.0-7.0","task_version":"prescreen-v0.3","browser_interactions":0,"infrequency":0},{"view_history":[{"page_index":0,"viewing_time":1693.8000001907349},{"page_index":1,"viewing_time":5967.300000190735}],"rt":7661.700000286102,"trial_type":"instructions","trial_index":8,"time_elapsed":242455,"internal_node_id":"0.0-8.0","task_version":"prescreen-v0.3"},{"responses":{"01":"No","02":"No","03":"No","04":"No","05":"No","06":"No"},"rt":29727.599999904633,"item_order":[0,1,2,3,4,5],"radio_events":[11122.400000095367,15854.5,18070.599999904633,24090.299999713898,27188.400000095367,28506.5],"checkbox_events":[],"key_events":[],"mouse_events":[0,9510.400000095367,9796.199999809265,10018.199999809265,10422.299999713898,11122.400000095367,15854.5,18070.599999904633,24090.299999713898,27188.400000095367,28506.5,29724.699999809265],"honeypot":0,"survey":"mace","page":1,"trial_type":"survey-mace","trial_index":9,"time_elapsed":272189,"internal_node_id":"0.0-9.0","task_version":"prescreen-v0.3","browser_interactions":0},{"responses":{"01":"No","02":"No","03":"No","04":"No","05":"No","06":"No","07":"No","08":"No"},"rt":13846.599999904633,"item_order":[0,1,2,3,4,5,6,7],"radio_events":[2264.9000000953674,4676.900000095367,9358.900000095367,10332.900000095367,10986.900000095367,11670.699999809265,12404.800000190735,13146.900000095367],"checkbox_events":[],"key_events":[],"mouse_events":[2264.9000000953674,4284.900000095367,4676.900000095367,9358.900000095367,10332.900000095367,10986.900000095367,11670.699999809265,12404.800000190735,13146.900000095367,13842.800000190735],"honeypot":0,"survey":"mace","page":2,"trial_type":"survey-mace","trial_index":10,"time_elapsed":286040,"internal_node_id":"0.0-10.0","task_version":"prescreen-v0.3","browser_interactions":0},{"responses":{"01":"No","02":"No","03":"No","04":"No"},"rt":7204.799999713898,"item_order":[0,1,2,3],"radio_events":[2254.9000000953674,3996.9000000953674,5386.900000095367,5940.900000095367],"checkbox_events":[],"key_events":[],"mouse_events":[2254.9000000953674,3996.9000000953674,4926.799999713898,5386.900000095367,5940.900000095367,7202.900000095367],"honeypot":0,"survey":"mace","page":3,"trial_type":"survey-mace","trial_index":11,"time_elapsed":293248,"internal_node_id":"0.0-11.0","task_version":"prescreen-v0.3","browser_interactions":0},{"responses":{"01":"No","02":"No"},"rt":5002.599999904633,"item_order":[0,1],"radio_events":[3397.5999999046326,4605.800000190735],"checkbox_events":[],"key_events":[],"mouse_events":[3397.5999999046326,3815.7000002861023,4605.800000190735,5001.599999904633],"honeypot":0,"survey":"mace","page":4,"trial_type":"survey-mace","trial_index":12,"time_elapsed":298252,"internal_node_id":"0.0-12.0","task_version":"prescreen-v0.3","browser_interactions":0},{"responses":{"01":"No","02":"No","03":"No","04":"No","05":"No"},"rt":17857,"item_order":[0,1,2,3,4],"radio_events":[7410.5,10228.599999904633,16348.5,16862.5,17430.5],"checkbox_events":[],"key_events":[],"mouse_events":[7410.5,10228.599999904633,12366.39999961853,16348.5,16862.5,17430.5,17854.599999904633],"honeypot":0,"survey":"mace","page":5,"trial_type":"survey-mace","trial_index":13,"time_elapsed":316113,"internal_node_id":"0.0-13.0","task_version":"prescreen-v0.3","browser_interactions":0},{"responses":{"01":"No","02":"Yes","02_ages_14":"14","03":"Yes","03_ages_14":"14","04":"No","05":"No"},"rt":50292.7999997139,"item_order":[0,1,2,3,4],"radio_events":[7330.5,17162.39999961853,18236.599999904633,23810.5,49646.39999961853],"checkbox_events":[40486.699999809265,41652.59999990463,42608.7999997139,47622.5],"key_events":[],"mouse_events":[7330.5,17162.39999961853,18236.599999904633,23810.5,40486.699999809265,41652.59999990463,42608.7999997139,47622.5,49646.39999961853,50290.59999990463],"honeypot":0,"survey":"mace","page":6,"trial_type":"survey-mace","trial_index":14,"time_elapsed":366408,"internal_node_id":"0.0-14.0","task_version":"prescreen-v0.3","browser_interactions":0},{"responses":{"01":"No","02":"Yes","02_ages_15":"15","03":"No","04":"No","05":"No","06":"No","07":"No"},"rt":26337.599999904633,"item_order":[0,1,2,3,4,5,6],"radio_events":[4322.099999904633,8788.099999904633,20510.200000286102,22085,23872.400000095367,24834.099999904633,25688.200000286102],"checkbox_events":[16138.300000190735],"key_events":[],"mouse_events":[4322.099999904633,8788.099999904633,16138.300000190735,20510.200000286102,22085,23872.400000095367,24834.099999904633,25688.200000286102,26334.400000095367],"honeypot":0,"survey":"mace","page":7,"trial_type":"survey-mace","trial_index":15,"time_elapsed":392750,"internal_node_id":"0.0-15.0","task_version":"prescreen-v0.3","browser_interactions":0},{"responses":{"01":"Yes","01_ages_1":"1","01_ages_2":"2","01_ages_3":"3","01_ages_4":"4","01_ages_5":"5","02":"No","03":"No","04":"No"},"rt":29277.199999809265,"item_order":[0,1,2,3],"radio_events":[13714.300000190735,16257.199999809265,17157.300000190735,19426.300000190735],"checkbox_events":[24067.300000190735,24393.199999809265,24683.199999809265,24965.300000190735,26629.300000190735],"key_events":[],"mouse_events":[13714.300000190735,16257.199999809265,17157.300000190735,19426.300000190735,24067.300000190735,24393.199999809265,24683.199999809265,24965.300000190735,26629.300000190735,29275.300000190735],"honeypot":0,"survey":"mace","page":8,"trial_type":"survey-mace","trial_index":16,"time_elapsed":422030,"internal_node_id":"0.0-16.0","task_version":"prescreen-v0.3","browser_interactions":0},{"responses":{"01":"Yes","01_ages_1":"1","01_ages_2":"2","01_ages_3":"3","01_ages_4":"4","01_ages_5":"5","01_ages_6":"6","01_ages_7":"7","01_ages_8":"8","01_ages_9":"9","01_ages_10":"10","01_ages_11":"11","01_ages_12":"12","01_ages_13":"13","01_ages_14":"14","01_ages_15":"15","01_ages_16":"16","01_ages_17":"17","01_ages_18":"18","02":"No","03":"Yes","03_ages_1":"1","03_ages_2":"2","03_ages_3":"3","03_ages_4":"4","03_ages_5":"5","03_ages_6":"6","03_ages_7":"7","03_ages_8":"8","03_ages_9":"9","03_ages_10":"10","03_ages_11":"11","03_ages_12":"12","03_ages_13":"13","03_ages_14":"14","03_ages_15":"15","03_ages_16":"16","03_ages_17":"17","03_ages_18":"18","04":"Yes","04_ages_1":"1","04_ages_2":"2","04_ages_3":"3","04_ages_4":"4","04_ages_5":"5","04_ages_6":"6","04_ages_7":"7","04_ages_8":"8","04_ages_9":"9","04_ages_10":"10","04_ages_11":"11","04_ages_12":"12","04_ages_13":"13","04_ages_14":"14","04_ages_15":"15","04_ages_16":"16","04_ages_17":"17","04_ages_18":"18"},"rt":49439.10000038147,"item_order":[0,1,2,3],"radio_events":[5715,27761.10000038147,29480.800000190735,41011.10000038147],"checkbox_events":[8629.200000286102,9033,9623.10000038147,9927.10000038147,10225.10000038147,10533.10000038147,11361.10000038147,11655.200000286102,11915,12381,12691.10000038147,13137,13423.10000038147,13739,14079.10000038147,19512.800000190735,19887.900000095367,20715,21447,21755,22017,22278.200000286102,30703.300000190735,31083.10000038147,31477,32671,33017,33498.40000009537,33771,34179.10000038147,34703.2000002861,35705.10000038147,36039,36359.40000009537,37028.90000009537,37361.60000038147,37673.10000038147,37966.60000038147,38235.2000002861,38589.10000038147,41793,42112.90000009537,42747,43019.2000002861,43487,43839.2000002861,44397,44683,45077,45557,45971.10000038147,46265.40000009537,46560,46960.90000009537,47274.800000190735,47621.10000038147,47903.10000038147,48230.90000009537],"key_events":[],"mouse_events":[5715,8629.200000286102,9033,9623.10000038147,9927.10000038147,10225.10000038147,10533.10000038147,11361.10000038147,11655.200000286102,11915,12381,12691.10000038147,13137,13423.10000038147,13739,14079.10000038147,19512.800000190735,19887.900000095367,20715,21447,21755,22017,22278.200000286102,27761.10000038147,29480.800000190735,30319.10000038147,30703.300000190735,31083.10000038147,31477,31732.300000190735,31993.200000286102,32394.900000095367,32671,33017,33498.40000009537,33771,34179.10000038147,34703.2000002861,35199.10000038147,35705.10000038147,36039,36359.40000009537,37028.90000009537,37361.60000038147,37673.10000038147,37966.60000038147,38235.2000002861,38589.10000038147,41011.10000038147,41793,42112.90000009537,42747,43019.2000002861,43487,43839.2000002861,44113,44397,44683,45077,45342.7000002861,45557,45971.10000038147,46265.40000009537,46560,46960.90000009537,47274.800000190735,47621.10000038147,47903.10000038147,48230.90000009537,49437.2000002861],"honeypot":0,"survey":"mace","page":9,"trial_type":"survey-mace","trial_index":17,"time_elapsed":471472,"internal_node_id":"0.0-17.0","task_version":"prescreen-v0.3","browser_interactions":0},{"responses":{"01":"No","02":"No","03":"No","04":"No","05":"No","06":"Yes","06_ages_17":"17","07":"No","08":"No"},"rt":33122.199999809265,"item_order":[0,1,2,3,4,5,6,7],"radio_events":[5120.300000190735,6498.5,8044.300000190735,13726.099999904633,17280.5,18528.900000095367,23456.199999809265,24962.099999904633,32176],"checkbox_events":[19376.199999809265],"key_events":[],"mouse_events":[5120.300000190735,6498.5,8044.300000190735,13176.400000095367,13726.099999904633,17280.5,18528.900000095367,19376.199999809265,23456.199999809265,24962.099999904633,32176,33118.40000009537],"honeypot":0,"survey":"mace","page":10,"trial_type":"survey-mace","trial_index":18,"time_elapsed":504599,"internal_node_id":"0.0-18.0","task_version":"prescreen-v0.3","browser_interactions":0,"instructed":0},{"rt":8151.599999904633,"trial_type":"mental-health-alert","trial_index":19,"time_elapsed":512752,"internal_node_id":"0.0-19.0","task_version":"prescreen-v0.3","interactions":"[]"}]