[{"view_history":[{"page_index":0,"viewing_time":2363},{"page_index":1,"viewing_time":3176},{"page_index":2,"viewing_time":4864},{"page_index":3,"viewing_time":4223}],"rt":14626,"trial_type":"instructions","trial_index":0,"time_elapsed":14631,"internal_node_id":"0.0-0.0","task_version":"prescreen-v0.3"},{"rt":27925,"responses":{"age":"24","gender-categorical":"Male","gender-free-response":"","ethnicity":"Not Hispanic or Latino","race":["Asian"],"education":"High school","siblings":"1"},"trial_type":"survey-demo","trial_index":1,"time_elapsed":42562,"internal_node_id":"0.0-1.0","task_version":"prescreen-v0.3"},{"responses":{"Q16":"3","Q18":"3","Q10":"2","Q03":"2","Q04":"3","Q13":"3","Q07":"3","Q15":"3","Q08":"3","Q01":"2","Q09":"2","Q17":"1","Q11":"2","Q12":"3","Q20":"1","Q14":"2","Q02":"2","Q05":"2","Q06":"0","Q19":"2","Q21":"3"},"rt":165502,"item_order":[15,17,9,2,3,12,6,14,7,0,8,16,10,11,19,13,1,4,5,18,20],"radio_events":[4263,9336,16564,21601,43697,46545,52594,61865,64415,67454,87631,94457,97841,101890,107114,113001,117543,126574,148346,153412,160055],"key_events":[],"mouse_events":[4263,9336,16268,16564,20820,21238,21601,43200,43697,46002,46284,46545,52594,61865,64415,67454,86813,87631,94457,97841,101890,107114,112711,113001,117543,126574,142341,142689,148346,153412,160055,165502],"straightlining":0.42857142857142855,"zigzagging":0.4,"honeypot":0,"survey":"sns","trial_type":"survey-template","trial_index":2,"time_elapsed":208067,"internal_node_id":"0.0-2.0","task_version":"prescreen-v0.3","browser_interactions":6,"infrequency":0},{"responses":{"Q10":"2","Q11":"0","Q02":"3","Q09":"1","Q05":"2","Q04":"3","Q06":"2","Q01":"3","Q03":"3","Q13":"0","Q12":"1","Q07":"3","Q08":"2"},"rt":78201,"item_order":[9,10,1,8,4,3,5,0,2,12,11,6,7],"radio_events":[7684,11671,15726,24001,26617,31735,35718,50795,55198,57316,68027,71791,76993],"key_events":[],"mouse_events":[5000,7684,11079,11671,15726,23146,23642,24001,26617,31735,35718,50264,50795,54362,55198,57316,68027,71791,76681,76993,78201],"straightlining":0.38461538461538464,"zigzagging":0.6666666666666666,"honeypot":0,"survey":"bisbas","trial_type":"survey-template","trial_index":3,"time_elapsed":286271,"internal_node_id":"0.0-3.0","task_version":"prescreen-v0.3","browser_interactions":2,"infrequency":0},{"responses":{"Q01":"2","Q02":"1","Q03":"1"},"rt":38578,"radio_events":[20310,29477,36763],"key_events":[],"mouse_events":[20310,29477,36763,38578],"survey":"map","page":1,"trial_type":"survey-map","trial_index":4,"time_elapsed":324850,"internal_node_id":"0.0-4.0","task_version":"prescreen-v0.3","browser_interactions":2},{"responses":{"Q04":"1","Q05":"1","Q06":"1"},"rt":17700,"radio_events":[6665,11676,16149],"key_events":[],"mouse_events":[6665,11135,11676,15826,16149,17700],"survey":"map","page":2,"trial_type":"survey-map","trial_index":5,"time_elapsed":342552,"internal_node_id":"0.0-5.0","task_version":"prescreen-v0.3","browser_interactions":0},{"responses":{"Q07":"0","Q08":"0","Q09":"1"},"rt":75461,"radio_events":[51859,57390,63445,67555],"key_events":[],"mouse_events":[51859,55846,57390,63445,67555,75461],"survey":"map","page":3,"trial_type":"survey-map","trial_index":6,"time_elapsed":418014,"internal_node_id":"0.0-6.0","task_version":"prescreen-v0.3","browser_interactions":2},{"responses":{"Q10":"1","Q11":"2","Q12":"0","Q13":"0","Q16":"0","Q14":"1","Q15":"1"},"rt":45540,"radio_events":[18683,21103,23689,26272,32569,35017,42970,43659],"key_events":[],"mouse_events":[18683,21103,22860,23689,26272,32569,35017,42970,43659,45540],"survey":"map","page":4,"trial_type":"survey-map","trial_index":7,"time_elapsed":463556,"internal_node_id":"0.0-7.0","task_version":"prescreen-v0.3","browser_interactions":2,"infrequency":0},{"view_history":[{"page_index":0,"viewing_time":3376},{"page_index":1,"viewing_time":3046}],"rt":6422,"trial_type":"instructions","trial_index":8,"time_elapsed":469979,"internal_node_id":"0.0-8.0","task_version":"prescreen-v0.3"},{"responses":{"01":"Yes","01_ages_14":"14","01_ages_15":"15","01_ages_16":"16","01_ages_17":"17","01_ages_18":"18","02":"Yes","02_ages_9":"9","02_ages_10":"10","02_ages_11":"11","02_ages_12":"12","02_ages_13":"13","02_ages_14":"14","02_ages_15":"15","02_ages_16":"16","02_ages_17":"17","02_ages_18":"18","03":"Yes","03_ages_9":"9","03_ages_10":"10","03_ages_11":"11","03_ages_12":"12","03_ages_13":"13","03_ages_14":"14","03_ages_15":"15","03_ages_16":"16","04":"Yes","04_ages_7":"7","04_ages_8":"8","04_ages_9":"9","04_ages_10":"10","04_ages_11":"11","04_ages_12":"12","04_ages_13":"13","04_ages_14":"14","04_ages_15":"15","05":"Yes","05_ages_6":"6","05_ages_7":"7","05_ages_8":"8","06":"Yes","06_ages_15":"15","06_ages_16":"16"},"rt":544548,"item_order":[0,1,2,3,4,5],"radio_events":[25920,42379,48891,74919,80447,91158],"checkbox_events":[207119,207615,208194,208562,208895,230878,231237,231691,232071,232507,233127,238343,240029,240665,248928,296405,298567,302109,306448,307097,308102,308778,311855,371220,371564,375624,376098,376534,376966,378683,379669,380244,462679,467527,469012,469477,470202,470882,471836,536739,538633],"key_events":[],"mouse_events":[0,25920,42379,48891,74597,74919,80447,91158,173203,175594,207119,207615,208194,208562,208895,229857,230342,230878,231237,231691,232071,232507,233127,238343,240029,240665,248928,296405,298567,302109,306448,307097,308102,308778,311855,371220,371564,375624,376098,376534,376966,378683,379669,380244,462679,467527,469012,469477,469868,470202,470882,471836,536739,538633,544548],"honeypot":0,"survey":"mace","page":1,"trial_type":"survey-mace","trial_index":9,"time_elapsed":1014535,"internal_node_id":"0.0-9.0","task_version":"prescreen-v0.3","browser_interactions":20},{"responses":{"01":"No","02":"No","03":"Yes","03_ages_6":"6","03_ages_7":"7","03_ages_8":"8","03_ages_9":"9","03_ages_10":"10","03_ages_11":"11","04":"Yes","04_ages_6":"6","04_ages_7":"7","04_ages_8":"8","05":"Yes","05_ages_6":"6","05_ages_7":"7","05_ages_8":"8","06":"Yes","06_ages_15":"15","06_ages_16":"16","07":"No","08":"No"},"rt":185662,"item_order":[0,1,2,3,4,5,6,7],"radio_events":[33620,41878,49589,51607,56878,94983,103954,109220,112900],"checkbox_events":[64732,65262,65720,66170,66983,67417,67718,68922,69252,69858,70188,70569,70906,71243,73429,73992,74356,87604,90594,96083,96658,97611,124460,125003,125427,131349,132123,136689,141702,142097,142488,161418,161956,162355,172455,172832],"key_events":[],"mouse_events":[33620,41878,49589,51607,52448,56878,64732,65262,65720,66170,66983,67417,67718,68922,69252,69858,70188,70569,70906,71243,73429,73992,74356,87604,90594,94983,96083,96658,96990,97611,103954,109220,112900,124460,125003,125427,131349,132123,136689,141702,142097,142488,161418,161956,162355,172455,172832,185661],"honeypot":0,"survey":"mace","page":2,"trial_type":"survey-mace","trial_index":10,"time_elapsed":1200204,"internal_node_id":"0.0-10.0","task_version":"prescreen-v0.3","browser_interactions":4},{"responses":{"01":"No","02":"No","03":"No","04":"No"},"rt":13393,"item_order":[0,1,2,3],"radio_events":[3245,7199,11416,12704],"checkbox_events":[],"key_events":[],"mouse_events":[3245,7199,11416,12300,12704,13393],"honeypot":0,"survey":"mace","page":3,"trial_type":"survey-mace","trial_index":11,"time_elapsed":1213600,"internal_node_id":"0.0-11.0","task_version":"prescreen-v0.3","browser_interactions":0},{"responses":{"01":"No","02":"No"},"rt":7191,"item_order":[0,1],"radio_events":[4562,6619],"checkbox_events":[],"key_events":[],"mouse_events":[4562,6619,7191],"honeypot":0,"survey":"mace","page":4,"trial_type":"survey-mace","trial_index":12,"time_elapsed":1220795,"internal_node_id":"0.0-12.0","task_version":"prescreen-v0.3","browser_interactions":0},{"responses":{"01":"No","02":"No","03":"No","04":"No","05":"No"},"rt":20137,"item_order":[0,1,2,3,4],"radio_events":[4416,7119,12721,13152,19497],"checkbox_events":[],"key_events":[],"mouse_events":[4416,7119,9444,10628,12721,13152,18037,19497,20137],"honeypot":0,"survey":"mace","page":5,"trial_type":"survey-mace","trial_index":13,"time_elapsed":1240936,"internal_node_id":"0.0-13.0","task_version":"prescreen-v0.3","browser_interactions":0},{"responses":{"01":"Yes","01_ages_10":"10","01_ages_11":"11","01_ages_12":"12","01_ages_13":"13","01_ages_14":"14","02":"Yes","02_ages_9":"9","02_ages_10":"10","02_ages_11":"11","02_ages_12":"12","02_ages_13":"13","02_ages_14":"14","02_ages_15":"15","03":"Yes","03_ages_9":"9","03_ages_10":"10","03_ages_11":"11","03_ages_12":"12","03_ages_13":"13","03_ages_14":"14","03_ages_15":"15","04":"Yes","04_ages_10":"10","04_ages_11":"11","04_ages_12":"12","04_ages_13":"13","04_ages_14":"14","04_ages_15":"15","05":"Yes","05_ages_10":"10","05_ages_11":"11","05_ages_12":"12","05_ages_13":"13","05_ages_14":"14","05_ages_15":"15"},"rt":143557,"item_order":[0,1,2,3,4],"radio_events":[21420,54019,73046,99297,125163],"checkbox_events":[32570,33103,36035,36379,43572,44934,62097,62480,63191,63740,64083,64386,77556,78521,78995,79647,80616,81788,93123,101555,102031,104161,104713,105094,105502,106081,133251,133711,134118,134656,135000],"key_events":[],"mouse_events":[16116,21420,32570,33103,36035,36379,43572,44934,54019,62097,62480,63191,63740,64083,64386,73046,77556,78199,78521,78995,79647,80616,81447,81788,93123,99297,101555,102031,104161,104713,105094,105502,106081,125163,133251,133711,134118,134656,135000,143557],"honeypot":0,"survey":"mace","page":6,"trial_type":"survey-mace","trial_index":14,"time_elapsed":1384498,"internal_node_id":"0.0-14.0","task_version":"prescreen-v0.3","browser_interactions":2},{"responses":{"01":"No","02":"No","03":"Yes","03_ages_12":"12","03_ages_13":"13","03_ages_14":"14","03_ages_15":"15","04":"Yes","04_ages_8":"8","04_ages_9":"9","05":"Yes","05_ages_8":"8","05_ages_9":"9","06":"No","07":"No"},"rt":70857,"item_order":[0,1,2,3,4,5,6],"radio_events":[9556,14963,20583,50861,52060,67980,70092],"checkbox_events":[31804,32332,32693,33116,63748,64030,64533,64979],"key_events":[],"mouse_events":[9556,14963,20583,31804,32332,32693,33116,50861,52060,63748,64030,64533,64979,67980,70092,70857],"honeypot":0,"survey":"mace","page":7,"trial_type":"survey-mace","trial_index":15,"time_elapsed":1455360,"internal_node_id":"0.0-15.0","task_version":"prescreen-v0.3","browser_interactions":0},{"responses":{"01":"Yes","01_ages_8":"8","01_ages_9":"9","01_ages_10":"10","01_ages_11":"11","01_ages_12":"12","01_ages_13":"13","01_ages_14":"14","01_ages_15":"15","01_ages_16":"16","01_ages_17":"17","02":"Yes","02_ages_8":"8","02_ages_9":"9","02_ages_10":"10","02_ages_11":"11","02_ages_12":"12","02_ages_13":"13","02_ages_14":"14","02_ages_15":"15","02_ages_16":"16","02_ages_17":"17","03":"Yes","03_ages_6":"6","03_ages_7":"7","03_ages_8":"8","03_ages_9":"9","03_ages_10":"10","03_ages_11":"11","03_ages_12":"12","03_ages_13":"13","03_ages_14":"14","03_ages_15":"15","03_ages_16":"16","03_ages_17":"17","04":"Yes","04_ages_6":"6","04_ages_7":"7","04_ages_8":"8","04_ages_9":"9","04_ages_10":"10","04_ages_11":"11","04_ages_12":"12","04_ages_13":"13","04_ages_14":"14"},"rt":117619,"item_order":[0,1,2,3],"radio_events":[15645,19734,20312,26006],"checkbox_events":[43893,44339,44726,45103,45493,45839,47105,47459,48364,64351,64979,65494,67342,67789,68162,68587,69040,70057,71371,71773,73256,101608,102055,102697,103366,103795,104206,104713,105087,105430,106013,108288,108625,108963,109553,109911,110552,110923,111275,111883,113043],"key_events":[],"mouse_events":[15645,19734,20312,26006,43893,44339,44726,45103,45493,45839,46341,46672,47105,47459,47883,48364,64351,64979,65494,67342,67789,68162,68587,69040,70057,71371,71773,73256,101608,102055,102697,103366,103795,104206,104713,105087,105430,106013,108288,108625,108963,109553,109911,110552,110923,111275,111624,111883,113043,117619],"honeypot":0,"survey":"mace","page":8,"trial_type":"survey-mace","trial_index":16,"time_elapsed":1572984,"internal_node_id":"0.0-16.0","task_version":"prescreen-v0.3","browser_interactions":0},{"responses":{"01":"No","02":"No","03":"No","04":"Yes","04_ages_7":"7","04_ages_8":"8"},"rt":54341,"item_order":[0,1,2,3],"radio_events":[2631,4848,10317,16055],"checkbox_events":[41417,41839],"key_events":[],"mouse_events":[2631,4848,10317,16055,41417,41839,54341],"honeypot":0,"survey":"mace","page":9,"trial_type":"survey-mace","trial_index":17,"time_elapsed":1627329,"internal_node_id":"0.0-17.0","task_version":"prescreen-v0.3","browser_interactions":0},{"responses":{"01":"Yes","01_ages_14":"14","01_ages_15":"15","01_ages_16":"16","01_ages_17":"17","01_ages_18":"18","02":"No","03":"No","04":"Yes","04_ages_6":"6","04_ages_7":"7","04_ages_8":"8","04_ages_9":"9","04_ages_10":"10","04_ages_11":"11","04_ages_12":"12","04_ages_13":"13","04_ages_14":"14","04_ages_15":"15","05":"Yes","05_ages_6":"6","05_ages_7":"7","05_ages_8":"8","05_ages_9":"9","05_ages_10":"10","05_ages_11":"11","05_ages_12":"12","05_ages_13":"13","05_ages_14":"14","05_ages_15":"15","05_ages_16":"16","05_ages_17":"17","05_ages_18":"18","06":"Yes","06_ages_17":"17","07":"No","08":"No"},"rt":91892,"item_order":[0,1,2,3,4,5,6,7],"radio_events":[8978,15885,20040,24510,26507,29131,46718,74587],"checkbox_events":[21154,33682,34063,34398,34726,35095,35447,35777,36146,36629,37076,41291,41684,42003,50851,51183,51536,52147,52631,53192,53716,54146,56734,58199,75244,75664,76725,77158,78907,80768,87374],"key_events":[],"mouse_events":[8978,14898,15885,20040,21154,24510,26507,29131,33682,34063,34398,34726,35095,35447,35777,36146,36629,37076,41291,41684,42003,46718,50851,51183,51536,52147,52631,53192,53716,54146,56734,58199,74587,75244,75664,76725,77158,78907,80768,87374,91891],"honeypot":0,"survey":"mace","page":10,"trial_type":"survey-mace","trial_index":18,"time_elapsed":1719226,"internal_node_id":"0.0-18.0","task_version":"prescreen-v0.3","browser_interactions":0,"instructed":0},{"rt":10572,"trial_type":"mental-health-alert","trial_index":19,"time_elapsed":1729800,"internal_node_id":"0.0-19.0","task_version":"prescreen-v0.3","interactions":"[{\"event\":\"focus\",\"trial\":0,\"time\":1},{\"event\":\"blur\",\"trial\":2,\"time\":69738},{\"event\":\"focus\",\"trial\":2,\"time\":85688},{\"event\":\"blur\",\"trial\":2,\"time\":113981},{\"event\":\"focus\",\"trial\":2,\"time\":129302},{\"event\":\"blur\",\"trial\":2,\"time\":171894},{\"event\":\"focus\",\"trial\":2,\"time\":184229},{\"event\":\"blur\",\"trial\":3,\"time\":245864},{\"event\":\"focus\",\"trial\":3,\"time\":258242},{\"event\":\"blur\",\"trial\":4,\"time\":288214},{\"event\":\"focus\",\"trial\":4,\"time\":306483},{\"event\":\"blur\",\"trial\":6,\"time\":344825},{\"event\":\"focus\",\"trial\":6,\"time\":394277},{\"event\":\"blur\",\"trial\":7,\"time\":420770},{\"event\":\"focus\",\"trial\":7,\"time\":436639},{\"event\":\"blur\",\"trial\":9,\"time\":477621},{\"event\":\"focus\",\"trial\":9,\"time\":495592},{\"event\":\"blur\",\"trial\":9,\"time\":524578},{\"event\":\"focus\",\"trial\":9,\"time\":544510},{\"event\":\"blur\",\"trial\":9,\"time\":575058},{\"event\":\"focus\",\"trial\":9,\"time\":643112},{\"event\":\"blur\",\"trial\":9,\"time\":662307},{\"event\":\"focus\",\"trial\":9,\"time\":663120},{\"event\":\"blur\",\"trial\":9,\"time\":663637},{\"event\":\"focus\",\"trial\":9,\"time\":673691},{\"event\":\"blur\",\"trial\":9,\"time\":682253},{\"event\":\"focus\",\"trial\":9,\"time\":699750},{\"event\":\"blur\",\"trial\":9,\"time\":720706},{\"event\":\"focus\",\"trial\":9,\"time\":766275},{\"event\":\"blur\",\"trial\":9,\"time\":786711},{\"event\":\"focus\",\"trial\":9,\"time\":841141},{\"event\":\"blur\",\"trial\":9,\"time\":855802},{\"event\":\"focus\",\"trial\":9,\"time\":932568},{\"event\":\"blur\",\"trial\":9,\"time\":944728},{\"event\":\"focus\",\"trial\":9,\"time\":1006628},{\"event\":\"blur\",\"trial\":10,\"time\":1018510},{\"event\":\"focus\",\"trial\":10,\"time\":1048073},{\"event\":\"blur\",\"trial\":10,\"time\":1115644},{\"event\":\"focus\",\"trial\":10,\"time\":1118414},{\"event\":\"blur\",\"trial\":14,\"time\":1253231},{\"event\":\"focus\",\"trial\":14,\"time\":1256881}]"}]