[{"view_history":[{"page_index":0,"viewing_time":3707},{"page_index":1,"viewing_time":2884},{"page_index":2,"viewing_time":4650.000000000002},{"page_index":3,"viewing_time":1548}],"rt":12789.000000000002,"trial_type":"instructions","trial_index":0,"time_elapsed":12795,"internal_node_id":"0.0-0.0","task_version":"prescreen-v0.3"},{"rt":18039,"responses":{"age":"49","gender-categorical":"Female","gender-free-response":"","ethnicity":"Not Hispanic or Latino","race":["White"],"education":"High school"},"trial_type":"survey-demo","trial_index":1,"time_elapsed":30840,"internal_node_id":"0.0-1.0","task_version":"prescreen-v0.3"},{"responses":{"Q18":"1","Q04":"0","Q12":"0","Q16":"0","Q03":"0","Q10":"0","Q14":"1","Q15":"2","Q20":"2","Q19":"1","Q01":"0","Q11":"0","Q09":"0","Q06":"0","Q13":"2","Q07":"0","Q02":"0","Q17":"0","Q21":"3","Q05":"0","Q08":"1"},"rt":116440,"item_order":[17,3,11,15,2,9,13,14,19,18,0,10,8,5,12,6,1,16,20,4,7],"radio_events":[15981,19915.000000000007,24681,33581,36223,40565,43619,49761.000000000015,56361,60827,68022,69425.00000000001,70997,74463,78573,83099,86599,89469,91181.00000000001,101787,110682,114776],"key_events":[],"mouse_events":[15981,19915.000000000007,24681,33581,36223,40565,43619,49761.000000000015,56361,60827,68022,69425.00000000001,70997,74463,78573,83099,86599,89469,91181.00000000001,101787,110682,114776,116428],"straightlining":0.6190476190476191,"zigzagging":0.4,"honeypot":0,"survey":"sns","trial_type":"survey-template","trial_index":2,"time_elapsed":147289,"internal_node_id":"0.0-2.0","task_version":"prescreen-v0.3","browser_interactions":0,"infrequency":0},{"responses":{"Q12":"2","Q05":"3","Q11":"2","Q02":"1","Q10":"2","Q04":"3","Q09":"2","Q03":"3","Q13":"0","Q06":"3","Q08":"2","Q01":"3","Q07":"3"},"rt":86562,"item_order":[11,4,10,1,9,3,8,2,12,5,7,0,6],"radio_events":[12660,16076,28326,30812,34258,39792,43878,49622,52828,58940,67450,68992,71968,83074],"key_events":[],"mouse_events":[12660,16076,28326,30812,34258,39792,43878,49622,52828,58940,67450,68992,71968,72980,83074,86554],"straightlining":0.46153846153846156,"zigzagging":0.9166666666666666,"honeypot":0,"survey":"bisbas","trial_type":"survey-template","trial_index":3,"time_elapsed":233857,"internal_node_id":"0.0-3.0","task_version":"prescreen-v0.3","browser_interactions":0,"infrequency":0},{"responses":{"Q01":"4","Q02":"3","Q03":"3"},"rt":35426,"radio_events":[9783,17327,34553],"key_events":[],"mouse_events":[9783,17327,34553,35423],"survey":"map","page":1,"trial_type":"survey-map","trial_index":4,"time_elapsed":269291,"internal_node_id":"0.0-4.0","task_version":"prescreen-v0.3","browser_interactions":0},{"responses":{"Q04":"2","Q05":"2","Q06":"3"},"rt":27908,"radio_events":[13822,23706,27080],"key_events":[],"mouse_events":[13822,23706,27080,27904.00000000006],"survey":"map","page":2,"trial_type":"survey-map","trial_index":5,"time_elapsed":297204,"internal_node_id":"0.0-5.0","task_version":"prescreen-v0.3","browser_interactions":0},{"responses":{"Q07":"4","Q08":"4","Q09":"4"},"rt":16779,"radio_events":[8460,13548,15724],"key_events":[],"mouse_events":[8460,13548,15724,16776],"survey":"map","page":3,"trial_type":"survey-map","trial_index":6,"time_elapsed":313988,"internal_node_id":"0.0-6.0","task_version":"prescreen-v0.3","browser_interactions":0},{"responses":{"Q10":"3","Q11":"3","Q12":"3","Q13":"2","Q16":"0","Q14":"2","Q15":"2"},"rt":48946.00000000006,"radio_events":[8040,12046,17388,20352,29950,35492,41726,48110],"key_events":[],"mouse_events":[8040,12046,17388,20352,29950,35492,41726,48110,48942],"survey":"map","page":4,"trial_type":"survey-map","trial_index":7,"time_elapsed":362940,"internal_node_id":"0.0-7.0","task_version":"prescreen-v0.3","browser_interactions":0,"infrequency":0},{"view_history":[{"page_index":0,"viewing_time":3230},{"page_index":1,"viewing_time":7992.000000000058}],"rt":11223,"trial_type":"instructions","trial_index":8,"time_elapsed":374166,"internal_node_id":"0.0-8.0","task_version":"prescreen-v0.3"},{"responses":{"01":"No","02":"Yes","02_ages_15":"15","02_ages_16":"16","02_ages_17":"17","02_ages_18":"18","03":"No","04":"No","05":"No","06":"Yes","06_ages_15":"15","06_ages_16":"16"},"rt":54501,"item_order":[0,1,2,3,4,5],"radio_events":[13618,18655,35405,37090,40171,45729],"checkbox_events":[29496,30311,31208,32140,49549,51261],"key_events":[],"mouse_events":[0,13618,18655,29496,30311,31208,32140,35405,37090,40171,45729,49549,51261,54492],"honeypot":0,"survey":"mace","page":1,"trial_type":"survey-mace","trial_index":9,"time_elapsed":428674,"internal_node_id":"0.0-9.0","task_version":"prescreen-v0.3","browser_interactions":0},{"responses":{"01":"No","02":"No","03":"Yes","03_ages_5":"5","03_ages_6":"6","03_ages_7":"7","03_ages_8":"8","03_ages_9":"9","03_ages_10":"10","03_ages_11":"11","03_ages_12":"12","03_ages_13":"13","03_ages_14":"14","04":"No","05":"Yes","05_ages_5":"5","05_ages_6":"6","05_ages_7":"7","05_ages_8":"8","05_ages_9":"9","05_ages_10":"10","05_ages_11":"11","05_ages_12":"12","05_ages_13":"13","05_ages_14":"14","06":"No","07":"No","08":"No"},"rt":66160.00000000006,"item_order":[0,1,2,3,4,5,6,7],"radio_events":[8239,9947,11347,37562,43803,58388,63851,65358],"checkbox_events":[21460,22668,23488,24120,24810,25954,26754,27470.00000000006,29440,30160.00000000006,47840,48592,49444,50099,50878,51533,52238,52917,53970.00000000006,54810],"key_events":[],"mouse_events":[8239,9947,11347,21460,22668,23488,24120,24810,25954,26754,27470.00000000006,29440,30160.00000000006,37562,43803,47840,48592,49444,50099,50878,51533,52238,52917,53970.00000000006,54810,58388,63851,65358,66150],"honeypot":0,"survey":"mace","page":2,"trial_type":"survey-mace","trial_index":10,"time_elapsed":494843,"internal_node_id":"0.0-10.0","task_version":"prescreen-v0.3","browser_interactions":0},{"responses":{"01":"No","02":"No","03":"No","04":"No"},"rt":14169,"item_order":[0,1,2,3],"radio_events":[6925,9798,12001,13452],"checkbox_events":[],"key_events":[],"mouse_events":[6925,9798,12001,13452,14163],"honeypot":0,"survey":"mace","page":3,"trial_type":"survey-mace","trial_index":11,"time_elapsed":509020,"internal_node_id":"0.0-11.0","task_version":"prescreen-v0.3","browser_interactions":0},{"responses":{"01":"No","02":"No"},"rt":8896.000000000058,"item_order":[0,1],"radio_events":[5764,8164],"checkbox_events":[],"key_events":[],"mouse_events":[5764,8164,8892.000000000058],"honeypot":0,"survey":"mace","page":4,"trial_type":"survey-mace","trial_index":12,"time_elapsed":517921,"internal_node_id":"0.0-12.0","task_version":"prescreen-v0.3","browser_interactions":0},{"responses":{"01":"No","02":"No","03":"No","04":"No","05":"No"},"rt":24142.000000000116,"item_order":[0,1,2,3,4],"radio_events":[10753,13943,17119,21357,23233],"checkbox_events":[],"key_events":[],"mouse_events":[10753,13943,17119,21357,23233,24137],"honeypot":0,"survey":"mace","page":5,"trial_type":"survey-mace","trial_index":13,"time_elapsed":542071,"internal_node_id":"0.0-13.0","task_version":"prescreen-v0.3","browser_interactions":0},{"responses":{"01":"No","02":"Yes","02_ages_7":"7","02_ages_8":"8","02_ages_9":"9","02_ages_10":"10","02_ages_11":"11","02_ages_12":"12","02_ages_13":"13","02_ages_14":"14","02_ages_15":"15","03":"Yes","03_ages_15":"15","03_ages_16":"16","03_ages_17":"17","03_ages_18":"18","04":"No","05":"No"},"rt":49492.00000000012,"item_order":[0,1,2,3,4],"radio_events":[10239,12121,34501,46963,48509],"checkbox_events":[15645,16429,17265,18001,18875,19707,22123,24657,26861,38081,38801,39661,41127],"key_events":[],"mouse_events":[10239,12121,15645,16429,17265,18001,18875,19707,22123,24657,26861,34501,38081,38801,39661,41127,46963,48509,49485],"honeypot":0,"survey":"mace","page":6,"trial_type":"survey-mace","trial_index":14,"time_elapsed":591571,"internal_node_id":"0.0-14.0","task_version":"prescreen-v0.3","browser_interactions":0},{"responses":{"01":"No","02":"No","03":"Yes","03_ages_11":"11","04":"No","05":"Yes","05_ages_11":"11","06":"No","07":"No"},"rt":40856,"item_order":[0,1,2,3,4,5,6],"radio_events":[6500,10598,18624,31411,34746,39086,40054],"checkbox_events":[22370,36218],"key_events":[],"mouse_events":[6500,10598,18624,22370,31411,34746,36218,39086,40054,40848],"honeypot":0,"survey":"mace","page":7,"trial_type":"survey-mace","trial_index":15,"time_elapsed":632436,"internal_node_id":"0.0-15.0","task_version":"prescreen-v0.3","browser_interactions":0},{"responses":{"01":"No","02":"No","03":"Yes","03_ages_12":"12","03_ages_13":"13","03_ages_14":"14","03_ages_15":"15","03_ages_16":"16","03_ages_17":"17","03_ages_18":"18","04":"No"},"rt":56068,"item_order":[0,1,2,3],"radio_events":[10065,20263,23667,55231],"checkbox_events":[44063,45265,46033,47805,49941,53051.00000000012,54155],"key_events":[],"mouse_events":[10065,20263,23667,44063,45265,46033,47805,49941,53051.00000000012,54155,55231,56063],"honeypot":0,"survey":"mace","page":8,"trial_type":"survey-mace","trial_index":16,"time_elapsed":688514,"internal_node_id":"0.0-16.0","task_version":"prescreen-v0.3","browser_interactions":0},{"responses":{"01":"Yes","01_ages_1":"1","01_ages_2":"2","01_ages_3":"3","01_ages_4":"4","01_ages_5":"5","01_ages_6":"6","01_ages_7":"7","01_ages_8":"8","01_ages_9":"9","01_ages_10":"10","01_ages_11":"11","01_ages_12":"12","01_ages_13":"13","01_ages_14":"14","01_ages_15":"15","01_ages_16":"16","01_ages_17":"17","01_ages_18":"18","02":"Yes","02_ages_1":"1","02_ages_2":"2","02_ages_3":"3","02_ages_4":"4","02_ages_5":"5","02_ages_6":"6","02_ages_7":"7","02_ages_8":"8","02_ages_9":"9","02_ages_10":"10","02_ages_11":"11","02_ages_12":"12","02_ages_13":"13","02_ages_14":"14","02_ages_15":"15","02_ages_16":"16","02_ages_17":"17","02_ages_18":"18","03":"Yes","03_ages_1":"1","03_ages_2":"2","03_ages_3":"3","03_ages_4":"4","03_ages_5":"5","03_ages_6":"6","03_ages_7":"7","03_ages_8":"8","03_ages_9":"9","03_ages_10":"10","03_ages_11":"11","03_ages_12":"12","03_ages_13":"13","03_ages_14":"14","03_ages_15":"15","03_ages_16":"16","03_ages_17":"17","03_ages_18":"18","04":"Yes","04_ages_1":"1","04_ages_2":"2","04_ages_3":"3","04_ages_4":"4","04_ages_5":"5","04_ages_6":"6","04_ages_7":"7","04_ages_8":"8","04_ages_9":"9","04_ages_10":"10","04_ages_11":"11","04_ages_12":"12","04_ages_13":"13","04_ages_14":"14","04_ages_15":"15","04_ages_16":"16","04_ages_17":"17","04_ages_18":"18"},"rt":80233.99999999988,"item_order":[0,1,2,3],"radio_events":[5971.999999999884,25968.999999999884,43574.99999999988,65014.99999999988],"checkbox_events":[10863.999999999884,11663.999999999884,12367.999999999884,13034,13689.999999999884,14373.999999999884,15053.999999999884,15805.999999999884,16469.999999999884,17189.999999999884,17845.999999999884,18521.999999999884,19291.999999999884,20011.999999999884,20643.999999999884,21362.999999999884,22058.999999999884,22798.999999999884,27373.999999999884,28157.999999999884,28813.999999999884,29493.999999999884,30173.999999999884,31305.999999999884,32075.999999999884,32795.99999999988,33524,34395.99999999988,35063.99999999988,35799.99999999988,36575.99999999988,37423.99999999988,38089.99999999988,38761.99999999988,39469.99999999988,40453.99999999988,45147.99999999988,45995.99999999988,46627.99999999988,47227.99999999988,47853.99999999988,48449.99999999988,49058,49665.99999999988,50305.99999999988,51161.99999999988,51889.99999999988,52527.99999999988,53287.99999999988,53935.99999999988,54559.99999999988,55159.99999999988,55791.99999999988,56439.99999999988,66354.99999999988,67756.99999999988,68340.99999999988,69141.99999999988,70016.99999999988,70688.99999999988,71320.99999999988,72032.99999999988,72832.99999999988,73505,74116.99999999988,74981,75820.99999999988,76492.99999999988,77150.99999999988,77854.99999999988,78482.99999999988,79282.99999999988],"key_events":[],"mouse_events":[5971.999999999884,10863.999999999884,11663.999999999884,12367.999999999884,13034,13689.999999999884,14373.999999999884,15053.999999999884,15805.999999999884,16469.999999999884,17189.999999999884,17845.999999999884,18521.999999999884,19291.999999999884,20011.999999999884,20643.999999999884,21362.999999999884,22058.999999999884,22798.999999999884,25968.999999999884,27373.999999999884,28157.999999999884,28813.999999999884,29493.999999999884,30173.999999999884,31305.999999999884,32075.999999999884,32795.99999999988,33524,34395.99999999988,35063.99999999988,35799.99999999988,36575.99999999988,37423.99999999988,38089.99999999988,38761.99999999988,39469.99999999988,40453.99999999988,43574.99999999988,45147.99999999988,45995.99999999988,46627.99999999988,47227.99999999988,47853.99999999988,48449.99999999988,49058,49665.99999999988,50305.99999999988,51161.99999999988,51889.99999999988,52527.99999999988,53287.99999999988,53935.99999999988,54559.99999999988,55159.99999999988,55791.99999999988,56439.99999999988,65014.99999999988,66354.99999999988,67756.99999999988,68340.99999999988,69141.99999999988,70016.99999999988,70688.99999999988,71320.99999999988,72032.99999999988,72832.99999999988,73505,74116.99999999988,74981,75820.99999999988,76492.99999999988,77150.99999999988,77854.99999999988,78482.99999999988,79282.99999999988,80226.99999999988],"honeypot":0,"survey":"mace","page":9,"trial_type":"survey-mace","trial_index":17,"time_elapsed":768756,"internal_node_id":"0.0-17.0","task_version":"prescreen-v0.3","browser_interactions":0},{"responses":{"01":"No","02":"No","03":"No","04":"No","05":"No","06":"Yes","06_ages_17":"17","07":"Yes","07_ages_1":"1","07_ages_2":"2","07_ages_3":"3","07_ages_4":"4","07_ages_5":"5","07_ages_6":"6","07_ages_7":"7","07_ages_8":"8","07_ages_9":"9","07_ages_10":"10","07_ages_11":"11","07_ages_12":"12","07_ages_13":"13","07_ages_14":"14","07_ages_15":"15","07_ages_16":"16","07_ages_17":"17","07_ages_18":"18","08":"Yes","08_ages_14":"14","08_ages_15":"15","08_ages_16":"16","08_ages_17":"17","08_ages_18":"18"},"rt":76151,"item_order":[0,1,2,3,4,5,6,7],"radio_events":[7306,8859,11137,13064,17766,20218,41108,60222],"checkbox_events":[21917,45402,46294,46920,47600,48424,49248,49992,50620.00000000012,51268,52004,52628,53396,54044,54682.00000000012,55490.00000000012,56250,57618,58522,67340,67976,69528,70200,72322,73134.00000000012,73742,74310,74950],"key_events":[],"mouse_events":[7306,8859,11137,13064,17766,20218,21917,41108,45402,46294,46920,47600,48424,49248,49992,50620.00000000012,51268,52004,52628,53396,54044,54682.00000000012,55490.00000000012,56250,57618,58522,60222,67340,67976,69528,70200,72322,73134.00000000012,73742,74310,74950,76143],"honeypot":0,"survey":"mace","page":10,"trial_type":"survey-mace","trial_index":18,"time_elapsed":844917,"internal_node_id":"0.0-18.0","task_version":"prescreen-v0.3","browser_interactions":0,"instructed":0},{"rt":19334,"trial_type":"mental-health-alert","trial_index":19,"time_elapsed":864256,"internal_node_id":"0.0-19.0","task_version":"prescreen-v0.3","interactions":"[]"}]