[{"view_history":[{"page_index":0,"viewing_time":4689.300000000745},{"page_index":1,"viewing_time":3041.5999999996275},{"page_index":2,"viewing_time":2527.0999999996275},{"page_index":3,"viewing_time":1070}],"rt":11328.600000000559,"trial_type":"instructions","trial_index":0,"time_elapsed":11345,"internal_node_id":"0.0-0.0","task_version":"prescreen-v0.3"},{"rt":14607.700000000186,"responses":{"age":"20","gender-categorical":"Male","gender-free-response":"","ethnicity":"Not Hispanic or Latino","race":["White"],"education":"Some college","siblings":"0"},"trial_type":"survey-demo","trial_index":1,"time_elapsed":25957,"internal_node_id":"0.0-1.0","task_version":"prescreen-v0.3"},{"responses":{"Q11":"2","Q17":"2","Q14":"2","Q13":"2","Q05":"1","Q20":"3","Q08":"2","Q15":"3","Q21":"3","Q04":"3","Q16":"3","Q06":"2","Q19":"2","Q10":"3","Q02":"2","Q03":"2","Q01":"2","Q07":"1","Q09":"2","Q12":"2","Q18":"3"},"rt":92093.59999999963,"item_order":[10,16,13,12,4,19,7,14,20,3,15,5,18,9,1,2,0,6,8,11,17],"radio_events":[3347.0999999996275,8557,11510.799999999814,14365,24414.299999999814,27051.200000000186,30759.099999999627,38171.799999999814,41345,49038.700000000186,52124.39999999944,55729.200000000186,59391.09999999963,62088,69458.89999999944,71512,73953.79999999981,81022.39999999944,84685.59999999963,87065.39999999944,90755.09999999963],"key_events":[],"mouse_events":[3347.0999999996275,8557,11510.799999999814,14365,22551.299999999814,24414.299999999814,27051.200000000186,30759.099999999627,38171.799999999814,41345,49038.700000000186,52124.39999999944,55729.200000000186,59391.09999999963,62088,69458.89999999944,71512,73953.79999999981,81022.39999999944,84685.59999999963,87065.39999999944,90755.09999999963,92092.20000000019],"straightlining":0.5714285714285714,"zigzagging":0.45,"honeypot":0,"survey":"sns","trial_type":"survey-template","trial_index":2,"time_elapsed":118054,"internal_node_id":"0.0-2.0","task_version":"prescreen-v0.3","browser_interactions":0,"infrequency":0},{"responses":{"Q11":"2","Q13":"0","Q01":"3","Q08":"2","Q06":"2","Q07":"2","Q10":"2","Q02":"2","Q09":"1","Q04":"3","Q12":"1","Q03":"3","Q05":"2"},"rt":46692.59999999963,"item_order":[10,12,0,7,5,6,9,1,8,3,11,2,4],"radio_events":[6927,9310.899999999441,13680.899999999441,18818.599999999627,21429.39999999944,23312.599999999627,25401.599999999627,27956.299999999814,31402.39999999944,35326,40003.89999999944,43307,46062.700000000186],"key_events":[],"mouse_events":[6927,9310.899999999441,13680.899999999441,18818.599999999627,21429.39999999944,23312.599999999627,25013.799999999814,25401.599999999627,27956.299999999814,31402.39999999944,35326,40003.89999999944,43307,46062.700000000186,46691.799999999814],"straightlining":0.5384615384615384,"zigzagging":0.3333333333333333,"honeypot":0,"survey":"bisbas","trial_type":"survey-template","trial_index":3,"time_elapsed":164750,"internal_node_id":"0.0-3.0","task_version":"prescreen-v0.3","browser_interactions":0,"infrequency":0},{"responses":{"Q01":"2","Q02":"1","Q03":"2"},"rt":16851.5,"radio_events":[5785.600000000559,8914.400000000373,14440.200000000186],"key_events":[],"mouse_events":[5785.600000000559,8914.400000000373,14440.200000000186,16851],"survey":"map","page":1,"trial_type":"survey-map","trial_index":4,"time_elapsed":181604,"internal_node_id":"0.0-4.0","task_version":"prescreen-v0.3","browser_interactions":0},{"responses":{"Q04":"2","Q05":"2","Q06":"2"},"rt":9051,"radio_events":[3139.7000000001863,5945.5,7863.5],"key_events":[],"mouse_events":[3139.7000000001863,5945.5,7863.5,9050.599999999627],"survey":"map","page":2,"trial_type":"survey-map","trial_index":5,"time_elapsed":190657,"internal_node_id":"0.0-5.0","task_version":"prescreen-v0.3","browser_interactions":0},{"responses":{"Q07":"3","Q08":"0","Q09":"2"},"rt":13776.599999999627,"radio_events":[7679.5,10132.5,12937.200000000186],"key_events":[],"mouse_events":[7679.5,10132.5,12937.200000000186,13776.099999999627],"survey":"map","page":3,"trial_type":"survey-map","trial_index":6,"time_elapsed":204435,"internal_node_id":"0.0-6.0","task_version":"prescreen-v0.3","browser_interactions":0},{"responses":{"Q10":"1","Q11":"2","Q12":"0","Q13":"2","Q16":"0","Q14":"1","Q15":"2"},"rt":30493.400000000373,"radio_events":[4637.5,7039.5,11780.300000000745,13189.200000000186,17646.10000000056,28006,29857.5],"key_events":[],"mouse_events":[4637.5,7039.5,11780.300000000745,13189.200000000186,17646.10000000056,28006,29857.5,30492.700000000186],"survey":"map","page":4,"trial_type":"survey-map","trial_index":7,"time_elapsed":234931,"internal_node_id":"0.0-7.0","task_version":"prescreen-v0.3","browser_interactions":0,"infrequency":0},{"view_history":[{"page_index":0,"viewing_time":2599.5999999996275},{"page_index":1,"viewing_time":6192}],"rt":8792.399999999441,"trial_type":"instructions","trial_index":8,"time_elapsed":243724,"internal_node_id":"0.0-8.0","task_version":"prescreen-v0.3"},{"responses":{"01":"No","02":"Yes","02_ages_13":"13","02_ages_14":"14","02_ages_15":"15","02_ages_16":"16","02_ages_17":"17","02_ages_18":"18","03":"No","04":"No","05":"No","06":"No"},"rt":41956.700000000186,"item_order":[0,1,2,3,4,5],"radio_events":[12404.400000000373,19631.200000000186,31572.599999999627,32869.59999999963,35343.59999999963,38599.299999999814],"checkbox_events":[24937.900000000373,25975.799999999814,26245.900000000373,26586,27125.900000000373,27421.299999999814],"key_events":[],"mouse_events":[0.2999999998137355,12404.400000000373,19631.200000000186,24937.900000000373,25975.799999999814,26245.900000000373,26586,27125.900000000373,27421.299999999814,31572.599999999627,32869.59999999963,35343.59999999963,38599.299999999814,41954.700000000186],"honeypot":0,"survey":"mace","page":1,"trial_type":"survey-mace","trial_index":9,"time_elapsed":285686,"internal_node_id":"0.0-9.0","task_version":"prescreen-v0.3","browser_interactions":0},{"responses":{"01":"No","02":"No","03":"No","04":"No","05":"No","06":"No","07":"No","08":"No"},"rt":29025.400000000373,"item_order":[0,1,2,3,4,5,6,7],"radio_events":[3364.5999999996275,6671.700000000186,8859.5,17644.299999999814,21092.099999999627,23245,25472,27549],"checkbox_events":[],"key_events":[],"mouse_events":[3364.5999999996275,6671.700000000186,8859.5,17644.299999999814,21092.099999999627,23245,25472,27549,29022.900000000373],"honeypot":0,"survey":"mace","page":2,"trial_type":"survey-mace","trial_index":10,"time_elapsed":314715,"internal_node_id":"0.0-10.0","task_version":"prescreen-v0.3","browser_interactions":0},{"responses":{"01":"No","02":"No","03":"No","04":"No"},"rt":14144.399999999441,"item_order":[0,1,2,3],"radio_events":[9014.199999999255,10855.099999999627,11967.799999999814,12921],"checkbox_events":[],"key_events":[],"mouse_events":[9014.199999999255,10855.099999999627,11967.799999999814,12921,14143],"honeypot":0,"survey":"mace","page":3,"trial_type":"survey-mace","trial_index":11,"time_elapsed":328862,"internal_node_id":"0.0-11.0","task_version":"prescreen-v0.3","browser_interactions":0},{"responses":{"01":"No","02":"No"},"rt":8517.900000000373,"item_order":[0,1],"radio_events":[7110.200000000186,8108],"checkbox_events":[],"key_events":[],"mouse_events":[7110.200000000186,7588.9000000003725,8108,8517.200000000186],"honeypot":0,"survey":"mace","page":4,"trial_type":"survey-mace","trial_index":12,"time_elapsed":337383,"internal_node_id":"0.0-12.0","task_version":"prescreen-v0.3","browser_interactions":0},{"responses":{"01":"Yes","01_ages_13":"13","01_ages_14":"14","01_ages_15":"15","01_ages_16":"16","02":"No","03":"No","04":"No","05":"No"},"rt":35526.5,"item_order":[0,1,2,3,4],"radio_events":[15954.299999999814,18600.199999999255,27127.89999999944,29882.699999999255,33647,34866.59999999963],"checkbox_events":[20382.699999999255,21116.5,22466.099999999627,22884.199999999255],"key_events":[],"mouse_events":[15954.299999999814,18600.199999999255,20171.299999999814,20382.699999999255,21116.5,21629,22466.099999999627,22884.199999999255,27127.89999999944,29882.699999999255,33647,34866.59999999963,35524.799999999814],"honeypot":0,"survey":"mace","page":5,"trial_type":"survey-mace","trial_index":13,"time_elapsed":372913,"internal_node_id":"0.0-13.0","task_version":"prescreen-v0.3","browser_interactions":0},{"responses":{"01":"Yes","01_ages_10":"10","01_ages_11":"11","01_ages_12":"12","01_ages_13":"13","01_ages_14":"14","01_ages_15":"15","02":"Yes","02_ages_10":"10","02_ages_11":"11","02_ages_12":"12","02_ages_13":"13","02_ages_14":"14","02_ages_15":"15","03":"No","04":"Yes","04_ages_10":"10","04_ages_11":"11","04_ages_12":"12","04_ages_13":"13","04_ages_14":"14","04_ages_15":"15","05":"No"},"rt":34700.09999999963,"item_order":[0,1,2,3,4],"radio_events":[7457.5,16240.200000000186,26165.5,28640.700000000186,34007.299999999814],"checkbox_events":[9771.099999999627,10090.5,10421.799999999814,10859,11220.799999999814,13524.099999999627,17327.200000000186,17640.5,17950,18389.700000000186,18670.89999999944,18952,29340.700000000186,29578.700000000186,30321.39999999944,30617.39999999944,30901.39999999944,32436.39999999944],"key_events":[],"mouse_events":[7457.5,9771.099999999627,10090.5,10421.799999999814,10859,11220.799999999814,13524.099999999627,16240.200000000186,17327.200000000186,17640.5,17950,18389.700000000186,18670.89999999944,18952,26165.5,28640.700000000186,29340.700000000186,29578.700000000186,29888.39999999944,30321.39999999944,30617.39999999944,30901.39999999944,31660.299999999814,32436.39999999944,33678.299999999814,34007.299999999814,34698.5],"honeypot":0,"survey":"mace","page":6,"trial_type":"survey-mace","trial_index":14,"time_elapsed":407615,"internal_node_id":"0.0-14.0","task_version":"prescreen-v0.3","browser_interactions":0},{"responses":{"01":"No","02":"No","03":"No","04":"No","05":"No","06":"No","07":"No"},"rt":13483.099999999627,"item_order":[0,1,2,3,4,5,6],"radio_events":[2771.7999999998137,5121.399999999441,6903.5999999996275,7920.399999999441,9349.299999999814,9698.299999999814,10191.299999999814],"checkbox_events":[],"key_events":[],"mouse_events":[2771.7999999998137,5121.399999999441,6903.5999999996275,7920.399999999441,9349.299999999814,9698.299999999814,10191.299999999814,13480.5],"honeypot":0,"survey":"mace","page":7,"trial_type":"survey-mace","trial_index":15,"time_elapsed":421102,"internal_node_id":"0.0-15.0","task_version":"prescreen-v0.3","browser_interactions":0},{"responses":{"01":"No","02":"No","03":"Yes","03_ages_9":"9","03_ages_10":"10","03_ages_11":"11","03_ages_12":"12","03_ages_13":"13","03_ages_14":"14","03_ages_15":"15","03_ages_16":"16","03_ages_17":"17","03_ages_18":"18","04":"No"},"rt":26171.5,"item_order":[0,1,2,3],"radio_events":[11314.799999999814,11956.600000000559,16170.200000000186,24652],"checkbox_events":[19185.299999999814,19392.200000000186,19678.299999999814,19966.400000000373,20229,20509.400000000373,20763.299999999814,21471.10000000056,21709.10000000056,22020.299999999814],"key_events":[],"mouse_events":[11314.799999999814,11956.600000000559,16170.200000000186,19185.299999999814,19392.200000000186,19678.299999999814,19966.400000000373,20229,20509.400000000373,20763.299999999814,21029,21471.10000000056,21709.10000000056,22020.299999999814,24652,26170],"honeypot":0,"survey":"mace","page":8,"trial_type":"survey-mace","trial_index":16,"time_elapsed":447277,"internal_node_id":"0.0-16.0","task_version":"prescreen-v0.3","browser_interactions":0},{"responses":{"01":"Yes","01_ages_3":"3","01_ages_4":"4","01_ages_5":"5","01_ages_6":"6","01_ages_7":"7","01_ages_8":"8","01_ages_9":"9","01_ages_10":"10","01_ages_11":"11","01_ages_12":"12","01_ages_13":"13","01_ages_14":"14","01_ages_15":"15","01_ages_16":"16","01_ages_17":"17","01_ages_18":"18","02":"Yes","02_ages_3":"3","02_ages_4":"4","02_ages_5":"5","02_ages_6":"6","02_ages_7":"7","02_ages_8":"8","02_ages_9":"9","02_ages_10":"10","02_ages_11":"11","02_ages_12":"12","02_ages_13":"13","02_ages_14":"14","02_ages_15":"15","02_ages_16":"16","02_ages_17":"17","02_ages_18":"18","03":"Yes","03_ages_1":"1","03_ages_2":"2","03_ages_3":"3","03_ages_4":"4","03_ages_5":"5","03_ages_6":"6","03_ages_7":"7","03_ages_8":"8","03_ages_9":"9","03_ages_10":"10","03_ages_11":"11","03_ages_12":"12","03_ages_13":"13","03_ages_14":"14","03_ages_15":"15","03_ages_16":"16","03_ages_17":"17","03_ages_18":"18","04":"Yes","04_ages_1":"1","04_ages_2":"2","04_ages_3":"3","04_ages_4":"4","04_ages_5":"5","04_ages_6":"6","04_ages_7":"7","04_ages_8":"8","04_ages_9":"9","04_ages_10":"10","04_ages_11":"11","04_ages_12":"12","04_ages_13":"13","04_ages_14":"14","04_ages_15":"15","04_ages_16":"16","04_ages_17":"17","04_ages_18":"18"},"rt":50705.5,"item_order":[0,1,2,3],"radio_events":[4953.4000000003725,18003.10000000056,25502.800000000745,43026.5],"checkbox_events":[9771.400000000373,10031.800000000745,10312.300000000745,10604.200000000186,10908.300000000745,11565.400000000373,12214.300000000745,12470.300000000745,12732.200000000186,13032.300000000745,13322.600000000559,13692.400000000373,14371.400000000373,14620,14855.300000000745,15263.200000000186,18918.900000000373,19253,19535,19826.900000000373,20113.400000000373,20410,20710.200000000186,21026.200000000186,21306.10000000056,21623,21917,22223.300000000745,22543.10000000056,22838.300000000745,23131.900000000373,23431.300000000745,27457.60000000056,30426.700000000186,30711.5,31030,31483.400000000373,31713.700000000186,31978.60000000056,32297.700000000186,32590.800000000745,32868.700000000186,33168.700000000186,33450.800000000745,33933.800000000745,34255,34578.5,34855.60000000056,35160.5,35455.5,43730.40000000037,44449.200000000186,44676.300000000745,45000.200000000186,45337.10000000056,45685.10000000056,45996.10000000056,46389.10000000056,46714.200000000186,47111.10000000056,47470.200000000186,47798.10000000056,48108.10000000056,48444.800000000745,48860,49548,49777.10000000056,50356.10000000056],"key_events":[],"mouse_events":[4953.4000000003725,9771.400000000373,10031.800000000745,10312.300000000745,10604.200000000186,10908.300000000745,11169.200000000186,11565.400000000373,11799.100000000559,12214.300000000745,12470.300000000745,12732.200000000186,13032.300000000745,13322.600000000559,13692.400000000373,14019.400000000373,14371.400000000373,14620,14855.300000000745,15263.200000000186,17663.300000000745,18003.10000000056,18918.900000000373,19253,19535,19826.900000000373,20113.400000000373,20410,20710.200000000186,21026.200000000186,21306.10000000056,21623,21917,22223.300000000745,22543.10000000056,22838.300000000745,23131.900000000373,23431.300000000745,25502.800000000745,27457.60000000056,30426.700000000186,30711.5,31030,31483.400000000373,31713.700000000186,31978.60000000056,32297.700000000186,32590.800000000745,32868.700000000186,33168.700000000186,33450.800000000745,33933.800000000745,34255,34578.5,34855.60000000056,35160.5,35455.5,41931.300000000745,43026.5,43730.40000000037,43969.200000000186,44449.200000000186,44676.300000000745,45000.200000000186,45337.10000000056,45685.10000000056,45996.10000000056,46389.10000000056,46714.200000000186,47111.10000000056,47470.200000000186,47798.10000000056,48108.10000000056,48444.800000000745,48860,49548,49777.10000000056,50356.10000000056,50704.10000000056],"honeypot":0,"survey":"mace","page":9,"trial_type":"survey-mace","trial_index":17,"time_elapsed":497985,"internal_node_id":"0.0-17.0","task_version":"prescreen-v0.3","browser_interactions":0},{"responses":{"01":"No","02":"No","03":"Yes","03_ages_13":"13","03_ages_14":"14","03_ages_15":"15","03_ages_16":"16","03_ages_17":"17","03_ages_18":"18","04":"Yes","04_ages_13":"13","04_ages_14":"14","04_ages_15":"15","04_ages_16":"16","04_ages_17":"17","04_ages_18":"18","05":"Yes","05_ages_13":"13","05_ages_14":"14","05_ages_15":"15","05_ages_16":"16","05_ages_17":"17","05_ages_18":"18","06":"Yes","06_ages_17":"17","07":"Yes","07_ages_1":"1","07_ages_2":"2","07_ages_3":"3","07_ages_4":"4","07_ages_5":"5","07_ages_6":"6","07_ages_7":"7","07_ages_8":"8","07_ages_9":"9","07_ages_10":"10","07_ages_11":"11","07_ages_12":"12","07_ages_13":"13","07_ages_14":"14","07_ages_15":"15","07_ages_16":"16","07_ages_17":"17","07_ages_18":"18","08":"Yes","08_ages_7":"7","08_ages_8":"8","08_ages_9":"9","08_ages_10":"10","08_ages_11":"11","08_ages_12":"12","08_ages_13":"13","08_ages_14":"14","08_ages_15":"15","08_ages_16":"16","08_ages_17":"17"},"rt":52576.200000000186,"item_order":[0,1,2,3,4,5,6,7],"radio_events":[3618,4634.700000000186,7002.799999999814,12032.900000000373,18569.299999999814,19186.400000000373,23372.5,32052,42814.60000000056],"checkbox_events":[8232.5,8471.600000000559,8768.600000000559,9114.600000000559,9481.600000000559,9862.700000000186,13386.200000000186,13731.400000000373,14002.400000000373,14330.400000000373,14655.400000000373,14983.5,20354.10000000056,24721.299999999814,24976.10000000056,25273,25580.900000000373,25934.900000000373,26224.10000000056,33078.799999999814,33324.90000000037,33586.90000000037,33877.799999999814,34176.5,34474.700000000186,34748.5,35050.60000000056,35362.5,35648.5,35910.200000000186,38208.700000000186,38899.90000000037,39114.700000000186,39404.299999999814,39702.700000000186,39984.60000000056,40297.60000000056,44140.299999999814,44392.5,44668.60000000056,44956.5,45242.5,46234,46762.299999999814,47068.700000000186,47346.200000000186,47606.299999999814,47887.299999999814],"key_events":[],"mouse_events":[3618,4634.700000000186,7002.799999999814,8232.5,8471.600000000559,8768.600000000559,9114.600000000559,9481.600000000559,9862.700000000186,12032.900000000373,13386.200000000186,13731.400000000373,14002.400000000373,14330.400000000373,14655.400000000373,14983.5,18569.299999999814,19186.400000000373,20354.10000000056,23372.5,24721.299999999814,24976.10000000056,25273,25580.900000000373,25934.900000000373,26224.10000000056,32052,33078.799999999814,33324.90000000037,33586.90000000037,33877.799999999814,34176.5,34474.700000000186,34748.5,35050.60000000056,35362.5,35648.5,35910.200000000186,38208.700000000186,38458.40000000037,38899.90000000037,39114.700000000186,39404.299999999814,39702.700000000186,39984.60000000056,40297.60000000056,42604.60000000056,42814.60000000056,44140.299999999814,44392.5,44668.60000000056,44956.5,45242.5,45555.60000000056,46234,46762.299999999814,47068.700000000186,47346.200000000186,47606.299999999814,47887.299999999814,52573.5],"honeypot":0,"survey":"mace","page":10,"trial_type":"survey-mace","trial_index":18,"time_elapsed":550566,"internal_node_id":"0.0-18.0","task_version":"prescreen-v0.3","browser_interactions":0,"instructed":0},{"rt":4133.5,"trial_type":"mental-health-alert","trial_index":19,"time_elapsed":554701,"internal_node_id":"0.0-19.0","task_version":"prescreen-v0.3","interactions":"[]"}]