[{"view_history":[{"page_index":0,"viewing_time":2594.600000023842},{"page_index":1,"viewing_time":2099.399999976158},{"page_index":2,"viewing_time":4657.800000011921},{"page_index":3,"viewing_time":1688}],"rt":11040.399999976158,"trial_type":"instructions","trial_index":0,"time_elapsed":11061,"internal_node_id":"0.0-0.0","task_version":"prescreen-v0.3"},{"rt":19526.19999998808,"responses":{"age":"45","gender-categorical":"Male","gender-free-response":"","ethnicity":"Not Hispanic or Latino","race":["White"],"education":"Some college","siblings":"10"},"trial_type":"survey-demo","trial_index":1,"time_elapsed":30592,"internal_node_id":"0.0-1.0","task_version":"prescreen-v0.3"},{"responses":{"Q08":"2","Q13":"2","Q07":"1","Q05":"1","Q09":"2","Q18":"1","Q16":"2","Q10":"1","Q02":"2","Q20":"1","Q21":"3","Q19":"1","Q17":"2","Q01":"2","Q12":"1","Q14":"2","Q15":"2","Q03":"2","Q04":"1","Q11":"2","Q06":"1"},"rt":60170.90000003576,"item_order":[7,12,6,4,8,17,15,9,1,19,20,18,16,0,11,13,14,2,3,10,5],"radio_events":[3348.300000011921,5320.100000023842,8980.700000047684,11943.900000035763,17222.900000035763,18888.600000023842,22256,25158.400000035763,26936.30000001192,28301.30000001192,30663.80000001192,33753.60000002384,36866.40000003576,38486.30000001192,42371.5,44449,49443.90000003576,52324.10000002384,54776.60000002384,56936.30000001192,59278.10000002384],"key_events":[],"mouse_events":[3348.300000011921,5320.100000023842,8351.100000023842,8980.700000047684,11943.900000035763,17222.900000035763,18888.600000023842,22256,25158.400000035763,26936.30000001192,28301.30000001192,30663.80000001192,33753.60000002384,36866.40000003576,38486.30000001192,42371.5,44449,49443.90000003576,52324.10000002384,54776.60000002384,56936.30000001192,59278.10000002384,60169.40000003576],"straightlining":0.5238095238095238,"zigzagging":0.65,"honeypot":0,"survey":"sns","trial_type":"survey-template","trial_index":2,"time_elapsed":90767,"internal_node_id":"0.0-2.0","task_version":"prescreen-v0.3","browser_interactions":0,"infrequency":0},{"responses":{"Q08":"2","Q01":"2","Q04":"2","Q12":"1","Q13":"0","Q06":"2","Q05":"2","Q10":"1","Q11":"1","Q02":"1","Q09":"1","Q07":"2","Q03":"2"},"rt":35733.60000002384,"item_order":[7,0,3,11,12,5,4,9,10,1,8,6,2],"radio_events":[4847.800000011921,6295.300000011921,7547.800000011921,9955.199999988079,12447.100000023842,18783.399999976158,22022.69999998808,25795.19999998808,27100,29493.100000023842,30656.600000023842,32163.19999998808,34997.60000002384],"key_events":[],"mouse_events":[4847.800000011921,6295.300000011921,7547.800000011921,9955.199999988079,12447.100000023842,18273,18783.399999976158,22022.69999998808,25795.19999998808,27100,29493.100000023842,30656.600000023842,32163.19999998808,34997.60000002384,35732.69999998808],"straightlining":0.5384615384615384,"zigzagging":0.3333333333333333,"honeypot":0,"survey":"bisbas","trial_type":"survey-template","trial_index":3,"time_elapsed":126503,"internal_node_id":"0.0-3.0","task_version":"prescreen-v0.3","browser_interactions":0,"infrequency":0},{"responses":{"Q01":"2","Q02":"3","Q03":"2"},"rt":13610.199999988079,"radio_events":[6229.599999964237,8749.699999988079,9544.399999976158,12799.799999952316],"key_events":[],"mouse_events":[6229.599999964237,8749.699999988079,9544.399999976158,12799.799999952316,13609.699999988079],"survey":"map","page":1,"trial_type":"survey-map","trial_index":4,"time_elapsed":140116,"internal_node_id":"0.0-4.0","task_version":"prescreen-v0.3","browser_interactions":0},{"responses":{"Q04":"2","Q05":"3","Q06":"2"},"rt":11480.399999976158,"radio_events":[4745.100000023842,6222.600000023842,10497.600000023842],"key_events":[],"mouse_events":[4745.100000023842,6222.600000023842,10497.600000023842,11480],"survey":"map","page":2,"trial_type":"survey-map","trial_index":5,"time_elapsed":151598,"internal_node_id":"0.0-5.0","task_version":"prescreen-v0.3","browser_interactions":0},{"responses":{"Q07":"3","Q08":"0","Q09":"2"},"rt":11114.5,"radio_events":[4737.899999976158,7573,10242.399999976158],"key_events":[],"mouse_events":[4737.899999976158,7573,10242.399999976158,11114.099999964237],"survey":"map","page":3,"trial_type":"survey-map","trial_index":6,"time_elapsed":162715,"internal_node_id":"0.0-6.0","task_version":"prescreen-v0.3","browser_interactions":0},{"responses":{"Q10":"1","Q11":"1","Q12":"1","Q13":"1","Q16":"0","Q14":"2","Q15":"2"},"rt":26617.19999998808,"radio_events":[3499.199999988079,4969.099999964237,9724.399999976158,12882,16511.899999976158,20194.599999964237,24537.099999964237,25812.099999964237],"key_events":[],"mouse_events":[3499.199999988079,4969.099999964237,9724.399999976158,12882,16511.899999976158,20194.599999964237,23426.69999998808,24537.099999964237,25436.69999998808,25812.099999964237,26616.399999976158],"survey":"map","page":4,"trial_type":"survey-map","trial_index":7,"time_elapsed":189334,"internal_node_id":"0.0-7.0","task_version":"prescreen-v0.3","browser_interactions":0,"infrequency":0},{"view_history":[{"page_index":0,"viewing_time":2155.899999976158},{"page_index":1,"viewing_time":2564.600000023842}],"rt":4721,"trial_type":"instructions","trial_index":8,"time_elapsed":194056,"internal_node_id":"0.0-8.0","task_version":"prescreen-v0.3"},{"responses":{"01":"No","02":"Yes","02_ages_5":"5","02_ages_6":"6","02_ages_7":"7","02_ages_8":"8","02_ages_9":"9","02_ages_10":"10","02_ages_11":"11","02_ages_12":"12","03":"No","04":"No","05":"Yes","05_ages_13":"13","06":"No"},"rt":56188.89999997616,"item_order":[0,1,2,3,4,5],"radio_events":[16548.5,20110.80000001192,36003.59999996424,37400.59999996424,40218.69999998808,43917.30000001192,54919.59999996424],"checkbox_events":[27708.69999998808,28526.099999964237,29148.5,29628.599999964237,30198.19999998808,30678.599999964237,31105.80000001192,31691.099999964237,48228.80000001192],"key_events":[],"mouse_events":[0.19999998807907104,16548.5,20110.80000001192,27708.69999998808,28526.099999964237,29148.5,29628.599999964237,30198.19999998808,30678.599999964237,31105.80000001192,31691.099999964237,36003.59999996424,37400.59999996424,40218.69999998808,43917.30000001192,48228.80000001192,54919.59999996424,56186.80000001192],"honeypot":0,"survey":"mace","page":1,"trial_type":"survey-mace","trial_index":9,"time_elapsed":250250,"internal_node_id":"0.0-9.0","task_version":"prescreen-v0.3","browser_interactions":0},{"responses":{"01":"No","02":"No","03":"Yes","03_ages_7":"7","03_ages_8":"8","03_ages_9":"9","03_ages_10":"10","04":"No","05":"Yes","05_ages_7":"7","05_ages_8":"8","05_ages_9":"9","05_ages_10":"10","06":"No","07":"No","08":"No"},"rt":31122.399999976158,"item_order":[0,1,2,3,4,5,6,7],"radio_events":[3001.2999999523163,4238.699999988079,5746.299999952316,18459,22441.5,27166.5,29019.19999998808,30489.399999976158],"checkbox_events":[10659,12676.299999952316,13718.899999976158,15541.399999976158,24001.399999976158,24414,24826.099999964237,25441.5],"key_events":[],"mouse_events":[3001.2999999523163,4238.699999988079,5746.299999952316,10659,12676.299999952316,13718.899999976158,15541.399999976158,18459,22441.5,24001.399999976158,24414,24826.099999964237,25441.5,27166.5,29019.19999998808,30489.399999976158,31119.399999976158],"honeypot":0,"survey":"mace","page":2,"trial_type":"survey-mace","trial_index":10,"time_elapsed":281377,"internal_node_id":"0.0-10.0","task_version":"prescreen-v0.3","browser_interactions":0},{"responses":{"01":"Yes","01_ages_7":"7","01_ages_8":"8","01_ages_9":"9","02":"No","03":"No","04":"No"},"rt":17980.399999976158,"item_order":[0,1,2,3],"radio_events":[4305.699999988079,14198.599999964237,16261.199999988079,17326.399999976158],"checkbox_events":[7838.099999964237,8281.099999964237,8843.699999988079],"key_events":[],"mouse_events":[4305.699999988079,7838.099999964237,8281.099999964237,8843.699999988079,14198.599999964237,16261.199999988079,17326.399999976158,17978.899999976158],"honeypot":0,"survey":"mace","page":3,"trial_type":"survey-mace","trial_index":11,"time_elapsed":299360,"internal_node_id":"0.0-11.0","task_version":"prescreen-v0.3","browser_interactions":0},{"responses":{"01":"No","02":"No"},"rt":10316.899999976158,"item_order":[0,1],"radio_events":[2598.699999988079,5538.599999964237],"checkbox_events":[],"key_events":[],"mouse_events":[2598.699999988079,5538.599999964237,10316.099999964237],"honeypot":0,"survey":"mace","page":4,"trial_type":"survey-mace","trial_index":12,"time_elapsed":309679,"internal_node_id":"0.0-12.0","task_version":"prescreen-v0.3","browser_interactions":0},{"responses":{"01":"No","02":"No","03":"No","04":"No","05":"No"},"rt":16407.80000001192,"item_order":[0,1,2,3,4],"radio_events":[8230.900000035763,10586.200000047684,12093.5,14560.900000035763,15873.5],"checkbox_events":[],"key_events":[],"mouse_events":[8230.900000035763,9731.100000023842,10586.200000047684,12093.5,14560.900000035763,15873.5,16406],"honeypot":0,"survey":"mace","page":5,"trial_type":"survey-mace","trial_index":13,"time_elapsed":326091,"internal_node_id":"0.0-13.0","task_version":"prescreen-v0.3","browser_interactions":0},{"responses":{"01":"Yes","01_ages_5":"5","01_ages_6":"6","01_ages_7":"7","01_ages_8":"8","01_ages_9":"9","01_ages_10":"10","01_ages_11":"11","01_ages_12":"12","01_ages_13":"13","01_ages_14":"14","02":"Yes","02_ages_5":"5","02_ages_6":"6","02_ages_7":"7","02_ages_8":"8","02_ages_9":"9","02_ages_10":"10","02_ages_11":"11","02_ages_12":"12","02_ages_13":"13","02_ages_14":"14","02_ages_15":"15","02_ages_16":"16","03":"Yes","03_ages_14":"14","03_ages_15":"15","04":"No","05":"Yes","05_ages_13":"13","05_ages_14":"14","05_ages_15":"15","05_ages_16":"16","05_ages_17":"17"},"rt":70400.39999997616,"item_order":[0,1,2,3,4],"radio_events":[5320.5,9940.5,24273.299999952316,34871,60866.39999997616,63528.39999997616],"checkbox_events":[15655.599999964237,16158.099999964237,16720.5,17118,17538.19999998808,17980.599999964237,18497.69999998808,18993.099999964237,19712.5,20493.19999998808,26170.69999998808,26583.599999964237,27820.799999952316,28165.799999952316,28638.099999964237,29005.69999998808,29358.399999976158,29717.69999998808,30115.799999952316,30603,31023.299999952316,31533.399999976158,56081.39999997616,57431.299999952316,57963.799999952316,58578.5,66918.39999997616,67421.39999997616,67909.29999995232,68396.19999998808,69018.89999997616],"key_events":[],"mouse_events":[5320.5,9940.5,15655.599999964237,16158.099999964237,16720.5,17118,17538.19999998808,17980.599999964237,18497.69999998808,18993.099999964237,19712.5,20493.19999998808,24273.299999952316,26170.69999998808,26583.599999964237,26958.299999952316,27820.799999952316,28165.799999952316,28638.099999964237,29005.69999998808,29358.399999976158,29717.69999998808,30115.799999952316,30603,31023.299999952316,31533.399999976158,34871,56081.39999997616,57431.299999952316,57963.799999952316,58578.5,60866.39999997616,63528.39999997616,66918.39999997616,67421.39999997616,67909.29999995232,68396.19999998808,69018.89999997616,70398.69999998808],"honeypot":0,"survey":"mace","page":6,"trial_type":"survey-mace","trial_index":14,"time_elapsed":396494,"internal_node_id":"0.0-14.0","task_version":"prescreen-v0.3","browser_interactions":0},{"responses":{"01":"Yes","01_ages_13":"13","02":"No","03":"Yes","03_ages_13":"13","03_ages_14":"14","03_ages_15":"15","04":"No","05":"No","06":"No","07":"No"},"rt":27133.5,"item_order":[0,1,2,3,4,5,6],"radio_events":[3287.899999976158,9460.399999976158,11478,19825.5,24085.30000001192,25285.69999998808,25788.099999964237],"checkbox_events":[6385.5,16285.5,16765.399999976158,17245.599999964237],"key_events":[],"mouse_events":[3287.899999976158,6385.5,9460.399999976158,11478,15678.099999964237,16285.5,16765.399999976158,17245.599999964237,19825.5,24085.30000001192,25285.69999998808,25788.099999964237,27130.80000001192],"honeypot":0,"survey":"mace","page":7,"trial_type":"survey-mace","trial_index":15,"time_elapsed":423631,"internal_node_id":"0.0-15.0","task_version":"prescreen-v0.3","browser_interactions":0},{"responses":{"01":"Yes","01_ages_10":"10","01_ages_11":"11","01_ages_12":"12","01_ages_13":"13","01_ages_14":"14","01_ages_15":"15","01_ages_16":"16","01_ages_17":"17","01_ages_18":"18","02":"Yes","02_ages_7":"7","02_ages_8":"8","02_ages_9":"9","02_ages_10":"10","02_ages_11":"11","02_ages_12":"12","02_ages_13":"13","02_ages_14":"14","02_ages_15":"15","02_ages_16":"16","02_ages_17":"17","03":"No","04":"No"},"rt":41561.5,"item_order":[0,1,2,3],"radio_events":[9549.199999988079,24804.599999964237,38897.80000001192,40653.5],"checkbox_events":[15009.599999964237,15549.399999976158,16419.5,17004.30000001192,17529.5,17919.5,18369.30000001192,18849.599999964237,20319.099999964237,29289.30000001192,29867.19999998808,30302.19999998808,31187.19999998808,31539.69999998808,31907.19999998808,32252.30000001192,32604.19999998808,33354.69999998808,33768.80000001192,35484.80000001192],"key_events":[],"mouse_events":[9549.199999988079,15009.599999964237,15549.399999976158,16044.5,16419.5,17004.30000001192,17529.5,17919.5,18369.30000001192,18849.599999964237,19254.5,20319.099999964237,24804.599999964237,29289.30000001192,29867.19999998808,30302.19999998808,30646.69999998808,31187.19999998808,31539.69999998808,31907.19999998808,32252.30000001192,32604.19999998808,32964.39999997616,33354.69999998808,33768.80000001192,35484.80000001192,38897.80000001192,40653.5,41560],"honeypot":0,"survey":"mace","page":8,"trial_type":"survey-mace","trial_index":16,"time_elapsed":465195,"internal_node_id":"0.0-16.0","task_version":"prescreen-v0.3","browser_interactions":0},{"responses":{"01":"Yes","01_ages_4":"4","01_ages_5":"5","01_ages_6":"6","01_ages_7":"7","01_ages_8":"8","01_ages_9":"9","01_ages_10":"10","01_ages_11":"11","01_ages_12":"12","01_ages_13":"13","01_ages_14":"14","01_ages_15":"15","01_ages_16":"16","02":"No","03":"No","04":"Yes","04_ages_1":"1","04_ages_2":"2","04_ages_3":"3","04_ages_4":"4","04_ages_5":"5","04_ages_6":"6","04_ages_7":"7","04_ages_8":"8","04_ages_9":"9","04_ages_10":"10","04_ages_11":"11","04_ages_12":"12","04_ages_13":"13","04_ages_14":"14","04_ages_15":"15","04_ages_16":"16","04_ages_17":"17","04_ages_18":"18"},"rt":39890.39999997616,"item_order":[0,1,2,3],"radio_events":[5125.5,25158.5,26403.5,29756.100000023842],"checkbox_events":[8163.300000011921,8522.899999976158,8876.100000023842,9237.300000011921,11186.199999988079,14275.5,14793.399999976158,15340.899999976158,16278.399999976158,17741,18116,19015.899999976158,20178.399999976158,31630.899999976158,31998.600000023842,32403.69999998808,32801.10000002384,33191.10000002384,33528.60000002384,33985.80000001192,34361.10000002384,34728.69999998808,35538.19999998808,35958.80000001192,36386.19999998808,37181.10000002384,37571.30000001192,37983.69999998808,38456.30000001192,38951.19999998808,39408.80000001192],"key_events":[],"mouse_events":[5125.5,8163.300000011921,8522.899999976158,8876.100000023842,9237.300000011921,9595.899999976158,11186.199999988079,14275.5,14793.399999976158,15340.899999976158,15738.100000023842,16278.399999976158,16630.600000023842,17088.399999976158,17741,18116,18468.600000023842,19015.899999976158,20178.399999976158,25158.5,26403.5,29756.100000023842,31630.899999976158,31998.600000023842,32403.69999998808,32801.10000002384,33191.10000002384,33528.60000002384,33985.80000001192,34361.10000002384,34728.69999998808,35103.60000002384,35538.19999998808,35958.80000001192,36386.19999998808,36813.80000001192,37181.10000002384,37571.30000001192,37983.69999998808,38456.30000001192,38951.19999998808,39408.80000001192,39888.80000001192],"honeypot":0,"survey":"mace","page":9,"trial_type":"survey-mace","trial_index":17,"time_elapsed":505088,"internal_node_id":"0.0-17.0","task_version":"prescreen-v0.3","browser_interactions":0},{"responses":{"01":"No","02":"No","03":"No","04":"Yes","04_ages_13":"13","04_ages_14":"14","04_ages_15":"15","04_ages_16":"16","04_ages_17":"17","04_ages_18":"18","05":"No","06":"Yes","06_ages_17":"17","07":"No","08":"No"},"rt":28992.899999976158,"item_order":[0,1,2,3,4,5,6,7],"radio_events":[2521.899999976158,4149.300000011921,5596.899999976158,7156.899999976158,18354.19999998808,19254.600000023842,25186.69999998808,28284.30000001192],"checkbox_events":[11477,11882,12317.399999976158,12737.100000023842,13157,13584.5,20574.19999998808],"key_events":[],"mouse_events":[2521.899999976158,4149.300000011921,5596.899999976158,7156.899999976158,11477,11882,12317.399999976158,12737.100000023842,13157,13584.5,18354.19999998808,19254.600000023842,20574.19999998808,25186.69999998808,28284.30000001192,28989.899999976158],"honeypot":0,"survey":"mace","page":10,"trial_type":"survey-mace","trial_index":18,"time_elapsed":534085,"internal_node_id":"0.0-18.0","task_version":"prescreen-v0.3","browser_interactions":0,"instructed":0},{"rt":5222,"trial_type":"mental-health-alert","trial_index":19,"time_elapsed":539309,"internal_node_id":"0.0-19.0","task_version":"prescreen-v0.3","interactions":"[]"}]