[{"view_history":[{"page_index":0,"viewing_time":2948.899999976158},{"page_index":1,"viewing_time":9538},{"page_index":2,"viewing_time":11655.800000011921},{"page_index":3,"viewing_time":1917.4000000059605}],"rt":26061.09999999404,"trial_type":"instructions","trial_index":0,"time_elapsed":26106,"internal_node_id":"0.0-0.0","task_version":"prescreen-v0.3"},{"rt":17578.5,"responses":{"age":"19","gender-categorical":"Female","gender-free-response":"","ethnicity":"Not Hispanic or Latino","race":["Black or African American","White"],"education":"Some college"},"trial_type":"survey-demo","trial_index":1,"time_elapsed":43693,"internal_node_id":"0.0-1.0","task_version":"prescreen-v0.3"},{"responses":{"Q20":"1","Q19":"1","Q11":"1","Q07":"0","Q15":"3","Q16":"3","Q21":"3","Q12":"3","Q03":"2","Q13":"1","Q09":"1","Q02":"1","Q17":"1","Q01":"1","Q06":"1","Q18":"2","Q04":"2","Q14":"3","Q08":"3","Q05":"2","Q10":"1"},"rt":121533,"item_order":[19,18,10,6,14,15,20,11,2,12,8,1,16,0,5,17,3,13,7,4,9],"radio_events":[7410.4000000059605,23978.59999999404,29454.69999998808,35844,42693.19999998808,47811.5,51538.30000001192,57023.90000000596,60298.69999998808,63540.40000000596,68548.90000000596,74404.40000000596,77599.59999999404,80422,91084.69999998808,96145.30000001192,99423,103720.19999998808,107430.90000000596,116579.69999998808,120532.69999998808],"key_events":[],"mouse_events":[3195.4000000059605,7410.4000000059605,23404.5,23978.59999999404,28166.09999999404,29454.69999998808,35844,42212.90000000596,42693.19999998808,47811.5,51538.30000001192,57023.90000000596,60298.69999998808,63540.40000000596,68548.90000000596,74404.40000000596,77599.59999999404,79846.90000000596,80422,91084.69999998808,96145.30000001192,99423,103720.19999998808,107430.90000000596,116579.69999998808,120532.69999998808,121526.5],"straightlining":0.47619047619047616,"zigzagging":0.4,"honeypot":0,"survey":"sns","trial_type":"survey-template","trial_index":2,"time_elapsed":165234,"internal_node_id":"0.0-2.0","task_version":"prescreen-v0.3","browser_interactions":0,"infrequency":0},{"responses":{"Q08":"2","Q01":"3","Q13":"0","Q12":"1","Q06":"2","Q09":"2","Q04":"3","Q10":"2","Q03":"3","Q05":"2","Q02":"3","Q11":"2","Q07":"2"},"rt":55622,"item_order":[7,0,12,11,5,8,3,9,2,4,1,10,6],"radio_events":[5543.5,7598.399999976158,10593.199999988079,18662.5,24434.79999998212,29443.79999998212,31899.59999999404,35715.59999999404,38718.89999997616,42411.5,44540.59999999404,49389,54230.59999999404],"key_events":[],"mouse_events":[5543.5,7598.399999976158,10593.199999988079,18662.5,24434.79999998212,29443.79999998212,31899.59999999404,35715.59999999404,38718.89999997616,42411.5,44540.59999999404,48445.69999998808,49389,54230.59999999404,55618.5],"straightlining":0.5384615384615384,"zigzagging":0.8333333333333334,"honeypot":0,"survey":"bisbas","trial_type":"survey-template","trial_index":3,"time_elapsed":220865,"internal_node_id":"0.0-3.0","task_version":"prescreen-v0.3","browser_interactions":0,"infrequency":0},{"responses":{"Q01":"3","Q02":"2","Q03":"1"},"rt":27509.399999976158,"radio_events":[5546.5,10053,23068.19999998808],"key_events":[],"mouse_events":[5546.5,10053,23068.19999998808,27507.69999998808],"survey":"map","page":1,"trial_type":"survey-map","trial_index":4,"time_elapsed":248382,"internal_node_id":"0.0-4.0","task_version":"prescreen-v0.3","browser_interactions":0},{"responses":{"Q04":"2","Q05":"2","Q06":"2"},"rt":22424.19999998808,"radio_events":[3832.0999999940395,9779.299999982119,11001.799999982119,15239,19534.5],"key_events":[],"mouse_events":[3832.0999999940395,9779.299999982119,11001.799999982119,15239,19534.5,22422.79999998212],"survey":"map","page":2,"trial_type":"survey-map","trial_index":5,"time_elapsed":270812,"internal_node_id":"0.0-5.0","task_version":"prescreen-v0.3","browser_interactions":0},{"responses":{"Q07":"4","Q08":"4","Q09":"3"},"rt":13017.90000000596,"radio_events":[6217,9809.09999999404,11590.40000000596],"key_events":[],"mouse_events":[6217,9809.09999999404,11590.40000000596,13016.40000000596],"survey":"map","page":3,"trial_type":"survey-map","trial_index":6,"time_elapsed":283836,"internal_node_id":"0.0-6.0","task_version":"prescreen-v0.3","browser_interactions":0},{"responses":{"Q10":"1","Q11":"1","Q12":"0","Q13":"2","Q16":"0","Q14":"1","Q15":"1"},"rt":44489.69999998808,"radio_events":[4560.5,7807.5,11520.90000000596,19987,25606.69999998808,28564.30000001192,32329.59999999404,36936.5,43107.90000000596],"key_events":[],"mouse_events":[3471.300000011921,3938.0999999940395,4560.5,7807.5,11520.90000000596,19987,25606.69999998808,28564.30000001192,32329.59999999404,36936.5,43107.90000000596,44486.90000000596],"survey":"map","page":4,"trial_type":"survey-map","trial_index":7,"time_elapsed":328334,"internal_node_id":"0.0-7.0","task_version":"prescreen-v0.3","browser_interactions":0,"infrequency":0},{"view_history":[{"page_index":0,"viewing_time":2390.199999988079},{"page_index":1,"viewing_time":2644.7000000178814}],"rt":5036.4000000059605,"trial_type":"instructions","trial_index":8,"time_elapsed":333374,"internal_node_id":"0.0-8.0","task_version":"prescreen-v0.3"},{"responses":{"01":"No","02":"Yes","02_ages_13":"13","02_ages_14":"14","02_ages_15":"15","02_ages_16":"16","02_ages_17":"17","02_ages_18":"18","03":"No","04":"No","05":"No","06":"No"},"rt":39216,"item_order":[0,1,2,3,4,5],"radio_events":[6217.299999982119,11331.5,28635.899999976158,30694,35772.19999998808,37658.29999998212],"checkbox_events":[19661.19999998808,20193.899999976158,20701.29999998212,21359.399999976158,21905.19999998808,23751.69999998808],"key_events":[],"mouse_events":[0.19999998807907104,6217.299999982119,11331.5,19661.19999998808,20193.899999976158,20701.29999998212,21359.399999976158,21905.19999998808,22918.5,23428,23751.69999998808,27773.5,28635.899999976158,30694,35772.19999998808,37658.29999998212,39207.69999998808],"honeypot":0,"survey":"mace","page":1,"trial_type":"survey-mace","trial_index":9,"time_elapsed":372606,"internal_node_id":"0.0-9.0","task_version":"prescreen-v0.3","browser_interactions":0},{"responses":{"01":"No","02":"No","03":"No","04":"No","05":"No","06":"No","07":"No","08":"No"},"rt":16502.79999998212,"item_order":[0,1,2,3,4,5,6,7],"radio_events":[2739.399999976158,4390.299999982119,6075.0999999940395,7205.699999988079,10293.399999976158,11815.59999999404,13513.399999976158,15618.09999999404],"checkbox_events":[],"key_events":[],"mouse_events":[2739.399999976158,4390.299999982119,6075.0999999940395,7205.699999988079,10293.399999976158,11815.59999999404,13513.399999976158,15618.09999999404,16491.399999976158],"honeypot":0,"survey":"mace","page":2,"trial_type":"survey-mace","trial_index":10,"time_elapsed":389122,"internal_node_id":"0.0-10.0","task_version":"prescreen-v0.3","browser_interactions":0},{"responses":{"01":"Yes","01_ages_7":"7","02":"No","03":"No","04":"No"},"rt":30230.19999998808,"item_order":[0,1,2,3],"radio_events":[3167.2999999821186,8021.699999988079,20208.19999998808,27357.59999999404,28520.09999999404],"checkbox_events":[11196.09999999404,15544.5,17524.399999976158],"key_events":[],"mouse_events":[3167.2999999821186,8021.699999988079,11196.09999999404,15544.5,17524.399999976158,20208.19999998808,27357.59999999404,28520.09999999404,30224.19999998808],"honeypot":0,"survey":"mace","page":3,"trial_type":"survey-mace","trial_index":11,"time_elapsed":419362,"internal_node_id":"0.0-11.0","task_version":"prescreen-v0.3","browser_interactions":2},{"responses":{"01":"No","02":"No"},"rt":5869.300000011921,"item_order":[0,1],"radio_events":[2923.2000000178814,4357.9000000059605],"checkbox_events":[],"key_events":[],"mouse_events":[2923.2000000178814,4357.9000000059605,5866.200000017881],"honeypot":0,"survey":"mace","page":4,"trial_type":"survey-mace","trial_index":12,"time_elapsed":425239,"internal_node_id":"0.0-12.0","task_version":"prescreen-v0.3","browser_interactions":0},{"responses":{"01":"Yes","01_ages_10":"10","01_ages_11":"11","01_ages_16":"16","01_ages_17":"17","02":"No","03":"No","04":"No","05":"No"},"rt":44954.09999999404,"item_order":[0,1,2,3,4],"radio_events":[13697.90000000596,33109.19999998808,38903,42427.90000000596,43685.69999998808],"checkbox_events":[20732.5,22174.5,26598.09999999404,29536],"key_events":[],"mouse_events":[13697.90000000596,20732.5,22174.5,26598.09999999404,29536,33109.19999998808,38903,42427.90000000596,43685.69999998808,44947.19999998808],"honeypot":0,"survey":"mace","page":5,"trial_type":"survey-mace","trial_index":13,"time_elapsed":470202,"internal_node_id":"0.0-13.0","task_version":"prescreen-v0.3","browser_interactions":0},{"responses":{"01":"Yes","01_ages_9":"9","01_ages_10":"10","01_ages_11":"11","01_ages_12":"12","02":"Yes","02_ages_9":"9","02_ages_10":"10","02_ages_11":"11","02_ages_12":"12","02_ages_13":"13","02_ages_14":"14","02_ages_15":"15","03":"No","04":"Yes","04_ages_9":"9","04_ages_10":"10","04_ages_11":"11","04_ages_12":"12","04_ages_13":"13","04_ages_14":"14","04_ages_15":"15","05":"No"},"rt":57644.69999998808,"item_order":[0,1,2,3,4],"radio_events":[14062.90000000596,23122.40000000596,38531.69999998808,42179,56619.09999999404],"checkbox_events":[16058.90000000596,16540,17134.59999999404,18536.19999998808,19514.19999998808,20305,24912.40000000596,25874.40000000596,26490.30000001192,27289.69999998808,27863.30000001192,29276.59999999404,29984.09999999404,44783.09999999404,46971.09999999404,47903.19999998808,49408.30000001192,50006.40000000596,50607.09999999404,52137.30000001192],"key_events":[],"mouse_events":[14062.90000000596,16058.90000000596,16540,17134.59999999404,18536.19999998808,19514.19999998808,20305,23122.40000000596,24912.40000000596,25874.40000000596,26490.30000001192,27289.69999998808,27863.30000001192,28478.40000000596,29276.59999999404,29984.09999999404,37376,38531.69999998808,42179,44402.69999998808,44783.09999999404,46971.09999999404,47903.19999998808,48511.5,48882.09999999404,49408.30000001192,50006.40000000596,50607.09999999404,52137.30000001192,56619.09999999404,57637.59999999404],"honeypot":0,"survey":"mace","page":6,"trial_type":"survey-mace","trial_index":14,"time_elapsed":527857,"internal_node_id":"0.0-14.0","task_version":"prescreen-v0.3","browser_interactions":0},{"responses":{"01":"No","02":"No","03":"No","04":"Yes","04_ages_10":"10","04_ages_11":"11","05":"No","06":"No","07":"No"},"rt":20748.19999998808,"item_order":[0,1,2,3,4,5,6],"radio_events":[4469.5,5584,10108.59999999404,11316.199999988079,15838.90000000596,19407.19999998808,20050.19999998808],"checkbox_events":[13079.5,13771.300000011921],"key_events":[],"mouse_events":[2861.699999988079,4469.5,5584,10108.59999999404,11316.199999988079,13079.5,13771.300000011921,15838.90000000596,17866.40000000596,18428.40000000596,19407.19999998808,20050.19999998808,20738.09999999404],"honeypot":0,"survey":"mace","page":7,"trial_type":"survey-mace","trial_index":15,"time_elapsed":548619,"internal_node_id":"0.0-15.0","task_version":"prescreen-v0.3","browser_interactions":0},{"responses":{"01":"No","02":"Yes","02_ages_1":"1","02_ages_2":"2","02_ages_3":"3","02_ages_4":"4","02_ages_5":"5","02_ages_6":"6","02_ages_7":"7","02_ages_8":"8","02_ages_9":"9","02_ages_10":"10","02_ages_11":"11","02_ages_12":"12","02_ages_13":"13","02_ages_14":"14","02_ages_15":"15","02_ages_16":"16","02_ages_17":"17","02_ages_18":"18","03":"Yes","03_ages_8":"8","03_ages_9":"9","03_ages_10":"10","03_ages_11":"11","03_ages_12":"12","03_ages_13":"13","03_ages_14":"14","03_ages_15":"15","03_ages_16":"16","03_ages_17":"17","03_ages_18":"18","04":"Yes","04_ages_8":"8","04_ages_9":"9","04_ages_10":"10","04_ages_11":"11","04_ages_12":"12","04_ages_13":"13","04_ages_14":"14","04_ages_15":"15","04_ages_16":"16","04_ages_17":"17","04_ages_18":"18"},"rt":84897.60000002384,"item_order":[0,1,2,3],"radio_events":[11992.800000011921,13584,38870.90000000596,59491.70000001788],"checkbox_events":[21303.40000000596,22408.80000001192,23239.30000001192,24231.40000000596,24998.70000001788,25871.100000023842,26550.20000001788,27768.5,28518.40000000596,29301.5,30147.600000023842,30773.600000023842,31534.600000023842,32275.100000023842,33020.40000000596,33705.70000001788,42676.70000001788,44106.70000001788,44889.40000000596,45707.60000002384,46617.90000000596,47290.90000000596,48112,48818.70000001788,49734.10000002384,52577,53433.10000002384,60794.90000000596,61708,62820.80000001192,63626.20000001788,64300.10000002384,65096.70000001788,65864.20000001788,66585,67276,68353,68988.90000000596,77424.70000001788,78411.20000001788],"key_events":[],"mouse_events":[11992.800000011921,13584,21303.40000000596,22408.80000001192,23239.30000001192,23816.80000001192,24231.40000000596,24998.70000001788,25871.100000023842,26550.20000001788,27293.20000001788,27768.5,28518.40000000596,29301.5,30147.600000023842,30773.600000023842,31534.600000023842,32275.100000023842,33020.40000000596,33705.70000001788,38352.90000000596,38870.90000000596,42676.70000001788,43576.80000001192,44106.70000001788,44889.40000000596,45707.60000002384,46617.90000000596,47290.90000000596,48112,48818.70000001788,49734.10000002384,52577,53433.10000002384,59491.70000001788,60794.90000000596,61708,62820.80000001192,63626.20000001788,64300.10000002384,65096.70000001788,65864.20000001788,66585,67276,68353,68988.90000000596,77424.70000001788,78411.20000001788,84892.60000002384],"honeypot":0,"survey":"mace","page":8,"trial_type":"survey-mace","trial_index":16,"time_elapsed":633524,"internal_node_id":"0.0-16.0","task_version":"prescreen-v0.3","browser_interactions":0},{"responses":{"01":"Yes","01_ages_1":"1","01_ages_2":"2","01_ages_3":"3","01_ages_4":"4","01_ages_5":"5","01_ages_6":"6","01_ages_7":"7","01_ages_8":"8","01_ages_9":"9","01_ages_17":"17","01_ages_18":"18","02":"Yes","02_ages_1":"1","02_ages_2":"2","02_ages_3":"3","02_ages_4":"4","02_ages_5":"5","02_ages_6":"6","02_ages_7":"7","02_ages_8":"8","02_ages_9":"9","02_ages_17":"17","02_ages_18":"18","03":"Yes","03_ages_1":"1","03_ages_2":"2","03_ages_3":"3","03_ages_4":"4","03_ages_5":"5","03_ages_6":"6","03_ages_7":"7","03_ages_8":"8","03_ages_9":"9","03_ages_10":"10","03_ages_11":"11","03_ages_12":"12","03_ages_13":"13","03_ages_14":"14","03_ages_15":"15","03_ages_16":"16","03_ages_17":"17","03_ages_18":"18","04":"Yes","04_ages_1":"1","04_ages_2":"2","04_ages_3":"3","04_ages_4":"4","04_ages_5":"5","04_ages_6":"6","04_ages_7":"7","04_ages_8":"8","04_ages_9":"9","04_ages_10":"10","04_ages_11":"11","04_ages_12":"12","04_ages_13":"13","04_ages_14":"14","04_ages_15":"15","04_ages_16":"16","04_ages_17":"17","04_ages_18":"18"},"rt":85082.40000000596,"item_order":[0,1,2,3],"radio_events":[3830.7000000178814,27697.80000001192,40696.90000000596,66325.30000001192],"checkbox_events":[5752.5,6312,8029,9086.300000011921,9794.09999999404,10409.59999999404,11205.700000017881,11738.700000017881,13062.40000000596,18313,18900.20000001788,28865.20000001788,29420.09999999404,30101.30000001192,30856.30000001192,31483.59999999404,32050.20000001788,32665.30000001192,34215.09999999404,34923,36706.5,37577.30000001192,42522.20000001788,43147.5,43895.59999999404,44863,46560,47415.09999999404,48203.80000001192,48837.90000000596,49556.20000001788,50300.59999999404,51005.80000001192,51658.09999999404,52310.59999999404,53025.59999999404,54558.59999999404,55273.40000000596,56045.40000000596,56709.5,70020.90000000596,71054.20000001788,71946.20000001788,72979.5,73557.5,74837.40000000596,75502.20000001788,76729.40000000596,77295.5,77794.90000000596,78563.09999999404,79556.5,80267.5,80984.80000001192,81700.30000001192,82386.80000001192,83137.20000001788,83954.30000001192],"key_events":[],"mouse_events":[2891.0999999940395,3830.7000000178814,5752.5,6312,7311.800000011921,8029,9086.300000011921,9794.09999999404,10409.59999999404,11205.700000017881,11738.700000017881,13062.40000000596,16501.30000001192,18313,18900.20000001788,27697.80000001192,28865.20000001788,29420.09999999404,30101.30000001192,30856.30000001192,31483.59999999404,32050.20000001788,32665.30000001192,33549.40000000596,34215.09999999404,34923,36706.5,37577.30000001192,40696.90000000596,42522.20000001788,43147.5,43895.59999999404,44465.40000000596,44863,45646.09999999404,46560,47415.09999999404,48203.80000001192,48837.90000000596,49556.20000001788,50300.59999999404,51005.80000001192,51658.09999999404,52310.59999999404,53025.59999999404,54108.20000001788,54558.59999999404,55273.40000000596,56045.40000000596,56709.5,66325.30000001192,70020.90000000596,70670.80000001192,71054.20000001788,71561,71946.20000001788,72979.5,73557.5,74227.90000000596,74837.40000000596,75502.20000001788,76729.40000000596,77295.5,77794.90000000596,78563.09999999404,79556.5,80267.5,80984.80000001192,81700.30000001192,82386.80000001192,83137.20000001788,83954.30000001192,85076.90000000596],"honeypot":0,"survey":"mace","page":9,"trial_type":"survey-mace","trial_index":17,"time_elapsed":718616,"internal_node_id":"0.0-17.0","task_version":"prescreen-v0.3","browser_interactions":0},{"responses":{"01":"Yes","01_ages_7":"7","01_ages_8":"8","02":"No","03":"Yes","03_ages_10":"10","03_ages_11":"11","03_ages_12":"12","03_ages_13":"13","03_ages_14":"14","03_ages_15":"15","03_ages_16":"16","03_ages_17":"17","03_ages_18":"18","04":"Yes","04_ages_1":"1","04_ages_2":"2","04_ages_3":"3","04_ages_4":"4","04_ages_5":"5","04_ages_6":"6","04_ages_7":"7","04_ages_8":"8","04_ages_9":"9","04_ages_10":"10","04_ages_11":"11","04_ages_12":"12","04_ages_13":"13","04_ages_14":"14","04_ages_15":"15","04_ages_16":"16","05":"No","06":"Yes","06_ages_17":"17","07":"Yes","07_ages_1":"1","07_ages_2":"2","07_ages_3":"3","07_ages_4":"4","07_ages_5":"5","07_ages_6":"6","07_ages_7":"7","07_ages_8":"8","07_ages_9":"9","07_ages_10":"10","07_ages_11":"11","07_ages_12":"12","07_ages_13":"13","07_ages_14":"14","07_ages_15":"15","07_ages_16":"16","07_ages_17":"17","07_ages_18":"18","08":"Yes","08_ages_1":"1","08_ages_2":"2","08_ages_3":"3","08_ages_4":"4","08_ages_5":"5","08_ages_6":"6","08_ages_7":"7","08_ages_8":"8","08_ages_9":"9","08_ages_10":"10","08_ages_11":"11","08_ages_17":"17","08_ages_18":"18"},"rt":98605.30000001192,"item_order":[0,1,2,3,4,5,6,7],"radio_events":[8247,19163.90000000596,22818.90000000596,32686.40000000596,47450.59999999404,48116.90000000596,49323.09999999404,54277.40000000596,68825.5],"checkbox_events":[11015.5,11694.700000017881,13154.09999999404,13795.40000000596,26072,26559.5,27094.59999999404,27458.5,27881.30000001192,28301.09999999404,28718.40000000596,29191.5,29601.30000001192,33606.09999999404,34031.30000001192,34440.59999999404,34814.09999999404,35196.59999999404,35570.30000001192,35953,36444.09999999404,36890.30000001192,37341.30000001192,38537,38864.90000000596,39319,39719.20000001788,40677.80000001192,41749.30000001192,50508,56189.5,56513.59999999404,56897.09999999404,57231.30000001192,57702.09999999404,58178.5,58531,58941.20000001788,59366.30000001192,59821.90000000596,60202,60627.40000000596,61021.20000001788,61461,61936.40000000596,62889.20000001788,63331.80000001192,63785.20000001788,72389.59999999404,72999.30000001192,73877.80000001192,74259.70000001788,74584.59999999404,74996.90000000596,75456.90000000596,75841.70000001788,76236.09999999404,76669,77062,77820.90000000596,81424.70000001788,82428.09999999404,83685.5],"key_events":[],"mouse_events":[7280,7814.5,8247,11015.5,11694.700000017881,13154.09999999404,13795.40000000596,18019.5,19163.90000000596,19979.30000001192,20730.30000001192,21520.5,22818.90000000596,26072,26559.5,27094.59999999404,27458.5,27881.30000001192,28301.09999999404,28718.40000000596,29191.5,29601.30000001192,32686.40000000596,33606.09999999404,34031.30000001192,34440.59999999404,34814.09999999404,35196.59999999404,35570.30000001192,35953,36444.09999999404,36890.30000001192,37341.30000001192,38537,38864.90000000596,39319,39719.20000001788,40677.80000001192,41749.30000001192,47450.59999999404,48116.90000000596,49323.09999999404,50508,54277.40000000596,56189.5,56513.59999999404,56897.09999999404,57231.30000001192,57702.09999999404,58178.5,58531,58941.20000001788,59366.30000001192,59821.90000000596,60202,60627.40000000596,61021.20000001788,61461,61936.40000000596,62889.20000001788,63331.80000001192,63785.20000001788,68825.5,72389.59999999404,72999.30000001192,73877.80000001192,74259.70000001788,74584.59999999404,74996.90000000596,75456.90000000596,75841.70000001788,76236.09999999404,76669,77062,77820.90000000596,81424.70000001788,82428.09999999404,83685.5,98596.40000000596],"honeypot":0,"survey":"mace","page":10,"trial_type":"survey-mace","trial_index":18,"time_elapsed":817233,"internal_node_id":"0.0-18.0","task_version":"prescreen-v0.3","browser_interactions":0,"instructed":0},{"rt":5621.399999976158,"trial_type":"mental-health-alert","trial_index":19,"time_elapsed":822858,"internal_node_id":"0.0-19.0","task_version":"prescreen-v0.3","interactions":"[{\"event\":\"blur\",\"trial\":11,\"time\":412880},{\"event\":\"focus\",\"trial\":11,\"time\":415103}]"}]