[{"view_history":[{"page_index":0,"viewing_time":13080.800000071526},{"page_index":1,"viewing_time":4758},{"page_index":2,"viewing_time":2674.5},{"page_index":3,"viewing_time":1058.5999999046326}],"rt":21573,"trial_type":"instructions","trial_index":0,"time_elapsed":21592,"internal_node_id":"0.0-0.0","task_version":"prescreen-v0.3"},{"rt":8210.100000023842,"responses":{"age":"20","gender-categorical":"Female","gender-free-response":"","ethnicity":"Not Hispanic or Latino","race":["White"],"education":"Some college"},"trial_type":"survey-demo","trial_index":1,"time_elapsed":29809,"internal_node_id":"0.0-1.0","task_version":"prescreen-v0.3"},{"responses":{"Q19":"1","Q04":"0","Q03":"1","Q05":"1","Q07":"1","Q09":"1","Q06":"0","Q12":"2","Q21":"3","Q01":"1","Q20":"1","Q14":"1","Q11":"1","Q13":"1","Q08":"1","Q02":"0","Q18":"1","Q10":"2","Q17":"1","Q15":"1","Q16":"1"},"rt":124615.59999990463,"item_order":[18,3,2,4,6,8,5,11,20,0,19,13,10,12,7,1,17,9,16,14,15],"radio_events":[12620.799999952316,17622.5,23503.799999952316,26622.699999928474,29943.299999952316,33481.199999928474,35315.39999997616,39048.59999990463,41609.5,49866.59999990463,50973,56515.799999952316,60385.39999997616,67561.89999997616,68415.79999995232,93729.59999990463,95548.09999990463,98448.19999992847,101688.39999997616,104347,107635.09999990463,117099.69999992847,122847.19999992847],"key_events":[],"mouse_events":[12620.799999952316,15012.799999952316,17622.5,21863.5,22615.099999904633,23503.799999952316,26622.699999928474,29943.299999952316,33481.199999928474,35315.39999997616,39048.59999990463,41609.5,48961.59999990463,49866.59999990463,50973,56515.799999952316,59254.299999952316,59844.699999928474,60385.39999997616,65685.59999990463,66842.59999990463,67561.89999997616,68415.79999995232,93729.59999990463,95548.09999990463,98448.19999992847,101688.39999997616,104347,107635.09999990463,116404.19999992847,117099.69999992847,117891.59999990463,122847.19999992847,124607.79999995232],"straightlining":0.7142857142857143,"zigzagging":0.4,"honeypot":0,"survey":"sns","trial_type":"survey-template","trial_index":2,"time_elapsed":154436,"internal_node_id":"0.0-2.0","task_version":"prescreen-v0.3","browser_interactions":0,"infrequency":0},{"responses":{"Q06":"2","Q05":"3","Q11":"2","Q08":"2","Q13":"0","Q12":"1","Q10":"1","Q09":"2","Q02":"2","Q04":"3","Q01":"3","Q07":"2","Q03":"3"},"rt":155450.39999997616,"item_order":[5,4,10,7,12,11,9,8,1,3,0,6,2],"radio_events":[52580.39999997616,53752.60000002384,56515.5,58907.39999997616,60804.799999952316,63907.5,70048.19999992847,70783.19999992847,76293.39999997616,78378.69999992847,81432,88687.5,92692.60000002384,154614.39999997616],"key_events":[],"mouse_events":[52580.39999997616,53752.60000002384,56515.5,58907.39999997616,60804.799999952316,63907.5,69312.69999992847,70048.19999992847,70783.19999992847,76293.39999997616,78378.69999992847,81432,88687.5,92692.60000002384,154614.39999997616,155446.29999995232],"straightlining":0.46153846153846156,"zigzagging":0.5833333333333334,"honeypot":0,"survey":"bisbas","trial_type":"survey-template","trial_index":3,"time_elapsed":309896,"internal_node_id":"0.0-3.0","task_version":"prescreen-v0.3","browser_interactions":2,"infrequency":0},{"responses":{"Q01":"4","Q02":"2","Q03":"3"},"rt":17628.600000023842,"radio_events":[4037.7000000476837,5556.399999976158,7123.700000047684,14233.300000071526,16543.399999976158],"key_events":[],"mouse_events":[4037.7000000476837,5556.399999976158,7123.700000047684,14233.300000071526,16059.200000047684,16543.399999976158,17626.5],"survey":"map","page":1,"trial_type":"survey-map","trial_index":4,"time_elapsed":327530,"internal_node_id":"0.0-4.0","task_version":"prescreen-v0.3","browser_interactions":0},{"responses":{"Q04":"2","Q05":"2","Q06":"1"},"rt":18504.600000023842,"radio_events":[10109.100000023842,11038.200000047684,13356.899999976158],"key_events":[],"mouse_events":[10109.100000023842,11038.200000047684,13356.899999976158,18502.899999976158],"survey":"map","page":2,"trial_type":"survey-map","trial_index":5,"time_elapsed":346040,"internal_node_id":"0.0-5.0","task_version":"prescreen-v0.3","browser_interactions":0},{"responses":{"Q07":"3","Q08":"1","Q09":"3"},"rt":54480.39999997616,"radio_events":[8885.699999928474,37131.699999928474,53645.699999928474],"key_events":[],"mouse_events":[8885.699999928474,36533.199999928474,37131.699999928474,53645.699999928474,54478.699999928474],"survey":"map","page":3,"trial_type":"survey-map","trial_index":6,"time_elapsed":400525,"internal_node_id":"0.0-6.0","task_version":"prescreen-v0.3","browser_interactions":0},{"responses":{"Q10":"2","Q11":"1","Q12":"3","Q13":"3","Q16":"0","Q14":"2","Q15":"2"},"rt":38035,"radio_events":[4420.900000095367,14958.900000095367,16720.100000023842,17940.100000023842,21833.800000071526,31057.700000047684,35615.5,37385],"key_events":[],"mouse_events":[4420.900000095367,14958.900000095367,16720.100000023842,17940.100000023842,21833.800000071526,31057.700000047684,35615.5,37385,38031.300000071526],"survey":"map","page":4,"trial_type":"survey-map","trial_index":7,"time_elapsed":438567,"internal_node_id":"0.0-7.0","task_version":"prescreen-v0.3","browser_interactions":0,"infrequency":0},{"view_history":[{"page_index":0,"viewing_time":1494.7999999523163},{"page_index":1,"viewing_time":3374.899999976158}],"rt":4870.899999976158,"trial_type":"instructions","trial_index":8,"time_elapsed":443441,"internal_node_id":"0.0-8.0","task_version":"prescreen-v0.3"},{"responses":{"01":"No","02":"Yes","02_ages_13":"13","02_ages_14":"14","02_ages_15":"15","02_ages_16":"16","02_ages_17":"17","02_ages_18":"18","03":"No","04":"No","05":"No","06":"No"},"rt":48050.89999997616,"item_order":[0,1,2,3,4,5],"radio_events":[3384,18682.100000023842,21913.200000047684,31858.600000023842,34225.5,36132.300000071526,37456.89999997616],"checkbox_events":[24514.700000047684,24966.899999976158,25411.399999976158,25847.200000047684,26267.5,26744.600000023842,27770.600000023842,28869.100000023842,42224.60000002384,42619.700000047684,43088.39999997616,45884.10000002384],"key_events":[],"mouse_events":[0.10000002384185791,3384,18682.100000023842,21913.200000047684,24514.700000047684,24966.899999976158,25411.399999976158,25847.200000047684,26267.5,26744.600000023842,27294,27770.600000023842,28254.399999976158,28869.100000023842,31858.600000023842,34225.5,36132.300000071526,37456.89999997616,42224.60000002384,42619.700000047684,43088.39999997616,45884.10000002384,48041.5],"honeypot":0,"survey":"mace","page":1,"trial_type":"survey-mace","trial_index":9,"time_elapsed":491503,"internal_node_id":"0.0-9.0","task_version":"prescreen-v0.3","browser_interactions":0},{"responses":{"01":"No","02":"No","03":"No","04":"No","05":"No","06":"No","07":"No","08":"No"},"rt":17218.5,"item_order":[0,1,2,3,4,5,6,7],"radio_events":[6680.400000095367,7802.900000095367,10727.600000023842,11688.700000047684,12956.600000023842,14128.300000071526,15469.600000023842,16245.300000071526],"checkbox_events":[],"key_events":[],"mouse_events":[6680.400000095367,7802.900000095367,10727.600000023842,11688.700000047684,12956.600000023842,14128.300000071526,15469.600000023842,16245.300000071526,17206.800000071526],"honeypot":0,"survey":"mace","page":2,"trial_type":"survey-mace","trial_index":10,"time_elapsed":508727,"internal_node_id":"0.0-10.0","task_version":"prescreen-v0.3","browser_interactions":0},{"responses":{"01":"No","02":"No","03":"No","04":"No"},"rt":7164.799999952316,"item_order":[0,1,2,3],"radio_events":[2754.399999976158,3667.5,4984.5,6365.799999952316],"checkbox_events":[],"key_events":[],"mouse_events":[2754.399999976158,3667.5,4984.5,6365.799999952316,7157.600000023842],"honeypot":0,"survey":"mace","page":3,"trial_type":"survey-mace","trial_index":11,"time_elapsed":515897,"internal_node_id":"0.0-11.0","task_version":"prescreen-v0.3","browser_interactions":0},{"responses":{"01":"No","02":"No"},"rt":13200.200000047684,"item_order":[0,1],"radio_events":[9866.700000047684,10795.899999976158],"checkbox_events":[],"key_events":[],"mouse_events":[9866.700000047684,10795.899999976158,13196.200000047684],"honeypot":0,"survey":"mace","page":4,"trial_type":"survey-mace","trial_index":12,"time_elapsed":529101,"internal_node_id":"0.0-12.0","task_version":"prescreen-v0.3","browser_interactions":0},{"responses":{"01":"No","02":"No","03":"No","04":"No","05":"No"},"rt":19813.5,"item_order":[0,1,2,3,4],"radio_events":[9875.199999928474,11927.699999928474,14173.399999976158,17219.199999928474,18900],"checkbox_events":[],"key_events":[],"mouse_events":[9875.199999928474,11927.699999928474,14173.399999976158,17219.199999928474,18140.199999928474,18900,19457.299999952316,19804.600000023842],"honeypot":0,"survey":"mace","page":5,"trial_type":"survey-mace","trial_index":13,"time_elapsed":548920,"internal_node_id":"0.0-13.0","task_version":"prescreen-v0.3","browser_interactions":0},{"responses":{"01":"Yes","01_ages_12":"12","01_ages_13":"13","01_ages_14":"14","01_ages_15":"15","01_ages_16":"16","01_ages_17":"17","01_ages_18":"18","02":"Yes","02_ages_12":"12","02_ages_13":"13","02_ages_14":"14","02_ages_15":"15","02_ages_16":"16","02_ages_17":"17","02_ages_18":"18","03":"Yes","03_ages_14":"14","03_ages_15":"15","03_ages_16":"16","03_ages_17":"17","03_ages_18":"18","04":"Yes","04_ages_8":"8","04_ages_9":"9","04_ages_10":"10","04_ages_11":"11","04_ages_12":"12","04_ages_13":"13","04_ages_14":"14","04_ages_15":"15","04_ages_16":"16","04_ages_17":"17","05":"No"},"rt":46111.700000047684,"item_order":[0,1,2,3,4],"radio_events":[6400.5,17372.799999952316,23924.200000047684,31277.100000023842,45295.299999952316],"checkbox_events":[9195.799999952316,9640.399999976158,10165.600000023842,10666.299999952316,11102.899999976158,14851.299999952316,15481.799999952316,18333.700000047684,18753.399999976158,19206.100000023842,19641.899999976158,20563.200000047684,20919,21428,25201.200000047684,25653.200000047684,27309.799999952316,27632.899999976158,28635,35704.39999997616,36221,36674.39999997616,37247.299999952316,37619.200000047684,38047.799999952316,38507.700000047684,39655.10000002384,40067.299999952316,41214.799999952316,42466.89999997616,43032.299999952316],"key_events":[],"mouse_events":[6400.5,9195.799999952316,9640.399999976158,10165.600000023842,10666.299999952316,11102.899999976158,14851.299999952316,15481.799999952316,17372.799999952316,18333.700000047684,18753.399999976158,19206.100000023842,19641.899999976158,20086.799999952316,20563.200000047684,20919,21428,23924.200000047684,25201.200000047684,25653.200000047684,26041.100000023842,27309.799999952316,27632.899999976158,28085.100000023842,28635,31277.100000023842,35704.39999997616,36221,36674.39999997616,37247.299999952316,37619.200000047684,38047.799999952316,38507.700000047684,39170.299999952316,39655.10000002384,40067.299999952316,40592.200000047684,41214.799999952316,41594.5,42103.5,42466.89999997616,43032.299999952316,45295.299999952316,46102.89999997616],"honeypot":0,"survey":"mace","page":6,"trial_type":"survey-mace","trial_index":14,"time_elapsed":595038,"internal_node_id":"0.0-14.0","task_version":"prescreen-v0.3","browser_interactions":0},{"responses":{"01":"No","02":"No","03":"No","04":"No","05":"No","06":"No","07":"No"},"rt":11275.5,"item_order":[0,1,2,3,4,5,6],"radio_events":[2999.8000000715256,3783.3000000715256,5172.800000071526,6231.400000095367,7055.300000071526,8380.600000023842,9293.600000023842],"checkbox_events":[],"key_events":[],"mouse_events":[2999.8000000715256,3783.3000000715256,5172.800000071526,6231.400000095367,7055.300000071526,8380.600000023842,9293.600000023842,11264.800000071526],"honeypot":0,"survey":"mace","page":7,"trial_type":"survey-mace","trial_index":15,"time_elapsed":606319,"internal_node_id":"0.0-15.0","task_version":"prescreen-v0.3","browser_interactions":0},{"responses":{"01":"No","02":"No","03":"No","04":"No"},"rt":12327.600000023842,"item_order":[0,1,2,3],"radio_events":[5583.700000047684,6811.399999976158,8201.600000023842,11594.799999952316],"checkbox_events":[],"key_events":[],"mouse_events":[5583.700000047684,6811.399999976158,8201.600000023842,11594.799999952316,12321.600000023842],"honeypot":0,"survey":"mace","page":8,"trial_type":"survey-mace","trial_index":16,"time_elapsed":618650,"internal_node_id":"0.0-16.0","task_version":"prescreen-v0.3","browser_interactions":0},{"responses":{"01":"Yes","01_ages_1":"1","01_ages_2":"2","01_ages_3":"3","01_ages_4":"4","01_ages_5":"5","01_ages_6":"6","01_ages_7":"7","01_ages_8":"8","01_ages_9":"9","01_ages_10":"10","01_ages_11":"11","01_ages_12":"12","01_ages_13":"13","01_ages_14":"14","01_ages_15":"15","01_ages_16":"16","01_ages_17":"17","01_ages_18":"18","02":"Yes","02_ages_1":"1","02_ages_2":"2","02_ages_3":"3","02_ages_4":"4","02_ages_5":"5","02_ages_6":"6","02_ages_7":"7","02_ages_8":"8","02_ages_9":"9","02_ages_10":"10","02_ages_11":"11","02_ages_12":"12","02_ages_13":"13","02_ages_14":"14","02_ages_15":"15","02_ages_16":"16","02_ages_17":"17","02_ages_18":"18","03":"Yes","03_ages_1":"1","03_ages_2":"2","03_ages_3":"3","03_ages_4":"4","03_ages_5":"5","03_ages_6":"6","03_ages_7":"7","03_ages_8":"8","03_ages_9":"9","03_ages_10":"10","03_ages_11":"11","03_ages_12":"12","03_ages_13":"13","03_ages_14":"14","03_ages_15":"15","03_ages_16":"16","03_ages_17":"17","03_ages_18":"18","04":"Yes","04_ages_1":"1","04_ages_2":"2","04_ages_3":"3","04_ages_4":"4","04_ages_5":"5","04_ages_6":"6","04_ages_7":"7","04_ages_8":"8","04_ages_9":"9","04_ages_10":"10","04_ages_11":"11","04_ages_12":"12","04_ages_13":"13","04_ages_14":"14","04_ages_15":"15","04_ages_16":"16","04_ages_17":"17","04_ages_18":"18"},"rt":70984.10000002384,"item_order":[0,1,2,3],"radio_events":[5160.899999976158,26962.699999928474,39469,57912.299999952316],"checkbox_events":[8206.899999976158,8812.899999976158,10929.199999928474,11276.699999928474,13401.299999952316,13772.899999976158,14645.699999928474,15638.899999976158,16931.199999928474,17529.5,18305.600000023842,18886.799999952316,19363.399999976158,19953.600000023842,20421.899999976158,20898.600000023842,21415.699999928474,21851.699999928474,28125.899999976158,28610.799999952316,29152,29612.600000023842,30072.799999952316,30541.600000023842,31002,32068.600000023842,32416.199999928474,32884.199999928474,33409.799999952316,33886.39999997616,34621.39999997616,35074,35703.89999997616,36188.89999997616,36770.199999928474,37425,40802.10000002384,42199.39999997616,42733.10000002384,43234.799999952316,43750.699999928474,44122.60000002384,45375.699999928474,45820.199999928474,46465,46878.5,47426.89999997616,48098.199999928474,49568.89999997616,50408.39999997616,50925.60000002384,52047.299999952316,52824,53259.60000002384,59326.10000002384,59673.5,60521.5,61096,61523.299999952316,62202.199999928474,63179.60000002384,64011.799999952316,64641.799999952316,65466,66127.79999995232,66718.19999992847,67372.60000002384,67978.79999995232,68649.60000002384,69207.19999992847,69820.79999995232,70362.29999995232],"key_events":[],"mouse_events":[5160.899999976158,8206.899999976158,8812.899999976158,9701.399999976158,10436.799999952316,10929.199999928474,11276.699999928474,12803.299999952316,13401.299999952316,13772.899999976158,14209.399999976158,14645.699999928474,15219.100000023842,15638.899999976158,16931.199999928474,17529.5,18305.600000023842,18886.799999952316,19363.399999976158,19953.600000023842,20421.899999976158,20898.600000023842,21415.699999928474,21851.699999928474,26962.699999928474,28125.899999976158,28610.799999952316,29152,29612.600000023842,30072.799999952316,30541.600000023842,31002,31543.299999952316,32068.600000023842,32416.199999928474,32884.199999928474,33409.799999952316,33886.39999997616,34621.39999997616,35074,35703.89999997616,36188.89999997616,36770.199999928474,37425,39469,40802.10000002384,42199.39999997616,42733.10000002384,43234.799999952316,43750.699999928474,44122.60000002384,44477.5,45011.89999997616,45375.699999928474,45820.199999928474,46465,46878.5,47426.89999997616,48098.199999928474,49156.199999928474,49568.89999997616,49956.299999952316,50408.39999997616,50925.60000002384,52047.299999952316,52824,53259.60000002384,57912.299999952316,59326.10000002384,59673.5,60053.39999997616,60521.5,61096,61523.299999952316,62202.199999928474,63179.60000002384,63511.199999928474,64011.799999952316,64641.799999952316,65466,66127.79999995232,66718.19999992847,67372.60000002384,67978.79999995232,68649.60000002384,69207.19999992847,69820.79999995232,70362.29999995232,70976.5],"honeypot":0,"survey":"mace","page":9,"trial_type":"survey-mace","trial_index":17,"time_elapsed":689641,"internal_node_id":"0.0-17.0","task_version":"prescreen-v0.3","browser_interactions":0},{"responses":{"01":"No","02":"No","03":"No","04":"No","05":"No","06":"Yes","06_ages_17":"17","07":"Yes","07_ages_1":"1","07_ages_2":"2","07_ages_3":"3","07_ages_4":"4","07_ages_5":"5","07_ages_6":"6","07_ages_7":"7","07_ages_8":"8","07_ages_9":"9","07_ages_10":"10","07_ages_11":"11","07_ages_12":"12","07_ages_13":"13","07_ages_14":"14","07_ages_15":"15","07_ages_16":"16","07_ages_17":"17","07_ages_18":"18","08":"Yes","08_ages_1":"1","08_ages_2":"2","08_ages_3":"3","08_ages_4":"4","08_ages_5":"5","08_ages_6":"6","08_ages_7":"7","08_ages_8":"8","08_ages_9":"9","08_ages_10":"10","08_ages_11":"11","08_ages_12":"12","08_ages_13":"13","08_ages_14":"14","08_ages_15":"15","08_ages_16":"16","08_ages_17":"17","08_ages_18":"18"},"rt":35822.200000047684,"item_order":[0,1,2,3,4,5,6,7],"radio_events":[2790.100000023842,3582.2000000476837,4196.5,6522.5,7680.200000047684,9262.200000047684,14319.799999952316,15482.899999976158],"checkbox_events":[11023.100000023842,17350.600000023842,17681.799999952316,18181.399999976158,18577.299999952316,19030.899999976158,19789.5,20202.600000023842,21220.200000047684,21568,21947.200000047684,22681.299999952316,23231,23763.899999976158,24337.600000023842,24774.200000047684,25331.299999952316,25840.899999976158,26495.200000047684,27358.100000023842,27820,28296.299999952316,28724.799999952316,29129.200000047684,29597.100000023842,30017.899999976158,30494.399999976158,30898.399999976158,31407.299999952316,31835.299999952316,32352.799999952316,32772.5,33201,33637.200000047684,34025.10000002384,34420.799999952316,34824.89999997616],"key_events":[],"mouse_events":[2790.100000023842,3582.2000000476837,4196.5,5739.299999952316,6522.5,7680.200000047684,9262.200000047684,11023.100000023842,14319.799999952316,15482.899999976158,17350.600000023842,17681.799999952316,18181.399999976158,18577.299999952316,19030.899999976158,19458.899999976158,19789.5,20202.600000023842,20645.600000023842,21220.200000047684,21568,21947.200000047684,22681.299999952316,23231,23763.899999976158,24337.600000023842,24774.200000047684,25331.299999952316,25840.899999976158,26495.200000047684,27358.100000023842,27820,28296.299999952316,28724.799999952316,29129.200000047684,29597.100000023842,30017.899999976158,30494.399999976158,30898.399999976158,31407.299999952316,31835.299999952316,32352.799999952316,32772.5,33201,33637.200000047684,34025.10000002384,34420.799999952316,34824.89999997616,35810.799999952316],"honeypot":0,"survey":"mace","page":10,"trial_type":"survey-mace","trial_index":18,"time_elapsed":725469,"internal_node_id":"0.0-18.0","task_version":"prescreen-v0.3","browser_interactions":0,"instructed":0},{"rt":4952.899999976158,"trial_type":"mental-health-alert","trial_index":19,"time_elapsed":730425,"internal_node_id":"0.0-19.0","task_version":"prescreen-v0.3","interactions":"[{\"event\":\"blur\",\"trial\":3,\"time\":179510},{\"event\":\"focus\",\"trial\":3,\"time\":206018}]"}]