[{"view_history":[{"page_index":0,"viewing_time":16038.90000000596},{"page_index":1,"viewing_time":1376.199999988079},{"page_index":0,"viewing_time":1119.800000011921},{"page_index":1,"viewing_time":4287.799999982119},{"page_index":2,"viewing_time":3591.9000000059605},{"page_index":3,"viewing_time":1040.0999999940395}],"rt":27455.09999999404,"trial_type":"instructions","trial_index":0,"time_elapsed":27472,"internal_node_id":"0.0-0.0","task_version":"prescreen-v0.3"},{"rt":67709.19999998808,"responses":{"age":"19","gender-categorical":"Male","gender-free-response":"","ethnicity":"Not Hispanic or Latino","race":["Rather not say"],"education":"High school","siblings":"2"},"trial_type":"survey-demo","trial_index":1,"time_elapsed":95184,"internal_node_id":"0.0-1.0","task_version":"prescreen-v0.3"},{"responses":{"Q20":"3","Q03":"1","Q09":"1","Q15":"2","Q14":"1","Q12":"2","Q21":"3","Q07":"2","Q05":"3","Q11":"1","Q19":"1","Q04":"0","Q13":"1","Q02":"0","Q01":"0","Q16":"0","Q06":"1","Q17":"1","Q08":"2","Q18":"1","Q10":"0"},"rt":127253.10000002384,"item_order":[19,2,8,14,13,11,20,6,4,10,18,3,12,1,0,15,5,16,7,17,9],"radio_events":[5339.700000017881,10619.40000000596,14675.200000017881,27675.40000000596,33571.20000001788,36939.40000000596,39867.30000001192,54427.5,64051.10000002384,67779.60000002384,75731.10000002384,80043.30000001192,83995.30000001192,87067,89722.90000000596,100075.20000001788,107955.40000000596,113043.30000001192,115227.10000002384,123707.40000000596,126451.10000002384],"key_events":[],"mouse_events":[4587.5,5339.700000017881,10619.40000000596,14675.200000017881,27675.40000000596,32875.30000001192,33571.20000001788,36939.40000000596,39867.30000001192,53899.70000001788,54427.5,54683.40000000596,63643.5,64051.10000002384,67779.60000002384,75731.10000002384,80043.30000001192,83995.30000001192,87067,89722.90000000596,100075.20000001788,107955.40000000596,113043.30000001192,114411.30000001192,115227.10000002384,123707.40000000596,125323.60000002384,126451.10000002384,127251.30000001192],"straightlining":0.42857142857142855,"zigzagging":0.65,"honeypot":0,"survey":"sns","trial_type":"survey-template","trial_index":2,"time_elapsed":222441,"internal_node_id":"0.0-2.0","task_version":"prescreen-v0.3","browser_interactions":2,"infrequency":0},{"responses":{"Q12":"0","Q01":"2","Q03":"2","Q10":"1","Q02":"0","Q07":"2","Q04":"2","Q11":"0","Q08":"1","Q09":"0","Q13":"0","Q05":"2","Q06":"2"},"rt":97571.60000002384,"item_order":[11,0,2,9,1,6,3,10,7,8,12,4,5],"radio_events":[30474.600000023842,32882.70000001788,37538.40000000596,41186.5,44154.70000001788,46914.80000001192,51602.70000001788,59162.80000001192,62562.60000002384,67395,73658.60000002384,87146.40000000596,96714.70000001788],"key_events":[],"mouse_events":[30474.600000023842,32882.70000001788,37538.40000000596,41186.5,44154.70000001788,46914.80000001192,51602.70000001788,59162.80000001192,62562.60000002384,66026.90000000596,67395,72546.70000001788,73658.60000002384,86786.80000001192,87146.40000000596,96714.70000001788,97570.60000002384],"straightlining":0.46153846153846156,"zigzagging":0.3333333333333333,"honeypot":0,"survey":"bisbas","trial_type":"survey-template","trial_index":3,"time_elapsed":320017,"internal_node_id":"0.0-3.0","task_version":"prescreen-v0.3","browser_interactions":6,"infrequency":0},{"responses":{"Q01":"3","Q02":"2","Q03":"3"},"rt":22764.69999998808,"radio_events":[8523.799999982119,14268,21180.29999998212],"key_events":[],"mouse_events":[8028.0999999940395,8523.799999982119,14268,20731.69999998808,21180.29999998212,22764.09999999404],"survey":"map","page":1,"trial_type":"survey-map","trial_index":4,"time_elapsed":342784,"internal_node_id":"0.0-4.0","task_version":"prescreen-v0.3","browser_interactions":0},{"responses":{"Q04":"4","Q05":"3","Q06":"4"},"rt":21205.5,"radio_events":[9821.09999999404,12557.09999999404,15397.09999999404],"key_events":[],"mouse_events":[9821.09999999404,12557.09999999404,15397.09999999404,21205.09999999404],"survey":"map","page":2,"trial_type":"survey-map","trial_index":5,"time_elapsed":363992,"internal_node_id":"0.0-5.0","task_version":"prescreen-v0.3","browser_interactions":2},{"responses":{"Q07":"4","Q08":"0","Q09":"3"},"rt":31294.5,"radio_events":[16718.5,18390.69999998808,24518.5],"key_events":[],"mouse_events":[8622.59999999404,12551.5,16718.5,17870.29999998212,18390.69999998808,24518.5,30350.19999998808,31294.09999999404],"survey":"map","page":3,"trial_type":"survey-map","trial_index":6,"time_elapsed":395287,"internal_node_id":"0.0-6.0","task_version":"prescreen-v0.3","browser_interactions":2},{"responses":{"Q10":"3","Q11":"4","Q12":"2","Q13":"3","Q16":"0","Q14":"3","Q15":"4"},"rt":61303.19999998808,"radio_events":[8062.5999999940395,9870.40000000596,13710,16118.40000000596,22086.19999998808,30167.19999998808,35478.29999998212,46054,58478.29999998212,60430.19999998808],"key_events":[],"mouse_events":[6830.4000000059605,8062.5999999940395,9870.40000000596,12702.5,13710,16118.40000000596,22086.19999998808,30167.19999998808,35478.29999998212,46054,58478.29999998212,60430.19999998808,61302.40000000596],"survey":"map","page":4,"trial_type":"survey-map","trial_index":7,"time_elapsed":456592,"internal_node_id":"0.0-7.0","task_version":"prescreen-v0.3","browser_interactions":0,"infrequency":0},{"view_history":[{"page_index":0,"viewing_time":2813.2999999821186},{"page_index":1,"viewing_time":6528.0999999940395}],"rt":9342,"trial_type":"instructions","trial_index":8,"time_elapsed":465935,"internal_node_id":"0.0-8.0","task_version":"prescreen-v0.3"},{"responses":{"01":"Yes","01_ages_8":"8","01_ages_9":"9","01_ages_12":"12","01_ages_13":"13","01_ages_14":"14","01_ages_15":"15","01_ages_16":"16","01_ages_17":"17","02":"Yes","02_ages_8":"8","02_ages_9":"9","02_ages_10":"10","02_ages_14":"14","02_ages_15":"15","02_ages_16":"16","02_ages_17":"17","02_ages_18":"18","03":"No","04":"No","05":"No","06":"Yes","06_ages_11":"11","06_ages_12":"12","06_ages_13":"13"},"rt":114036.29999998212,"item_order":[0,1,2,3,4,5],"radio_events":[15475.199999988079,53242.5,81514.59999999404,83851.5,85738.69999998808,89674.79999998212],"checkbox_events":[28427.19999998808,29266.79999998212,29842.59999999404,31570.40000000596,33179,37267,38347,39834.90000000596,57098.69999998808,57939.09999999404,59090.69999998808,60266.59999999404,61266.69999998808,62683.29999998212,64010.69999998808,64546.5,69058.40000000596,74274.69999998808,93354.59999999404,93858.40000000596,94594.40000000596,106130.5,107010.40000000596],"key_events":[],"mouse_events":[0.19999998807907104,15475.199999988079,28427.19999998808,29266.79999998212,29842.59999999404,31570.40000000596,33179,37267,38347,39834.90000000596,53242.5,57098.69999998808,57939.09999999404,59090.69999998808,60266.59999999404,61266.69999998808,62683.29999998212,63138.69999998808,64010.69999998808,64546.5,69058.40000000596,74274.69999998808,81514.59999999404,83851.5,85738.69999998808,89674.79999998212,93354.59999999404,93858.40000000596,94594.40000000596,106130.5,107010.40000000596,114034.59999999404],"honeypot":0,"survey":"mace","page":1,"trial_type":"survey-mace","trial_index":9,"time_elapsed":579977,"internal_node_id":"0.0-9.0","task_version":"prescreen-v0.3","browser_interactions":0},{"responses":{"01":"No","02":"No","03":"Yes","03_ages_8":"8","03_ages_9":"9","03_ages_10":"10","03_ages_11":"11","03_ages_12":"12","04":"No","05":"Yes","05_ages_8":"8","05_ages_9":"9","05_ages_10":"10","05_ages_11":"11","05_ages_12":"12","06":"No","07":"No","08":"No"},"rt":53014.19999998808,"item_order":[0,1,2,3,4,5,6,7],"radio_events":[8019.5,12155.90000000596,13699.59999999404,32499.59999999404,36931.40000000596,50043.40000000596,50787.5,52075.90000000596],"checkbox_events":[14931.699999988079,15707.90000000596,16099.5,18403.5,18771.90000000596,19531.59999999404,19915.69999998808,20339.59999999404,21547.69999998808,25980,26868.09999999404,37883.29999998212,38283.40000000596,38707.5,43707.59999999404,45267.5,45691.29999998212,46691.5],"key_events":[],"mouse_events":[8019.5,12155.90000000596,13131.59999999404,13699.59999999404,14931.699999988079,15707.90000000596,16099.5,18403.5,18771.90000000596,19531.59999999404,19915.69999998808,20339.59999999404,21547.69999998808,25980,26868.09999999404,31875.5,32499.59999999404,36931.40000000596,37883.29999998212,38283.40000000596,38707.5,43707.59999999404,44467.69999998808,45267.5,45691.29999998212,46691.5,48603.19999998808,50043.40000000596,50787.5,52075.90000000596,53011.5],"honeypot":0,"survey":"mace","page":2,"trial_type":"survey-mace","trial_index":10,"time_elapsed":632994,"internal_node_id":"0.0-10.0","task_version":"prescreen-v0.3","browser_interactions":0},{"responses":{"01":"No","02":"No","03":"No","04":"No"},"rt":25012,"item_order":[0,1,2,3],"radio_events":[7146.600000023842,13931.40000000596,19170.600000023842,21858.80000001192],"checkbox_events":[],"key_events":[],"mouse_events":[7146.600000023842,11018.800000011921,13931.40000000596,19170.600000023842,21858.80000001192,25010.80000001192],"honeypot":0,"survey":"mace","page":3,"trial_type":"survey-mace","trial_index":11,"time_elapsed":658008,"internal_node_id":"0.0-11.0","task_version":"prescreen-v0.3","browser_interactions":0},{"responses":{"01":"No","02":"No"},"rt":20693.69999998808,"item_order":[0,1],"radio_events":[12724.699999988079,19860.90000000596],"checkbox_events":[],"key_events":[],"mouse_events":[12724.699999988079,19860.90000000596,20692.79999998212],"honeypot":0,"survey":"mace","page":4,"trial_type":"survey-mace","trial_index":12,"time_elapsed":678704,"internal_node_id":"0.0-12.0","task_version":"prescreen-v0.3","browser_interactions":0},{"responses":{"01":"No","02":"No","03":"No","04":"No","05":"No"},"rt":27438.79999998212,"item_order":[0,1,2,3,4],"radio_events":[11733,16188.59999999404,19692.79999998212,23357,26652.79999998212],"checkbox_events":[],"key_events":[],"mouse_events":[11733,16188.59999999404,19692.79999998212,23357,26213.59999999404,26652.79999998212,27436.69999998808],"honeypot":0,"survey":"mace","page":5,"trial_type":"survey-mace","trial_index":13,"time_elapsed":706145,"internal_node_id":"0.0-13.0","task_version":"prescreen-v0.3","browser_interactions":0},{"responses":{"01":"Yes","01_ages_6":"6","01_ages_7":"7","01_ages_8":"8","01_ages_9":"9","01_ages_10":"10","01_ages_11":"11","02":"Yes","02_ages_6":"6","02_ages_7":"7","02_ages_8":"8","02_ages_9":"9","02_ages_10":"10","02_ages_11":"11","03":"Yes","03_ages_14":"14","03_ages_15":"15","04":"Yes","04_ages_13":"13","04_ages_14":"14","04_ages_15":"15","05":"Yes","05_ages_8":"8","05_ages_9":"9","05_ages_10":"10","05_ages_11":"11"},"rt":66669.69999998808,"item_order":[0,1,2,3,4],"radio_events":[8891.699999988079,24867.69999998808,38555.29999998212,46147.39999997616,54403.59999999404,57155.19999998808],"checkbox_events":[11947.399999976158,12611.399999976158,13451.699999988079,17931.19999998808,18291.79999998212,18803.19999998808,19955.29999998212,25699.399999976158,26243.59999999404,27211.59999999404,28747.59999999404,29459.399999976158,30099.29999998212,30915.399999976158,41043.5,41779.69999998808,49691.79999998212,50667.59999999404,51083.5,60331.29999998212,60819,61339.5,62491.09999999404],"key_events":[],"mouse_events":[8891.699999988079,11947.399999976158,12611.399999976158,13451.699999988079,17931.19999998808,18291.79999998212,18803.19999998808,19955.29999998212,24867.69999998808,25699.399999976158,26243.59999999404,26795.399999976158,27211.59999999404,27691.5,28339.5,28747.59999999404,29107.59999999404,29459.399999976158,30099.29999998212,30915.399999976158,37923.09999999404,38555.29999998212,41043.5,41779.69999998808,46147.39999997616,49691.79999998212,50147.69999998808,50667.59999999404,51083.5,54403.59999999404,57155.19999998808,60331.29999998212,60819,61339.5,61899.39999997616,62491.09999999404,66667.69999998808],"honeypot":0,"survey":"mace","page":6,"trial_type":"survey-mace","trial_index":14,"time_elapsed":772818,"internal_node_id":"0.0-14.0","task_version":"prescreen-v0.3","browser_interactions":0},{"responses":{"01":"No","02":"Yes","02_ages_11":"11","02_ages_12":"12","02_ages_13":"13","03":"Yes","03_ages_8":"8","03_ages_9":"9","03_ages_10":"10","03_ages_11":"11","03_ages_12":"12","04":"No","05":"No","06":"No","07":"No"},"rt":34669.69999998808,"item_order":[0,1,2,3,4,5,6],"radio_events":[8362.09999999404,9170.09999999404,15370.199999988079,27970.69999998808,28658.30000001192,30107.09999999404,31802],"checkbox_events":[11618.90000000596,12050,12474,18937.69999998808,19490.09999999404,19874.30000001192,20642.09999999404,22187],"key_events":[],"mouse_events":[8362.09999999404,9170.09999999404,11618.90000000596,12050,12474,15370.199999988079,18937.69999998808,19490.09999999404,19874.30000001192,20267.09999999404,20642.09999999404,21153.80000001192,21922,22187,26161.90000000596,27290.09999999404,27970.69999998808,28658.30000001192,30107.09999999404,31802,34666.09999999404],"honeypot":0,"survey":"mace","page":7,"trial_type":"survey-mace","trial_index":15,"time_elapsed":807490,"internal_node_id":"0.0-15.0","task_version":"prescreen-v0.3","browser_interactions":0},{"responses":{"01":"No","02":"No","03":"No","04":"No"},"rt":27083.30000001192,"item_order":[0,1,2,3],"radio_events":[6329.5999999940395,11017.5,12601.800000011921,15169.40000000596,20049.5,23049.5,26321.5],"checkbox_events":[],"key_events":[],"mouse_events":[6329.5999999940395,10649.300000011921,11017.5,12601.800000011921,14873.5,15169.40000000596,20049.5,23049.5,26321.5,27081.90000000596],"honeypot":0,"survey":"mace","page":8,"trial_type":"survey-mace","trial_index":16,"time_elapsed":834576,"internal_node_id":"0.0-16.0","task_version":"prescreen-v0.3","browser_interactions":0},{"responses":{"01":"Yes","01_ages_1":"1","01_ages_2":"2","01_ages_3":"3","01_ages_4":"4","01_ages_5":"5","01_ages_6":"6","01_ages_7":"7","01_ages_8":"8","01_ages_9":"9","01_ages_10":"10","01_ages_11":"11","01_ages_12":"12","01_ages_13":"13","01_ages_14":"14","01_ages_15":"15","01_ages_16":"16","01_ages_17":"17","01_ages_18":"18","02":"Yes","02_ages_1":"1","02_ages_2":"2","02_ages_3":"3","02_ages_4":"4","02_ages_5":"5","02_ages_6":"6","02_ages_7":"7","02_ages_8":"8","02_ages_9":"9","02_ages_10":"10","02_ages_11":"11","02_ages_12":"12","02_ages_13":"13","02_ages_14":"14","02_ages_15":"15","02_ages_16":"16","02_ages_17":"17","02_ages_18":"18","03":"Yes","03_ages_1":"1","03_ages_2":"2","03_ages_3":"3","03_ages_4":"4","03_ages_5":"5","03_ages_6":"6","03_ages_7":"7","03_ages_8":"8","03_ages_9":"9","03_ages_10":"10","03_ages_11":"11","03_ages_12":"12","03_ages_13":"13","03_ages_14":"14","03_ages_15":"15","03_ages_16":"16","03_ages_17":"17","03_ages_18":"18","04":"Yes","04_ages_1":"1","04_ages_2":"2","04_ages_3":"3","04_ages_4":"4","04_ages_5":"5","04_ages_6":"6","04_ages_7":"7","04_ages_8":"8","04_ages_9":"9","04_ages_10":"10","04_ages_11":"11","04_ages_12":"12","04_ages_13":"13","04_ages_14":"14","04_ages_15":"15","04_ages_16":"16","04_ages_17":"17","04_ages_18":"18"},"rt":64453.20000001788,"item_order":[0,1,2,3],"radio_events":[5147.800000011921,20748,34300.40000000596,49012.10000002384],"checkbox_events":[7268.300000011921,7788.5,9020.600000023842,9476.100000023842,10027.90000000596,10364.40000000596,10740.5,11692.100000023842,12604.200000017881,12980.700000017881,13396.40000000596,13764.200000017881,14756.700000017881,15188.600000023842,15804.200000017881,16324.100000023842,16788.30000001192,17476.20000001788,22060.5,22460.5,23285.20000001788,23660.100000023842,24132.30000001192,24556.20000001788,25021.30000001192,25460.70000001788,25916.40000000596,26436.30000001192,26828.20000001788,27788.5,28284.100000023842,28828.5,30172.90000000596,30684.100000023842,31149,31588.100000023842,35596.40000000596,36148.5,37244.40000000596,38108.20000001788,39172.30000001192,39740.5,40372.5,40852.10000002384,42077.10000002384,43084.80000001192,43828.40000000596,44156.40000000596,44620.40000000596,45268.60000002384,45836.10000002384,46228.5,47092.60000002384,47588.80000001192,50364,50821.60000002384,51396.10000002384,51804.30000001192,52156.20000001788,52548.40000000596,52924.5,53292.10000002384,53764.10000002384,54092.30000001192,54508.40000000596,55557.20000001788,56916.40000000596,57340.20000001788,58188.5,58556.5,62828.40000000596,63461],"key_events":[],"mouse_events":[5147.800000011921,7268.300000011921,7788.5,8436.300000011921,9020.600000023842,9476.100000023842,10027.90000000596,10364.40000000596,10740.5,11180.700000017881,11692.100000023842,12116.40000000596,12604.200000017881,12980.700000017881,13396.40000000596,13764.200000017881,14149.40000000596,14756.700000017881,15188.600000023842,15804.200000017881,16324.100000023842,16788.30000001192,17476.20000001788,20748,22060.5,22460.5,22828.5,23285.20000001788,23660.100000023842,24132.30000001192,24556.20000001788,25021.30000001192,25460.70000001788,25916.40000000596,26436.30000001192,26828.20000001788,27212,27788.5,28284.100000023842,28828.5,29332.20000001788,29828.30000001192,30172.90000000596,30684.100000023842,31149,31588.100000023842,34019.90000000596,34300.40000000596,35596.40000000596,36148.5,36772,37244.40000000596,38108.20000001788,39172.30000001192,39740.5,40372.5,40852.10000002384,41364.10000002384,42077.10000002384,42692,43084.80000001192,43436.60000002384,43828.40000000596,44156.40000000596,44620.40000000596,44980.20000001788,45268.60000002384,45836.10000002384,46228.5,47092.60000002384,47588.80000001192,49012.10000002384,50364,50821.60000002384,51396.10000002384,51804.30000001192,52156.20000001788,52548.40000000596,52924.5,53292.10000002384,53764.10000002384,54092.30000001192,54508.40000000596,55011.80000001192,55557.20000001788,55908.5,56316.40000000596,56916.40000000596,57340.20000001788,57860.40000000596,58188.5,58556.5,62300.60000002384,62828.40000000596,63461,64452],"honeypot":0,"survey":"mace","page":9,"trial_type":"survey-mace","trial_index":17,"time_elapsed":899032,"internal_node_id":"0.0-17.0","task_version":"prescreen-v0.3","browser_interactions":0},{"responses":{"01":"No","02":"No","03":"No","04":"No","05":"No","06":"Yes","06_ages_17":"17","07":"Yes","07_ages_1":"1","07_ages_2":"2","07_ages_3":"3","07_ages_4":"4","07_ages_5":"5","07_ages_6":"6","07_ages_7":"7","07_ages_8":"8","07_ages_9":"9","07_ages_10":"10","07_ages_11":"11","07_ages_12":"12","07_ages_13":"13","07_ages_14":"14","07_ages_15":"15","07_ages_16":"16","07_ages_17":"17","07_ages_18":"18","08":"Yes","08_ages_1":"1","08_ages_2":"2","08_ages_3":"3","08_ages_4":"4","08_ages_5":"5","08_ages_6":"6","08_ages_7":"7","08_ages_8":"8","08_ages_9":"9","08_ages_10":"10","08_ages_11":"11","08_ages_12":"12","08_ages_13":"13","08_ages_14":"14","08_ages_15":"15","08_ages_16":"16","08_ages_17":"17","08_ages_18":"18"},"rt":50495.70000001788,"item_order":[0,1,2,3,4,5,6,7],"radio_events":[7196.300000011921,8780.59999999404,9452.40000000596,11220.59999999404,13460.5,15612.5,18004.80000001192,19740.20000001788,24892.20000001788,40205.20000001788],"checkbox_events":[21580.5,28356.30000001192,28828.09999999404,30260.5,30852.5,31220.5,31660.20000001788,31972.20000001788,32372.5,32756.5,33140.5,33500.5,33931.80000001192,35772.20000001788,36556.09999999404,36900.40000000596,37404.5,38700.59999999404,39188.40000000596,41340.30000001192,41693.40000000596,42245.59999999404,42612.30000001192,43019.90000000596,43860.30000001192,44484.40000000596,44939.90000000596,45388.09999999404,45796.09999999404,46236.59999999404,46628.30000001192,46972.09999999404,47412.20000001788,47852.5,48532.40000000596,48947.90000000596,49540.20000001788],"key_events":[],"mouse_events":[7196.300000011921,8780.59999999404,9452.40000000596,11220.59999999404,13460.5,14740.40000000596,15612.5,18004.80000001192,19740.20000001788,21580.5,24892.20000001788,28356.30000001192,28828.09999999404,30260.5,30852.5,31220.5,31660.20000001788,31972.20000001788,32372.5,32756.5,33140.5,33500.5,33931.80000001192,34397.59999999404,34860.59999999404,35772.20000001788,36188,36556.09999999404,36900.40000000596,37404.5,37732.59999999404,38220.20000001788,38700.59999999404,39188.40000000596,39884.30000001192,40205.20000001788,41340.30000001192,41693.40000000596,42245.59999999404,42612.30000001192,43019.90000000596,43420.30000001192,43860.30000001192,44484.40000000596,44939.90000000596,45388.09999999404,45796.09999999404,46236.59999999404,46628.30000001192,46972.09999999404,47412.20000001788,47852.5,48532.40000000596,48947.90000000596,49540.20000001788,50492.40000000596],"honeypot":0,"survey":"mace","page":10,"trial_type":"survey-mace","trial_index":18,"time_elapsed":949530,"internal_node_id":"0.0-18.0","task_version":"prescreen-v0.3","browser_interactions":0,"instructed":0},{"rt":6346.299999982119,"trial_type":"mental-health-alert","trial_index":19,"time_elapsed":955878,"internal_node_id":"0.0-19.0","task_version":"prescreen-v0.3","interactions":"[{\"event\":\"blur\",\"trial\":0,\"time\":3980},{\"event\":\"focus\",\"trial\":0,\"time\":11559},{\"event\":\"blur\",\"trial\":2,\"time\":110823},{\"event\":\"focus\",\"trial\":2,\"time\":113371},{\"event\":\"blur\",\"trial\":3,\"time\":227131},{\"event\":\"focus\",\"trial\":3,\"time\":227752},{\"event\":\"blur\",\"trial\":3,\"time\":228090},{\"event\":\"focus\",\"trial\":3,\"time\":229165},{\"event\":\"blur\",\"trial\":3,\"time\":238337},{\"event\":\"focus\",\"trial\":3,\"time\":249661},{\"event\":\"blur\",\"trial\":5,\"time\":362385},{\"event\":\"focus\",\"trial\":5,\"time\":363926},{\"event\":\"blur\",\"trial\":6,\"time\":389105},{\"event\":\"focus\",\"trial\":6,\"time\":392961}]"}]