[{"view_history":[{"page_index":0,"viewing_time":3625},{"page_index":1,"viewing_time":1101},{"page_index":2,"viewing_time":1344},{"page_index":3,"viewing_time":1002}],"rt":7074.000000000001,"trial_type":"instructions","trial_index":0,"time_elapsed":7084,"internal_node_id":"0.0-0.0","task_version":"prescreen-v0.3"},{"rt":32756,"responses":{"age":"20","gender-categorical":"Female","gender-free-response":"","ethnicity":"Not Hispanic or Latino","race":["White"],"education":"Some college"},"trial_type":"survey-demo","trial_index":1,"time_elapsed":39859,"internal_node_id":"0.0-1.0","task_version":"prescreen-v0.3"},{"responses":{"Q11":"1","Q12":"0","Q19":"1","Q20":"1","Q18":"1","Q15":"1","Q06":"1","Q09":"2","Q08":"1","Q13":"1","Q14":"2","Q10":"2","Q03":"1","Q17":"1","Q04":"1","Q02":"2","Q16":"0","Q01":"2","Q05":"1","Q21":"3","Q07":"1"},"rt":131013,"item_order":[10,11,18,19,17,14,5,8,7,12,13,9,2,16,3,1,15,0,4,20,6],"radio_events":[6919,17663,30428,33768,37586,45421,60145,64130,67844,70287.00000000001,72652,74976,80332,85965,91840,103301,106787,112496,116723.00000000003,122537,127563],"key_events":[],"mouse_events":[6919,17663,30428,33768,37586,45421,60145,64130,66516.00000000001,67844,70287.00000000001,72652,74976,78836,80332,85965,89627.99999999999,90491,91840,103301,105798,106787,112496,114734,116723.00000000003,122537,123985.00000000003,127563,130982],"straightlining":0.6190476190476191,"zigzagging":0.4,"honeypot":0,"survey":"sns","trial_type":"survey-template","trial_index":2,"time_elapsed":170880,"internal_node_id":"0.0-2.0","task_version":"prescreen-v0.3","browser_interactions":0,"infrequency":0},{"responses":{"Q05":"3","Q07":"3","Q13":"0","Q12":"1","Q06":"3","Q01":"2","Q08":"3","Q11":"3","Q09":"2","Q03":"2","Q10":"2","Q02":"3","Q04":"3"},"rt":92604,"item_order":[4,6,12,11,5,0,7,10,8,2,9,1,3],"radio_events":[10780,12188,17106,23721,30110,32081,32856,61208,67627.00000000003,74305.00000000003,79972.00000000003,81579.00000000003,85896.00000000003,87824.00000000003,92034],"key_events":[],"mouse_events":[10780,12188,17106,22630,23721,29124,30110,32081,32856,61208,67627.00000000003,73482,74305.00000000003,79137,79972.00000000003,80983,81579.00000000003,85896.00000000003,87824.00000000003,91331,92034,92571],"straightlining":0.5384615384615384,"zigzagging":0.5,"honeypot":0,"survey":"bisbas","trial_type":"survey-template","trial_index":3,"time_elapsed":263487,"internal_node_id":"0.0-3.0","task_version":"prescreen-v0.3","browser_interactions":0,"infrequency":0},{"responses":{"Q01":"2","Q02":"3","Q03":"3"},"rt":42243,"radio_events":[30344,34112,40921],"key_events":[],"mouse_events":[30344,34112,40921,42231],"survey":"map","page":1,"trial_type":"survey-map","trial_index":4,"time_elapsed":305738,"internal_node_id":"0.0-4.0","task_version":"prescreen-v0.3","browser_interactions":0},{"responses":{"Q04":"4","Q05":"4","Q06":"4"},"rt":14367,"radio_events":[5682,9249,13832.000000000058],"key_events":[],"mouse_events":[4879,5682,8598,9249,13832.000000000058,14349.000000000058],"survey":"map","page":2,"trial_type":"survey-map","trial_index":5,"time_elapsed":320116,"internal_node_id":"0.0-5.0","task_version":"prescreen-v0.3","browser_interactions":0},{"responses":{"Q07":"3","Q08":"0","Q09":"3"},"rt":18203,"radio_events":[4892,12889,17497.00000000006],"key_events":[],"mouse_events":[4892,11544,11860.000000000058,12889,15849,17497.00000000006,18185],"survey":"map","page":3,"trial_type":"survey-map","trial_index":6,"time_elapsed":338326,"internal_node_id":"0.0-6.0","task_version":"prescreen-v0.3","browser_interactions":0},{"responses":{"Q10":"3","Q11":"3","Q12":"4","Q13":"4","Q16":"0","Q14":"4","Q15":"4"},"rt":47285,"radio_events":[14037.000000000058,16560,21346,26685,34408,37598,46716],"key_events":[],"mouse_events":[14037.000000000058,16560,20051,21346,26685,34408,37598,46716,47265],"survey":"map","page":4,"trial_type":"survey-map","trial_index":7,"time_elapsed":385617,"internal_node_id":"0.0-7.0","task_version":"prescreen-v0.3","browser_interactions":0,"infrequency":0},{"view_history":[{"page_index":0,"viewing_time":12366.000000000058},{"page_index":1,"viewing_time":3678}],"rt":16044.000000000058,"trial_type":"instructions","trial_index":8,"time_elapsed":401665,"internal_node_id":"0.0-8.0","task_version":"prescreen-v0.3"},{"responses":{"01":"Yes","01_ages_7":"7","01_ages_8":"8","01_ages_9":"9","01_ages_10":"10","01_ages_11":"11","01_ages_12":"12","01_ages_13":"13","01_ages_14":"14","01_ages_15":"15","01_ages_16":"16","02":"Yes","02_ages_7":"7","02_ages_8":"8","02_ages_9":"9","02_ages_10":"10","02_ages_11":"11","02_ages_12":"12","02_ages_13":"13","02_ages_14":"14","02_ages_15":"15","02_ages_16":"16","02_ages_17":"17","02_ages_18":"18","03":"No","04":"Yes","04_ages_7":"7","04_ages_8":"8","04_ages_9":"9","04_ages_10":"10","05":"No","06":"No"},"rt":173497.00000000012,"item_order":[0,1,2,3,4,5],"radio_events":[9238,142114,156613,160054,166315,172689],"checkbox_events":[24449,24778,25239,25661,26078,26567,27763,28509,28992,29466,145790,146495,146755,147301,147677,148029,148395,148851,149168,149543,149872.00000000012,150257,150804,151211,161569.00000000012,161849,162104,162658],"key_events":[],"mouse_events":[1,8112,9238,24449,24778,25239,25661,26078,26567,27763,28509,28992,29466,142114,145790,146495,146755,147301,147677,148029,148395,148851,149168,149543,149872.00000000012,150257,150568,150804,151211,156613,158761,159473.00000000012,160054,161569.00000000012,161849,162104,162658,166315,172689,173462],"honeypot":0,"survey":"mace","page":1,"trial_type":"survey-mace","trial_index":9,"time_elapsed":575185,"internal_node_id":"0.0-9.0","task_version":"prescreen-v0.3","browser_interactions":0},{"responses":{"01":"Yes","01_ages_8":"8","01_ages_9":"9","01_ages_10":"10","01_ages_11":"11","02":"No","03":"Yes","03_ages_5":"5","03_ages_6":"6","03_ages_7":"7","03_ages_8":"8","03_ages_9":"9","03_ages_10":"10","04":"No","05":"No","06":"No","07":"No","08":"No"},"rt":47076,"item_order":[0,1,2,3,4,5,6,7],"radio_events":[13739.000000000116,24600,27098,34199,37724,39881,42047,43928],"checkbox_events":[19045,19271,19500,19707,28465.000000000116,29304,29587,29996,30768.000000000116,31374],"key_events":[],"mouse_events":[13739.000000000116,19045,19271,19500,19707,24600,26481,27098,28465.000000000116,28878,29142,29304,29587,29996,30303,30768.000000000116,31374,34199,37724,39881,42047,43928,47036],"honeypot":0,"survey":"mace","page":2,"trial_type":"survey-mace","trial_index":10,"time_elapsed":622270,"internal_node_id":"0.0-10.0","task_version":"prescreen-v0.3","browser_interactions":0},{"responses":{"01":"Yes","01_ages_7":"7","01_ages_8":"8","01_ages_9":"9","01_ages_10":"10","01_ages_11":"11","01_ages_12":"12","02":"No","03":"No","04":"No"},"rt":75036,"item_order":[0,1,2,3],"radio_events":[60429,70643,73390,74286],"checkbox_events":[61962,62129,62663,63288,63790,64110,64740,65015,65328,65740],"key_events":[],"mouse_events":[60429,61962,62129,62663,63052,63288,63790,64110,64740,65015,65328,65740,70643,73390,74286,75010],"honeypot":0,"survey":"mace","page":3,"trial_type":"survey-mace","trial_index":11,"time_elapsed":697313,"internal_node_id":"0.0-11.0","task_version":"prescreen-v0.3","browser_interactions":0},{"responses":{"01":"No","02":"No"},"rt":6004,"item_order":[0,1],"radio_events":[1955,5029],"checkbox_events":[],"key_events":[],"mouse_events":[1955,5029,5983],"honeypot":0,"survey":"mace","page":4,"trial_type":"survey-mace","trial_index":12,"time_elapsed":703325,"internal_node_id":"0.0-12.0","task_version":"prescreen-v0.3","browser_interactions":0},{"responses":{"01":"No","02":"No","03":"No","04":"No","05":"No"},"rt":14615,"item_order":[0,1,2,3,4],"radio_events":[5143,7641.000000000116,10106,12519,13886.000000000116],"checkbox_events":[],"key_events":[],"mouse_events":[5143,6432,7641.000000000116,10106,12519,13886.000000000116,14583],"honeypot":0,"survey":"mace","page":5,"trial_type":"survey-mace","trial_index":13,"time_elapsed":717951,"internal_node_id":"0.0-13.0","task_version":"prescreen-v0.3","browser_interactions":0},{"responses":{"01":"Yes","01_ages_7":"7","01_ages_8":"8","01_ages_9":"9","01_ages_10":"10","01_ages_11":"11","01_ages_12":"12","01_ages_13":"13","02":"Yes","02_ages_7":"7","02_ages_8":"8","02_ages_9":"9","02_ages_10":"10","02_ages_11":"11","02_ages_12":"12","02_ages_13":"13","03":"No","04":"No","05":"No"},"rt":25050,"item_order":[0,1,2,3,4],"radio_events":[5778,13412,20964,22492,24209],"checkbox_events":[7215,7453,7864,8311,8837.000000000116,9154,10409.000000000116,14444,14990,15349,15739,16066,16329,16612,16854,17623],"key_events":[],"mouse_events":[5778,7215,7453,7864,8311,8612,8837.000000000116,9154,9547,10409.000000000116,13412,14444,14706,14990,15349,15739,16066,16329,16612,16854,17623,20964,22492,24209,25023],"honeypot":0,"survey":"mace","page":6,"trial_type":"survey-mace","trial_index":14,"time_elapsed":743013,"internal_node_id":"0.0-14.0","task_version":"prescreen-v0.3","browser_interactions":0},{"responses":{"01":"No","02":"No","03":"No","04":"No","05":"No","06":"No","07":"No"},"rt":158009,"item_order":[0,1,2,3,4,5,6],"radio_events":[143692,146260,152684,154757.00000000012,156307,156796,157288],"checkbox_events":[],"key_events":[],"mouse_events":[143692,146260,152684,154757.00000000012,156307,156796,157288,157960],"honeypot":0,"survey":"mace","page":7,"trial_type":"survey-mace","trial_index":15,"time_elapsed":901049,"internal_node_id":"0.0-15.0","task_version":"prescreen-v0.3","browser_interactions":3},{"responses":{"01":"No","02":"No","03":"No","04":"No"},"rt":15702,"item_order":[0,1,2,3],"radio_events":[7870,9178,11317,13548],"checkbox_events":[],"key_events":[],"mouse_events":[7870,9178,11317,13548,14006,15676],"honeypot":0,"survey":"mace","page":8,"trial_type":"survey-mace","trial_index":16,"time_elapsed":916762,"internal_node_id":"0.0-16.0","task_version":"prescreen-v0.3","browser_interactions":0},{"responses":{"01":"Yes","01_ages_1":"1","01_ages_2":"2","01_ages_3":"3","01_ages_4":"4","01_ages_5":"5","01_ages_6":"6","01_ages_7":"7","01_ages_8":"8","01_ages_9":"9","01_ages_10":"10","01_ages_11":"11","01_ages_12":"12","01_ages_13":"13","01_ages_14":"14","01_ages_15":"15","01_ages_16":"16","01_ages_17":"17","01_ages_18":"18","02":"Yes","02_ages_1":"1","02_ages_2":"2","02_ages_3":"3","02_ages_4":"4","02_ages_5":"5","02_ages_6":"6","02_ages_7":"7","02_ages_8":"8","02_ages_9":"9","02_ages_10":"10","02_ages_11":"11","02_ages_12":"12","02_ages_13":"13","02_ages_14":"14","02_ages_15":"15","02_ages_16":"16","02_ages_17":"17","02_ages_18":"18","03":"Yes","03_ages_1":"1","03_ages_2":"2","03_ages_3":"3","03_ages_4":"4","03_ages_5":"5","03_ages_6":"6","03_ages_7":"7","03_ages_8":"8","03_ages_9":"9","03_ages_10":"10","03_ages_11":"11","03_ages_12":"12","03_ages_13":"13","03_ages_14":"14","03_ages_15":"15","03_ages_16":"16","03_ages_17":"17","03_ages_18":"18","04":"Yes","04_ages_1":"1","04_ages_2":"2","04_ages_3":"3","04_ages_4":"4","04_ages_5":"5","04_ages_6":"6","04_ages_7":"7","04_ages_8":"8","04_ages_9":"9","04_ages_10":"10","04_ages_11":"11","04_ages_12":"12","04_ages_13":"13","04_ages_14":"14","04_ages_15":"15","04_ages_16":"16","04_ages_17":"17","04_ages_18":"18"},"rt":53474.99999999988,"item_order":[0,1,2,3],"radio_events":[4366.999999999884,18407.999999999884,28577,42346],"checkbox_events":[7110.999999999884,8029.999999999884,8671.999999999884,9187,9527.999999999884,9867.999999999884,10245,10649.999999999884,11040.999999999884,11406.999999999884,11798.999999999884,12135.999999999884,12480.999999999884,12814.999999999884,13184.999999999884,13549.999999999884,13906.999999999884,14203.999999999884,19313.999999999884,19678.999999999884,20020.999999999884,20851.999999999884,21242.999999999884,21664.999999999884,22045.999999999884,22410.999999999884,22795.999999999884,23241.999999999884,23629.999999999884,23958.999999999884,24747.999999999884,25105.999999999884,25466.999999999884,25838.999999999884,26207.999999999884,26473.999999999884,29392.999999999884,30389,30577.999999999884,31352.999999999884,31943.999999999884,33339.99999999988,33721.99999999988,34118.99999999988,34452.99999999988,34867.99999999988,35278.99999999988,35705.99999999988,36086,36418.99999999988,36766.99999999988,37490,37890.99999999988,38298.99999999988,44543.99999999988,44861.99999999988,45218.99999999988,45627.99999999988,45976.99999999988,46302.99999999988,46642.99999999988,47009.99999999988,47482.99999999988,47794.99999999988,48159.99999999988,48481.99999999988,48896.99999999988,49235,50202,50515.99999999988,50940.99999999988,51306.99999999988],"key_events":[],"mouse_events":[4366.999999999884,7110.999999999884,8029.999999999884,8671.999999999884,9187,9527.999999999884,9867.999999999884,10245,10649.999999999884,11040.999999999884,11406.999999999884,11798.999999999884,12135.999999999884,12480.999999999884,12814.999999999884,13184.999999999884,13549.999999999884,13906.999999999884,14203.999999999884,17179.999999999884,18407.999999999884,19313.999999999884,19678.999999999884,20020.999999999884,20372.999999999884,20851.999999999884,21242.999999999884,21664.999999999884,22045.999999999884,22410.999999999884,22795.999999999884,23241.999999999884,23629.999999999884,23958.999999999884,24331.999999999884,24747.999999999884,25105.999999999884,25466.999999999884,25838.999999999884,26207.999999999884,26473.999999999884,28577,29392.999999999884,29709.999999999884,30389,30577.999999999884,31073.999999999884,31352.999999999884,31943.999999999884,33339.99999999988,33721.99999999988,34118.99999999988,34452.99999999988,34867.99999999988,35278.99999999988,35705.99999999988,36086,36418.99999999988,36766.99999999988,37490,37890.99999999988,38298.99999999988,41900.99999999988,42346,44543.99999999988,44861.99999999988,45218.99999999988,45627.99999999988,45976.99999999988,46302.99999999988,46642.99999999988,47009.99999999988,47482.99999999988,47794.99999999988,48159.99999999988,48481.99999999988,48896.99999999988,49235,49735,50202,50515.99999999988,50940.99999999988,51306.99999999988,52144,53453.99999999988],"honeypot":0,"survey":"mace","page":9,"trial_type":"survey-mace","trial_index":17,"time_elapsed":970245,"internal_node_id":"0.0-17.0","task_version":"prescreen-v0.3","browser_interactions":0},{"responses":{"01":"No","02":"No","03":"No","04":"No","05":"No","06":"Yes","06_ages_17":"17","07":"Yes","07_ages_1":"1","07_ages_2":"2","07_ages_3":"3","07_ages_4":"4","07_ages_5":"5","07_ages_6":"6","07_ages_7":"7","07_ages_8":"8","07_ages_9":"9","07_ages_10":"10","07_ages_11":"11","07_ages_12":"12","07_ages_13":"13","07_ages_14":"14","07_ages_15":"15","07_ages_16":"16","07_ages_17":"17","07_ages_18":"18","08":"Yes","08_ages_1":"1","08_ages_2":"2","08_ages_3":"3","08_ages_4":"4","08_ages_5":"5","08_ages_6":"6","08_ages_7":"7","08_ages_8":"8","08_ages_9":"9","08_ages_10":"10","08_ages_11":"11","08_ages_12":"12","08_ages_13":"13","08_ages_14":"14","08_ages_15":"15","08_ages_16":"16","08_ages_17":"17","08_ages_18":"18"},"rt":43504,"item_order":[0,1,2,3,4,5,6,7],"radio_events":[2781,4194,6113,8038,9888.000000000116,14903,19921,32698],"checkbox_events":[16102,21719,22044,22485,22860,23328,23712,24109.000000000116,24527.000000000116,24938,25327,26334,26625,27031,27452,27879,28248,28678,29658,30339,30738,34827,35205.00000000012,35626,36020,36405,36776,37152.00000000012,37521,37940,38346,38714,39159,40067,40446,41496,41890,42325.00000000012,42764],"key_events":[],"mouse_events":[2781,4194,6113,8038,9888.000000000116,14903,16102,18904,19921,21719,22044,22485,22860,23328,23712,24109.000000000116,24527.000000000116,24938,25327,25733,26334,26625,27031,27452,27879,28248,28678,29130,29658,29880,30339,30738,32698,34827,35205.00000000012,35626,36020,36405,36776,37152.00000000012,37521,37940,38346,38714,39159,39585.00000000012,40067,40446,40950.00000000012,41496,41890,42325.00000000012,42764,43469],"honeypot":0,"survey":"mace","page":10,"trial_type":"survey-mace","trial_index":18,"time_elapsed":1013756,"internal_node_id":"0.0-18.0","task_version":"prescreen-v0.3","browser_interactions":0,"instructed":0},{"rt":2441,"trial_type":"mental-health-alert","trial_index":19,"time_elapsed":1016203,"internal_node_id":"0.0-19.0","task_version":"prescreen-v0.3","interactions":"[{\"event\":\"blur\",\"trial\":15,\"time\":866277},{\"event\":\"focus\",\"trial\":15,\"time\":871144},{\"event\":\"focus\",\"trial\":15,\"time\":871145}]"}]