[{"view_history":[{"page_index":0,"viewing_time":1662},{"page_index":1,"viewing_time":1095.800000011921},{"page_index":2,"viewing_time":1872.7999999821186},{"page_index":3,"viewing_time":935.5999999940395}],"rt":5567.5,"trial_type":"instructions","trial_index":0,"time_elapsed":5583,"internal_node_id":"0.0-0.0","task_version":"prescreen-v0.3"},{"rt":9570.799999982119,"responses":{"age":"49","gender-categorical":"Male","gender-free-response":"","ethnicity":"Not Hispanic or Latino","race":["White"],"education":"Master degree or higher","siblings":"1"},"trial_type":"survey-demo","trial_index":1,"time_elapsed":15162,"internal_node_id":"0.0-1.0","task_version":"prescreen-v0.3"},{"responses":{"Q13":"0","Q05":"0","Q19":"1","Q12":"0","Q03":"2","Q10":"0","Q07":"2","Q15":"1","Q01":"1","Q16":"0","Q04":"1","Q08":"0","Q20":"0","Q17":"0","Q11":"2","Q21":"3","Q18":"0","Q06":"0","Q14":"0","Q09":"0","Q02":"0"},"rt":110400.5,"item_order":[12,4,18,11,2,9,6,14,0,15,3,7,19,16,10,20,17,5,13,8,1],"radio_events":[2910.300000011921,14727.200000017881,20289.600000023842,26545.90000000596,31707.20000001788,34651.90000000596,42421.30000001192,48812.80000001192,50766.5,54022,59838.70000001788,62191.60000002384,62910.5,63934.90000000596,67688.70000001788,70463.80000001192,77096.40000000596,79474.30000001192,82354,87938.60000002384,93363,95403.70000001788,109341.70000001788],"key_events":[],"mouse_events":[2910.300000011921,14727.200000017881,19285.70000001788,19865.40000000596,20289.600000023842,26545.90000000596,31707.20000001788,34226.60000002384,34651.90000000596,37420.10000002384,37916.60000002384,41300.80000001192,41740.90000000596,42117.10000002384,42421.30000001192,48812.80000001192,50766.5,54022,59838.70000001788,62191.60000002384,62910.5,63934.90000000596,66431.70000001788,67688.70000001788,70463.80000001192,77096.40000000596,79474.30000001192,82354,87938.60000002384,93363,95403.70000001788,100948.70000001788,103812.5,109341.70000001788,110397.5],"straightlining":0.6190476190476191,"zigzagging":0.4,"honeypot":0,"survey":"sns","trial_type":"survey-template","trial_index":2,"time_elapsed":125571,"internal_node_id":"0.0-2.0","task_version":"prescreen-v0.3","browser_interactions":0,"infrequency":0},{"responses":{"Q11":"3","Q03":"0","Q01":"2","Q12":"2","Q05":"3","Q07":"2","Q13":"0","Q10":"3","Q06":"3","Q02":"1","Q08":"3","Q09":"3","Q04":"1"},"rt":40853,"item_order":[10,2,0,11,4,6,12,9,5,1,7,8,3],"radio_events":[4951.9000000059605,8759.700000017881,10639.90000000596,16705.40000000596,19248.70000001788,21409.20000001788,23090.09999999404,27354.5,28825.5,32298.30000001192,34193,37251.30000001192,39843.59999999404],"key_events":[],"mouse_events":[398.40000000596046,4951.9000000059605,8343.700000017881,8759.700000017881,10639.90000000596,15264.90000000596,16352.200000017881,16705.40000000596,19248.70000001788,21409.20000001788,23090.09999999404,27354.5,28825.5,32298.30000001192,34193,36315,37251.30000001192,39843.59999999404,40851.30000001192],"straightlining":0.46153846153846156,"zigzagging":0.3333333333333333,"honeypot":0,"survey":"bisbas","trial_type":"survey-template","trial_index":3,"time_elapsed":166429,"internal_node_id":"0.0-3.0","task_version":"prescreen-v0.3","browser_interactions":0,"infrequency":0},{"responses":{"Q01":"3","Q02":"3","Q03":"3"},"rt":12862.299999982119,"radio_events":[5582.199999988079,8131.199999988079,12187.299999982119],"key_events":[],"mouse_events":[5582.199999988079,8131.199999988079,10811.59999999404,11315.199999988079,12187.299999982119,12642.90000000596,12861.40000000596],"survey":"map","page":1,"trial_type":"survey-map","trial_index":4,"time_elapsed":179296,"internal_node_id":"0.0-4.0","task_version":"prescreen-v0.3","browser_interactions":0},{"responses":{"Q04":"4","Q05":"4","Q06":"4"},"rt":8452.5,"radio_events":[4113.5999999940395,5682.299999982119,8082.299999982119],"key_events":[],"mouse_events":[4113.5999999940395,5682.299999982119,7258.4000000059605,7666.4000000059605,8082.299999982119,8451.699999988079],"survey":"map","page":2,"trial_type":"survey-map","trial_index":5,"time_elapsed":187752,"internal_node_id":"0.0-5.0","task_version":"prescreen-v0.3","browser_interactions":0},{"responses":{"Q07":"4","Q08":"2","Q09":"3"},"rt":12057.09999999404,"radio_events":[6059.9000000059605,8698.699999988079,11086.09999999404],"key_events":[],"mouse_events":[6059.9000000059605,8356.40000000596,8698.699999988079,11086.09999999404,12056.199999988079],"survey":"map","page":3,"trial_type":"survey-map","trial_index":6,"time_elapsed":199812,"internal_node_id":"0.0-6.0","task_version":"prescreen-v0.3","browser_interactions":0},{"responses":{"Q10":"1","Q11":"1","Q12":"4","Q13":"4","Q16":"0","Q14":"2","Q15":"2"},"rt":32831.70000001788,"radio_events":[9322.90000000596,15364.600000023842,16162.40000000596,20990.80000001192,23476.5,25589.600000023842,29605.70000001788,31405.30000001192,32309.100000023842],"key_events":[],"mouse_events":[9322.90000000596,15364.600000023842,16162.40000000596,20990.80000001192,23476.5,25589.600000023842,29605.70000001788,30965,31405.30000001192,32309.100000023842,32830.10000002384],"survey":"map","page":4,"trial_type":"survey-map","trial_index":7,"time_elapsed":232646,"internal_node_id":"0.0-7.0","task_version":"prescreen-v0.3","browser_interactions":0,"infrequency":0},{"view_history":[{"page_index":0,"viewing_time":1372.3999999761581},{"page_index":1,"viewing_time":2167.100000023842}],"rt":3540,"trial_type":"instructions","trial_index":8,"time_elapsed":236188,"internal_node_id":"0.0-8.0","task_version":"prescreen-v0.3"},{"responses":{"01":"No","02":"No","03":"No","04":"No","05":"No","06":"No"},"rt":11367.200000017881,"item_order":[0,1,2,3,4,5],"radio_events":[3057.9000000059605,5921.300000011921,7250.4000000059605,8586.5,9594.700000017881,10578.800000011921],"checkbox_events":[],"key_events":[],"mouse_events":[0.4000000059604645,3057.9000000059605,4569.300000011921,5921.300000011921,7250.4000000059605,8586.5,9594.700000017881,10578.800000011921,11363],"honeypot":0,"survey":"mace","page":1,"trial_type":"survey-mace","trial_index":9,"time_elapsed":247564,"internal_node_id":"0.0-9.0","task_version":"prescreen-v0.3","browser_interactions":0},{"responses":{"01":"No","02":"No","03":"Yes","03_ages_3":"3","03_ages_4":"4","03_ages_5":"5","03_ages_6":"6","03_ages_7":"7","03_ages_8":"8","03_ages_9":"9","03_ages_10":"10","03_ages_11":"11","03_ages_12":"12","03_ages_13":"13","04":"Yes","04_ages_3":"3","04_ages_4":"4","04_ages_5":"5","04_ages_6":"6","04_ages_7":"7","04_ages_8":"8","04_ages_9":"9","04_ages_10":"10","04_ages_11":"11","04_ages_12":"12","04_ages_13":"13","05":"Yes","05_ages_3":"3","05_ages_4":"4","05_ages_5":"5","05_ages_6":"6","05_ages_7":"7","05_ages_8":"8","05_ages_9":"9","05_ages_10":"10","05_ages_11":"11","05_ages_12":"12","05_ages_13":"13","06":"No","07":"No","08":"No"},"rt":42792.5,"item_order":[0,1,2,3,4,5,6,7],"radio_events":[2101.2999999821186,2725.699999988079,3701.699999988079,6829.9000000059605,7390.4000000059605,29296.79999998212,30112.5,31913.59999999404,32593.29999998212,33874.09999999404,35322.09999999404],"checkbox_events":[13159.5,13782.90000000596,14183.299999982119,14694.799999982119,15198.40000000596,15678.5,16374.40000000596,16894.69999998808,17414.19999998808,17848.40000000596,19527.59999999404,20334.90000000596,20734.40000000596,21161.19999998808,21607.5,22207.79999998212,23071.40000000596,23583.69999998808,24031.69999998808,24495.79999998212,24929,25303.5,36771.5,37129.5,37546.69999998808,38739.40000000596,39154.40000000596,39569.29999998212,40002.69999998808,40490.40000000596,40970.59999999404,41386.5,41819.19999998808],"key_events":[],"mouse_events":[2101.2999999821186,2725.699999988079,3701.699999988079,4605.5,5694.5999999940395,6829.9000000059605,7390.4000000059605,13159.5,13438.699999988079,13782.90000000596,14183.299999982119,14694.799999982119,15198.40000000596,15678.5,16374.40000000596,16894.69999998808,17414.19999998808,17848.40000000596,18247.19999998808,18847.40000000596,19527.59999999404,20334.90000000596,20734.40000000596,21161.19999998808,21607.5,22207.79999998212,22616.19999998808,23071.40000000596,23583.69999998808,24031.69999998808,24495.79999998212,24929,25303.5,29296.79999998212,30112.5,31913.59999999404,32593.29999998212,33874.09999999404,34554.40000000596,35322.09999999404,36771.5,37129.5,37546.69999998808,37954.5,38739.40000000596,39154.40000000596,39569.29999998212,40002.69999998808,40490.40000000596,40970.59999999404,41386.5,41819.19999998808,42786.79999998212],"honeypot":0,"survey":"mace","page":2,"trial_type":"survey-mace","trial_index":10,"time_elapsed":290363,"internal_node_id":"0.0-10.0","task_version":"prescreen-v0.3","browser_interactions":0},{"responses":{"01":"No","02":"No","03":"No","04":"No"},"rt":10130,"item_order":[0,1,2,3],"radio_events":[3660.7000000178814,6646,7302,8205.800000011921,9726.90000000596],"checkbox_events":[],"key_events":[],"mouse_events":[3660.7000000178814,4079,5957.5999999940395,6646,7302,8205.800000011921,8909.700000017881,9726.90000000596,10127],"honeypot":0,"survey":"mace","page":3,"trial_type":"survey-mace","trial_index":11,"time_elapsed":300497,"internal_node_id":"0.0-11.0","task_version":"prescreen-v0.3","browser_interactions":0},{"responses":{"01":"No","02":"No"},"rt":4452.0999999940395,"item_order":[0,1],"radio_events":[1913.5,2433.5],"checkbox_events":[],"key_events":[],"mouse_events":[1913.5,2433.5,4450.5],"honeypot":0,"survey":"mace","page":4,"trial_type":"survey-mace","trial_index":12,"time_elapsed":304952,"internal_node_id":"0.0-12.0","task_version":"prescreen-v0.3","browser_interactions":0},{"responses":{"01":"No","02":"No","03":"No","04":"No","05":"No"},"rt":9222.90000000596,"item_order":[0,1,2,3,4],"radio_events":[3081.5,3978.300000011921,5097.5999999940395,8178.4000000059605,8626.5],"checkbox_events":[],"key_events":[],"mouse_events":[3081.5,3978.300000011921,5097.5999999940395,6234.300000011921,8178.4000000059605,8626.5,9219.09999999404],"honeypot":0,"survey":"mace","page":5,"trial_type":"survey-mace","trial_index":13,"time_elapsed":314180,"internal_node_id":"0.0-13.0","task_version":"prescreen-v0.3","browser_interactions":0},{"responses":{"01":"No","02":"No","03":"No","04":"No","05":"No"},"rt":12187.300000011921,"item_order":[0,1,2,3,4],"radio_events":[3224.4000000059605,8247.300000011921,8743.300000011921,9837.90000000596,11783.300000011921],"checkbox_events":[],"key_events":[],"mouse_events":[3224.4000000059605,8247.300000011921,8743.300000011921,9279.199999988079,9837.90000000596,10439.199999988079,11783.300000011921,12183.59999999404],"honeypot":0,"survey":"mace","page":6,"trial_type":"survey-mace","trial_index":14,"time_elapsed":326372,"internal_node_id":"0.0-14.0","task_version":"prescreen-v0.3","browser_interactions":0},{"responses":{"01":"No","02":"No","03":"No","04":"No","05":"No","06":"No","07":"No"},"rt":18374.30000001192,"item_order":[0,1,2,3,4,5,6],"radio_events":[2528.600000023842,3903.600000023842,4560.5,5295.9000000059605,14497.700000017881,14825.5,16154.5,17225.30000001192],"checkbox_events":[],"key_events":[],"mouse_events":[2528.600000023842,2967.800000011921,3903.600000023842,4560.5,5295.9000000059605,13857.5,14497.700000017881,14825.5,15440.5,16154.5,17225.30000001192,18369.5],"honeypot":0,"survey":"mace","page":7,"trial_type":"survey-mace","trial_index":15,"time_elapsed":344752,"internal_node_id":"0.0-15.0","task_version":"prescreen-v0.3","browser_interactions":2},{"responses":{"01":"No","02":"No","03":"No","04":"No"},"rt":14915.100000023842,"item_order":[0,1,2,3],"radio_events":[7072.100000023842,8543.800000011921,9360.300000011921,10417.40000000596,11471.700000017881,12808.800000011921],"checkbox_events":[],"key_events":[],"mouse_events":[7072.100000023842,8543.800000011921,9360.300000011921,10417.40000000596,11471.700000017881,12808.800000011921,14913],"honeypot":0,"survey":"mace","page":8,"trial_type":"survey-mace","trial_index":16,"time_elapsed":359671,"internal_node_id":"0.0-16.0","task_version":"prescreen-v0.3","browser_interactions":0},{"responses":{"01":"Yes","01_ages_1":"1","01_ages_2":"2","01_ages_3":"3","01_ages_4":"4","01_ages_5":"5","01_ages_6":"6","01_ages_7":"7","01_ages_8":"8","01_ages_9":"9","01_ages_10":"10","01_ages_11":"11","01_ages_12":"12","01_ages_13":"13","01_ages_14":"14","01_ages_15":"15","01_ages_16":"16","01_ages_17":"17","01_ages_18":"18","02":"Yes","02_ages_1":"1","02_ages_2":"2","02_ages_3":"3","02_ages_4":"4","02_ages_5":"5","02_ages_6":"6","02_ages_7":"7","02_ages_8":"8","02_ages_9":"9","02_ages_10":"10","02_ages_11":"11","02_ages_12":"12","02_ages_13":"13","02_ages_14":"14","02_ages_15":"15","02_ages_16":"16","02_ages_17":"17","02_ages_18":"18","03":"Yes","03_ages_1":"1","03_ages_2":"2","03_ages_3":"3","03_ages_4":"4","03_ages_5":"5","03_ages_6":"6","03_ages_7":"7","03_ages_8":"8","03_ages_9":"9","03_ages_10":"10","03_ages_11":"11","03_ages_12":"12","03_ages_13":"13","03_ages_14":"14","03_ages_15":"15","03_ages_16":"16","03_ages_17":"17","03_ages_18":"18","04":"Yes","04_ages_1":"1","04_ages_2":"2","04_ages_3":"3","04_ages_4":"4","04_ages_5":"5","04_ages_6":"6","04_ages_7":"7","04_ages_8":"8","04_ages_9":"9","04_ages_10":"10","04_ages_11":"11","04_ages_12":"12","04_ages_13":"13","04_ages_14":"14","04_ages_15":"15","04_ages_16":"16","04_ages_17":"17","04_ages_18":"18"},"rt":56943.30000001192,"item_order":[0,1,2,3],"radio_events":[3253.5,8965.40000000596,10350.40000000596,14109.600000023842],"checkbox_events":[16590.20000001788,16997.30000001192,17407.20000001788,17886,18430.80000001192,19615.100000023842,20094.30000001192,20479.100000023842,20950.30000001192,21335.30000001192,21727.100000023842,22271.100000023842,22718.600000023842,23143.40000000596,23569.600000023842,24020.30000001192,24534.40000000596,25095.30000001192,25833.20000001788,26232.100000023842,26615.90000000596,26999.40000000596,27407.40000000596,27790.100000023842,28647.5,29008.40000000596,29511.70000001788,29914.20000001788,31303,31774.20000001788,32151.5,32553.20000001788,32960,33367.70000001788,33785.80000001192,34111.60000002384,34937,35672.5,36220.60000002384,36623.60000002384,37000.30000001192,37394.40000000596,38368.70000001788,38736.40000000596,39714.70000001788,40082.10000002384,40471.70000001788,41312.60000002384,42162.5,42569.40000000596,43825.40000000596,45426.40000000596,45818.30000001192,46219.30000001192,47994.60000002384,48545.60000002384,49098.5,49474.5,49851.80000001192,50451.30000001192,50977.60000002384,51730.40000000596,52466.80000001192,52859.30000001192,53243.5,53715.60000002384,54147.70000001788,54530.20000001788,54955.60000002384,55378.30000001192,55778.5,56131.70000001788],"key_events":[],"mouse_events":[3253.5,8965.40000000596,10350.40000000596,14109.600000023842,16590.20000001788,16997.30000001192,17407.20000001788,17886,18430.80000001192,18958.70000001788,19615.100000023842,20094.30000001192,20479.100000023842,20950.30000001192,21335.30000001192,21727.100000023842,22271.100000023842,22718.600000023842,23143.40000000596,23569.600000023842,24020.30000001192,24534.40000000596,25095.30000001192,25833.20000001788,26232.100000023842,26615.90000000596,26999.40000000596,27407.40000000596,27790.100000023842,28127.600000023842,28647.5,29008.40000000596,29511.70000001788,29914.20000001788,31303,31774.20000001788,32151.5,32553.20000001788,32960,33367.70000001788,33785.80000001192,34111.60000002384,34937,35672.5,36220.60000002384,36623.60000002384,37000.30000001192,37394.40000000596,37752.90000000596,38368.70000001788,38736.40000000596,39714.70000001788,40082.10000002384,40471.70000001788,40842.30000001192,41312.60000002384,41666.20000001788,42162.5,42569.40000000596,43825.40000000596,44235.80000001192,44617.60000002384,45081.5,45426.40000000596,45818.30000001192,46219.30000001192,47194.40000000596,47994.60000002384,48545.60000002384,49098.5,49474.5,49851.80000001192,50451.30000001192,50977.60000002384,51378.10000002384,51730.40000000596,52154.20000001788,52466.80000001192,52859.30000001192,53243.5,53715.60000002384,54147.70000001788,54530.20000001788,54955.60000002384,55378.30000001192,55778.5,56131.70000001788,56940.30000001192],"honeypot":0,"survey":"mace","page":9,"trial_type":"survey-mace","trial_index":17,"time_elapsed":416616,"internal_node_id":"0.0-17.0","task_version":"prescreen-v0.3","browser_interactions":0},{"responses":{"01":"No","02":"No","03":"No","04":"No","05":"No","06":"Yes","06_ages_17":"17","07":"Yes","07_ages_1":"1","07_ages_2":"2","07_ages_3":"3","07_ages_4":"4","07_ages_5":"5","07_ages_6":"6","07_ages_7":"7","07_ages_8":"8","07_ages_9":"9","07_ages_10":"10","07_ages_11":"11","07_ages_12":"12","07_ages_13":"13","07_ages_14":"14","07_ages_15":"15","07_ages_16":"16","07_ages_17":"17","07_ages_18":"18","08":"Yes","08_ages_1":"1","08_ages_2":"2","08_ages_3":"3","08_ages_4":"4","08_ages_5":"5","08_ages_6":"6","08_ages_7":"7","08_ages_8":"8","08_ages_9":"9","08_ages_10":"10","08_ages_11":"11","08_ages_12":"12","08_ages_13":"13","08_ages_14":"14","08_ages_15":"15","08_ages_16":"16","08_ages_17":"17","08_ages_18":"18"},"rt":36877.5,"item_order":[0,1,2,3,4,5,6,7],"radio_events":[2439.4000000059605,3039.5999999940395,5022.5999999940395,6166.5,7407.800000011921,8783.59999999404,14280.90000000596,15104.59999999404],"checkbox_events":[10224.40000000596,17088.70000001788,17456.20000001788,17840.59999999404,18240.90000000596,19126.09999999404,19505,19890.09999999404,20250,20705.30000001192,21138.70000001788,22273.40000000596,23218.5,23666,24458.5,24841.70000001788,25266.20000001788,25658.20000001788,26154.09999999404,28290.5,29401.80000001192,29826.5,30210.20000001788,30673.5,31114.5,31547,31971.20000001788,32371,32819.20000001788,33195.20000001788,33610.59999999404,34018.90000000596,34430.70000001788,34886.30000001192,35310.30000001192,36053.80000001192,36455.20000001788],"key_events":[],"mouse_events":[2439.4000000059605,3039.5999999940395,4334.800000011921,5022.5999999940395,5631.0999999940395,6166.5,7407.800000011921,8783.59999999404,10224.40000000596,14280.90000000596,15104.59999999404,16185.5,16505.20000001788,17088.70000001788,17456.20000001788,17840.59999999404,18240.90000000596,18785.09999999404,19126.09999999404,19505,19890.09999999404,20250,20705.30000001192,21138.70000001788,21600.59999999404,22273.40000000596,22744.30000001192,23218.5,23666,24074.5,24458.5,24841.70000001788,25266.20000001788,25658.20000001788,26154.09999999404,28290.5,28674.20000001788,29401.80000001192,29826.5,30210.20000001788,30673.5,31114.5,31547,31971.20000001788,32371,32819.20000001788,33195.20000001788,33610.59999999404,34018.90000000596,34430.70000001788,34886.30000001192,35310.30000001192,35734.09999999404,36053.80000001192,36455.20000001788,36871.90000000596],"honeypot":0,"survey":"mace","page":10,"trial_type":"survey-mace","trial_index":18,"time_elapsed":453500,"internal_node_id":"0.0-18.0","task_version":"prescreen-v0.3","browser_interactions":0,"instructed":0},{"rt":1772.300000011921,"trial_type":"mental-health-alert","trial_index":19,"time_elapsed":455276,"internal_node_id":"0.0-19.0","task_version":"prescreen-v0.3","interactions":"[{\"event\":\"blur\",\"trial\":15,\"time\":334334},{\"event\":\"focus\",\"trial\":15,\"time\":339140}]"}]