[{"view_history":[{"page_index":0,"viewing_time":3574.599999964237},{"page_index":1,"viewing_time":2309.400000035763},{"page_index":2,"viewing_time":2400.399999976158},{"page_index":3,"viewing_time":1573.6000000238419}],"rt":9859.5,"trial_type":"instructions","trial_index":0,"time_elapsed":9890,"internal_node_id":"0.0-0.0","task_version":"prescreen-v0.3"},{"rt":14235.699999988079,"responses":{"age":"19","gender-categorical":"Male","gender-free-response":"","ethnicity":"Not Hispanic or Latino","race":["White"],"education":"Some college","siblings":"3"},"trial_type":"survey-demo","trial_index":1,"time_elapsed":24140,"internal_node_id":"0.0-1.0","task_version":"prescreen-v0.3"},{"responses":{"Q04":"0","Q05":"1","Q19":"2","Q16":"3","Q21":"3","Q14":"1","Q07":"2","Q06":"3","Q01":"2","Q15":"2","Q09":"0","Q08":"2","Q11":"0","Q12":"1","Q13":"1","Q02":"2","Q17":"1","Q10":"1","Q20":"0","Q03":"0","Q18":"0"},"rt":74581.59999996424,"item_order":[3,4,18,15,20,13,6,5,0,14,8,7,10,11,12,1,16,9,19,2,17],"radio_events":[5670.199999988079,9016.599999964237,11410.599999964237,15963.5,18665.399999976158,21053.5,23782.099999964237,28491.19999998808,32427.69999998808,36435.69999998808,39867.299999952316,42241.5,48611.19999998808,50717.09999996424,55234.39999997616,58397.39999997616,60743.89999997616,62981.59999996424,66038.5,69513.79999995232,71055.39999997616,72353.89999997616,73376.29999995232],"key_events":[],"mouse_events":[5670.199999988079,9016.599999964237,9974.199999988079,11410.599999964237,14821.899999976158,15963.5,18665.399999976158,20364.899999976158,21053.5,21933.5,23782.099999964237,27619.899999976158,28491.19999998808,32427.69999998808,35387.19999998808,36435.69999998808,38915.19999998808,39867.299999952316,42241.5,46079.299999952316,46740.89999997616,48611.19999998808,50717.09999996424,55234.39999997616,58397.39999997616,60743.89999997616,62981.59999996424,66038.5,68026.09999996424,69513.79999995232,71055.39999997616,72353.89999997616,73376.29999995232,74576.89999997616],"straightlining":0.2857142857142857,"zigzagging":0.5,"honeypot":0,"survey":"sns","trial_type":"survey-template","trial_index":2,"time_elapsed":98726,"internal_node_id":"0.0-2.0","task_version":"prescreen-v0.3","browser_interactions":0,"infrequency":0},{"responses":{"Q09":"2","Q01":"3","Q05":"3","Q06":"2","Q11":"2","Q08":"1","Q03":"1","Q10":"2","Q13":"0","Q07":"3","Q04":"1","Q02":"1","Q12":"3"},"rt":37686.5,"item_order":[8,0,4,5,10,7,2,9,12,6,3,1,11],"radio_events":[3680.399999976158,6259.300000011921,12425.300000011921,14674.599999964237,17750.19999998808,19672.19999998808,21575.19999998808,24585.80000001192,26454.5,28588.599999964237,31347.399999976158,34981.30000001192,36969.89999997616],"key_events":[],"mouse_events":[3680.399999976158,6259.300000011921,8141.899999976158,11047.199999988079,12425.300000011921,14674.599999964237,17750.19999998808,19672.19999998808,21575.19999998808,24585.80000001192,26454.5,28588.599999964237,31347.399999976158,34981.30000001192,36969.89999997616,37684.19999998808],"straightlining":0.3076923076923077,"zigzagging":0.4166666666666667,"honeypot":0,"survey":"bisbas","trial_type":"survey-template","trial_index":3,"time_elapsed":136427,"internal_node_id":"0.0-3.0","task_version":"prescreen-v0.3","browser_interactions":0,"infrequency":0},{"responses":{"Q01":"3","Q02":"3","Q03":"2"},"rt":267965.3000000119,"radio_events":[260271.5,265023.6999999881,267339.5],"key_events":[],"mouse_events":[260271.5,262600,265023.6999999881,265967.60000002384,266900.5,267339.5,267964],"survey":"map","page":1,"trial_type":"survey-map","trial_index":4,"time_elapsed":404401,"internal_node_id":"0.0-4.0","task_version":"prescreen-v0.3","browser_interactions":2},{"responses":{"Q04":"3","Q05":"3","Q06":"2"},"rt":6991.599999964237,"radio_events":[3456.800000011921,5013.800000011921,6439.199999988079],"key_events":[],"mouse_events":[3456.800000011921,4343.300000011921,5013.800000011921,5729,6439.199999988079,6990.399999976158],"survey":"map","page":2,"trial_type":"survey-map","trial_index":5,"time_elapsed":411397,"internal_node_id":"0.0-5.0","task_version":"prescreen-v0.3","browser_interactions":0},{"responses":{"Q07":"2","Q08":"3","Q09":"4"},"rt":13047,"radio_events":[4799.699999988079,9966.699999988079,12000.800000011921],"key_events":[],"mouse_events":[3776.5,4799.699999988079,9363.5,9966.699999988079,12000.800000011921,13045.800000011921],"survey":"map","page":3,"trial_type":"survey-map","trial_index":6,"time_elapsed":424448,"internal_node_id":"0.0-6.0","task_version":"prescreen-v0.3","browser_interactions":0},{"responses":{"Q10":"2","Q11":"3","Q12":"1","Q13":"1","Q16":"0","Q14":"3","Q15":"3"},"rt":27379.399999976158,"radio_events":[3427.7999999523163,6722.799999952316,10483.5,14304.699999988079,21497.099999964237,23774.5,26623.399999976158],"key_events":[],"mouse_events":[3427.7999999523163,6053.399999976158,6722.799999952316,10483.5,14304.699999988079,21497.099999964237,23774.5,26623.399999976158,27377.69999998808],"survey":"map","page":4,"trial_type":"survey-map","trial_index":7,"time_elapsed":451830,"internal_node_id":"0.0-7.0","task_version":"prescreen-v0.3","browser_interactions":0,"infrequency":0},{"view_history":[{"page_index":0,"viewing_time":2837.399999976158},{"page_index":1,"viewing_time":3097.7000000476837}],"rt":5936.600000023842,"trial_type":"instructions","trial_index":8,"time_elapsed":457769,"internal_node_id":"0.0-8.0","task_version":"prescreen-v0.3"},{"responses":{"01":"No","02":"Yes","02_ages_10":"10","02_ages_11":"11","02_ages_12":"12","02_ages_13":"13","02_ages_16":"16","02_ages_17":"17","02_ages_18":"18","03":"Yes","03_ages_1":"1","03_ages_2":"2","03_ages_3":"3","03_ages_4":"4","03_ages_5":"5","03_ages_6":"6","03_ages_7":"7","03_ages_8":"8","03_ages_9":"9","03_ages_10":"10","03_ages_11":"11","03_ages_12":"12","03_ages_13":"13","03_ages_14":"14","03_ages_15":"15","03_ages_16":"16","03_ages_17":"17","03_ages_18":"18","04":"No","05":"No","06":"Yes","06_ages_7":"7","06_ages_8":"8","06_ages_9":"9","06_ages_10":"10","06_ages_11":"11"},"rt":50125.89999997616,"item_order":[0,1,2,3,4,5],"radio_events":[8088.199999988079,10811.5,22883.69999998808,38375.5,40103.19999998808,44795.89999997616],"checkbox_events":[14947.199999988079,15419.300000011921,15978.199999988079,16489.600000023842,17624.5,18617,19055,25444.19999998808,25863.399999976158,27123.899999976158,27944.19999998808,28503,29494.5,30026.100000023842,30563.69999998808,31141.100000023842,31804.69999998808,32316.5,32882.69999998808,33473.69999998808,34318.80000001192,35362.80000001192,35940.39999997616,36938.19999998808,37587.60000002384,46232.89999997616,47106.5,47999.10000002384,48537.19999998808,49049.80000001192],"key_events":[],"mouse_events":[0.19999998807907104,8088.199999988079,10811.5,14947.199999988079,15419.300000011921,15978.199999988079,16489.600000023842,17624.5,18091.5,18617,19055,22883.69999998808,25444.19999998808,25863.399999976158,26362.600000023842,27123.899999976158,27497.5,27944.19999998808,28503,29494.5,30026.100000023842,30563.69999998808,31141.100000023842,31804.69999998808,32316.5,32882.69999998808,33473.69999998808,34318.80000001192,34745.89999997616,35362.80000001192,35940.39999997616,36452.69999998808,36938.19999998808,37587.60000002384,38375.5,40103.19999998808,44795.89999997616,46232.89999997616,46764.69999998808,47106.5,47999.10000002384,48537.19999998808,49049.80000001192,50119.80000001192],"honeypot":0,"survey":"mace","page":1,"trial_type":"survey-mace","trial_index":9,"time_elapsed":507912,"internal_node_id":"0.0-9.0","task_version":"prescreen-v0.3","browser_interactions":0},{"responses":{"01":"No","02":"No","03":"Yes","03_ages_4":"4","03_ages_5":"5","03_ages_6":"6","03_ages_7":"7","03_ages_8":"8","03_ages_9":"9","03_ages_10":"10","03_ages_11":"11","04":"Yes","04_ages_4":"4","04_ages_5":"5","04_ages_6":"6","04_ages_7":"7","04_ages_8":"8","04_ages_9":"9","04_ages_10":"10","04_ages_11":"11","05":"Yes","05_ages_7":"7","05_ages_8":"8","05_ages_9":"9","06":"No","07":"No","08":"No"},"rt":38088.59999996424,"item_order":[0,1,2,3,4,5,6,7],"radio_events":[2774.699999988079,5603.299999952316,8025.399999976158,17320.399999976158,25858.899999976158,31799.399999976158,33000.59999996424,34228],"checkbox_events":[9325.099999964237,9804.599999964237,10348.799999952316,11077.799999952316,11890.899999976158,13322.5,13879.599999964237,14550.199999988079,18331.19999998808,18968,19484.799999952316,20076.099999964237,20785.5,21277.299999952316,21841.299999952316,22622.599999964237,27066.599999964237,27500.5,29769.899999976158],"key_events":[],"mouse_events":[2774.699999988079,5603.299999952316,6607.5,7408.699999988079,8025.399999976158,9325.099999964237,9804.599999964237,10348.799999952316,11077.799999952316,11890.899999976158,12357.899999976158,13322.5,13879.599999964237,14550.199999988079,16552,17320.399999976158,18331.19999998808,18968,19484.799999952316,20076.099999964237,20785.5,21277.299999952316,21841.299999952316,22622.599999964237,24455.19999998808,25274.69999998808,25858.899999976158,27066.599999964237,27500.5,28064.599999964237,28811.399999976158,29311.799999952316,29769.899999976158,31799.399999976158,33000.59999996424,34228,38081],"honeypot":0,"survey":"mace","page":2,"trial_type":"survey-mace","trial_index":10,"time_elapsed":546009,"internal_node_id":"0.0-10.0","task_version":"prescreen-v0.3","browser_interactions":0},{"responses":{"01":"No","02":"No","03":"No","04":"No"},"rt":9800.400000035763,"item_order":[0,1,2,3],"radio_events":[2858.100000023842,6921.300000011921,7781.100000023842,8641.300000011921],"checkbox_events":[],"key_events":[],"mouse_events":[2858.100000023842,5128.600000023842,6921.300000011921,7781.100000023842,8641.300000011921,9796.900000035763],"honeypot":0,"survey":"mace","page":3,"trial_type":"survey-mace","trial_index":11,"time_elapsed":555815,"internal_node_id":"0.0-11.0","task_version":"prescreen-v0.3","browser_interactions":0},{"responses":{"01":"No","02":"No"},"rt":5945.199999988079,"item_order":[0,1],"radio_events":[2281.100000023842,3029.5],"checkbox_events":[],"key_events":[],"mouse_events":[2281.100000023842,3029.5,5943.100000023842],"honeypot":0,"survey":"mace","page":4,"trial_type":"survey-mace","trial_index":12,"time_elapsed":561764,"internal_node_id":"0.0-12.0","task_version":"prescreen-v0.3","browser_interactions":0},{"responses":{"01":"No","02":"No","03":"No","04":"No","05":"No"},"rt":61489.80000001192,"item_order":[0,1,2,3,4],"radio_events":[55592.80000001192,56353.60000002384,57941.40000003576,59379.10000002384,60213.40000003576],"checkbox_events":[],"key_events":[],"mouse_events":[55592.80000001192,56353.60000002384,57941.40000003576,59379.10000002384,60213.40000003576,61485.30000001192],"honeypot":0,"survey":"mace","page":5,"trial_type":"survey-mace","trial_index":13,"time_elapsed":623258,"internal_node_id":"0.0-13.0","task_version":"prescreen-v0.3","browser_interactions":0},{"responses":{"01":"Yes","01_ages_1":"1","01_ages_2":"2","01_ages_6":"6","01_ages_7":"7","01_ages_8":"8","02":"No","03":"Yes","03_ages_8":"8","03_ages_9":"9","03_ages_10":"10","03_ages_11":"11","03_ages_12":"12","03_ages_13":"13","04":"Yes","04_ages_6":"6","04_ages_7":"7","04_ages_8":"8","04_ages_9":"9","04_ages_10":"10","04_ages_13":"13","04_ages_14":"14","05":"No"},"rt":29651,"item_order":[0,1,2,3,4],"radio_events":[4818.5,11142.300000011921,13847.200000047684,21637.700000047684,29100],"checkbox_events":[6036.700000047684,6685.700000047684,8050.400000035763,8924.400000035763,9376.700000047684,15237.300000011921,17003.5,17510,18336.400000035763,18854.5,19373.200000047684,22555.700000047684,23016.5,23555.5,24038.900000035763,24883.80000001192,26198.100000023842,26637.900000035763],"key_events":[],"mouse_events":[4818.5,6036.700000047684,6685.700000047684,7282.5,8050.400000035763,8531.100000023842,8924.400000035763,9376.700000047684,11142.300000011921,13314.700000047684,13847.200000047684,15237.300000011921,15769.400000035763,16072.100000023842,17003.5,17510,18336.400000035763,18854.5,19373.200000047684,21637.700000047684,22555.700000047684,23016.5,23555.5,24038.900000035763,24883.80000001192,25483.900000035763,26198.100000023842,26637.900000035763,28464.5,29100,29646.200000047684],"honeypot":0,"survey":"mace","page":6,"trial_type":"survey-mace","trial_index":14,"time_elapsed":652915,"internal_node_id":"0.0-14.0","task_version":"prescreen-v0.3","browser_interactions":0},{"responses":{"01":"No","02":"No","03":"Yes","03_ages_6":"6","03_ages_7":"7","03_ages_8":"8","03_ages_9":"9","03_ages_10":"10","03_ages_11":"11","03_ages_12":"12","04":"No","05":"No","06":"No","07":"No"},"rt":21521.69999998808,"item_order":[0,1,2,3,4,5,6],"radio_events":[4659.800000011921,6136.899999976158,7916.199999988079,15698.5,18967.399999976158,20005.69999998808,20916.80000001192],"checkbox_events":[9989.600000023842,10652,11591,12352.600000023842,12910.600000023842,13782.800000011921,14341.399999976158],"key_events":[],"mouse_events":[4659.800000011921,6136.899999976158,7916.199999988079,9989.600000023842,10652,11210,11591,12352.600000023842,12910.600000023842,13782.800000011921,14341.399999976158,15698.5,17576.399999976158,18967.399999976158,20005.69999998808,20916.80000001192,21515.69999998808],"honeypot":0,"survey":"mace","page":7,"trial_type":"survey-mace","trial_index":15,"time_elapsed":674444,"internal_node_id":"0.0-15.0","task_version":"prescreen-v0.3","browser_interactions":0},{"responses":{"01":"No","02":"No","03":"Yes","03_ages_1":"1","03_ages_2":"2","03_ages_3":"3","03_ages_4":"4","03_ages_5":"5","03_ages_6":"6","03_ages_7":"7","03_ages_8":"8","03_ages_9":"9","03_ages_10":"10","03_ages_11":"11","03_ages_12":"12","03_ages_13":"13","03_ages_14":"14","03_ages_15":"15","03_ages_16":"16","03_ages_17":"17","03_ages_18":"18","04":"Yes","04_ages_8":"8","04_ages_9":"9","04_ages_10":"10","04_ages_11":"11"},"rt":35330.90000003576,"item_order":[0,1,2,3],"radio_events":[6916.800000011921,10342.600000023842,11235.700000047684,31204.30000001192],"checkbox_events":[12561.5,13059.700000047684,13599.600000023842,14444.900000035763,15652.5,17386.700000047684,17918.700000047684,19046.30000001192,19709.100000023842,20511.5,21134.5,23019.200000047684,23583.80000001192,24153.200000047684,24823.600000023842,25473.5,26202.400000035763,26807.200000047684,32417.700000047684,32944.10000002384,33559.40000003576,34151.40000003576],"key_events":[],"mouse_events":[6916.800000011921,10342.600000023842,11235.700000047684,12561.5,13059.700000047684,13599.600000023842,14444.900000035763,15652.5,16361.800000011921,17386.700000047684,17918.700000047684,18376.900000035763,19046.30000001192,19709.100000023842,20511.5,21134.5,22131.600000023842,23019.200000047684,23583.80000001192,24153.200000047684,24823.600000023842,25473.5,26202.400000035763,26807.200000047684,30101.5,31204.30000001192,32417.700000047684,32944.10000002384,33559.40000003576,34151.40000003576,35327.10000002384],"honeypot":0,"survey":"mace","page":8,"trial_type":"survey-mace","trial_index":16,"time_elapsed":709777,"internal_node_id":"0.0-16.0","task_version":"prescreen-v0.3","browser_interactions":0},{"responses":{"01":"Yes","01_ages_1":"1","01_ages_2":"2","01_ages_3":"3","01_ages_4":"4","01_ages_5":"5","01_ages_6":"6","01_ages_7":"7","01_ages_8":"8","01_ages_9":"9","01_ages_10":"10","01_ages_11":"11","01_ages_12":"12","01_ages_13":"13","01_ages_14":"14","01_ages_15":"15","01_ages_16":"16","01_ages_17":"17","01_ages_18":"18","02":"Yes","02_ages_1":"1","02_ages_2":"2","02_ages_3":"3","02_ages_4":"4","02_ages_5":"5","02_ages_6":"6","02_ages_7":"7","02_ages_8":"8","02_ages_9":"9","02_ages_10":"10","02_ages_11":"11","02_ages_12":"12","02_ages_13":"13","02_ages_14":"14","02_ages_15":"15","02_ages_16":"16","02_ages_17":"17","02_ages_18":"18","03":"Yes","03_ages_1":"1","03_ages_2":"2","03_ages_3":"3","03_ages_4":"4","03_ages_5":"5","03_ages_6":"6","03_ages_7":"7","03_ages_8":"8","03_ages_9":"9","03_ages_10":"10","03_ages_11":"11","03_ages_12":"12","03_ages_13":"13","03_ages_14":"14","03_ages_15":"15","03_ages_16":"16","03_ages_17":"17","03_ages_18":"18","04":"Yes","04_ages_1":"1","04_ages_2":"2","04_ages_3":"3","04_ages_4":"4","04_ages_5":"5","04_ages_6":"6","04_ages_7":"7","04_ages_8":"8","04_ages_9":"9","04_ages_10":"10","04_ages_11":"11","04_ages_12":"12","04_ages_13":"13","04_ages_14":"14","04_ages_15":"15","04_ages_16":"16","04_ages_17":"17","04_ages_18":"18"},"rt":2392894.100000024,"item_order":[0,1,2,3],"radio_events":[5416.600000023842,24255.600000023842,2363973.100000024,2366258.199999988],"checkbox_events":[7688.100000023842,9073,10669.100000023842,11168.199999988079,11744.699999988079,12408.699999988079,13064.699999988079,13753,14286.199999988079,14863.100000023842,15689.300000011921,16227.899999976158,16839.30000001192,17488.19999998808,18282.30000001192,18873.19999998808,19464.600000023842,20994.899999976158,26008.100000023842,26546.5,27163.600000023842,27656.600000023842,28317.399999976158,2327330.699999988,2328729,2329169,2329627.600000024,2330126.899999976,2330783.5,2331382.199999988,2331866.699999988,2332616,2333160.100000024,2333712.300000012,2334650.699999988,2335190.100000024,2367315.5,2367788.699999988,2368247.800000012,2369945.199999988,2370630.5,2371142.600000024,2371620.899999976,2372400.600000024,2372999.100000024,2373642.5,2374252.199999988,2375467.100000024,2376266.199999988,2376766.100000024,2377768.399999976,2378537.199999988,2379054.899999976,2379606.899999976,2380978.300000012,2381740,2382810.5,2383406.5,2384187.100000024,2384732.100000024,2385421.300000012,2385986.199999988,2386523.5,2387232.5,2388145.300000012,2388716,2389326.800000012,2389864.600000024,2390567.300000012,2391046.199999988,2391597.100000024,2392254.5],"key_events":[],"mouse_events":[5416.600000023842,7688.100000023842,8173.899999976158,9073,10189.899999976158,10669.100000023842,11168.199999988079,11744.699999988079,12408.699999988079,13064.699999988079,13753,14286.199999988079,14863.100000023842,15689.300000011921,16227.899999976158,16839.30000001192,17488.19999998808,18282.30000001192,18873.19999998808,19464.600000023842,20074.100000023842,20994.899999976158,22136.600000023842,23429.399999976158,24255.600000023842,26008.100000023842,26546.5,27163.600000023842,27656.600000023842,28317.399999976158,2327330.699999988,2327718.399999976,2328019.800000012,2328729,2329169,2329627.600000024,2330126.899999976,2330783.5,2331382.199999988,2331866.699999988,2332616,2333160.100000024,2333712.300000012,2334650.699999988,2335190.100000024,2363973.100000024,2366258.199999988,2367315.5,2367788.699999988,2368247.800000012,2369945.199999988,2370630.5,2371142.600000024,2371620.899999976,2372400.600000024,2372999.100000024,2373642.5,2374252.199999988,2375023.100000024,2375467.100000024,2376266.199999988,2376766.100000024,2377269.899999976,2377768.399999976,2378537.199999988,2379054.899999976,2379606.899999976,2380978.300000012,2381740,2382258.5,2382810.5,2383406.5,2384187.100000024,2384732.100000024,2385421.300000012,2385986.199999988,2386523.5,2387232.5,2388145.300000012,2388716,2389326.800000012,2389864.600000024,2390567.300000012,2391046.199999988,2391597.100000024,2392254.5,2392890.899999976],"honeypot":0,"survey":"mace","page":9,"trial_type":"survey-mace","trial_index":17,"time_elapsed":3102657,"internal_node_id":"0.0-17.0","task_version":"prescreen-v0.3","browser_interactions":4},{"responses":{"01":"No","02":"No","03":"Yes","03_ages_8":"8","03_ages_9":"9","03_ages_10":"10","03_ages_11":"11","03_ages_12":"12","04":"No","05":"No","06":"Yes","06_ages_17":"17","07":"Yes","07_ages_1":"1","07_ages_2":"2","07_ages_3":"3","07_ages_4":"4","07_ages_5":"5","07_ages_6":"6","07_ages_7":"7","07_ages_8":"8","07_ages_9":"9","07_ages_10":"10","07_ages_11":"11","07_ages_12":"12","07_ages_13":"13","07_ages_14":"14","07_ages_15":"15","07_ages_16":"16","07_ages_17":"17","07_ages_18":"18","08":"Yes","08_ages_1":"1","08_ages_2":"2","08_ages_3":"3","08_ages_4":"4","08_ages_5":"5","08_ages_6":"6","08_ages_7":"7","08_ages_8":"8","08_ages_9":"9","08_ages_10":"10","08_ages_11":"11","08_ages_12":"12","08_ages_13":"13","08_ages_14":"14","08_ages_15":"15","08_ages_16":"16","08_ages_17":"17","08_ages_18":"18"},"rt":265127.8000000119,"item_order":[0,1,2,3,4,5,6,7],"radio_events":[3322.599999964237,7161.5,7739.099999964237,9458.300000011921,15928.199999988079,17215.30000001192,19120.599999964237,22369.69999998808,245762.80000001192],"checkbox_events":[10416.899999976158,10968.099999964237,11525.899999976158,12536.800000011921,13107.800000011921,19961.399999976158,24069.5,175595.5,176132.89999997616,176592.5,177064.59999996424,177557.39999997616,178227.5,178791.39999997616,179460.59999996424,180059.80000001192,235931.69999998808,237053.89999997616,238248.89999997616,242075,242855.30000001192,243373.69999998808,244181.59999996424,244751.19999998808,248103.59999996424,250040.19999998808,253624.5,254470.19999998808,255133.69999998808,255868.39999997616,256779.80000001192,257528.80000001192,258093.59999996424,258657,259458.5,260041.39999997616,261144.69999998808,261814.59999996424,262358.1999999881,262897.39999997616,263434.89999997616,263992.89999997616],"key_events":[],"mouse_events":[2665.099999964237,3322.599999964237,3912.699999988079,5927.399999976158,6583.5,7161.5,7739.099999964237,8769.5,9458.300000011921,10416.899999976158,10968.099999964237,11525.899999976158,12071,12536.800000011921,13107.800000011921,15928.199999988079,17215.30000001192,19120.599999964237,19961.399999976158,22369.69999998808,24069.5,175595.5,176132.89999997616,176592.5,177064.59999996424,177557.39999997616,178227.5,178791.39999997616,179460.59999996424,180059.80000001192,235931.69999998808,236418.5,237053.89999997616,238248.89999997616,241140.39999997616,242075,242855.30000001192,243373.69999998808,244181.59999996424,244751.19999998808,245762.80000001192,247150.09999996424,248103.59999996424,248997.30000001192,250040.19999998808,252698.09999996424,253624.5,254470.19999998808,255133.69999998808,255868.39999997616,256779.80000001192,257528.80000001192,258093.59999996424,258657,259458.5,260041.39999997616,261144.69999998808,261814.59999996424,262358.1999999881,262897.39999997616,263434.89999997616,263992.89999997616,264556.5,265121.3000000119],"honeypot":0,"survey":"mace","page":10,"trial_type":"survey-mace","trial_index":18,"time_elapsed":3367796,"internal_node_id":"0.0-18.0","task_version":"prescreen-v0.3","browser_interactions":0,"instructed":0},{"rt":4264.300000011921,"trial_type":"mental-health-alert","trial_index":19,"time_elapsed":3372064,"internal_node_id":"0.0-19.0","task_version":"prescreen-v0.3","interactions":"[{\"event\":\"blur\",\"trial\":4,\"time\":137546},{\"event\":\"focus\",\"trial\":4,\"time\":379682},{\"event\":\"blur\",\"trial\":17,\"time\":740321},{\"event\":\"focus\",\"trial\":17,\"time\":3030856},{\"event\":\"blur\",\"trial\":17,\"time\":3031526},{\"event\":\"focus\",\"trial\":17,\"time\":3034702}]"}]