[{"view_history":[{"page_index":0,"viewing_time":6623.599999904633},{"page_index":1,"viewing_time":1724.7999999523163},{"page_index":2,"viewing_time":2111.100000143051},{"page_index":3,"viewing_time":1835.5999999046326}],"rt":12295.799999952316,"trial_type":"instructions","trial_index":0,"time_elapsed":12315,"internal_node_id":"0.0-0.0","task_version":"prescreen-v0.3"},{"rt":13077.900000095367,"responses":{"age":"31","gender-categorical":"Female","gender-free-response":"","ethnicity":"Not Hispanic or Latino","race":["White"],"education":"Bachelor degree"},"trial_type":"survey-demo","trial_index":1,"time_elapsed":25398,"internal_node_id":"0.0-1.0","task_version":"prescreen-v0.3"},{"responses":{"Q08":"3","Q01":"2","Q16":"0","Q07":"1","Q02":"0","Q13":"2","Q11":"1","Q18":"1","Q14":"2","Q17":"0","Q12":"0","Q10":"1","Q21":"3","Q09":"3","Q20":"3","Q19":"1","Q15":"2","Q03":"0","Q04":"2","Q05":"0","Q06":"0"},"rt":107167,"item_order":[7,0,15,6,1,12,10,17,13,16,11,9,20,8,19,18,14,2,3,4,5],"radio_events":[8594.400000095367,9699.200000047684,13011.400000095367,19115.299999952316,22752.900000095367,26983.700000047684,30151.5,39819.299999952316,42982.40000009537,47744.799999952316,52486.700000047684,55941.40000009537,59361,60882.5,71288,75652.40000009537,85175.59999990463,88318.79999995232,95196.20000004768,99637.20000004768,104969.59999990463],"key_events":[],"mouse_events":[6206.099999904633,7945.900000095367,8594.400000095367,9699.200000047684,13011.400000095367,19115.299999952316,22752.900000095367,26260,26983.700000047684,30151.5,39819.299999952316,42982.40000009537,44164.200000047684,46975.700000047684,47744.799999952316,52486.700000047684,55941.40000009537,59361,60882.5,71288,75652.40000009537,78040.09999990463,82267.79999995232,85175.59999990463,88318.79999995232,90078.90000009537,93660,95196.20000004768,96918.79999995232,99637.20000004768,100649,104969.59999990463,107165],"straightlining":0.3333333333333333,"zigzagging":0.35,"honeypot":0,"survey":"sns","trial_type":"survey-template","trial_index":2,"time_elapsed":132572,"internal_node_id":"0.0-2.0","task_version":"prescreen-v0.3","browser_interactions":0,"infrequency":0},{"responses":{"Q07":"3","Q12":"1","Q05":"2","Q13":"0","Q02":"3","Q06":"3","Q03":"3","Q08":"3","Q04":"2","Q10":"1","Q11":"2","Q09":"2","Q01":"2"},"rt":54569.59999990463,"item_order":[6,11,4,12,1,5,2,7,3,9,10,8,0],"radio_events":[5147.5,8224.899999856949,12572.700000047684,15208.899999856949,19308.89999985695,24735.700000047684,27023.89999985695,31611.5,42232.200000047684,44879.700000047684,50081.09999990463,50537.200000047684,53628],"key_events":[],"mouse_events":[5147.5,8224.899999856949,12572.700000047684,15208.899999856949,19308.89999985695,24735.700000047684,27023.89999985695,31611.5,42232.200000047684,44879.700000047684,48542,50081.09999990463,50537.200000047684,53628,54568.799999952316],"straightlining":0.38461538461538464,"zigzagging":0.4166666666666667,"honeypot":0,"survey":"bisbas","trial_type":"survey-template","trial_index":3,"time_elapsed":187146,"internal_node_id":"0.0-3.0","task_version":"prescreen-v0.3","browser_interactions":0,"infrequency":0},{"responses":{"Q01":"3","Q02":"2","Q03":"4"},"rt":16492.5,"radio_events":[9766.599999904633,12417.400000095367,15472.5],"key_events":[],"mouse_events":[9766.599999904633,12417.400000095367,15472.5,16492],"survey":"map","page":1,"trial_type":"survey-map","trial_index":4,"time_elapsed":203643,"internal_node_id":"0.0-4.0","task_version":"prescreen-v0.3","browser_interactions":0},{"responses":{"Q04":"3","Q05":"3","Q06":"3"},"rt":16000,"radio_events":[8235.100000143051,13957.100000143051,15048.400000095367],"key_events":[],"mouse_events":[8235.100000143051,11566.700000047684,13957.100000143051,15048.400000095367,15999.700000047684],"survey":"map","page":2,"trial_type":"survey-map","trial_index":5,"time_elapsed":219646,"internal_node_id":"0.0-5.0","task_version":"prescreen-v0.3","browser_interactions":0},{"responses":{"Q07":"1","Q08":"0","Q09":"0"},"rt":19325.199999809265,"radio_events":[8610.399999856949,13452.599999904633,18424.099999904633],"key_events":[],"mouse_events":[8610.399999856949,13452.599999904633,16408,16862.199999809265,17758.199999809265,18424.099999904633,19324.799999952316],"survey":"map","page":3,"trial_type":"survey-map","trial_index":6,"time_elapsed":238976,"internal_node_id":"0.0-6.0","task_version":"prescreen-v0.3","browser_interactions":0},{"responses":{"Q10":"0","Q11":"0","Q12":"3","Q13":"3","Q16":"2","Q14":"2","Q15":"2"},"rt":41411.59999990463,"radio_events":[8997.799999952316,9966.599999904633,13437.199999809265,19051.699999809265,29343.099999904633,37802.39999985695,39890.699999809265],"key_events":[],"mouse_events":[5462.799999952316,7991.699999809265,8997.799999952316,9966.599999904633,13437.199999809265,19051.699999809265,29343.099999904633,37802.39999985695,39890.699999809265,41410.699999809265],"survey":"map","page":4,"trial_type":"survey-map","trial_index":7,"time_elapsed":280391,"internal_node_id":"0.0-7.0","task_version":"prescreen-v0.3","browser_interactions":0,"infrequency":1},{"view_history":[{"page_index":0,"viewing_time":1948.7000000476837},{"page_index":1,"viewing_time":2853.5}],"rt":4802.599999904633,"trial_type":"instructions","trial_index":8,"time_elapsed":285197,"internal_node_id":"0.0-8.0","task_version":"prescreen-v0.3"},{"responses":{"01":"No","02":"Yes","02_ages_7":"7","02_ages_8":"8","02_ages_9":"9","02_ages_10":"10","02_ages_11":"11","02_ages_12":"12","02_ages_13":"13","02_ages_14":"14","02_ages_15":"15","02_ages_16":"16","02_ages_17":"17","02_ages_18":"18","03":"No","04":"Yes","04_ages_15":"15","04_ages_16":"16","04_ages_17":"17","04_ages_18":"18","05":"No","06":"No"},"rt":42597.40000009537,"item_order":[0,1,2,3,4,5],"radio_events":[9929.400000095367,11764.800000190735,34375,35286.5,41256.300000190735,41873.90000009537],"checkbox_events":[21212.700000047684,21686,23307.60000014305,24291.10000014305,25022.700000047684,25774.200000047684,26445.10000014305,27076.800000190735,27766.10000014305,28403,29403.400000095367,29908.700000047684,36322.800000190735,36804.800000190735,37216.90000009537,37895.300000190735],"key_events":[],"mouse_events":[0.10000014305114746,9929.400000095367,11764.800000190735,21212.700000047684,21686,22233,22823.900000095367,23307.60000014305,24291.10000014305,25022.700000047684,25774.200000047684,26445.10000014305,27076.800000190735,27766.10000014305,28403,29403.400000095367,29908.700000047684,34375,35286.5,36322.800000190735,36804.800000190735,37216.90000009537,37895.300000190735,41256.300000190735,41873.90000009537,42595.300000190735],"honeypot":0,"survey":"mace","page":1,"trial_type":"survey-mace","trial_index":9,"time_elapsed":327802,"internal_node_id":"0.0-9.0","task_version":"prescreen-v0.3","browser_interactions":0},{"responses":{"01":"No","02":"No","03":"Yes","03_ages_5":"5","03_ages_6":"6","03_ages_7":"7","04":"No","05":"No","06":"No","07":"No","08":"No"},"rt":26720.400000095367,"item_order":[0,1,2,3,4,5,6,7],"radio_events":[5486.400000095367,7484.700000047684,9246.900000095367,18171.700000047684,19205.299999952316,22302.799999952316,24645.5,25786.10000014305],"checkbox_events":[11395.299999952316,12275,13239.200000047684,14086.200000047684,14908.400000095367],"key_events":[],"mouse_events":[5486.400000095367,7484.700000047684,9246.900000095367,11395.299999952316,12275,13239.200000047684,14086.200000047684,14908.400000095367,18171.700000047684,19205.299999952316,22302.799999952316,23633,24645.5,25282.400000095367,25786.10000014305,26717.60000014305],"honeypot":0,"survey":"mace","page":2,"trial_type":"survey-mace","trial_index":10,"time_elapsed":354527,"internal_node_id":"0.0-10.0","task_version":"prescreen-v0.3","browser_interactions":0},{"responses":{"01":"No","02":"No","03":"No","04":"No"},"rt":15677.900000095367,"item_order":[0,1,2,3],"radio_events":[5217.100000143051,6425.600000143051,8816.299999952316,14812.200000047684],"checkbox_events":[],"key_events":[],"mouse_events":[5217.100000143051,6425.600000143051,7759.400000095367,8816.299999952316,11090.400000095367,12861.900000095367,13727.299999952316,14246,14812.200000047684,15676.400000095367],"honeypot":0,"survey":"mace","page":3,"trial_type":"survey-mace","trial_index":11,"time_elapsed":370209,"internal_node_id":"0.0-11.0","task_version":"prescreen-v0.3","browser_interactions":0},{"responses":{"01":"No","02":"No"},"rt":7676.299999952316,"item_order":[0,1],"radio_events":[5475.400000095367,6869.799999952316],"checkbox_events":[],"key_events":[],"mouse_events":[5475.400000095367,6869.799999952316,7675.5],"honeypot":0,"survey":"mace","page":4,"trial_type":"survey-mace","trial_index":12,"time_elapsed":377891,"internal_node_id":"0.0-12.0","task_version":"prescreen-v0.3","browser_interactions":0},{"responses":{"01":"Yes","01_ages_13":"13","01_ages_14":"14","02":"No","03":"No","04":"Yes","04_ages_15":"15","04_ages_16":"16","05":"No"},"rt":36027.299999952316,"item_order":[0,1,2,3,4],"radio_events":[7014.200000047684,21101,26116.599999904633,28521.5,35202.89999985695],"checkbox_events":[15396.399999856949,16305,31522.89999985695,33224.799999952316],"key_events":[],"mouse_events":[7014.200000047684,15396.399999856949,16305,21101,26116.599999904633,28521.5,31522.89999985695,33224.799999952316,35202.89999985695,36025.700000047684],"honeypot":0,"survey":"mace","page":5,"trial_type":"survey-mace","trial_index":13,"time_elapsed":413923,"internal_node_id":"0.0-13.0","task_version":"prescreen-v0.3","browser_interactions":0},{"responses":{"01":"Yes","01_ages_7":"7","01_ages_8":"8","01_ages_9":"9","01_ages_12":"12","02":"Yes","02_ages_7":"7","02_ages_8":"8","02_ages_9":"9","02_ages_10":"10","02_ages_14":"14","02_ages_15":"15","03":"No","04":"No","05":"No"},"rt":53139.09999990463,"item_order":[0,1,2,3,4],"radio_events":[4866.700000047684,25823,47094,51353.5,52309.09999990463],"checkbox_events":[6314.299999952316,9104.5,12767.899999856949,17144.700000047684,32932.89999985695,37335,38155.39999985695,39048.299999952316,42243.799999952316,42925.39999985695],"key_events":[],"mouse_events":[4866.700000047684,6314.299999952316,9104.5,12767.899999856949,17144.700000047684,24952.700000047684,25823,32932.89999985695,37335,38155.39999985695,39048.299999952316,42243.799999952316,42925.39999985695,47094,51353.5,52309.09999990463,53137.299999952316],"honeypot":0,"survey":"mace","page":6,"trial_type":"survey-mace","trial_index":14,"time_elapsed":467067,"internal_node_id":"0.0-14.0","task_version":"prescreen-v0.3","browser_interactions":0},{"responses":{"01":"No","02":"No","03":"No","04":"No","05":"No","06":"Yes","06_ages_3":"3","06_ages_4":"4","07":"Yes","07_ages_3":"3","07_ages_4":"4"},"rt":38207.799999952316,"item_order":[0,1,2,3,4,5,6],"radio_events":[4594.699999809265,9828,13640.099999904633,14781.099999904633,17354.39999985695,24018.39999985695,30227.89999985695,36462.09999990463],"checkbox_events":[21006,21593.099999904633,31440.5,31892.099999904633],"key_events":[],"mouse_events":[4594.699999809265,6182.699999809265,9828,11017.899999856949,12359.199999809265,13067.899999856949,13640.099999904633,14781.099999904633,17354.39999985695,21006,21593.099999904633,24018.39999985695,29817.89999985695,30227.89999985695,31440.5,31892.099999904633,33498.39999985695,36462.09999990463,38205.199999809265],"honeypot":0,"survey":"mace","page":7,"trial_type":"survey-mace","trial_index":15,"time_elapsed":505280,"internal_node_id":"0.0-15.0","task_version":"prescreen-v0.3","browser_interactions":0},{"responses":{"01":"Yes","01_ages_1":"1","01_ages_2":"2","01_ages_3":"3","01_ages_4":"4","01_ages_5":"5","01_ages_6":"6","01_ages_7":"7","01_ages_8":"8","01_ages_9":"9","01_ages_10":"10","01_ages_11":"11","01_ages_12":"12","01_ages_13":"13","01_ages_14":"14","01_ages_15":"15","01_ages_16":"16","01_ages_17":"17","01_ages_18":"18","02":"No","03":"No","04":"No"},"rt":31990.5,"item_order":[0,1,2,3],"radio_events":[6305.799999952316,26546.299999952316,29891.299999952316,31132.699999809265],"checkbox_events":[10397.5,10978.5,11750.599999904633,12446.299999952316,13693,14351.299999952316,14995.599999904633,15661.5,16313.599999904633,17022.799999952316,17620.39999985695,18265.299999952316,18903,19668.299999952316,20332.5,20970.099999904633,21591.799999952316,22471.599999904633],"key_events":[],"mouse_events":[6305.799999952316,10397.5,10978.5,11750.599999904633,12446.299999952316,13118.599999904633,13693,14351.299999952316,14995.599999904633,15661.5,16313.599999904633,17022.799999952316,17620.39999985695,18265.299999952316,18903,19668.299999952316,20332.5,20970.099999904633,21591.799999952316,22471.599999904633,26546.299999952316,29891.299999952316,31132.699999809265,31988.89999985695],"honeypot":0,"survey":"mace","page":8,"trial_type":"survey-mace","trial_index":16,"time_elapsed":537275,"internal_node_id":"0.0-16.0","task_version":"prescreen-v0.3","browser_interactions":0},{"responses":{"01":"Yes","01_ages_1":"1","01_ages_2":"2","01_ages_3":"3","01_ages_4":"4","01_ages_5":"5","01_ages_6":"6","01_ages_7":"7","01_ages_8":"8","01_ages_9":"9","01_ages_10":"10","01_ages_11":"11","01_ages_12":"12","01_ages_13":"13","01_ages_14":"14","01_ages_15":"15","01_ages_16":"16","01_ages_17":"17","01_ages_18":"18","02":"Yes","02_ages_1":"1","02_ages_2":"2","02_ages_3":"3","02_ages_4":"4","02_ages_5":"5","02_ages_6":"6","02_ages_7":"7","02_ages_8":"8","02_ages_9":"9","02_ages_10":"10","02_ages_11":"11","02_ages_12":"12","02_ages_13":"13","02_ages_14":"14","02_ages_15":"15","02_ages_16":"16","02_ages_17":"17","02_ages_18":"18","03":"Yes","03_ages_1":"1","03_ages_2":"2","03_ages_3":"3","03_ages_4":"4","03_ages_5":"5","03_ages_6":"6","03_ages_7":"7","03_ages_8":"8","03_ages_9":"9","03_ages_10":"10","03_ages_11":"11","03_ages_12":"12","03_ages_13":"13","03_ages_14":"14","03_ages_15":"15","03_ages_16":"16","03_ages_17":"17","03_ages_18":"18","04":"Yes","04_ages_1":"1","04_ages_2":"2","04_ages_3":"3","04_ages_4":"4","04_ages_5":"5","04_ages_6":"6","04_ages_7":"7","04_ages_8":"8","04_ages_9":"9","04_ages_10":"10","04_ages_11":"11","04_ages_12":"12","04_ages_13":"13","04_ages_14":"14","04_ages_15":"15","04_ages_16":"16","04_ages_17":"17","04_ages_18":"18"},"rt":80292.20000004768,"item_order":[0,1,2,3],"radio_events":[3757.5,23337.10000014305,45837.5,63547.700000047684],"checkbox_events":[9878.299999952316,10822.799999952316,11484.600000143051,12320.700000047684,12975.799999952316,13576.900000095367,14162.700000047684,14779,15304.900000095367,15954.799999952316,16583.400000095367,17150.400000095367,18150.700000047684,18797,20081.60000014305,20613.60000014305,21285.200000047684,21986.400000095367,26181.5,26707.700000047684,27274,28177.10000014305,28688.10000014305,29994.700000047684,30706.200000047684,31522.299999952316,32832.799999952316,33668.299999952316,34299.299999952316,35155.799999952316,35941.5,37222.40000009537,37823.90000009537,38992.60000014305,40684.90000009537,42046.5,47734.10000014305,48188.799999952316,48865.299999952316,49404.60000014305,50089.60000014305,51904.799999952316,52484.200000047684,53308.299999952316,54081.299999952316,54996,55743.299999952316,56281.200000047684,57055,57714.90000009537,58951.5,59548,60286.5,61218.299999952316,64717.700000047684,65206.200000047684,65708.5,66515.10000014305,67039.70000004768,67770.70000004768,68912.5,69599.60000014305,70470.70000004768,71373.20000004768,72334.10000014305,73146.79999995232,75413.60000014305,76342.5,76881.60000014305,77580,78092.40000009537,78812.79999995232],"key_events":[],"mouse_events":[3757.5,9878.299999952316,10462.200000047684,10822.799999952316,11484.600000143051,12320.700000047684,12975.799999952316,13576.900000095367,14162.700000047684,14779,15304.900000095367,15954.799999952316,16583.400000095367,17150.400000095367,17761.900000095367,18150.700000047684,18797,19641.900000095367,20081.60000014305,20613.60000014305,21285.200000047684,21986.400000095367,23337.10000014305,25050.700000047684,25536.299999952316,26181.5,26707.700000047684,27274,28177.10000014305,28688.10000014305,29358.299999952316,29994.700000047684,30706.200000047684,31522.299999952316,32832.799999952316,33668.299999952316,34299.299999952316,35155.799999952316,35941.5,37222.40000009537,37823.90000009537,38390.799999952316,38992.60000014305,40684.90000009537,41467,42046.5,45837.5,47734.10000014305,48188.799999952316,48865.299999952316,49404.60000014305,50089.60000014305,50736.200000047684,51321.60000014305,51904.799999952316,52484.200000047684,53308.299999952316,54081.299999952316,54996,55743.299999952316,56281.200000047684,57055,57714.90000009537,58527.700000047684,58951.5,59548,60286.5,61218.299999952316,63547.700000047684,64717.700000047684,65206.200000047684,65708.5,66515.10000014305,67039.70000004768,67770.70000004768,68516,68912.5,69599.60000014305,70470.70000004768,71373.20000004768,72334.10000014305,73146.79999995232,73985.5,75413.60000014305,76342.5,76881.60000014305,77580,78092.40000009537,78812.79999995232,80290.60000014305],"honeypot":0,"survey":"mace","page":9,"trial_type":"survey-mace","trial_index":17,"time_elapsed":617572,"internal_node_id":"0.0-17.0","task_version":"prescreen-v0.3","browser_interactions":0},{"responses":{"01":"No","02":"No","03":"Yes","03_ages_12":"12","03_ages_13":"13","04":"No","05":"No","06":"Yes","06_ages_17":"17","07":"Yes","07_ages_1":"1","07_ages_2":"2","07_ages_3":"3","07_ages_4":"4","07_ages_5":"5","07_ages_6":"6","07_ages_7":"7","07_ages_8":"8","07_ages_9":"9","07_ages_10":"10","07_ages_11":"11","07_ages_12":"12","07_ages_13":"13","07_ages_14":"14","07_ages_15":"15","07_ages_16":"16","07_ages_17":"17","07_ages_18":"18","08":"Yes","08_ages_1":"1","08_ages_2":"2","08_ages_3":"3","08_ages_4":"4","08_ages_5":"5","08_ages_6":"6","08_ages_7":"7","08_ages_8":"8","08_ages_9":"9","08_ages_10":"10","08_ages_11":"11","08_ages_12":"12","08_ages_13":"13","08_ages_14":"14","08_ages_15":"15","08_ages_16":"16","08_ages_17":"17","08_ages_18":"18"},"rt":65822.89999985695,"item_order":[0,1,2,3,4,5,6,7],"radio_events":[4497,5677.700000047684,7935.799999952316,15955.5,17597.299999952316,19824.099999904633,24869.099999904633,44751.39999985695],"checkbox_events":[9645.200000047684,10664,21457.099999904633,26162.099999904633,26672.099999904633,28929.099999904633,29440.299999952316,30285.39999985695,31408.200000047684,31925.099999904633,32472.200000047684,35627.799999952316,36641.89999985695,37252.5,37894.59999990463,38596.59999990463,39502.89999985695,40026.89999985695,40646.09999990463,41419.39999985695,42085.799999952316,49663.5,50584,51491.39999985695,52309.5,53719.59999990463,55878.09999990463,56495.200000047684,57357.799999952316,58750.700000047684,59317.299999952316,60031,60639.799999952316,61386.5,62317.89999985695,62907.89999985695,63557.89999985695,64183,64879.59999990463],"key_events":[],"mouse_events":[4497,5677.700000047684,7935.799999952316,9645.200000047684,10664,15955.5,17597.299999952316,19824.099999904633,21457.099999904633,23998.299999952316,24869.099999904633,26162.099999904633,26672.099999904633,27361.299999952316,28189.799999952316,28929.099999904633,29440.299999952316,30285.39999985695,31408.200000047684,31925.099999904633,32472.200000047684,35627.799999952316,36641.89999985695,37252.5,37894.59999990463,38596.59999990463,39502.89999985695,40026.89999985695,40646.09999990463,41419.39999985695,42085.799999952316,44081,44751.39999985695,48067.89999985695,48645.59999990463,49663.5,50584,51491.39999985695,52309.5,53719.59999990463,55088.39999985695,55878.09999990463,56495.200000047684,57357.799999952316,58083.700000047684,58750.700000047684,59317.299999952316,60031,60639.799999952316,61386.5,62317.89999985695,62907.89999985695,63557.89999985695,64183,64879.59999990463,65820.29999995232],"honeypot":0,"survey":"mace","page":10,"trial_type":"survey-mace","trial_index":18,"time_elapsed":683400,"internal_node_id":"0.0-18.0","task_version":"prescreen-v0.3","browser_interactions":0,"instructed":0},{"rt":3117.2999999523163,"trial_type":"mental-health-alert","trial_index":19,"time_elapsed":686521,"internal_node_id":"0.0-19.0","task_version":"prescreen-v0.3","interactions":"[]"}]