[{"view_history":[{"page_index":0,"viewing_time":3182.5999999940395},{"page_index":1,"viewing_time":4631.5},{"page_index":2,"viewing_time":3696.7000000178814},{"page_index":3,"viewing_time":1678.5999999940395}],"rt":13190,"trial_type":"instructions","trial_index":0,"time_elapsed":13210,"internal_node_id":"0.0-0.0","task_version":"prescreen-v0.3"},{"rt":17115.59999999404,"responses":{"age":"37","gender-categorical":"Male","gender-free-response":"","ethnicity":"Not Hispanic or Latino","race":["White"],"education":"Some college","siblings":"2"},"trial_type":"survey-demo","trial_index":1,"time_elapsed":30329,"internal_node_id":"0.0-1.0","task_version":"prescreen-v0.3"},{"responses":{"Q19":"1","Q12":"3","Q17":"1","Q04":"1","Q20":"0","Q03":"0","Q07":"0","Q05":"1","Q09":"3","Q08":"2","Q10":"2","Q11":"3","Q16":"1","Q13":"1","Q14":"1","Q02":"1","Q18":"0","Q06":"0","Q21":"3","Q15":"2","Q01":"1"},"rt":123232.59999999404,"item_order":[18,11,16,3,19,2,6,4,8,7,9,10,15,12,13,1,17,5,20,14,0],"radio_events":[11496.899999976158,17568.29999998212,23823.899999976158,28611,33311.69999998808,34694.39999997616,40110.79999998212,49663.5,53874.39999997616,58486.5,65127.5,68598.39999997616,73788.5,77333.79999998212,82336.79999998212,88889.69999998808,93870.19999998808,98463.29999998212,105338.59999999404,117874.59999999404,121886.79999998212],"key_events":[],"mouse_events":[11496.899999976158,16290.09999999404,17568.29999998212,22769.29999998212,23823.899999976158,28611,30879.79999998212,33311.69999998808,34694.39999997616,40110.79999998212,47453.59999999404,49663.5,53874.39999997616,58486.5,63943,65127.5,68598.39999997616,73788.5,77333.79999998212,82336.79999998212,87161.29999998212,88889.69999998808,93870.19999998808,98463.29999998212,104047,105338.59999999404,116482.19999998808,117874.59999999404,121886.79999998212,123230.89999997616],"straightlining":0.42857142857142855,"zigzagging":0.4,"honeypot":0,"survey":"sns","trial_type":"survey-template","trial_index":2,"time_elapsed":153566,"internal_node_id":"0.0-2.0","task_version":"prescreen-v0.3","browser_interactions":0,"infrequency":0},{"responses":{"Q01":"2","Q05":"2","Q04":"3","Q12":"1","Q03":"2","Q08":"2","Q09":"1","Q10":"2","Q07":"2","Q13":"0","Q02":"1","Q11":"1","Q06":"2"},"rt":65347.30000001192,"item_order":[0,4,3,11,2,7,8,9,6,12,1,10,5],"radio_events":[5659.300000011921,11344.600000023842,18040.40000000596,21930.80000001192,27273.30000001192,33320.70000001788,38001.30000001192,41901.80000001192,44770.30000001192,47748.10000002384,51431.90000000596,57424.10000002384,59160.30000001192,63961.5],"key_events":[],"mouse_events":[3894.5,5659.300000011921,11344.600000023842,18040.40000000596,21930.80000001192,27273.30000001192,33320.70000001788,38001.30000001192,41901.80000001192,44770.30000001192,47748.10000002384,51431.90000000596,57424.10000002384,59160.30000001192,62964.80000001192,63961.5,65346.20000001788],"straightlining":0.5384615384615384,"zigzagging":0.5,"honeypot":0,"survey":"bisbas","trial_type":"survey-template","trial_index":3,"time_elapsed":218918,"internal_node_id":"0.0-3.0","task_version":"prescreen-v0.3","browser_interactions":0,"infrequency":0},{"responses":{"Q01":"3","Q02":"3","Q03":"3"},"rt":23999,"radio_events":[11611.799999982119,17841.29999998212,22528.29999998212],"key_events":[],"mouse_events":[8668.799999982119,9100,10019.799999982119,11611.799999982119,16814.59999999404,17841.29999998212,22528.29999998212,23998.5],"survey":"map","page":1,"trial_type":"survey-map","trial_index":4,"time_elapsed":242919,"internal_node_id":"0.0-4.0","task_version":"prescreen-v0.3","browser_interactions":0},{"responses":{"Q04":"3","Q05":"3","Q06":"3"},"rt":16694.30000001192,"radio_events":[6735.5999999940395,11024.200000017881,14929.800000011921],"key_events":[],"mouse_events":[6735.5999999940395,11024.200000017881,14929.800000011921,16693.90000000596],"survey":"map","page":2,"trial_type":"survey-map","trial_index":5,"time_elapsed":259615,"internal_node_id":"0.0-5.0","task_version":"prescreen-v0.3","browser_interactions":0},{"responses":{"Q07":"4","Q08":"0","Q09":"4"},"rt":19385.70000001788,"radio_events":[10740.800000011921,14535.90000000596,18100.59999999404],"key_events":[],"mouse_events":[10740.800000011921,14535.90000000596,18100.59999999404,19385.20000001788],"survey":"map","page":3,"trial_type":"survey-map","trial_index":6,"time_elapsed":279003,"internal_node_id":"0.0-6.0","task_version":"prescreen-v0.3","browser_interactions":0},{"responses":{"Q10":"3","Q11":"3","Q12":"2","Q13":"2","Q16":"0","Q14":"2","Q15":"2"},"rt":39194.39999997616,"radio_events":[4904.799999982119,9631.699999988079,13569.59999999404,21296.899999976158,31089.899999976158,32602.899999976158,37603.09999999404],"key_events":[],"mouse_events":[4904.799999982119,9631.699999988079,13569.59999999404,19466.899999976158,21296.899999976158,26691.899999976158,31089.899999976158,32602.899999976158,37603.09999999404,39193.59999999404],"survey":"map","page":4,"trial_type":"survey-map","trial_index":7,"time_elapsed":318200,"internal_node_id":"0.0-7.0","task_version":"prescreen-v0.3","browser_interactions":0,"infrequency":0},{"view_history":[{"page_index":0,"viewing_time":4666.5},{"page_index":1,"viewing_time":5522.800000011921}],"rt":10190,"trial_type":"instructions","trial_index":8,"time_elapsed":328391,"internal_node_id":"0.0-8.0","task_version":"prescreen-v0.3"},{"responses":{"01":"Yes","01_ages_12":"12","01_ages_13":"13","01_ages_14":"14","01_ages_15":"15","01_ages_16":"16","01_ages_17":"17","01_ages_18":"18","02":"Yes","02_ages_12":"12","02_ages_13":"13","02_ages_14":"14","02_ages_15":"15","02_ages_16":"16","02_ages_17":"17","02_ages_18":"18","03":"Yes","03_ages_12":"12","03_ages_13":"13","03_ages_14":"14","03_ages_15":"15","03_ages_16":"16","03_ages_17":"17","03_ages_18":"18","04":"No","05":"No","06":"No"},"rt":58110.19999998808,"item_order":[0,1,2,3,4,5],"radio_events":[7982.9000000059605,25293.5,37582.19999998808,48543.5,52102.29999998212,56787.90000000596],"checkbox_events":[15575.699999988079,17626.59999999404,18486.40000000596,19483.59999999404,20424,21275.90000000596,22187.69999998808,28022.90000000596,28933.90000000596,29830.90000000596,30655.79999998212,31480.69999998808,32649.59999999404,33875.40000000596,39418.90000000596,40344.40000000596,41241.59999999404,42287.59999999404,43145.90000000596,44024.5,46220.19999998808],"key_events":[],"mouse_events":[0,7982.9000000059605,15575.699999988079,16537.59999999404,17626.59999999404,18486.40000000596,19483.59999999404,20424,21275.90000000596,22187.69999998808,25293.5,28022.90000000596,28933.90000000596,29830.90000000596,30655.79999998212,31480.69999998808,32649.59999999404,33875.40000000596,37582.19999998808,39418.90000000596,40344.40000000596,41241.59999999404,42287.59999999404,43145.90000000596,44024.5,45000.29999998212,46220.19999998808,48543.5,52102.29999998212,55704.59999999404,56787.90000000596,58108.19999998808],"honeypot":0,"survey":"mace","page":1,"trial_type":"survey-mace","trial_index":9,"time_elapsed":386507,"internal_node_id":"0.0-9.0","task_version":"prescreen-v0.3","browser_interactions":0},{"responses":{"01":"No","02":"No","03":"No","04":"No","05":"No","06":"No","07":"No","08":"No"},"rt":20943.69999998808,"item_order":[0,1,2,3,4,5,6,7],"radio_events":[4298.199999988079,6830.699999988079,8255.899999976158,9760.199999988079,11796.399999976158,14333.199999988079,18152.69999998808,19369.29999998212],"checkbox_events":[],"key_events":[],"mouse_events":[4298.199999988079,6830.699999988079,8255.899999976158,9760.199999988079,11796.399999976158,14333.199999988079,16674.5,18152.69999998808,19369.29999998212,20940.899999976158],"honeypot":0,"survey":"mace","page":2,"trial_type":"survey-mace","trial_index":10,"time_elapsed":407454,"internal_node_id":"0.0-10.0","task_version":"prescreen-v0.3","browser_interactions":0},{"responses":{"01":"No","02":"No","03":"No","04":"No"},"rt":8417.5,"item_order":[0,1,2,3],"radio_events":[3058.5999999940395,4263.800000011921,5616.9000000059605,6823.9000000059605],"checkbox_events":[],"key_events":[],"mouse_events":[3058.5999999940395,4263.800000011921,5616.9000000059605,6823.9000000059605,8416.09999999404],"honeypot":0,"survey":"mace","page":3,"trial_type":"survey-mace","trial_index":11,"time_elapsed":415873,"internal_node_id":"0.0-11.0","task_version":"prescreen-v0.3","browser_interactions":0},{"responses":{"01":"No","02":"No"},"rt":9229,"item_order":[0,1],"radio_events":[6272.300000011921,7815.0999999940395],"checkbox_events":[],"key_events":[],"mouse_events":[2572.300000011921,4035.2000000178814,5140.200000017881,6272.300000011921,7815.0999999940395,9228.200000017881],"honeypot":0,"survey":"mace","page":4,"trial_type":"survey-mace","trial_index":12,"time_elapsed":425104,"internal_node_id":"0.0-12.0","task_version":"prescreen-v0.3","browser_interactions":0},{"responses":{"01":"No","02":"No","03":"No","04":"No","05":"No"},"rt":22467.899999976158,"item_order":[0,1,2,3,4],"radio_events":[9989.699999988079,11709.699999988079,16116.299999982119,19172.5,21238.69999998808],"checkbox_events":[],"key_events":[],"mouse_events":[8009.299999982119,9989.699999988079,11709.699999988079,16116.299999982119,19172.5,21238.69999998808,22466.09999999404],"honeypot":0,"survey":"mace","page":5,"trial_type":"survey-mace","trial_index":13,"time_elapsed":447575,"internal_node_id":"0.0-13.0","task_version":"prescreen-v0.3","browser_interactions":0},{"responses":{"01":"Yes","01_ages_8":"8","01_ages_9":"9","01_ages_10":"10","01_ages_11":"11","01_ages_12":"12","01_ages_13":"13","01_ages_14":"14","01_ages_15":"15","01_ages_16":"16","01_ages_17":"17","01_ages_18":"18","02":"Yes","02_ages_8":"8","02_ages_9":"9","02_ages_10":"10","02_ages_11":"11","02_ages_12":"12","02_ages_13":"13","02_ages_14":"14","02_ages_15":"15","02_ages_16":"16","02_ages_17":"17","02_ages_18":"18","03":"No","04":"Yes","04_ages_12":"12","04_ages_13":"13","04_ages_14":"14","04_ages_15":"15","04_ages_16":"16","04_ages_17":"17","04_ages_18":"18","05":"Yes","05_ages_12":"12","05_ages_13":"13","05_ages_14":"14","05_ages_15":"15","05_ages_16":"16","05_ages_17":"17","05_ages_18":"18"},"rt":66864.40000000596,"item_order":[0,1,2,3,4],"radio_events":[6002.299999982119,23883.79999998212,42849.29999998212,45035.90000000596,53723.79999998212],"checkbox_events":[7602,8620.90000000596,9617.40000000596,10758,11850,12831.5,14007.5,17213,18121.90000000596,18997.69999998808,22392.19999998808,25677,26939.09999999404,28114.90000000596,29348.19999998808,30281.29999998212,31428.69999998808,32455.90000000596,33430.69999998808,34389.90000000596,35372.69999998808,36281.69999998808,46534.19999998808,47653.90000000596,48472.19999998808,49276.19999998808,50114.29999998212,51026.29999998212,51872.09999999404,57860.59999999404,58922.5,60026.5,61008.79999998212,63928.59999999404,64902.29999998212,65830],"key_events":[],"mouse_events":[6002.299999982119,7602,8620.90000000596,9617.40000000596,10758,11850,12831.5,14007.5,16222.90000000596,17213,18121.90000000596,18997.69999998808,20018.29999998212,21072.19999998808,22392.19999998808,23883.79999998212,25677,26939.09999999404,28114.90000000596,29348.19999998808,30281.29999998212,31428.69999998808,32455.90000000596,33430.69999998808,34389.90000000596,35372.69999998808,36281.69999998808,42849.29999998212,45035.90000000596,46534.19999998808,47653.90000000596,48472.19999998808,49276.19999998808,50114.29999998212,51026.29999998212,51872.09999999404,53723.79999998212,57860.59999999404,58922.5,60026.5,61008.79999998212,61969.5,62940,63928.59999999404,64902.29999998212,65830,66862.69999998808],"honeypot":0,"survey":"mace","page":6,"trial_type":"survey-mace","trial_index":14,"time_elapsed":514442,"internal_node_id":"0.0-14.0","task_version":"prescreen-v0.3","browser_interactions":0},{"responses":{"01":"Yes","01_ages_15":"15","01_ages_16":"16","02":"No","03":"No","04":"No","05":"No","06":"No","07":"No"},"rt":32340.29999998212,"item_order":[0,1,2,3,4,5,6],"radio_events":[6019.799999982119,17605.59999999404,23097.90000000596,24433.5,26270,29747.69999998808,31098.29999998212],"checkbox_events":[10049.799999982119,12596.90000000596],"key_events":[],"mouse_events":[6019.799999982119,10049.799999982119,11261.699999988079,12596.90000000596,17605.59999999404,19808.79999998212,20971.09999999404,22011.09999999404,23097.90000000596,24433.5,26270,29747.69999998808,31098.29999998212,32337.79999998212],"honeypot":0,"survey":"mace","page":7,"trial_type":"survey-mace","trial_index":15,"time_elapsed":546786,"internal_node_id":"0.0-15.0","task_version":"prescreen-v0.3","browser_interactions":0},{"responses":{"01":"Yes","01_ages_12":"12","01_ages_13":"13","01_ages_14":"14","01_ages_15":"15","01_ages_16":"16","01_ages_17":"17","01_ages_18":"18","02":"Yes","02_ages_12":"12","02_ages_13":"13","02_ages_14":"14","02_ages_15":"15","02_ages_16":"16","02_ages_17":"17","02_ages_18":"18","03":"Yes","03_ages_12":"12","03_ages_13":"13","03_ages_14":"14","03_ages_15":"15","03_ages_16":"16","03_ages_17":"17","03_ages_18":"18","04":"Yes","04_ages_12":"12","04_ages_13":"13","04_ages_14":"14","04_ages_15":"15","04_ages_16":"16","04_ages_17":"17","04_ages_18":"18"},"rt":57175.5,"item_order":[0,1,2,3],"radio_events":[9190,23544.70000001788,35400.30000001192,47334.5],"checkbox_events":[12137.09999999404,13012,15055.800000011921,15996,16914.40000000596,17853.30000001192,18778.80000001192,25106.70000001788,27647.5,28486.20000001788,29625.80000001192,30859.80000001192,32050.09999999404,33096.20000001788,37150.5,38092.5,39682.90000000596,41582.90000000596,42478.09999999404,44789,45764.70000001788,48761.70000001788,49872.90000000596,50755.09999999404,51959.09999999404,52878.59999999404,53825.09999999404,54734.59999999404],"key_events":[],"mouse_events":[9190,12137.09999999404,13012,14009,15055.800000011921,15996,16914.40000000596,17853.30000001192,18778.80000001192,23544.70000001788,25106.70000001788,26721.20000001788,27647.5,28486.20000001788,29625.80000001192,30859.80000001192,32050.09999999404,33096.20000001788,35400.30000001192,37150.5,38092.5,39682.90000000596,40722.59999999404,41582.90000000596,42478.09999999404,43748.5,44789,45764.70000001788,47334.5,48761.70000001788,49872.90000000596,50755.09999999404,51959.09999999404,52878.59999999404,53825.09999999404,54734.59999999404,57174.20000001788],"honeypot":0,"survey":"mace","page":8,"trial_type":"survey-mace","trial_index":16,"time_elapsed":603965,"internal_node_id":"0.0-16.0","task_version":"prescreen-v0.3","browser_interactions":0},{"responses":{"01":"Yes","01_ages_1":"1","01_ages_2":"2","01_ages_3":"3","01_ages_4":"4","01_ages_5":"5","01_ages_6":"6","01_ages_7":"7","01_ages_8":"8","01_ages_9":"9","01_ages_10":"10","01_ages_11":"11","01_ages_12":"12","01_ages_13":"13","01_ages_14":"14","01_ages_15":"15","01_ages_16":"16","01_ages_17":"17","01_ages_18":"18","02":"Yes","02_ages_1":"1","02_ages_2":"2","02_ages_3":"3","02_ages_4":"4","02_ages_5":"5","02_ages_6":"6","02_ages_7":"7","02_ages_8":"8","02_ages_9":"9","02_ages_10":"10","02_ages_11":"11","02_ages_12":"12","02_ages_13":"13","02_ages_14":"14","02_ages_15":"15","02_ages_16":"16","02_ages_17":"17","02_ages_18":"18","03":"Yes","03_ages_1":"1","03_ages_2":"2","03_ages_3":"3","03_ages_4":"4","03_ages_5":"5","03_ages_6":"6","03_ages_7":"7","03_ages_8":"8","03_ages_9":"9","03_ages_10":"10","03_ages_11":"11","03_ages_12":"12","03_ages_13":"13","03_ages_14":"14","03_ages_15":"15","03_ages_16":"16","03_ages_17":"17","03_ages_18":"18","04":"Yes","04_ages_1":"1","04_ages_2":"2","04_ages_3":"3","04_ages_4":"4","04_ages_5":"5","04_ages_6":"6","04_ages_7":"7","04_ages_8":"8","04_ages_9":"9","04_ages_10":"10","04_ages_11":"11","04_ages_12":"12","04_ages_13":"13","04_ages_14":"14","04_ages_15":"15","04_ages_16":"16","04_ages_17":"17","04_ages_18":"18"},"rt":85432.69999998808,"item_order":[0,1,2,3],"radio_events":[3723.7999999821186,29896,56134.79999998212,72313.89999997616],"checkbox_events":[6672.699999988079,7649,8494.399999976158,9591.59999999404,10645.799999982119,11599.59999999404,12451.199999988079,13413.899999976158,15356.799999982119,16453.69999998808,18303.399999976158,19579.69999998808,22189.5,23164.59999999404,24304.59999999404,25524.19999998808,26512.59999999404,27473.29999998212,39099,40066.29999998212,40984.59999999404,42993.5,44556.19999998808,45460.39999997616,46421.39999997616,47353.69999998808,49687.59999999404,50295.69999998808,50836.69999998808,51388.59999999404,51847.19999998808,52398.69999998808,52935.89999997616,53453.39999997616,53922.69999998808,54994.79999998212,57491,57988.89999997616,58482.5,58956,59378.89999997616,59839.69999998808,60899.59999999404,61371.69999998808,61866.89999997616,62809.5,63371.69999998808,63979.79999998212,65048.79999998212,65855.69999998808,66475.79999998212,67043.79999998212,67752.69999998808,68304.39999997616,73416.89999997616,74323,74782.89999997616,75824,76269,76949.29999998212,77568,78020,78537.89999997616,79162.89999997616,79753.89999997616,80390,81162.69999998808,81819,83102.89999997616,83632.09999999404,84229.79999998212,84764.89999997616],"key_events":[],"mouse_events":[3723.7999999821186,6672.699999988079,7649,8494.399999976158,9591.59999999404,10645.799999982119,11599.59999999404,12451.199999988079,13413.899999976158,14193.899999976158,15356.799999982119,16453.69999998808,17249.399999976158,18303.399999976158,19579.69999998808,20832.79999998212,22189.5,23164.59999999404,24304.59999999404,25524.19999998808,26512.59999999404,27473.29999998212,29499.29999998212,29896,39099,40066.29999998212,40984.59999999404,41945.59999999404,42993.5,44556.19999998808,45460.39999997616,46421.39999997616,47353.69999998808,49687.59999999404,50295.69999998808,50836.69999998808,51388.59999999404,51847.19999998808,52398.69999998808,52935.89999997616,53453.39999997616,53922.69999998808,54528.59999999404,54994.79999998212,56134.79999998212,57491,57988.89999997616,58482.5,58956,59378.89999997616,59839.69999998808,60299.79999998212,60899.59999999404,61371.69999998808,61866.89999997616,62387.69999998808,62809.5,63371.69999998808,63979.79999998212,64462,65048.79999998212,65500.79999998212,65855.69999998808,66475.79999998212,67043.79999998212,67752.69999998808,68304.39999997616,72313.89999997616,73416.89999997616,73840.19999998808,74323,74782.89999997616,75443.79999998212,75824,76269,76949.29999998212,77568,78020,78537.89999997616,79162.89999997616,79753.89999997616,80390,81162.69999998808,81819,82669,83102.89999997616,83632.09999999404,84229.79999998212,84764.89999997616,85431.19999998808],"honeypot":0,"survey":"mace","page":9,"trial_type":"survey-mace","trial_index":17,"time_elapsed":689400,"internal_node_id":"0.0-17.0","task_version":"prescreen-v0.3","browser_interactions":0},{"responses":{"01":"No","02":"No","03":"Yes","03_ages_16":"16","03_ages_17":"17","03_ages_18":"18","04":"Yes","04_ages_1":"1","04_ages_2":"2","04_ages_3":"3","04_ages_4":"4","04_ages_5":"5","04_ages_6":"6","04_ages_7":"7","04_ages_8":"8","04_ages_9":"9","04_ages_10":"10","04_ages_11":"11","04_ages_12":"12","04_ages_13":"13","04_ages_14":"14","04_ages_15":"15","04_ages_16":"16","04_ages_17":"17","04_ages_18":"18","05":"No","06":"Yes","06_ages_17":"17","07":"Yes","07_ages_1":"1","07_ages_2":"2","07_ages_3":"3","07_ages_4":"4","07_ages_5":"5","07_ages_6":"6","07_ages_7":"7","07_ages_8":"8","07_ages_9":"9","07_ages_10":"10","07_ages_11":"11","07_ages_12":"12","07_ages_13":"13","07_ages_14":"14","07_ages_15":"15","07_ages_16":"16","07_ages_17":"17","07_ages_18":"18","08":"Yes","08_ages_1":"1","08_ages_2":"2","08_ages_3":"3","08_ages_4":"4","08_ages_5":"5","08_ages_6":"6","08_ages_7":"7","08_ages_8":"8","08_ages_9":"9","08_ages_10":"10","08_ages_11":"11","08_ages_12":"12","08_ages_13":"13","08_ages_14":"14","08_ages_15":"15","08_ages_16":"16","08_ages_17":"17","08_ages_18":"18"},"rt":71236,"item_order":[0,1,2,3,4,5,6,7],"radio_events":[5295.5999999940395,6822.5,12109.5,19962.69999998808,36586.89999997616,39232.69999998808,44086.79999998212,57751.89999997616],"checkbox_events":[13932.09999999404,15667,16513.899999976158,22760.79999998212,23186.899999976158,23655.69999998808,24113.79999998212,24559.79999998212,25000.69999998808,25424.69999998808,25880.899999976158,26309.29999998212,26801.69999998808,27317.69999998808,28194.79999998212,28593.899999976158,29104.29999998212,29601,30713.899999976158,31327.29999998212,31887.79999998212,40589.89999997616,45250.79999998212,45623.89999997616,46171.69999998808,46838.79999998212,47242.79999998212,47745.59999999404,48269.69999998808,48720.79999998212,49202.69999998808,49858.89999997616,50607.89999997616,51980,52451,52948.39999997616,53508.59999999404,53970.29999998212,54529.89999997616,54976.29999998212,58889.89999997616,59330.89999997616,59784.89999997616,60854,61360,61844,62444.09999999404,62883,63882,64403.39999997616,64923,65949.89999997616,66671.89999997616,67273.89999997616,67881.69999998808,68389.89999997616,68876,69349],"key_events":[],"mouse_events":[5295.5999999940395,6822.5,11235,12109.5,13932.09999999404,14791.399999976158,15667,16513.899999976158,19962.69999998808,22760.79999998212,23186.899999976158,23655.69999998808,24113.79999998212,24559.79999998212,25000.69999998808,25424.69999998808,25880.899999976158,26309.29999998212,26801.69999998808,27317.69999998808,27804.399999976158,28194.79999998212,28593.899999976158,29104.29999998212,29601,30713.899999976158,31327.29999998212,31887.79999998212,36586.89999997616,39232.69999998808,40589.89999997616,44086.79999998212,45250.79999998212,45623.89999997616,46171.69999998808,46838.79999998212,47242.79999998212,47745.59999999404,48269.69999998808,48720.79999998212,49202.69999998808,49858.89999997616,50607.89999997616,51503.79999998212,51980,52451,52948.39999997616,53508.59999999404,53970.29999998212,54529.89999997616,54976.29999998212,57751.89999997616,58889.89999997616,59330.89999997616,59784.89999997616,60456.59999999404,60854,61360,61844,62444.09999999404,62883,63441,63882,64403.39999997616,64923,65479,65949.89999997616,66671.89999997616,67273.89999997616,67881.69999998808,68389.89999997616,68876,69349,71233],"honeypot":0,"survey":"mace","page":10,"trial_type":"survey-mace","trial_index":18,"time_elapsed":760639,"internal_node_id":"0.0-18.0","task_version":"prescreen-v0.3","browser_interactions":0,"instructed":0},{"rt":8934.199999988079,"trial_type":"mental-health-alert","trial_index":19,"time_elapsed":769575,"internal_node_id":"0.0-19.0","task_version":"prescreen-v0.3","interactions":"[]"}]