[{"view_history":[{"page_index":0,"viewing_time":3500.10000000149},{"page_index":1,"viewing_time":961.8000000007451},{"page_index":2,"viewing_time":2290},{"page_index":3,"viewing_time":1061.7999999970198}],"rt":7814.60000000149,"trial_type":"instructions","trial_index":0,"time_elapsed":7820,"internal_node_id":"0.0-0.0","task_version":"prescreen-v0.3"},{"rt":16277.5,"responses":{"age":"26","gender-categorical":"Female","gender-free-response":"","ethnicity":"Not Hispanic or Latino","race":["White"],"education":"Bachelor degree"},"trial_type":"survey-demo","trial_index":1,"time_elapsed":24102,"internal_node_id":"0.0-1.0","task_version":"prescreen-v0.3"},{"responses":{"Q16":"2","Q07":"2","Q20":"1","Q12":"2","Q02":"0","Q03":"0","Q06":"1","Q01":"0","Q14":"2","Q08":"2","Q13":"1","Q21":"1","Q09":"1","Q17":"1","Q05":"0","Q15":"0","Q04":"1","Q18":"1","Q10":"0","Q11":"1","Q19":"1"},"rt":121790,"item_order":[15,6,19,11,1,2,5,0,13,7,12,20,8,16,4,14,3,17,9,10,18],"radio_events":[27220.5,31187.29999999702,32679.699999999255,35412.29999999702,36514.89999999851,39980.89999999851,41199.699999999255,44985.699999999255,45636.599999997765,80323.09999999776,81089.39999999851,83170.89999999851,85788.69999999925,88052.39999999851,88537.29999999702,89213.39999999851,90366.09999999776,90818.59999999776,113390.09999999776,114246,116608.5,117473,117942.19999999925,118904.79999999702,119777.59999999776],"key_events":[],"mouse_events":[27220.5,28810.699999999255,31187.29999999702,32679.699999999255,35412.29999999702,36514.89999999851,37133.099999997765,39156.39999999851,39980.89999999851,40449.79999999702,41199.699999999255,41635.199999999255,44985.699999999255,45636.599999997765,80323.09999999776,81089.39999999851,83170.89999999851,85788.69999999925,86233.39999999851,88052.39999999851,88537.29999999702,89213.39999999851,90366.09999999776,90818.59999999776,113390.09999999776,114246,116608.5,117473,117942.19999999925,118904.79999999702,119777.59999999776,121786.29999999702],"straightlining":0.47619047619047616,"zigzagging":0.45,"honeypot":0,"survey":"sns","trial_type":"survey-template","trial_index":2,"time_elapsed":145895,"internal_node_id":"0.0-2.0","task_version":"prescreen-v0.3","browser_interactions":0,"infrequency":1},{"responses":{"Q10":"0","Q03":"0","Q04":"0","Q07":"3","Q02":"3","Q13":"0","Q01":"0","Q08":"0","Q05":"1","Q11":"1","Q12":"1","Q09":"0","Q06":"0"},"rt":462396.90000000224,"item_order":[9,2,3,6,1,12,0,7,4,10,11,8,5],"radio_events":[139049.5,143333.40000000224,146108.1000000015,148660,151071.1000000015,151450.6000000015,153450.70000000298,456483.1000000015,457198.5,457890.80000000075,459183,460788.80000000075,461480.700000003],"key_events":[],"mouse_events":[139049.5,143333.40000000224,146108.1000000015,148660,150256.70000000298,151071.1000000015,151450.6000000015,152371.20000000298,153450.70000000298,456483.1000000015,457198.5,457890.80000000075,458465.80000000075,459183,460788.80000000075,461480.700000003,462394.5],"straightlining":0.6153846153846154,"zigzagging":0.3333333333333333,"honeypot":0,"survey":"bisbas","trial_type":"survey-template","trial_index":3,"time_elapsed":608324,"internal_node_id":"0.0-3.0","task_version":"prescreen-v0.3","browser_interactions":2,"infrequency":0},{"responses":{"Q01":"4","Q02":"2","Q03":"2"},"rt":68860.59999999776,"radio_events":[63287.099999997765,66958.80000000075,68044.39999999851],"key_events":[],"mouse_events":[63287.099999997765,66958.80000000075,68044.39999999851,68859.30000000075],"survey":"map","page":1,"trial_type":"survey-map","trial_index":4,"time_elapsed":677187,"internal_node_id":"0.0-4.0","task_version":"prescreen-v0.3","browser_interactions":0},{"responses":{"Q04":"3","Q05":"2","Q06":"2"},"rt":8016.800000000745,"radio_events":[4410.199999999255,6005.900000002235,6697.400000002235,7224.5],"key_events":[],"mouse_events":[2087.800000000745,4410.199999999255,5586.900000002235,6005.900000002235,6697.400000002235,7224.5,8015.699999999255],"survey":"map","page":2,"trial_type":"survey-map","trial_index":5,"time_elapsed":685206,"internal_node_id":"0.0-5.0","task_version":"prescreen-v0.3","browser_interactions":0},{"responses":{"Q07":"2","Q08":"2","Q09":"2"},"rt":15028,"radio_events":[7026.400000002235,13429.300000000745,14014.60000000149],"key_events":[],"mouse_events":[7026.400000002235,13429.300000000745,14014.60000000149,15026.900000002235],"survey":"map","page":3,"trial_type":"survey-map","trial_index":6,"time_elapsed":700236,"internal_node_id":"0.0-6.0","task_version":"prescreen-v0.3","browser_interactions":2},{"responses":{"Q10":"2","Q11":"2","Q12":"2","Q13":"0","Q16":"0","Q14":"0","Q15":"1"},"rt":72159.5,"radio_events":[60267.60000000149,61082.800000000745,62820,64251.800000000745,64853.400000002235,66896.5,67818.30000000075,71341.80000000075],"key_events":[],"mouse_events":[60267.60000000149,61082.800000000745,62375,62820,64251.800000000745,64853.400000002235,66896.5,67818.30000000075,71341.80000000075,72157.30000000075],"survey":"map","page":4,"trial_type":"survey-map","trial_index":7,"time_elapsed":772397,"internal_node_id":"0.0-7.0","task_version":"prescreen-v0.3","browser_interactions":4,"infrequency":0},{"view_history":[{"page_index":0,"viewing_time":1831.1000000014901},{"page_index":1,"viewing_time":7481}],"rt":9313.10000000149,"trial_type":"instructions","trial_index":8,"time_elapsed":781711,"internal_node_id":"0.0-8.0","task_version":"prescreen-v0.3"},{"responses":{"01":"Yes","01_ages_5":"5","02":"Yes","02_ages_12":"12","03":"Yes","03_ages_5":"5","04":"Yes","04_ages_4":"4","05":"No","06":"No"},"rt":272432.30000000075,"item_order":[0,1,2,3,4,5],"radio_events":[18527.099999997765,250347.8999999985,256225.30000000075,261278.19999999925,264721,266630.30000000075],"checkbox_events":[252373.80000000075,258448.30000000075,262118.80000000075,270186.5],"key_events":[],"mouse_events":[0.09999999776482582,18527.099999997765,248989.80000000075,250347.8999999985,252373.80000000075,256225.30000000075,257270.80000000075,258448.30000000075,261278.19999999925,262118.80000000075,264721,266630.30000000075,270186.5,272426.3999999985],"honeypot":0,"survey":"mace","page":1,"trial_type":"survey-mace","trial_index":9,"time_elapsed":1054146,"internal_node_id":"0.0-9.0","task_version":"prescreen-v0.3","browser_interactions":10},{"responses":{"01":"Yes","01_ages_4":"4","02":"Yes","02_ages_4":"4","03":"Yes","03_ages_5":"5","04":"Yes","04_ages_5":"5","05":"Yes","05_ages_4":"4","06":"Yes","06_ages_5":"5","07":"Yes","07_ages_5":"5","08":"No"},"rt":47922.5,"item_order":[0,1,2,3,4,5,6,7],"radio_events":[24027.20000000298,27081.300000000745,29370.5,32176.5,35757.70000000298,38267.300000000745,41163.800000000745,43692.70000000298,46591.20000000298],"checkbox_events":[25459.800000000745,28670.70000000298,30284,33641.800000000745,36918.10000000149,39733.5,42178.400000002235],"key_events":[],"mouse_events":[24027.20000000298,25459.800000000745,27081.300000000745,28670.70000000298,29370.5,30284,32176.5,33247.60000000149,33641.800000000745,34973.900000002235,35757.70000000298,36918.10000000149,38267.300000000745,39733.5,41163.800000000745,42178.400000002235,43692.70000000298,46591.20000000298,47916],"honeypot":0,"survey":"mace","page":2,"trial_type":"survey-mace","trial_index":10,"time_elapsed":1102071,"internal_node_id":"0.0-10.0","task_version":"prescreen-v0.3","browser_interactions":0},{"responses":{"01":"Yes","01_ages_8":"8","02":"Yes","02_ages_8":"8","03":"No","04":"Yes","04_ages_10":"10"},"rt":88558.69999999925,"item_order":[0,1,2,3],"radio_events":[64831.199999999255,67753.89999999851,69663.39999999851,73425.39999999851,77763.69999999925],"checkbox_events":[66066.19999999925,68740.29999999702,78692.69999999925,81459.59999999776,81805,82620.09999999776,84372.79999999702,84923.79999999702,85649.09999999776,86274.5,87352.39999999851],"key_events":[],"mouse_events":[64831.199999999255,66066.19999999925,67753.89999999851,68740.29999999702,69663.39999999851,73425.39999999851,77194.59999999776,77763.69999999925,78692.69999999925,81459.59999999776,81805,82255.5,82620.09999999776,84372.79999999702,84923.79999999702,85649.09999999776,86274.5,87352.39999999851,88554.79999999702],"honeypot":0,"survey":"mace","page":3,"trial_type":"survey-mace","trial_index":11,"time_elapsed":1190631,"internal_node_id":"0.0-11.0","task_version":"prescreen-v0.3","browser_interactions":0},{"responses":{"01":"Yes","01_ages_10":"10","02":"No"},"rt":93553.30000000075,"item_order":[0,1],"radio_events":[4023,92918.19999999925],"checkbox_events":[5317.10000000149],"key_events":[],"mouse_events":[4023,5317.10000000149,91535.69999999925,92918.19999999925,93551.19999999925],"honeypot":0,"survey":"mace","page":4,"trial_type":"survey-mace","trial_index":12,"time_elapsed":1284185,"internal_node_id":"0.0-12.0","task_version":"prescreen-v0.3","browser_interactions":0},{"responses":{"01":"Yes","01_ages_6":"6","02":"Yes","02_ages_5":"5","03":"No","04":"No","05":"No"},"rt":20703.5,"item_order":[0,1,2,3,4],"radio_events":[4433.800000000745,8028.900000002235,15702.5,18501.300000000745,19719.900000002235],"checkbox_events":[6104.20000000298,11365,12829.70000000298,14871.5],"key_events":[],"mouse_events":[4433.800000000745,6104.20000000298,8028.900000002235,11365,12829.70000000298,13833.20000000298,14871.5,15702.5,18501.300000000745,19719.900000002235,20698.60000000149],"honeypot":0,"survey":"mace","page":5,"trial_type":"survey-mace","trial_index":13,"time_elapsed":1304892,"internal_node_id":"0.0-13.0","task_version":"prescreen-v0.3","browser_interactions":0},{"responses":{"01":"Yes","01_ages_9":"9","01_ages_10":"10","01_ages_11":"11","02":"Yes","02_ages_10":"10","02_ages_11":"11","02_ages_12":"12","03":"Yes","03_ages_10":"10","03_ages_11":"11","04":"Yes","04_ages_10":"10","04_ages_11":"11","05":"No"},"rt":25510.699999999255,"item_order":[0,1,2,3,4],"radio_events":[3680.10000000149,7969.39999999851,12487.800000000745,14002.39999999851,15640.39999999851,18060,21549.800000000745],"checkbox_events":[5795.10000000149,6287.5,8882.300000000745,9219.39999999851,18760.199999999255,19055.89999999851,19912.10000000149,23112.300000000745,23492.5,24323.89999999851],"key_events":[],"mouse_events":[3680.10000000149,5351.10000000149,5795.10000000149,6287.5,7401.5,7969.39999999851,8882.300000000745,9219.39999999851,10331,10815.199999999255,12487.800000000745,14002.39999999851,15640.39999999851,18060,18760.199999999255,19055.89999999851,19912.10000000149,21549.800000000745,23112.300000000745,23492.5,23845.800000000745,24323.89999999851,25505.39999999851],"honeypot":0,"survey":"mace","page":6,"trial_type":"survey-mace","trial_index":14,"time_elapsed":1330405,"internal_node_id":"0.0-14.0","task_version":"prescreen-v0.3","browser_interactions":0},{"responses":{"01":"No","02":"No","03":"No","04":"No","05":"No","06":"No","07":"No"},"rt":24680.199999999255,"item_order":[0,1,2,3,4,5,6],"radio_events":[3193.39999999851,5884.5,9308.39999999851,11621.099999997765,14526.29999999702,16098.89999999851,23448.79999999702],"checkbox_events":[],"key_events":[],"mouse_events":[3193.39999999851,5884.5,7563.099999997765,9308.39999999851,11621.099999997765,12716.5,14526.29999999702,15070,16098.89999999851,18016.79999999702,18938.199999999255,20016.29999999702,20922.199999999255,23448.79999999702,24673.699999999255],"honeypot":0,"survey":"mace","page":7,"trial_type":"survey-mace","trial_index":15,"time_elapsed":1355089,"internal_node_id":"0.0-15.0","task_version":"prescreen-v0.3","browser_interactions":0},{"responses":{"01":"Yes","01_ages_10":"10","01_ages_11":"11","01_ages_12":"12","02":"Yes","02_ages_8":"8","02_ages_9":"9","02_ages_10":"10","02_ages_11":"11","02_ages_12":"12","03":"Yes","03_ages_8":"8","03_ages_9":"9","03_ages_10":"10","03_ages_11":"11","03_ages_12":"12","03_ages_13":"13","04":"Yes","04_ages_8":"8","04_ages_9":"9","04_ages_10":"10","04_ages_11":"11","04_ages_12":"12","04_ages_13":"13"},"rt":27234.79999999702,"item_order":[0,1,2,3],"radio_events":[4023.2999999970198,10485.199999999255,19235.39999999851,22790],"checkbox_events":[6197.39999999851,6493.5,6799.199999999255,7308.79999999702,7802.199999999255,8132.5,11786.199999999255,12313.29999999702,13604.099999997765,14058.29999999702,14666.89999999851,15415.79999999702,20494,20789.599999997765,21095.099999997765,21416.5,21727.099999997765,24758,25095.5,25777.699999999255],"key_events":[],"mouse_events":[4023.2999999970198,6197.39999999851,6493.5,6799.199999999255,7308.79999999702,7802.199999999255,8132.5,10485.199999999255,11424.39999999851,11786.199999999255,12313.29999999702,13134.79999999702,13604.099999997765,14058.29999999702,14666.89999999851,14980.099999997765,15415.79999999702,19235.39999999851,20494,20789.599999997765,21095.099999997765,21416.5,21727.099999997765,22790,24428.89999999851,24758,25095.5,25777.699999999255,27230.89999999851],"honeypot":0,"survey":"mace","page":8,"trial_type":"survey-mace","trial_index":16,"time_elapsed":1382326,"internal_node_id":"0.0-16.0","task_version":"prescreen-v0.3","browser_interactions":0},{"responses":{"01":"No","02":"No","03":"No","04":"No"},"rt":12161.800000000745,"item_order":[0,1,2,3],"radio_events":[5080,7573.300000000745,9630.60000000149,11087.800000000745],"checkbox_events":[],"key_events":[],"mouse_events":[5080,7573.300000000745,9630.60000000149,11087.800000000745,12157.900000002235],"honeypot":0,"survey":"mace","page":9,"trial_type":"survey-mace","trial_index":17,"time_elapsed":1394490,"internal_node_id":"0.0-17.0","task_version":"prescreen-v0.3","browser_interactions":0},{"responses":{"01":"No","02":"No","03":"No","04":"Yes","04_ages_9":"9","05":"Yes","05_ages_9":"9","05_ages_10":"10","06":"Yes","06_ages_17":"17","07":"No","08":"No"},"rt":44395.099999997765,"item_order":[0,1,2,3,4,5,6,7],"radio_events":[7110.699999999255,8487.099999997765,10018,13283.39999999851,18725.79999999702,22468.29999999702,40025.099999997765,42438.29999999702,43730.199999999255],"checkbox_events":[14791.29999999702,20232.39999999851,21679.199999999255,24344.29999999702],"key_events":[],"mouse_events":[7110.699999999255,8487.099999997765,10018,13283.39999999851,14791.29999999702,18725.79999999702,19762.599999997765,20232.39999999851,20651.099999997765,21679.199999999255,22468.29999999702,23820.5,24344.29999999702,40025.099999997765,42438.29999999702,43730.199999999255,44388],"honeypot":0,"survey":"mace","page":10,"trial_type":"survey-mace","trial_index":18,"time_elapsed":1438888,"internal_node_id":"0.0-18.0","task_version":"prescreen-v0.3","browser_interactions":2,"instructed":0},{"rt":2566.800000000745,"trial_type":"mental-health-alert","trial_index":19,"time_elapsed":1441457,"internal_node_id":"0.0-19.0","task_version":"prescreen-v0.3","interactions":"[{\"event\":\"blur\",\"trial\":3,\"time\":553697},{\"event\":\"focus\",\"trial\":3,\"time\":556883},{\"event\":\"blur\",\"trial\":6,\"time\":695336},{\"event\":\"focus\",\"trial\":6,\"time\":697199},{\"event\":\"blur\",\"trial\":7,\"time\":721625},{\"event\":\"focus\",\"trial\":7,\"time\":738738},{\"event\":\"blur\",\"trial\":7,\"time\":739483},{\"event\":\"focus\",\"trial\":7,\"time\":740804},{\"event\":\"blur\",\"trial\":9,\"time\":788167},{\"event\":\"focus\",\"trial\":9,\"time\":796904},{\"event\":\"blur\",\"trial\":9,\"time\":801608},{\"event\":\"focus\",\"trial\":9,\"time\":962885},{\"event\":\"blur\",\"trial\":9,\"time\":963252},{\"event\":\"focus\",\"trial\":9,\"time\":964835},{\"event\":\"blur\",\"trial\":9,\"time\":965603},{\"event\":\"focus\",\"trial\":9,\"time\":1027577},{\"event\":\"blur\",\"trial\":9,\"time\":1028109},{\"event\":\"focus\",\"trial\":9,\"time\":1028630},{\"event\":\"blur\",\"trial\":18,\"time\":1424203},{\"event\":\"focus\",\"trial\":18,\"time\":1431774}]"}]