[{"view_history":[{"page_index":0,"viewing_time":8358.400000002235},{"page_index":1,"viewing_time":2466.199999999255},{"page_index":2,"viewing_time":3206.199999999255},{"page_index":3,"viewing_time":1327.300000000745}],"rt":15359.800000000745,"trial_type":"instructions","trial_index":0,"time_elapsed":15371,"internal_node_id":"0.0-0.0","task_version":"prescreen-v0.3"},{"rt":18214.400000002235,"responses":{"age":"18","gender-categorical":"Female","gender-free-response":"","ethnicity":"Hispanic or Latino","race":["White"],"education":"Some college"},"trial_type":"survey-demo","trial_index":1,"time_elapsed":33594,"internal_node_id":"0.0-1.0","task_version":"prescreen-v0.3"},{"responses":{"Q14":"2","Q13":"2","Q16":"3","Q03":"2","Q21":"3","Q11":"2","Q01":"2","Q05":"1","Q18":"1","Q07":"0","Q20":"1","Q19":"1","Q12":"3","Q09":"2","Q02":"2","Q10":"3","Q08":"1","Q17":"1","Q15":"3","Q04":"2","Q06":"2"},"rt":218397.6000000015,"item_order":[13,12,15,2,20,10,0,4,17,6,19,18,11,8,1,9,7,16,14,3,5],"radio_events":[6142.400000002235,11781.900000002235,19185.400000002235,25111.199999999255,25997,26707.400000002235,31987.199999999255,40739,42959.800000000745,55913.199999999255,73919.60000000149,89075.69999999925,99782.30000000075,120443.40000000224,128151.30000000075,157253.6000000015,164293.6000000015,168768.90000000224,173651.5,176609.69999999925,180360.1000000015,192357.1000000015,195022.69999999925,204051.30000000075,216968],"key_events":[],"mouse_events":[6142.400000002235,11781.900000002235,19185.400000002235,25111.199999999255,25997,26707.400000002235,31987.199999999255,40739,42959.800000000745,55913.199999999255,73186.40000000224,73919.60000000149,87992.69999999925,89075.69999999925,99782.30000000075,120443.40000000224,128151.30000000075,157253.6000000015,163787.80000000075,164293.6000000015,168768.90000000224,173651.5,176609.69999999925,180360.1000000015,192357.1000000015,195022.69999999925,204051.30000000075,216968,218392.30000000075],"straightlining":0.42857142857142855,"zigzagging":0.5,"honeypot":0,"survey":"sns","trial_type":"survey-template","trial_index":2,"time_elapsed":252000,"internal_node_id":"0.0-2.0","task_version":"prescreen-v0.3","browser_interactions":0,"infrequency":0},{"responses":{"Q11":"1","Q05":"3","Q09":"1","Q12":"0","Q03":"3","Q04":"3","Q01":"3","Q08":"2","Q10":"2","Q13":"0","Q07":"3","Q06":"3","Q02":"2"},"rt":175243.69999999925,"item_order":[10,4,8,11,2,3,0,7,9,12,6,5,1],"radio_events":[18555.800000000745,24506.800000000745,35794.199999999255,37471.900000002235,122929.40000000224,130758.40000000224,134868.69999999925,137136.90000000224,144272.1000000015,148768.5,154000.80000000075,162187.1000000015,170879.5,174171.6000000015],"key_events":[],"mouse_events":[18555.800000000745,24506.800000000745,35794.199999999255,37471.900000002235,122469.5,122929.40000000224,130758.40000000224,134868.69999999925,137136.90000000224,144272.1000000015,148768.5,154000.80000000075,162187.1000000015,170879.5,174171.6000000015,175240.69999999925],"straightlining":0.46153846153846156,"zigzagging":0.4166666666666667,"honeypot":0,"survey":"bisbas","trial_type":"survey-template","trial_index":3,"time_elapsed":427250,"internal_node_id":"0.0-3.0","task_version":"prescreen-v0.3","browser_interactions":0,"infrequency":0},{"responses":{"Q01":"3","Q02":"3","Q03":"2"},"rt":48645.60000000149,"radio_events":[7404.800000000745,22320.900000002235,47271],"key_events":[],"mouse_events":[7404.800000000745,22320.900000002235,47271,48644.5],"survey":"map","page":1,"trial_type":"survey-map","trial_index":4,"time_elapsed":475901,"internal_node_id":"0.0-4.0","task_version":"prescreen-v0.3","browser_interactions":0},{"responses":{"Q04":"2","Q05":"2","Q06":"3"},"rt":36588.60000000149,"radio_events":[13075.10000000149,30912.300000000745,35597.70000000298],"key_events":[],"mouse_events":[13075.10000000149,30912.300000000745,35597.70000000298,36587.300000000745],"survey":"map","page":2,"trial_type":"survey-map","trial_index":5,"time_elapsed":512493,"internal_node_id":"0.0-5.0","task_version":"prescreen-v0.3","browser_interactions":0},{"responses":{"Q07":"4","Q08":"3","Q09":"0"},"rt":78952.5,"radio_events":[9166.300000000745,58699,59751.800000000745,77790.10000000149],"key_events":[],"mouse_events":[9166.300000000745,58699,59751.800000000745,77790.10000000149,78951.10000000149],"survey":"map","page":3,"trial_type":"survey-map","trial_index":6,"time_elapsed":591449,"internal_node_id":"0.0-6.0","task_version":"prescreen-v0.3","browser_interactions":0},{"responses":{"Q10":"2","Q11":"3","Q12":"3","Q13":"2","Q16":"0","Q14":"2","Q15":"1"},"rt":80496.79999999702,"radio_events":[6952.29999999702,16621.79999999702,23142.099999997765,32850,37356.199999999255,63906.39999999851,66510,79237],"key_events":[],"mouse_events":[6952.29999999702,16621.79999999702,23142.099999997765,32850,37356.199999999255,63906.39999999851,66510,79237,80494.19999999925],"survey":"map","page":4,"trial_type":"survey-map","trial_index":7,"time_elapsed":671952,"internal_node_id":"0.0-7.0","task_version":"prescreen-v0.3","browser_interactions":0,"infrequency":0},{"view_history":[{"page_index":0,"viewing_time":2661.300000000745},{"page_index":1,"viewing_time":4050.699999999255}],"rt":6713.20000000298,"trial_type":"instructions","trial_index":8,"time_elapsed":678667,"internal_node_id":"0.0-8.0","task_version":"prescreen-v0.3"},{"responses":{"01":"No","02":"Yes","02_ages_12":"12","02_ages_13":"13","02_ages_16":"16","02_ages_17":"17","02_ages_18":"18","03":"Yes","03_ages_6":"6","03_ages_7":"7","03_ages_11":"11","03_ages_12":"12","03_ages_13":"13","03_ages_14":"14","04":"No","05":"No","06":"Yes","06_ages_6":"6","06_ages_7":"7","06_ages_11":"11","06_ages_12":"12","06_ages_13":"13","06_ages_14":"14"},"rt":90627.39999999851,"item_order":[0,1,2,3,4,5],"radio_events":[13023.199999999255,16661,48275.60000000149,67461.30000000075,73254.60000000149,78586.19999999925],"checkbox_events":[23475.10000000149,28835.300000000745,29436.300000000745,35273.300000000745,40370.199999999255,41336.5,43203.300000000745,52056.199999999255,54325.199999999255,59190.89999999851,60529.89999999851,60941.39999999851,80422.19999999925,80831.30000000075,82154.89999999851,82621.60000000149,83421,86094.60000000149,87386.39999999851],"key_events":[],"mouse_events":[0.10000000149011612,13023.199999999255,16661,23475.10000000149,28835.300000000745,29436.300000000745,35273.300000000745,40370.199999999255,41336.5,43203.300000000745,48275.60000000149,52056.199999999255,54325.199999999255,59190.89999999851,60529.89999999851,60941.39999999851,67461.30000000075,73254.60000000149,78586.19999999925,80422.19999999925,80831.30000000075,82154.89999999851,82621.60000000149,83421,86094.60000000149,87386.39999999851,90620.89999999851],"honeypot":0,"survey":"mace","page":1,"trial_type":"survey-mace","trial_index":9,"time_elapsed":769304,"internal_node_id":"0.0-9.0","task_version":"prescreen-v0.3","browser_interactions":0},{"responses":{"01":"Yes","01_ages_6":"6","01_ages_7":"7","01_ages_11":"11","01_ages_12":"12","01_ages_13":"13","02":"No","03":"Yes","03_ages_6":"6","03_ages_7":"7","03_ages_11":"11","03_ages_12":"12","03_ages_13":"13","04":"No","05":"Yes","05_ages_6":"6","05_ages_7":"7","05_ages_11":"11","05_ages_12":"12","05_ages_13":"13","06":"No","07":"Yes","07_ages_15":"15","07_ages_16":"16","08":"Yes","08_ages_15":"15","08_ages_16":"16"},"rt":89754,"item_order":[0,1,2,3,4,5,6,7],"radio_events":[5034.5,27594.10000000149,30436.699999999255,39718.300000000745,42851.199999999255,51294.400000002235,53058.300000000745,60117.5,84697.80000000075],"checkbox_events":[6497.5,6854,7288.800000000745,14949.699999999255,16342.900000002235,16824.699999999255,17837.900000002235,32644.5,33312.5,37851.800000000745,38420.699999999255,38855.699999999255,43800.900000002235,44257.699999999255,45636.699999999255,46093.5,47161.699999999255,66843.40000000224,67689.69999999925,69343.40000000224,70165.5,88060.5,88526.60000000149],"key_events":[],"mouse_events":[5034.5,6497.5,6854,7288.800000000745,14949.699999999255,16342.900000002235,16824.699999999255,17837.900000002235,27594.10000000149,30436.699999999255,32215.300000000745,32644.5,33312.5,37851.800000000745,38420.699999999255,38855.699999999255,39718.300000000745,42851.199999999255,43800.900000002235,44257.699999999255,45636.699999999255,46093.5,46775.400000002235,47161.699999999255,51294.400000002235,53058.300000000745,60117.5,66843.40000000224,67689.69999999925,69343.40000000224,70165.5,84697.80000000075,88060.5,88526.60000000149,89745.80000000075],"honeypot":0,"survey":"mace","page":2,"trial_type":"survey-mace","trial_index":10,"time_elapsed":859064,"internal_node_id":"0.0-10.0","task_version":"prescreen-v0.3","browser_interactions":0},{"responses":{"01":"Yes","01_ages_16":"16","01_ages_17":"17","01_ages_18":"18","02":"No","03":"No","04":"No"},"rt":34303.699999999255,"item_order":[0,1,2,3],"radio_events":[5744.5,29211.5,31798.699999999255,33737.300000000745],"checkbox_events":[19668.800000000745,20347.199999999255,23068.89999999851],"key_events":[],"mouse_events":[5744.5,19668.800000000745,20347.199999999255,23068.89999999851,29211.5,31798.699999999255,33737.300000000745,34299.39999999851],"honeypot":0,"survey":"mace","page":3,"trial_type":"survey-mace","trial_index":11,"time_elapsed":893373,"internal_node_id":"0.0-11.0","task_version":"prescreen-v0.3","browser_interactions":0},{"responses":{"01":"No","02":"No"},"rt":13121.599999997765,"item_order":[0,1],"radio_events":[11665,12284.800000000745],"checkbox_events":[],"key_events":[],"mouse_events":[8701.699999999255,11665,12284.800000000745,13119],"honeypot":0,"survey":"mace","page":4,"trial_type":"survey-mace","trial_index":12,"time_elapsed":906499,"internal_node_id":"0.0-12.0","task_version":"prescreen-v0.3","browser_interactions":0},{"responses":{"01":"No","02":"No","03":"No","04":"No","05":"No"},"rt":24789.60000000149,"item_order":[0,1,2,3,4],"radio_events":[11101.900000002235,14030.800000000745,16990.10000000149,20471.5,23422.800000000745],"checkbox_events":[],"key_events":[],"mouse_events":[11101.900000002235,14030.800000000745,16990.10000000149,20471.5,23422.800000000745,24783.70000000298],"honeypot":0,"survey":"mace","page":5,"trial_type":"survey-mace","trial_index":13,"time_elapsed":931294,"internal_node_id":"0.0-13.0","task_version":"prescreen-v0.3","browser_interactions":0},{"responses":{"01":"No","02":"Yes","02_ages_12":"12","02_ages_14":"14","03":"No","04":"No","05":"No"},"rt":38965,"item_order":[0,1,2,3,4],"radio_events":[8008,12991.900000002235,31920.199999999255,34300.699999999255,38034.5],"checkbox_events":[14947.5,25676.5],"key_events":[],"mouse_events":[8008,12991.900000002235,14947.5,25676.5,31920.199999999255,34300.699999999255,38034.5,38959.5],"honeypot":0,"survey":"mace","page":6,"trial_type":"survey-mace","trial_index":14,"time_elapsed":970264,"internal_node_id":"0.0-14.0","task_version":"prescreen-v0.3","browser_interactions":0},{"responses":{"01":"No","02":"No","03":"No","04":"No","05":"No","06":"No","07":"No"},"rt":20921.599999997765,"item_order":[0,1,2,3,4,5,6],"radio_events":[5037.5,8417.599999997765,13018.89999999851,14961.5,16245.199999999255,18609.5,20081.29999999702],"checkbox_events":[],"key_events":[],"mouse_events":[5037.5,8417.599999997765,13018.89999999851,14961.5,16245.199999999255,17669.39999999851,18609.5,19560.79999999702,20081.29999999702,20913.699999999255],"honeypot":0,"survey":"mace","page":7,"trial_type":"survey-mace","trial_index":15,"time_elapsed":991193,"internal_node_id":"0.0-15.0","task_version":"prescreen-v0.3","browser_interactions":0},{"responses":{"01":"Yes","01_ages_11":"11","01_ages_12":"12","01_ages_13":"13","01_ages_14":"14","01_ages_15":"15","01_ages_16":"16","01_ages_17":"17","01_ages_18":"18","02":"Yes","02_ages_5":"5","02_ages_6":"6","02_ages_7":"7","02_ages_8":"8","02_ages_9":"9","02_ages_10":"10","02_ages_11":"11","02_ages_12":"12","02_ages_13":"13","02_ages_14":"14","02_ages_15":"15","02_ages_16":"16","02_ages_17":"17","02_ages_18":"18","03":"Yes","03_ages_11":"11","03_ages_12":"12","03_ages_13":"13","03_ages_14":"14","03_ages_15":"15","03_ages_16":"16","03_ages_17":"17","03_ages_18":"18","04":"Yes","04_ages_11":"11","04_ages_12":"12","04_ages_13":"13","04_ages_14":"14","04_ages_15":"15","04_ages_16":"16"},"rt":89113.60000000149,"item_order":[0,1,2,3],"radio_events":[19862.60000000149,35350.10000000149,56717,73111],"checkbox_events":[23607.10000000149,24944.5,25530.300000000745,26321,27325.60000000149,27847.5,28551.5,29801.5,38538.10000000149,39250.699999999255,39852.199999999255,40366.10000000149,41189.60000000149,41757,42557.60000000149,43365.300000000745,44290.800000000745,45158.5,45682.300000000745,46363.300000000745,46877.300000000745,47414.800000000745,60972.900000002235,61602.400000002235,62303.400000002235,63038.400000002235,63481.5,64431.10000000149,65324.60000000149,65837.5,75453.19999999925,76336.90000000224,77328.5,77707.60000000149,79472.69999999925,80034.60000000149],"key_events":[],"mouse_events":[19862.60000000149,23607.10000000149,24944.5,25530.300000000745,26321,26849,27325.60000000149,27847.5,28551.5,29018,29421.199999999255,29801.5,35350.10000000149,38538.10000000149,39250.699999999255,39852.199999999255,40366.10000000149,41189.60000000149,41757,42557.60000000149,43365.300000000745,43893.300000000745,44290.800000000745,45158.5,45682.300000000745,46363.300000000745,46877.300000000745,47414.800000000745,56717,60972.900000002235,61602.400000002235,62303.400000002235,63038.400000002235,63481.5,64431.10000000149,65324.60000000149,65837.5,73111,75453.19999999925,76336.90000000224,77328.5,77707.60000000149,79472.69999999925,80034.60000000149,89109.80000000075],"honeypot":0,"survey":"mace","page":8,"trial_type":"survey-mace","trial_index":16,"time_elapsed":1080312,"internal_node_id":"0.0-16.0","task_version":"prescreen-v0.3","browser_interactions":0},{"responses":{"01":"Yes","01_ages_10":"10","01_ages_11":"11","01_ages_12":"12","01_ages_13":"13","01_ages_14":"14","01_ages_15":"15","01_ages_16":"16","01_ages_17":"17","01_ages_18":"18","02":"Yes","02_ages_10":"10","02_ages_11":"11","02_ages_12":"12","02_ages_13":"13","02_ages_14":"14","02_ages_15":"15","02_ages_16":"16","02_ages_17":"17","02_ages_18":"18","03":"Yes","03_ages_10":"10","03_ages_11":"11","03_ages_12":"12","03_ages_13":"13","03_ages_14":"14","03_ages_15":"15","03_ages_16":"16","03_ages_17":"17","03_ages_18":"18","04":"No"},"rt":52879.300000000745,"item_order":[0,1,2,3],"radio_events":[5319.70000000298,24312.10000000149,38643.300000000745,47906.5],"checkbox_events":[12453.900000002235,13870.60000000149,14701.10000000149,15824.900000002235,17114.5,17763.5,18269.800000000745,19085.60000000149,20256.10000000149,26011.60000000149,26812.900000002235,27508.60000000149,27991.10000000149,28917.20000000298,29898.70000000298,30420.400000002235,31140.10000000149,31693.800000000745,39940.70000000298,40589.300000000745,41205.20000000298,41822.10000000149,42376,42962.400000002235,43799.400000002235,44276.400000002235,45138.60000000149],"key_events":[],"mouse_events":[5319.70000000298,12453.900000002235,13870.60000000149,14701.10000000149,15358.20000000298,15824.900000002235,16370.800000000745,16762.300000000745,17114.5,17763.5,18269.800000000745,19085.60000000149,19607.400000002235,20256.10000000149,24312.10000000149,26011.60000000149,26812.900000002235,27508.60000000149,27991.10000000149,28917.20000000298,29898.70000000298,30420.400000002235,31140.10000000149,31693.800000000745,38643.300000000745,39940.70000000298,40589.300000000745,41205.20000000298,41822.10000000149,42376,42962.400000002235,43799.400000002235,44276.400000002235,45138.60000000149,47906.5,52875.20000000298],"honeypot":0,"survey":"mace","page":9,"trial_type":"survey-mace","trial_index":17,"time_elapsed":1133212,"internal_node_id":"0.0-17.0","task_version":"prescreen-v0.3","browser_interactions":0},{"responses":{"01":"No","02":"No","03":"Yes","03_ages_14":"14","03_ages_15":"15","03_ages_16":"16","03_ages_17":"17","03_ages_18":"18","04":"Yes","04_ages_13":"13","04_ages_14":"14","04_ages_15":"15","04_ages_16":"16","04_ages_17":"17","04_ages_18":"18","05":"Yes","05_ages_5":"5","05_ages_6":"6","05_ages_7":"7","05_ages_8":"8","05_ages_9":"9","05_ages_10":"10","05_ages_11":"11","05_ages_12":"12","05_ages_13":"13","05_ages_14":"14","05_ages_15":"15","05_ages_16":"16","06":"Yes","06_ages_17":"17","07":"Yes","07_ages_10":"10","07_ages_11":"11","07_ages_12":"12","07_ages_13":"13","07_ages_14":"14","07_ages_15":"15","08":"No"},"rt":81235.5,"item_order":[0,1,2,3,4,5,6,7],"radio_events":[4385.39999999851,9915.699999999255,14465.599999997765,30424.199999999255,43519.89999999851,61617.599999997765,68162.5,80722.59999999776],"checkbox_events":[17171.39999999851,17882,18540.599999997765,19482.199999999255,19915.89999999851,20304.79999999702,23698.5,32987.79999999702,33598.29999999702,34263.79999999702,34746.39999999851,35410.699999999255,35853.699999999255,36233,36787,48870.5,49227.599999997765,49590.39999999851,50340.89999999851,50809,51560.5,51962.5,52794.699999999255,53531.699999999255,53966,54377,55390.29999999702,63066.29999999702,71676.5,72364,72965.59999999776,74088.89999999851,75204.89999999851,75932.69999999925],"key_events":[],"mouse_events":[4385.39999999851,9915.699999999255,14465.599999997765,17171.39999999851,17882,18540.599999997765,19482.199999999255,19915.89999999851,20304.79999999702,23698.5,30424.199999999255,32987.79999999702,33598.29999999702,34263.79999999702,34746.39999999851,35410.699999999255,35853.699999999255,36233,36787,43519.89999999851,48870.5,49227.599999997765,49590.39999999851,49984.5,50340.89999999851,50809,51560.5,51962.5,52794.699999999255,53531.699999999255,53966,54377,54823.29999999702,55390.29999999702,61153.199999999255,61617.599999997765,63066.29999999702,68162.5,71676.5,72364,72965.59999999776,74088.89999999851,74445.19999999925,75204.89999999851,75577,75932.69999999925,80722.59999999776,81228.59999999776],"honeypot":0,"survey":"mace","page":10,"trial_type":"survey-mace","trial_index":18,"time_elapsed":1214459,"internal_node_id":"0.0-18.0","task_version":"prescreen-v0.3","browser_interactions":0,"instructed":0},{"rt":1827.1000000014901,"trial_type":"mental-health-alert","trial_index":19,"time_elapsed":1216288,"internal_node_id":"0.0-19.0","task_version":"prescreen-v0.3","interactions":"[{\"event\":\"blur\",\"trial\":0,\"time\":188},{\"event\":\"focus\",\"trial\":0,\"time\":1012},{\"event\":\"blur\",\"trial\":0,\"time\":2384},{\"event\":\"focus\",\"trial\":0,\"time\":3326}]"}]