[{"view_history":[{"page_index":0,"viewing_time":4040},{"page_index":1,"viewing_time":3374.2999999523163},{"page_index":2,"viewing_time":3904.5999999046326},{"page_index":3,"viewing_time":1675.1000001430511}],"rt":12995.599999904633,"trial_type":"instructions","trial_index":0,"time_elapsed":13008,"internal_node_id":"0.0-0.0","task_version":"prescreen-v0.3"},{"rt":14366.5,"responses":{"age":"23","gender-categorical":"Female","gender-free-response":"","ethnicity":"Hispanic or Latino","race":["White"],"education":"Bachelor degree"},"trial_type":"survey-demo","trial_index":1,"time_elapsed":27392,"internal_node_id":"0.0-1.0","task_version":"prescreen-v0.3"},{"responses":{"Q05":"1","Q09":"0","Q14":"0","Q11":"0","Q10":"0","Q08":"1","Q04":"1","Q16":"0","Q17":"0","Q15":"1","Q06":"1","Q21":"3","Q13":"1","Q12":"0","Q01":"0","Q03":"0","Q19":"1","Q02":"0","Q18":"0","Q20":"0","Q07":"0"},"rt":93770.90000009537,"item_order":[4,8,13,10,9,7,3,15,16,14,5,20,12,11,0,2,18,1,17,19,6],"radio_events":[16824.299999952316,20287.700000047684,25687.400000095367,28777.799999952316,31760.400000095367,34509.40000009537,38475.299999952316,44564.299999952316,46183.5,50067.40000009537,54378.299999952316,57846.10000014305,62434,66169.10000014305,68299.10000014305,70288,73186.40000009537,74633,78008.90000009537,85294.90000009537,89727.20000004768,92665.90000009537],"key_events":[],"mouse_events":[16824.299999952316,20287.700000047684,25687.400000095367,28777.799999952316,31760.400000095367,34509.40000009537,38475.299999952316,43353.60000014305,44564.299999952316,45271.5,46183.5,50067.40000009537,54378.299999952316,57846.10000014305,62434,66169.10000014305,68299.10000014305,70288,73186.40000009537,74633,78008.90000009537,85294.90000009537,88404,89727.20000004768,92665.90000009537,93756.90000009537],"straightlining":0.6190476190476191,"zigzagging":0.35,"honeypot":0,"survey":"sns","trial_type":"survey-template","trial_index":2,"time_elapsed":121176,"internal_node_id":"0.0-2.0","task_version":"prescreen-v0.3","browser_interactions":0,"infrequency":0},{"responses":{"Q01":"2","Q03":"3","Q05":"3","Q08":"2","Q02":"2","Q13":"0","Q10":"2","Q11":"1","Q09":"2","Q04":"3","Q12":"2","Q06":"3","Q07":"3"},"rt":56196.300000190735,"item_order":[0,2,4,7,1,12,9,10,8,3,11,5,6],"radio_events":[7478.800000190735,11038.800000190735,13243.600000143051,16715.700000047684,19056.60000014305,21574.900000095367,26842,37424.40000009537,40262.800000190735,48073,49171.200000047684,52804.40000009537,55358.800000190735],"key_events":[],"mouse_events":[7478.800000190735,11038.800000190735,13243.600000143051,16715.700000047684,19056.60000014305,21574.900000095367,26242.200000047684,26842,37424.40000009537,40262.800000190735,43635,47495.90000009537,48073,49171.200000047684,52804.40000009537,55358.800000190735,56192.700000047684],"straightlining":0.46153846153846156,"zigzagging":0.5833333333333334,"honeypot":0,"survey":"bisbas","trial_type":"survey-template","trial_index":3,"time_elapsed":177378,"internal_node_id":"0.0-3.0","task_version":"prescreen-v0.3","browser_interactions":0,"infrequency":0},{"responses":{"Q01":"4","Q02":"3","Q03":"4"},"rt":20917.900000095367,"radio_events":[15140.5,19449.700000047684,20154.10000014305],"key_events":[],"mouse_events":[15140.5,16970.5,19449.700000047684,20154.10000014305,20915.799999952316],"survey":"map","page":1,"trial_type":"survey-map","trial_index":4,"time_elapsed":198303,"internal_node_id":"0.0-4.0","task_version":"prescreen-v0.3","browser_interactions":0},{"responses":{"Q04":"2","Q05":"3","Q06":"4"},"rt":13946.899999856949,"radio_events":[6133.700000047684,8444.399999856949,12084.5,13233.200000047684],"key_events":[],"mouse_events":[6133.700000047684,8444.399999856949,12084.5,12911.299999952316,13233.200000047684,13945.399999856949],"survey":"map","page":2,"trial_type":"survey-map","trial_index":5,"time_elapsed":212254,"internal_node_id":"0.0-5.0","task_version":"prescreen-v0.3","browser_interactions":0},{"responses":{"Q07":"4","Q08":"0","Q09":"3"},"rt":50278.200000047684,"radio_events":[41574.299999952316,46095.200000047684,49001.39999985695],"key_events":[],"mouse_events":[41574.299999952316,46095.200000047684,48552.799999952316,49001.39999985695,50276.5],"survey":"map","page":3,"trial_type":"survey-map","trial_index":6,"time_elapsed":262535,"internal_node_id":"0.0-6.0","task_version":"prescreen-v0.3","browser_interactions":0},{"responses":{"Q10":"4","Q11":"3","Q12":"2","Q13":"3","Q16":"0","Q14":"3","Q15":"4"},"rt":29099.39999985695,"radio_events":[3543.899999856949,6145.299999952316,10856.799999952316,16802.599999904633,19657.200000047684,25238.299999952316,28277.599999904633],"key_events":[],"mouse_events":[3543.899999856949,6145.299999952316,10856.799999952316,16802.599999904633,19657.200000047684,25238.299999952316,28277.599999904633,29096],"survey":"map","page":4,"trial_type":"survey-map","trial_index":7,"time_elapsed":291640,"internal_node_id":"0.0-7.0","task_version":"prescreen-v0.3","browser_interactions":0,"infrequency":0},{"view_history":[{"page_index":0,"viewing_time":2842.5999999046326},{"page_index":1,"viewing_time":6503.600000143051}],"rt":9347.200000047684,"trial_type":"instructions","trial_index":8,"time_elapsed":300998,"internal_node_id":"0.0-8.0","task_version":"prescreen-v0.3"},{"responses":{"01":"No","01_ages_12":"12","01_ages_13":"13","01_ages_14":"14","01_ages_15":"15","01_ages_16":"16","01_ages_17":"17","01_ages_18":"18","02":"No","03":"No","04":"No","05":"No","06":"Yes","06_ages_7":"7","06_ages_8":"8","06_ages_9":"9","06_ages_10":"10"},"rt":40037.09999990463,"item_order":[0,1,2,3,4,5],"radio_events":[9446.099999904633,22707.5,25831.200000047684,27708,28990,31789.39999985695,35064.59999990463],"checkbox_events":[17991.299999952316,18444.700000047684,18894.099999904633,19302.89999985695,19647.700000047684,20331.89999985695,20883.099999904633,36744.89999985695,37250.89999985695,37660.200000047684,38647.09999990463],"key_events":[],"mouse_events":[0.39999985694885254,9446.099999904633,17313.5,17991.299999952316,18444.700000047684,18894.099999904633,19302.89999985695,19647.700000047684,19963.099999904633,20331.89999985695,20883.099999904633,22707.5,25831.200000047684,27708,28990,31789.39999985695,34720.59999990463,35064.59999990463,36744.89999985695,37250.89999985695,37660.200000047684,38045.59999990463,38647.09999990463,40026.200000047684],"honeypot":0,"survey":"mace","page":1,"trial_type":"survey-mace","trial_index":9,"time_elapsed":341054,"internal_node_id":"0.0-9.0","task_version":"prescreen-v0.3","browser_interactions":0},{"responses":{"01":"No","02":"No","03":"Yes","03_ages_2":"2","03_ages_3":"3","03_ages_4":"4","03_ages_5":"5","03_ages_6":"6","03_ages_7":"7","03_ages_8":"8","04":"No","05":"No","06":"No","07":"No","08":"No"},"rt":26538.299999952316,"item_order":[0,1,2,3,4,5,6,7],"radio_events":[6938.099999904633,7677.399999856949,9615.700000047684,16350.599999904633,18502,20579.099999904633,23770.5,25686.599999904633],"checkbox_events":[11689.099999904633,12042,12411.200000047684,12757.099999904633,13197,13613.5,14030.899999856949],"key_events":[],"mouse_events":[3826.399999856949,6938.099999904633,7677.399999856949,9615.700000047684,11689.099999904633,12042,12411.200000047684,12757.099999904633,13197,13613.5,14030.899999856949,16350.599999904633,18502,20579.099999904633,23770.5,25686.599999904633,26529.099999904633],"honeypot":0,"survey":"mace","page":2,"trial_type":"survey-mace","trial_index":10,"time_elapsed":367600,"internal_node_id":"0.0-10.0","task_version":"prescreen-v0.3","browser_interactions":0},{"responses":{"01":"No","02":"No","03":"No","04":"No"},"rt":12818.100000143051,"item_order":[0,1,2,3],"radio_events":[6816.700000047684,9091.600000143051,11178.600000143051,12383.100000143051],"checkbox_events":[],"key_events":[],"mouse_events":[6816.700000047684,9091.600000143051,11178.600000143051,11986.200000047684,12383.100000143051,12808.600000143051],"honeypot":0,"survey":"mace","page":3,"trial_type":"survey-mace","trial_index":11,"time_elapsed":380422,"internal_node_id":"0.0-11.0","task_version":"prescreen-v0.3","browser_interactions":0},{"responses":{"01":"No","02":"No"},"rt":4605.400000095367,"item_order":[0,1],"radio_events":[2249.100000143051,3778.100000143051],"checkbox_events":[],"key_events":[],"mouse_events":[2249.100000143051,3778.100000143051,4601],"honeypot":0,"survey":"mace","page":4,"trial_type":"survey-mace","trial_index":12,"time_elapsed":385032,"internal_node_id":"0.0-12.0","task_version":"prescreen-v0.3","browser_interactions":0},{"responses":{"01":"No","02":"No","03":"No","04":"No","05":"No"},"rt":16178.700000047684,"item_order":[0,1,2,3,4],"radio_events":[4525.100000143051,7430.900000095367,11357.200000047684,13955.900000095367,15487.600000143051],"checkbox_events":[],"key_events":[],"mouse_events":[4525.100000143051,7430.900000095367,11357.200000047684,13955.900000095367,15487.600000143051,16171.700000047684],"honeypot":0,"survey":"mace","page":5,"trial_type":"survey-mace","trial_index":13,"time_elapsed":401216,"internal_node_id":"0.0-13.0","task_version":"prescreen-v0.3","browser_interactions":0},{"responses":{"01":"No","02":"No","03":"No","04":"Yes","04_ages_10":"10","04_ages_11":"11","05":"No"},"rt":24481.900000095367,"item_order":[0,1,2,3,4],"radio_events":[7788.900000095367,12904.5,16336.599999904633,18821.700000047684,23854.5],"checkbox_events":[20458.5,21163.900000095367],"key_events":[],"mouse_events":[6849.700000047684,7788.900000095367,12904.5,16336.599999904633,18821.700000047684,20458.5,21163.900000095367,23854.5,24473],"honeypot":0,"survey":"mace","page":6,"trial_type":"survey-mace","trial_index":14,"time_elapsed":425704,"internal_node_id":"0.0-14.0","task_version":"prescreen-v0.3","browser_interactions":0},{"responses":{"01":"No","02":"No","03":"No","04":"No","05":"No","06":"No","07":"No"},"rt":24275.099999904633,"item_order":[0,1,2,3,4,5,6],"radio_events":[3307.0999999046326,12666.899999856949,16941.299999952316,19022.89999985695,20033.5,21661.099999904633,23357.699999809265],"checkbox_events":[],"key_events":[],"mouse_events":[3307.0999999046326,12666.899999856949,16941.299999952316,19022.89999985695,20033.5,21085.299999952316,21661.099999904633,22395.099999904633,22796.099999904633,23357.699999809265,24263.799999952316],"honeypot":0,"survey":"mace","page":7,"trial_type":"survey-mace","trial_index":15,"time_elapsed":449986,"internal_node_id":"0.0-15.0","task_version":"prescreen-v0.3","browser_interactions":0},{"responses":{"01":"No","02":"No","03":"No","04":"No"},"rt":18718.5,"item_order":[0,1,2,3],"radio_events":[8261.700000047684,12095,15913.5,18215.700000047684],"checkbox_events":[],"key_events":[],"mouse_events":[8261.700000047684,12095,15913.5,18215.700000047684,18713.200000047684],"honeypot":0,"survey":"mace","page":8,"trial_type":"survey-mace","trial_index":16,"time_elapsed":468709,"internal_node_id":"0.0-16.0","task_version":"prescreen-v0.3","browser_interactions":0},{"responses":{"01":"Yes","01_ages_1":"1","01_ages_2":"2","01_ages_3":"3","01_ages_4":"4","01_ages_5":"5","01_ages_6":"6","01_ages_7":"7","01_ages_8":"8","01_ages_9":"9","01_ages_10":"10","01_ages_11":"11","01_ages_12":"12","01_ages_13":"13","01_ages_14":"14","01_ages_15":"15","01_ages_16":"16","01_ages_17":"17","01_ages_18":"18","02":"Yes","02_ages_4":"4","02_ages_5":"5","02_ages_6":"6","02_ages_7":"7","02_ages_8":"8","02_ages_9":"9","02_ages_10":"10","02_ages_11":"11","02_ages_12":"12","02_ages_13":"13","02_ages_14":"14","02_ages_15":"15","02_ages_16":"16","02_ages_17":"17","02_ages_18":"18","03":"Yes","03_ages_1":"1","03_ages_2":"2","03_ages_3":"3","03_ages_4":"4","03_ages_5":"5","03_ages_6":"6","03_ages_7":"7","03_ages_8":"8","03_ages_9":"9","03_ages_10":"10","03_ages_11":"11","03_ages_12":"12","03_ages_13":"13","03_ages_14":"14","03_ages_15":"15","03_ages_16":"16","03_ages_17":"17","03_ages_18":"18","04":"Yes","04_ages_1":"1","04_ages_2":"2","04_ages_3":"3","04_ages_4":"4","04_ages_5":"5","04_ages_6":"6","04_ages_7":"7","04_ages_8":"8","04_ages_9":"9","04_ages_10":"10","04_ages_11":"11","04_ages_12":"12","04_ages_13":"13","04_ages_14":"14","04_ages_15":"15","04_ages_16":"16","04_ages_17":"17"},"rt":57848.40000009537,"item_order":[0,1,2,3],"radio_events":[4344.099999904633,15354.900000095367,33835.59999990463,47265.299999952316],"checkbox_events":[5723.700000047684,6493.599999904633,6773.900000095367,7191.5,7520.200000047684,7928.200000047684,8297.900000095367,8628.799999952316,9029.5,9389.400000095367,10182.900000095367,10834.700000047684,11153,11537.400000095367,11955.200000047684,12395.599999904633,12839.5,13224.700000047684,19039.200000047684,19702.900000095367,20103,20643.200000047684,21066.5,21402.900000095367,21739.400000095367,22132.5,22469.700000047684,23191.200000047684,23584.799999952316,24019.700000047684,25084.400000095367,25413.200000047684,25814.200000047684,34654.200000047684,34926.799999952316,35351.799999952316,35699.200000047684,36114,36458.5,37533.40000009537,37856,38246.09999990463,38697.59999990463,39042,39490.5,40252.09999990463,40580.59999990463,41118,41502.59999990463,41904.200000047684,42452.09999990463,49891.90000009537,50124.299999952316,50533.299999952316,50845.799999952316,51254.5,51688.40000009537,52048.799999952316,52563.200000047684,52923,53741.299999952316,54183.59999990463,54894.90000009537,55312.700000047684,55673.700000047684,56009.90000009537,56836.5,57213.59999990463],"key_events":[],"mouse_events":[4344.099999904633,5723.700000047684,6037.700000047684,6493.599999904633,6773.900000095367,7191.5,7520.200000047684,7928.200000047684,8297.900000095367,8628.799999952316,9029.5,9389.400000095367,9740.900000095367,10182.900000095367,10511.799999952316,10834.700000047684,11153,11537.400000095367,11955.200000047684,12395.599999904633,12839.5,13224.700000047684,15354.900000095367,19039.200000047684,19381.900000095367,19702.900000095367,20103,20643.200000047684,21066.5,21402.900000095367,21739.400000095367,22132.5,22469.700000047684,22799.299999952316,23191.200000047684,23584.799999952316,24019.700000047684,24506.5,24837.599999904633,25084.400000095367,25413.200000047684,25814.200000047684,33835.59999990463,34654.200000047684,34926.799999952316,35351.799999952316,35699.200000047684,36114,36458.5,36787.5,37533.40000009537,37856,38246.09999990463,38697.59999990463,39042,39490.5,39861.799999952316,40252.09999990463,40580.59999990463,41118,41502.59999990463,41904.200000047684,42452.09999990463,47265.299999952316,49314.40000009537,49891.90000009537,50124.299999952316,50533.299999952316,50845.799999952316,51254.5,51688.40000009537,52048.799999952316,52563.200000047684,52923,53315.90000009537,53741.299999952316,54183.59999990463,54894.90000009537,55312.700000047684,55673.700000047684,56009.90000009537,56836.5,57213.59999990463,57842.59999990463],"honeypot":0,"survey":"mace","page":9,"trial_type":"survey-mace","trial_index":17,"time_elapsed":526560,"internal_node_id":"0.0-17.0","task_version":"prescreen-v0.3","browser_interactions":0},{"responses":{"01":"No","02":"No","03":"No","04":"No","05":"No","06":"Yes","06_ages_17":"17","07":"Yes","07_ages_1":"1","07_ages_2":"2","07_ages_3":"3","07_ages_4":"4","07_ages_5":"5","07_ages_6":"6","07_ages_7":"7","07_ages_8":"8","07_ages_9":"9","07_ages_10":"10","07_ages_11":"11","07_ages_12":"12","07_ages_13":"13","07_ages_14":"14","07_ages_15":"15","07_ages_16":"16","07_ages_17":"17","07_ages_18":"18","08":"Yes","08_ages_1":"1","08_ages_2":"2","08_ages_3":"3","08_ages_4":"4","08_ages_5":"5","08_ages_6":"6","08_ages_7":"7","08_ages_8":"8","08_ages_9":"9","08_ages_10":"10","08_ages_11":"11","08_ages_12":"12","08_ages_13":"13","08_ages_14":"14","08_ages_15":"15","08_ages_16":"16","08_ages_17":"17","08_ages_18":"18"},"rt":37582.5,"item_order":[0,1,2,3,4,5,6,7],"radio_events":[3468.5999999046326,4559.700000047684,6685.599999904633,8032.200000047684,9965.700000047684,11902.900000095367,16508.599999904633,27044.200000047684],"checkbox_events":[13842.5,18321.700000047684,18634.799999952316,19348.099999904633,19709.099999904633,20126.200000047684,20446.799999952316,20847.799999952316,21168.700000047684,21681.400000095367,22106.900000095367,22467,22876.700000047684,23253.200000047684,23694.299999952316,24127.700000047684,24512.400000095367,24897.400000095367,25266.400000095367,28734.099999904633,29625.200000047684,30338.900000095367,30716.099999904633,31076.700000047684,31557.599999904633,31919.299999952316,32280.099999904633,32816.200000047684,33330,33731,34196.799999952316,34653.5,35086.700000047684,35591.09999990463,36084.09999990463,36474.09999990463,36939.40000009537],"key_events":[],"mouse_events":[3468.5999999046326,4559.700000047684,6685.599999904633,8032.200000047684,9965.700000047684,11902.900000095367,13842.5,16508.599999904633,18321.700000047684,18634.799999952316,18972.5,19348.099999904633,19709.099999904633,20126.200000047684,20446.799999952316,20847.799999952316,21168.700000047684,21681.400000095367,22106.900000095367,22467,22876.700000047684,23253.200000047684,23694.299999952316,24127.700000047684,24512.400000095367,24897.400000095367,25266.400000095367,27044.200000047684,28734.099999904633,29272.400000095367,29625.200000047684,30018.400000095367,30338.900000095367,30716.099999904633,31076.700000047684,31557.599999904633,31919.299999952316,32280.099999904633,32816.200000047684,33330,33731,34196.799999952316,34653.5,35086.700000047684,35591.09999990463,36084.09999990463,36474.09999990463,36939.40000009537,37573.09999990463],"honeypot":0,"survey":"mace","page":10,"trial_type":"survey-mace","trial_index":18,"time_elapsed":564150,"internal_node_id":"0.0-18.0","task_version":"prescreen-v0.3","browser_interactions":0,"instructed":0},{"rt":5466.199999809265,"trial_type":"mental-health-alert","trial_index":19,"time_elapsed":569620,"internal_node_id":"0.0-19.0","task_version":"prescreen-v0.3","interactions":"[]"}]