[{"view_history":[{"page_index":0,"viewing_time":8359.800000011921},{"page_index":1,"viewing_time":3071.899999976158},{"page_index":2,"viewing_time":4496},{"page_index":3,"viewing_time":2224}],"rt":18152.400000035763,"trial_type":"instructions","trial_index":0,"time_elapsed":18157,"internal_node_id":"0.0-0.0","task_version":"prescreen-v0.3"},{"rt":21924.600000023842,"responses":{"age":"70","gender-categorical":"Female","gender-free-response":"","ethnicity":"Not Hispanic or Latino","race":["White"],"education":"Some college"},"trial_type":"survey-demo","trial_index":1,"time_elapsed":40087,"internal_node_id":"0.0-1.0","task_version":"prescreen-v0.3"},{"responses":{"Q17":"0","Q07":"0","Q02":"0","Q15":"0","Q11":"0","Q18":"0","Q01":"0","Q14":"0","Q20":"0","Q09":"0","Q16":"0","Q13":"0","Q03":"0","Q06":"0","Q19":"0","Q10":"0","Q12":"0","Q04":"0","Q05":"0","Q08":"0","Q21":"3"},"rt":106028.80000001192,"item_order":[16,6,1,14,10,17,0,13,19,8,15,12,2,5,18,9,11,3,4,7,20],"radio_events":[9834.400000035763,18354.200000047684,22882.100000023842,28818.200000047684,34610.10000002384,40466.40000003576,42210.40000003576,46434.10000002384,48738.200000047684,53322.10000002384,58618.200000047684,61738.5,69530.20000004768,70634.10000002384,76738.20000004768,81050,84490.20000004768,88226.10000002384,93858.10000002384,97186,104930.10000002384],"key_events":[],"mouse_events":[9834.400000035763,18354.200000047684,22882.100000023842,28818.200000047684,33274.200000047684,34610.10000002384,40466.40000003576,42210.40000003576,46434.10000002384,48738.200000047684,53322.10000002384,58618.200000047684,61738.5,64698.200000047684,68594.5,69530.20000004768,70634.10000002384,76738.20000004768,81050,84490.20000004768,88226.10000002384,93858.10000002384,97186,104441.90000003576,104930.10000002384,106026.20000004768],"straightlining":0.9523809523809523,"zigzagging":0.05,"honeypot":0,"survey":"sns","trial_type":"survey-template","trial_index":2,"time_elapsed":146121,"internal_node_id":"0.0-2.0","task_version":"prescreen-v0.3","browser_interactions":0,"infrequency":0},{"responses":{"Q07":"3","Q08":"3","Q05":"3","Q04":"0","Q12":"2","Q02":"2","Q10":"0","Q01":"0","Q13":"0","Q09":"3","Q06":"3","Q11":"3","Q03":"0"},"rt":83730.39999997616,"item_order":[6,7,4,3,11,1,9,0,12,8,5,10,2],"radio_events":[8136.899999976158,13465,17513.100000023842,26497.100000023842,35105.10000002384,44785.10000002384,49048.89999997616,56832.89999997616,58393.19999998808,67937.10000002384,72369.39999997616,76921.19999998808,82056.89999997616],"key_events":[],"mouse_events":[8136.899999976158,13465,17513.100000023842,26497.100000023842,35105.10000002384,44785.10000002384,49048.89999997616,53657,56832.89999997616,58393.19999998808,67937.10000002384,72369.39999997616,76921.19999998808,82056.89999997616,83728.89999997616],"straightlining":0.46153846153846156,"zigzagging":0.25,"honeypot":0,"survey":"bisbas","trial_type":"survey-template","trial_index":3,"time_elapsed":229856,"internal_node_id":"0.0-3.0","task_version":"prescreen-v0.3","browser_interactions":0,"infrequency":0},{"responses":{"Q01":"3","Q02":"3","Q03":"4"},"rt":35955.89999997616,"radio_events":[22259.30000001192,28139.600000023842,35107],"key_events":[],"mouse_events":[22259.30000001192,28139.600000023842,35107,35955],"survey":"map","page":1,"trial_type":"survey-map","trial_index":4,"time_elapsed":265815,"internal_node_id":"0.0-4.0","task_version":"prescreen-v0.3","browser_interactions":0},{"responses":{"Q04":"3","Q05":"4","Q06":"4"},"rt":26757.80000001192,"radio_events":[14796.800000011921,21284.80000001192,26156.80000001192],"key_events":[],"mouse_events":[2492.699999988079,14228.800000011921,14796.800000011921,21284.80000001192,26156.80000001192,26756.900000035763],"survey":"map","page":2,"trial_type":"survey-map","trial_index":5,"time_elapsed":292575,"internal_node_id":"0.0-5.0","task_version":"prescreen-v0.3","browser_interactions":0},{"responses":{"Q07":"4","Q08":"3","Q09":"4"},"rt":28237.899999976158,"radio_events":[11309.100000023842,19621.100000023842,27196.899999976158],"key_events":[],"mouse_events":[11309.100000023842,19621.100000023842,27196.899999976158,28237.19999998808],"survey":"map","page":3,"trial_type":"survey-map","trial_index":6,"time_elapsed":320815,"internal_node_id":"0.0-6.0","task_version":"prescreen-v0.3","browser_interactions":0},{"responses":{"Q10":"3","Q11":"3","Q12":"3","Q13":"3","Q16":"0","Q14":"3","Q15":"3"},"rt":52142.299999952316,"radio_events":[6124.599999964237,9868.5,14684.5,22492.69999998808,32332.5,38668.39999997616,44876.89999997616,50972.5],"key_events":[],"mouse_events":[6124.599999964237,9868.5,14684.5,22492.69999998808,32332.5,38668.39999997616,44876.89999997616,50972.5,52141],"survey":"map","page":4,"trial_type":"survey-map","trial_index":7,"time_elapsed":372959,"internal_node_id":"0.0-7.0","task_version":"prescreen-v0.3","browser_interactions":0,"infrequency":0},{"view_history":[{"page_index":0,"viewing_time":4731.799999952316},{"page_index":1,"viewing_time":6752.100000023842}],"rt":11484.399999976158,"trial_type":"instructions","trial_index":8,"time_elapsed":384444,"internal_node_id":"0.0-8.0","task_version":"prescreen-v0.3"},{"responses":{"01":"No","02":"No","03":"No","04":"No","05":"No","06":"No"},"rt":30623.600000023842,"item_order":[0,1,2,3,4,5],"radio_events":[12403.899999976158,16803.69999998808,21356,23835.69999998808,26052,29395.69999998808],"checkbox_events":[],"key_events":[],"mouse_events":[2.100000023841858,12403.899999976158,16803.69999998808,21356,23835.69999998808,26052,29395.69999998808,30619.899999976158],"honeypot":0,"survey":"mace","page":1,"trial_type":"survey-mace","trial_index":9,"time_elapsed":415075,"internal_node_id":"0.0-9.0","task_version":"prescreen-v0.3","browser_interactions":0},{"responses":{"01":"No","02":"No","03":"Yes","03_ages_8":"8","03_ages_9":"9","03_ages_10":"10","03_ages_11":"11","04":"No","05":"Yes","05_ages_8":"8","05_ages_9":"9","05_ages_10":"10","05_ages_11":"11","06":"No","07":"No","08":"No"},"rt":58036.19999998808,"item_order":[0,1,2,3,4,5,6,7],"radio_events":[5095.699999988079,8175.100000023842,13375,31599.30000001192,36087.19999998808,51063.10000002384,54807.30000001192,56967.19999998808],"checkbox_events":[22575.5,24223.30000001192,24919.600000023842,26927.19999998808,39423.30000001192,40223.19999998808,40775.10000002384,42423.30000001192],"key_events":[],"mouse_events":[5095.699999988079,8175.100000023842,13375,22575.5,24223.30000001192,24919.600000023842,26927.19999998808,31599.30000001192,36087.19999998808,39423.30000001192,40223.19999998808,40775.10000002384,41559.39999997616,42423.30000001192,51063.10000002384,54807.30000001192,56967.19999998808,58031.60000002384],"honeypot":0,"survey":"mace","page":2,"trial_type":"survey-mace","trial_index":10,"time_elapsed":473117,"internal_node_id":"0.0-10.0","task_version":"prescreen-v0.3","browser_interactions":0},{"responses":{"01":"No","02":"No","03":"No","04":"No"},"rt":23593.100000023842,"item_order":[0,1,2,3],"radio_events":[10406.5,16958.5,21590.400000035763,22550.400000035763],"checkbox_events":[],"key_events":[],"mouse_events":[10406.5,16958.5,19782.5,21590.400000035763,22550.400000035763,23590.5],"honeypot":0,"survey":"mace","page":3,"trial_type":"survey-mace","trial_index":11,"time_elapsed":496713,"internal_node_id":"0.0-11.0","task_version":"prescreen-v0.3","browser_interactions":0},{"responses":{"01":"No","02":"No"},"rt":7891.900000035763,"item_order":[0,1],"radio_events":[4170.5,7082.600000023842],"checkbox_events":[],"key_events":[],"mouse_events":[4170.5,7082.600000023842,7890.5],"honeypot":0,"survey":"mace","page":4,"trial_type":"survey-mace","trial_index":12,"time_elapsed":504607,"internal_node_id":"0.0-12.0","task_version":"prescreen-v0.3","browser_interactions":0},{"responses":{"01":"No","02":"No","03":"No","04":"No","05":"No"},"rt":36662.30000001192,"item_order":[0,1,2,3,4],"radio_events":[17883.5,22339.5,27155.5,32243.400000035763,35723.40000003576],"checkbox_events":[],"key_events":[],"mouse_events":[17883.5,22339.5,27155.5,32243.400000035763,35723.40000003576,36659.40000003576],"honeypot":0,"survey":"mace","page":5,"trial_type":"survey-mace","trial_index":13,"time_elapsed":541273,"internal_node_id":"0.0-13.0","task_version":"prescreen-v0.3","browser_interactions":0},{"responses":{"01":"No","02":"No","03":"No","04":"No","05":"No"},"rt":24612.600000023842,"item_order":[0,1,2,3,4],"radio_events":[5449.5,10313.600000023842,16737.400000035763,19729.5,23721.5],"checkbox_events":[],"key_events":[],"mouse_events":[5449.5,10313.600000023842,16737.400000035763,19729.5,23721.5,24609.5],"honeypot":0,"survey":"mace","page":6,"trial_type":"survey-mace","trial_index":14,"time_elapsed":565889,"internal_node_id":"0.0-14.0","task_version":"prescreen-v0.3","browser_interactions":0},{"responses":{"01":"No","02":"No","03":"No","04":"No","05":"No","06":"No","07":"No"},"rt":34516.5,"item_order":[0,1,2,3,4,5,6],"radio_events":[4968.900000035763,9057,13769.100000023842,16641.100000023842,23912.80000001192,25792.80000001192,32800.90000003576],"checkbox_events":[],"key_events":[],"mouse_events":[4968.900000035763,9057,13769.100000023842,16641.100000023842,21721.100000023842,23912.80000001192,25792.80000001192,26736.600000023842,32800.90000003576,34512.90000003576],"honeypot":0,"survey":"mace","page":7,"trial_type":"survey-mace","trial_index":15,"time_elapsed":600411,"internal_node_id":"0.0-15.0","task_version":"prescreen-v0.3","browser_interactions":0},{"responses":{"01":"No","02":"No","03":"No","04":"No"},"rt":46090.59999996424,"item_order":[0,1,2,3],"radio_events":[17159.80000001192,25839.69999998808,39087.80000001192,45480],"checkbox_events":[],"key_events":[],"mouse_events":[17159.80000001192,25839.69999998808,39087.80000001192,45480,46087.89999997616],"honeypot":0,"survey":"mace","page":8,"trial_type":"survey-mace","trial_index":16,"time_elapsed":646505,"internal_node_id":"0.0-16.0","task_version":"prescreen-v0.3","browser_interactions":0},{"responses":{"01":"Yes","01_ages_1":"1","01_ages_2":"2","01_ages_3":"3","01_ages_4":"4","01_ages_5":"5","01_ages_6":"6","01_ages_7":"7","01_ages_8":"8","01_ages_9":"9","01_ages_10":"10","01_ages_11":"11","01_ages_12":"12","01_ages_13":"13","01_ages_14":"14","01_ages_15":"15","01_ages_16":"16","01_ages_17":"17","01_ages_18":"18","02":"Yes","02_ages_5":"5","02_ages_6":"6","02_ages_7":"7","02_ages_8":"8","02_ages_9":"9","02_ages_10":"10","02_ages_11":"11","02_ages_12":"12","02_ages_13":"13","02_ages_14":"14","02_ages_15":"15","02_ages_16":"16","02_ages_17":"17","02_ages_18":"18","03":"Yes","03_ages_1":"1","03_ages_2":"2","03_ages_3":"3","03_ages_4":"4","03_ages_5":"5","03_ages_6":"6","03_ages_7":"7","03_ages_8":"8","03_ages_9":"9","03_ages_10":"10","03_ages_11":"11","03_ages_12":"12","03_ages_13":"13","03_ages_14":"14","03_ages_15":"15","03_ages_16":"16","03_ages_17":"17","03_ages_18":"18","04":"Yes","04_ages_1":"1","04_ages_2":"2","04_ages_3":"3","04_ages_4":"4","04_ages_5":"5","04_ages_6":"6","04_ages_7":"7","04_ages_8":"8","04_ages_9":"9","04_ages_10":"10","04_ages_11":"11","04_ages_12":"12","04_ages_13":"13","04_ages_14":"14","04_ages_15":"15","04_ages_16":"16","04_ages_17":"17","04_ages_18":"18"},"rt":126124.60000002384,"item_order":[0,1,2,3],"radio_events":[10770,40106.10000002384,72418,99410],"checkbox_events":[18578.100000023842,19818,20465.80000001192,21754.100000023842,22354.100000023842,24010,25081.900000035763,25897.80000001192,26498.100000023842,27618.100000023842,28146,29090.100000023842,29650.100000023842,30946.100000023842,31490.100000023842,32138,32898.10000002384,33978.10000002384,43082,44665.80000001192,45434.30000001192,46017.90000003576,46498,47154.30000001192,47306.40000003576,48442.40000003576,49194.10000002384,50098,50585.90000003576,51537.90000003576,52418,53234.10000002384,54194,56258,61226.10000002384,63737.90000003576,74106.5,75786.10000002384,76562.19999998808,77082,77642,79610.10000002384,80282,80914.30000001192,84586.19999998808,85370.40000003576,86274.10000002384,86890.10000002384,87618.10000002384,89202,90138,92114,92706.19999998808,93570,100842.30000001192,101658.10000002384,102410,103122.10000002384,103954,104882,105730.10000002384,110578.10000002384,112025.90000003576,115770.10000002384,117345.90000003576,117898,118722,119362.19999998808,119954,120442.10000002384,121217.90000003576,122042.30000001192,122794,123650],"key_events":[],"mouse_events":[9753.800000011921,10770,18578.100000023842,19818,20465.80000001192,20938,21754.100000023842,22354.100000023842,24010,24593.80000001192,25081.900000035763,25897.80000001192,26498.100000023842,27618.100000023842,28146,29090.100000023842,29650.100000023842,30946.100000023842,31490.100000023842,32138,32898.10000002384,33978.10000002384,40106.10000002384,43082,43705.90000003576,44665.80000001192,45434.30000001192,46017.90000003576,46498,46802,47154.30000001192,47306.40000003576,47946.10000002384,48442.40000003576,49194.10000002384,50098,50585.90000003576,51537.90000003576,52418,53234.10000002384,54194,56258,61226.10000002384,63737.90000003576,65226,72418,74106.5,74578.19999998808,75786.10000002384,76562.19999998808,77082,77642,78474.19999998808,79610.10000002384,80282,80914.30000001192,83769.90000003576,84586.19999998808,85370.40000003576,86274.10000002384,86890.10000002384,87618.10000002384,88362.30000001192,89202,89674,90138,91282,92114,92706.19999998808,93570,99410,100842.30000001192,101658.10000002384,102410,103122.10000002384,103954,104882,105730.10000002384,110578.10000002384,111258,112025.90000003576,115770.10000002384,116369.80000001192,117345.90000003576,117898,118722,119362.19999998808,119954,120442.10000002384,121217.90000003576,122042.30000001192,122794,123650,126122.30000001192],"honeypot":0,"survey":"mace","page":9,"trial_type":"survey-mace","trial_index":17,"time_elapsed":772633,"internal_node_id":"0.0-17.0","task_version":"prescreen-v0.3","browser_interactions":2},{"responses":{"01":"No","02":"No","03":"No","04":"No","05":"No","06":"Yes","06_ages_17":"17","07":"Yes","07_ages_1":"1","07_ages_2":"2","07_ages_3":"3","07_ages_4":"4","07_ages_5":"5","07_ages_6":"6","07_ages_7":"7","07_ages_8":"8","07_ages_9":"9","07_ages_10":"10","07_ages_11":"11","07_ages_12":"12","07_ages_13":"13","07_ages_14":"14","07_ages_15":"15","07_ages_16":"16","07_ages_17":"17","07_ages_18":"18","08":"Yes","08_ages_1":"1","08_ages_2":"2","08_ages_3":"3","08_ages_4":"4","08_ages_5":"5","08_ages_6":"6","08_ages_7":"7","08_ages_8":"8","08_ages_9":"9","08_ages_10":"10","08_ages_11":"11","08_ages_12":"12","08_ages_13":"13","08_ages_14":"14","08_ages_15":"15","08_ages_16":"16","08_ages_17":"17","08_ages_18":"18"},"rt":94333.60000002384,"item_order":[0,1,2,3,4,5,6,7],"radio_events":[7609.600000023842,9529.400000035763,14713.400000035763,18321.5,23545.5,28385.400000035763,45017.10000002384,74753],"checkbox_events":[30449.200000047684,52121.5,52873.5,53457.200000047684,53985.5,54849.40000003576,55793.30000001192,59793.40000003576,60697.30000001192,61305.40000003576,63657.10000002384,64305.700000047684,66217.10000002384,66769.60000002384,67625.5,68577.5,69113.70000004768,69881.20000004768,71041.5,78417.10000002384,78977.10000002384,79489.30000001192,81073.5,82809.40000003576,84449.30000001192,84969.40000003576,86297.10000002384,87025.40000003576,87633.40000003576,88377.30000001192,89041.40000003576,89545.30000001192,90073.40000003576,90745.40000003576,92177.70000004768,92689.40000003576,93729.30000001192],"key_events":[],"mouse_events":[7609.600000023842,9529.400000035763,13809.300000011921,14713.400000035763,18321.5,23545.5,28385.400000035763,30449.200000047684,45017.10000002384,52121.5,52873.5,53457.200000047684,53985.5,54849.40000003576,55793.30000001192,57081.40000003576,58569.700000047684,59249.80000001192,59793.40000003576,60697.30000001192,61305.40000003576,61929.40000003576,63001.200000047684,63657.10000002384,64305.700000047684,65225.5,65761.20000004768,66217.10000002384,66769.60000002384,67625.5,68577.5,69113.70000004768,69881.20000004768,71041.5,74753,77289.40000003576,78417.10000002384,78977.10000002384,79489.30000001192,80225.40000003576,81073.5,81840.90000003576,82809.40000003576,83737.80000001192,84449.30000001192,84969.40000003576,86297.10000002384,87025.40000003576,87633.40000003576,88377.30000001192,89041.40000003576,89545.30000001192,90073.40000003576,90745.40000003576,92177.70000004768,92689.40000003576,93729.30000001192,94329.20000004768],"honeypot":0,"survey":"mace","page":10,"trial_type":"survey-mace","trial_index":18,"time_elapsed":866971,"internal_node_id":"0.0-18.0","task_version":"prescreen-v0.3","browser_interactions":0,"instructed":0},{"rt":9712.100000023842,"trial_type":"mental-health-alert","trial_index":19,"time_elapsed":876685,"internal_node_id":"0.0-19.0","task_version":"prescreen-v0.3","interactions":"[{\"event\":\"blur\",\"trial\":0,\"time\":2830},{\"event\":\"focus\",\"trial\":0,\"time\":6377},{\"event\":\"blur\",\"trial\":17,\"time\":771809},{\"event\":\"focus\",\"trial\":17,\"time\":772459},{\"event\":\"blur\",\"trial\":19,\"time\":868271},{\"event\":\"focus\",\"trial\":19,\"time\":873537}]"}]