[{"view_history":[{"page_index":0,"viewing_time":7857},{"page_index":1,"viewing_time":2081},{"page_index":2,"viewing_time":1407},{"page_index":3,"viewing_time":753}],"rt":12099.5,"trial_type":"instructions","trial_index":0,"time_elapsed":12111,"internal_node_id":"0.0-0.0","task_version":"prescreen-v0.3"},{"rt":11515.700000047684,"responses":{"age":"30","gender-categorical":"Male","gender-free-response":"","ethnicity":"Not Hispanic or Latino","race":["White"],"education":"Bachelor degree","siblings":"1"},"trial_type":"survey-demo","trial_index":1,"time_elapsed":23646,"internal_node_id":"0.0-1.0","task_version":"prescreen-v0.3"},{"responses":{"Q10":"0","Q15":"3","Q18":"2","Q03":"1","Q01":"1","Q19":"2","Q14":"2","Q20":"0","Q06":"0","Q13":"3","Q08":"3","Q17":"3","Q21":"3","Q09":"3","Q02":"1","Q16":"3","Q04":"1","Q05":"1","Q12":"1","Q11":"2","Q07":"2"},"rt":59640.5,"item_order":[9,14,17,2,0,18,13,19,5,12,7,16,20,8,1,15,3,4,11,10,6],"radio_events":[3694.400000035763,9280.5,10504.400000035763,11786.600000023842,12990.300000011921,16591,18522.30000001192,19642.900000035763,22101.600000023842,26310,26851.400000035763,27994.30000001192,32041.900000035763,33495.80000001192,39242.69999998808,40779.69999998808,46733.90000003576,51551.69999998808,53855.60000002384,55538.90000003576,58584],"key_events":[],"mouse_events":[3694.400000035763,5339.699999988079,7391.699999988079,8698.699999988079,9280.5,10504.400000035763,11786.600000023842,12990.300000011921,15546,16591,17395.400000035763,18522.30000001192,19642.900000035763,21416.69999998808,22101.600000023842,25453.80000001192,26310,26851.400000035763,27994.30000001192,30477.600000023842,31439.69999998808,32041.900000035763,33495.80000001192,36543.19999998808,37679.5,38667.30000001192,39242.69999998808,40779.69999998808,44795.10000002384,45654.90000003576,46733.90000003576,48285.10000002384,51551.69999998808,53855.60000002384,55538.90000003576,56785.80000001192,58584,59637.10000002384],"straightlining":0.3333333333333333,"zigzagging":0.3,"honeypot":0,"survey":"sns","trial_type":"survey-template","trial_index":2,"time_elapsed":83302,"internal_node_id":"0.0-2.0","task_version":"prescreen-v0.3","browser_interactions":0,"infrequency":0},{"responses":{"Q06":"1","Q11":"1","Q04":"2","Q09":"1","Q13":"0","Q07":"2","Q10":"2","Q08":"2","Q03":"2","Q05":"3","Q01":"3","Q12":"1","Q02":"1"},"rt":35098.5,"item_order":[5,10,3,8,12,6,9,7,2,4,0,11,1],"radio_events":[7261.5,7890.199999988079,9281.599999964237,11878.800000011921,14842,15923.199999988079,18359.80000001192,20802.69999998808,25920.599999964237,27064.5,28530.599999964237,29889.19999998808,32936.30000001192,34078.69999998808],"key_events":[],"mouse_events":[5127.300000011921,5813.399999976158,6450.199999988079,7261.5,7890.199999988079,9281.599999964237,11878.800000011921,12585.5,13214.599999964237,14343,14842,15923.199999988079,18359.80000001192,20125.599999964237,20802.69999998808,23636.099999964237,24841.19999998808,25920.599999964237,27064.5,28530.599999964237,29889.19999998808,32936.30000001192,33621.5,34078.69999998808,35096.39999997616],"straightlining":0.38461538461538464,"zigzagging":0.3333333333333333,"honeypot":0,"survey":"bisbas","trial_type":"survey-template","trial_index":3,"time_elapsed":118409,"internal_node_id":"0.0-3.0","task_version":"prescreen-v0.3","browser_interactions":0,"infrequency":0},{"responses":{"Q01":"1","Q02":"1","Q03":"1"},"rt":75172,"radio_events":[71742.39999997616,72844.69999998808,73840.39999997616],"key_events":[],"mouse_events":[622.3000000119209,68216.80000001192,69118.69999998808,70199.09999996424,71023.39999997616,71742.39999997616,72844.69999998808,73840.39999997616,75170.59999996424],"survey":"map","page":1,"trial_type":"survey-map","trial_index":4,"time_elapsed":193594,"internal_node_id":"0.0-4.0","task_version":"prescreen-v0.3","browser_interactions":2},{"responses":{"Q04":"1","Q05":"1","Q06":"1"},"rt":11839,"radio_events":[7807.899999976158,9879.899999976158,10861.699999988079],"key_events":[],"mouse_events":[6520.100000023842,7046.899999976158,7807.899999976158,9879.899999976158,10861.699999988079,11838],"survey":"map","page":2,"trial_type":"survey-map","trial_index":5,"time_elapsed":205444,"internal_node_id":"0.0-5.0","task_version":"prescreen-v0.3","browser_interactions":0},{"responses":{"Q07":"3","Q08":"3","Q09":"3"},"rt":42071.80000001192,"radio_events":[38255.80000001192,39929.89999997616,41038.5],"key_events":[],"mouse_events":[36759.5,37693.30000001192,38255.80000001192,39216.60000002384,39929.89999997616,41038.5,42070.60000002384],"survey":"map","page":3,"trial_type":"survey-map","trial_index":6,"time_elapsed":247526,"internal_node_id":"0.0-6.0","task_version":"prescreen-v0.3","browser_interactions":2},{"responses":{"Q10":"2","Q11":"3","Q12":"2","Q13":"1","Q16":"3","Q14":"2","Q15":"3"},"rt":16593.30000001192,"radio_events":[3989.199999988079,6120.800000011921,7319.5,8981.100000023842,12380.800000011921,13256.400000035763,15261.699999988079],"key_events":[],"mouse_events":[2632.300000011921,3450.300000011921,3989.199999988079,6120.800000011921,7319.5,8981.100000023842,11473.900000035763,12380.800000011921,13256.400000035763,14155.699999988079,14694.5,15261.699999988079,16591.30000001192],"survey":"map","page":4,"trial_type":"survey-map","trial_index":7,"time_elapsed":264132,"internal_node_id":"0.0-7.0","task_version":"prescreen-v0.3","browser_interactions":0,"infrequency":1},{"view_history":[{"page_index":0,"viewing_time":3853.699999988079},{"page_index":1,"viewing_time":2929}],"rt":6784,"trial_type":"instructions","trial_index":8,"time_elapsed":270924,"internal_node_id":"0.0-8.0","task_version":"prescreen-v0.3"},{"responses":{"01":"Yes","01_ages_12":"12","01_ages_13":"13","01_ages_14":"14","02":"Yes","02_ages_10":"10","02_ages_11":"11","02_ages_12":"12","02_ages_13":"13","02_ages_14":"14","02_ages_15":"15","02_ages_16":"16","03":"No","04":"No","05":"No","06":"No"},"rt":36037.700000047684,"item_order":[0,1,2,3,4,5],"radio_events":[11844.200000047684,19128.100000023842,25062.80000001192,29452.900000035763,31313.900000035763,32719.900000035763],"checkbox_events":[14958.100000023842,15458.200000047684,16094.600000023842,20153.200000047684,20610,21051.80000001192,22530.700000047684,23575.100000023842,23988.600000023842,34535.5],"key_events":[],"mouse_events":[0.10000002384185791,11844.200000047684,14958.100000023842,15458.200000047684,16094.600000023842,19128.100000023842,20153.200000047684,20610,21051.80000001192,21618.80000001192,22530.700000047684,22977.80000001192,23575.100000023842,23988.600000023842,25062.80000001192,28199.5,29452.900000035763,30241.80000001192,31313.900000035763,32719.900000035763,33870,34535.5,36031.10000002384],"honeypot":0,"survey":"mace","page":1,"trial_type":"survey-mace","trial_index":9,"time_elapsed":306976,"internal_node_id":"0.0-9.0","task_version":"prescreen-v0.3","browser_interactions":0},{"responses":{"01":"No","02":"No","03":"No","04":"No","05":"No","06":"No","07":"No","08":"No"},"rt":21821.799999952316,"item_order":[0,1,2,3,4,5,6,7],"radio_events":[7446.299999952316,9465.799999952316,11025,12120,13276.399999976158,18276.69999998808,18892.899999976158,20626.19999998808],"checkbox_events":[],"key_events":[],"mouse_events":[7446.299999952316,9465.799999952316,11025,12120,13276.399999976158,14371.5,16856.399999976158,17583.099999964237,18276.69999998808,18892.899999976158,19931.69999998808,20626.19999998808,21814.899999976158],"honeypot":0,"survey":"mace","page":2,"trial_type":"survey-mace","trial_index":10,"time_elapsed":328812,"internal_node_id":"0.0-10.0","task_version":"prescreen-v0.3","browser_interactions":0},{"responses":{"01":"No","02":"No","03":"No","04":"No"},"rt":15962.199999988079,"item_order":[0,1,2,3],"radio_events":[5748.699999988079,9154.800000011921,11205.199999988079,12057.300000011921],"checkbox_events":[],"key_events":[],"mouse_events":[5748.699999988079,9154.800000011921,11205.199999988079,12057.300000011921,15959.400000035763],"honeypot":0,"survey":"mace","page":3,"trial_type":"survey-mace","trial_index":11,"time_elapsed":344785,"internal_node_id":"0.0-11.0","task_version":"prescreen-v0.3","browser_interactions":0},{"responses":{"01":"No","02":"No"},"rt":4204.899999976158,"item_order":[0,1],"radio_events":[2070.599999964237,3304.099999964237],"checkbox_events":[],"key_events":[],"mouse_events":[2070.599999964237,3304.099999964237,4203.099999964237],"honeypot":0,"survey":"mace","page":4,"trial_type":"survey-mace","trial_index":12,"time_elapsed":348996,"internal_node_id":"0.0-12.0","task_version":"prescreen-v0.3","browser_interactions":0},{"responses":{"01":"No","02":"No","03":"No","04":"No","05":"No"},"rt":14013.5,"item_order":[0,1,2,3,4],"radio_events":[3719.899999976158,6364.899999976158,7879.699999988079,11730.300000011921,13027.5],"checkbox_events":[],"key_events":[],"mouse_events":[3719.899999976158,6364.899999976158,7879.699999988079,9791.099999964237,10719.199999988079,11730.300000011921,12319.599999964237,13027.5,14009.699999988079],"honeypot":0,"survey":"mace","page":5,"trial_type":"survey-mace","trial_index":13,"time_elapsed":363022,"internal_node_id":"0.0-13.0","task_version":"prescreen-v0.3","browser_interactions":0},{"responses":{"01":"Yes","01_ages_11":"11","01_ages_12":"12","01_ages_13":"13","01_ages_14":"14","02":"Yes","02_ages_12":"12","02_ages_13":"13","02_ages_14":"14","02_ages_15":"15","02_ages_16":"16","03":"Yes","03_ages_14":"14","03_ages_15":"15","03_ages_16":"16","04":"Yes","04_ages_11":"11","04_ages_12":"12","04_ages_13":"13","04_ages_14":"14","05":"No"},"rt":37465.39999997616,"item_order":[0,1,2,3,4],"radio_events":[10578.599999964237,16955.5,25525.599999964237,31470.5,36633],"checkbox_events":[12407.099999964237,12962,13480.899999976158,14027.099999964237,17974.299999952316,19262.099999964237,19892.299999952316,20570.5,21194.5,26942.299999952316,28536,29097.399999976158,32869.19999998808,33583.59999996424,34379.299999952316,34983.19999998808],"key_events":[],"mouse_events":[10578.599999964237,12407.099999964237,12962,13480.899999976158,14027.099999964237,14602.599999964237,15155.299999952316,16955.5,17974.299999952316,18673.099999964237,19262.099999964237,19892.299999952316,20570.5,21194.5,24283.599999964237,25525.599999964237,26942.299999952316,27488.599999964237,28536,29097.399999976158,31470.5,32869.19999998808,33583.59999996424,34379.299999952316,34983.19999998808,36633,37459.799999952316],"honeypot":0,"survey":"mace","page":6,"trial_type":"survey-mace","trial_index":14,"time_elapsed":400500,"internal_node_id":"0.0-14.0","task_version":"prescreen-v0.3","browser_interactions":0},{"responses":{"01":"No","02":"No","03":"No","04":"No","05":"No","06":"No","07":"No"},"rt":90645.89999997616,"item_order":[0,1,2,3,4,5,6],"radio_events":[80201.39999997616,81460.69999998808,84385,85366,87452.89999997616,88482.30000001192,89991.89999997616],"checkbox_events":[],"key_events":[],"mouse_events":[80201.39999997616,81460.69999998808,82484.60000002384,83094.80000001192,84385,85366,87452.89999997616,88482.30000001192,89126.5,89991.89999997616,90635.89999997616],"honeypot":0,"survey":"mace","page":7,"trial_type":"survey-mace","trial_index":15,"time_elapsed":491161,"internal_node_id":"0.0-15.0","task_version":"prescreen-v0.3","browser_interactions":4},{"responses":{"01":"Yes","01_ages_7":"7","01_ages_8":"8","01_ages_9":"9","01_ages_10":"10","01_ages_11":"11","01_ages_12":"12","01_ages_13":"13","01_ages_14":"14","01_ages_15":"15","01_ages_16":"16","02":"No","03":"No","04":"No"},"rt":44729.30000001192,"item_order":[0,1,2,3],"radio_events":[27788.30000001192,40619.30000001192,42441,43651.10000002384],"checkbox_events":[29777.400000035763,30335.30000001192,30820.700000047684,31361.700000047684,32105.400000035763,33153.80000001192,33640.5,34186.200000047684,35307.10000002384,37356.80000001192],"key_events":[],"mouse_events":[27788.30000001192,29777.400000035763,30335.30000001192,30820.700000047684,31361.700000047684,32105.400000035763,32571.700000047684,33153.80000001192,33640.5,34186.200000047684,34780.5,35307.10000002384,35944.200000047684,37356.80000001192,40619.30000001192,42441,43651.10000002384,44726.10000002384],"honeypot":0,"survey":"mace","page":8,"trial_type":"survey-mace","trial_index":16,"time_elapsed":535916,"internal_node_id":"0.0-16.0","task_version":"prescreen-v0.3","browser_interactions":2},{"responses":{"01":"Yes","01_ages_5":"5","01_ages_6":"6","01_ages_7":"7","01_ages_8":"8","01_ages_9":"9","01_ages_10":"10","01_ages_11":"11","01_ages_12":"12","01_ages_13":"13","01_ages_14":"14","01_ages_15":"15","02":"No","03":"Yes","03_ages_10":"10","03_ages_11":"11","03_ages_12":"12","03_ages_13":"13","03_ages_14":"14","03_ages_15":"15","03_ages_16":"16","04":"Yes","04_ages_6":"6","04_ages_7":"7","04_ages_8":"8","04_ages_9":"9","04_ages_10":"10","04_ages_11":"11","04_ages_12":"12","04_ages_13":"13"},"rt":45468,"item_order":[0,1,2,3],"radio_events":[2568,14926.399999976158,15953.899999976158,36722],"checkbox_events":[4585.699999988079,4963.800000011921,7064.399999976158,7491.100000023842,8362.699999988079,9235.199999988079,9837.300000011921,10522.5,11347.300000011921,11909,12533,16887.69999998808,17503.69999998808,19106.100000023842,19587.5,20238.80000001192,20820.399999976158,21601.80000001192,38232.69999998808,38703.10000002384,39235.60000002384,40889.89999997616,41508.69999998808,42363.19999998808,42883.69999998808,43754.80000001192],"key_events":[],"mouse_events":[2568,4585.699999988079,4963.800000011921,5427.600000023842,5976.399999976158,6615.399999976158,7064.399999976158,7491.100000023842,8362.699999988079,9235.199999988079,9837.300000011921,10522.5,11347.300000011921,11909,12533,13155.800000011921,14926.399999976158,15953.899999976158,16887.69999998808,17503.69999998808,18237.600000023842,19106.100000023842,19587.5,20238.80000001192,20820.399999976158,21601.80000001192,36722,37601.60000002384,38232.69999998808,38703.10000002384,39235.60000002384,39706.60000002384,40189.39999997616,40889.89999997616,41508.69999998808,42363.19999998808,42883.69999998808,43311.19999998808,43754.80000001192,44453.89999997616,45464.69999998808],"honeypot":0,"survey":"mace","page":9,"trial_type":"survey-mace","trial_index":17,"time_elapsed":581396,"internal_node_id":"0.0-17.0","task_version":"prescreen-v0.3","browser_interactions":0},{"responses":{"01":"No","02":"No","03":"No","04":"Yes","04_ages_12":"12","04_ages_13":"13","04_ages_14":"14","04_ages_15":"15","04_ages_16":"16","04_ages_17":"17","04_ages_18":"18","05":"No","06":"Yes","06_ages_17":"17","07":"Yes","07_ages_12":"12","07_ages_13":"13","07_ages_14":"14","07_ages_15":"15","07_ages_16":"16","08":"No"},"rt":93213.69999998808,"item_order":[0,1,2,3,4,5,6,7],"radio_events":[65036.39999997616,67048.59999996424,68656.89999997616,70378.69999998808,81261.80000001192,82286.59999996424,87016.30000001192,92682.30000001192],"checkbox_events":[71570.80000001192,72290.30000001192,72760.30000001192,73329.19999998808,75093.09999996424,76193.89999997616,77116.80000001192,83789.69999998808,88165.80000001192,88678.69999998808,89301.5,90660,91093.89999997616],"key_events":[],"mouse_events":[65036.39999997616,66059.19999998808,67048.59999996424,68656.89999997616,70378.69999998808,71570.80000001192,72290.30000001192,72760.30000001192,73329.19999998808,73771.69999998808,74256,75093.09999996424,75661.39999997616,76193.89999997616,77116.80000001192,81261.80000001192,82286.59999996424,83789.69999998808,86302.59999996424,87016.30000001192,88165.80000001192,88678.69999998808,89301.5,89896.69999998808,90660,91093.89999997616,92682.30000001192,93207.80000001192],"honeypot":0,"survey":"mace","page":10,"trial_type":"survey-mace","trial_index":18,"time_elapsed":674624,"internal_node_id":"0.0-18.0","task_version":"prescreen-v0.3","browser_interactions":2,"instructed":0},{"rt":3310.300000011921,"trial_type":"mental-health-alert","trial_index":19,"time_elapsed":677946,"internal_node_id":"0.0-19.0","task_version":"prescreen-v0.3","interactions":"[{\"event\":\"blur\",\"trial\":4,\"time\":119900},{\"event\":\"focus\",\"trial\":4,\"time\":183199},{\"event\":\"blur\",\"trial\":6,\"time\":206401},{\"event\":\"focus\",\"trial\":6,\"time\":239596},{\"event\":\"blur\",\"trial\":15,\"time\":401107},{\"event\":\"focus\",\"trial\":15,\"time\":458276},{\"event\":\"blur\",\"trial\":15,\"time\":463028},{\"event\":\"focus\",\"trial\":15,\"time\":477604},{\"event\":\"blur\",\"trial\":16,\"time\":492428},{\"event\":\"focus\",\"trial\":16,\"time\":512569},{\"event\":\"blur\",\"trial\":18,\"time\":582757},{\"event\":\"focus\",\"trial\":18,\"time\":644216}]"}]