[{"view_history":[{"page_index":0,"viewing_time":4556},{"page_index":1,"viewing_time":4360},{"page_index":2,"viewing_time":4920},{"page_index":3,"viewing_time":1416}],"rt":15252,"trial_type":"instructions","trial_index":0,"time_elapsed":15256,"internal_node_id":"0.0-0.0","task_version":"prescreen-v0.3"},{"rt":25873,"responses":{"age":"22","gender-categorical":"Male","gender-free-response":"","ethnicity":"Not Hispanic or Latino","race":["White"],"education":"Bachelor degree"},"trial_type":"survey-demo","trial_index":1,"time_elapsed":41153,"internal_node_id":"0.0-1.0","task_version":"prescreen-v0.3"},{"responses":{"Q18":"2","Q10":"2","Q15":"1","Q02":"2","Q11":"2","Q16":"3","Q05":"1","Q06":"2","Q19":"2","Q17":"2","Q13":"1","Q01":"2","Q12":"2","Q08":"3","Q21":"3","Q03":"1","Q20":"1","Q04":"3","Q07":"1","Q09":"2","Q14":"2"},"rt":144004,"item_order":[17,9,14,1,10,15,4,5,18,16,12,0,11,7,20,2,19,3,6,8,13],"radio_events":[8539,15139,21315,27179,28459,35179,43892,50939,63556,69931,73155,77467,79667,93099,111651,114227,119411,121684,127171,135091,138084,142691],"key_events":[],"mouse_events":[8539,15139,21315,27179,28459,35179,43892,50939,63556,69931,73155,77467,79667,93099,111651,114227,119411,121684,127171,135091,138084,142691,144004],"straightlining":0.5238095238095238,"zigzagging":0.4,"honeypot":0,"survey":"sns","trial_type":"survey-template","trial_index":2,"time_elapsed":185169,"internal_node_id":"0.0-2.0","task_version":"prescreen-v0.3","browser_interactions":0,"infrequency":0},{"responses":{"Q05":"2","Q06":"2","Q04":"3","Q01":"3","Q07":"2","Q02":"2","Q11":"1","Q08":"1","Q13":"0","Q09":"1","Q03":"2","Q12":"1","Q10":"1"},"rt":66892,"item_order":[4,5,3,0,6,1,10,7,12,8,2,11,9],"radio_events":[10307,14531,18027,20163,23499,25275,30635,37259,45571,48683,55827,63755,65955],"key_events":[],"mouse_events":[10307,14531,18027,20163,23499,25275,30635,37259,45571,48683,55827,63755,65955,66892],"straightlining":0.38461538461538464,"zigzagging":0.5833333333333334,"honeypot":0,"survey":"bisbas","trial_type":"survey-template","trial_index":3,"time_elapsed":252065,"internal_node_id":"0.0-3.0","task_version":"prescreen-v0.3","browser_interactions":0,"infrequency":0},{"responses":{"Q01":"2","Q02":"2","Q03":"2"},"rt":18061,"radio_events":[4852,11092,16548],"key_events":[],"mouse_events":[4852,11092,16548,18061],"survey":"map","page":1,"trial_type":"survey-map","trial_index":4,"time_elapsed":270128,"internal_node_id":"0.0-4.0","task_version":"prescreen-v0.3","browser_interactions":0},{"responses":{"Q04":"3","Q05":"2","Q06":"2"},"rt":13463,"radio_events":[4038,9654,12518],"key_events":[],"mouse_events":[4038,9654,12518,13463],"survey":"map","page":2,"trial_type":"survey-map","trial_index":5,"time_elapsed":283592,"internal_node_id":"0.0-5.0","task_version":"prescreen-v0.3","browser_interactions":0},{"responses":{"Q07":"4","Q08":"2","Q09":"2"},"rt":14799,"radio_events":[4358,9230,13838],"key_events":[],"mouse_events":[3942,4358,9230,13838,14799],"survey":"map","page":3,"trial_type":"survey-map","trial_index":6,"time_elapsed":298392,"internal_node_id":"0.0-6.0","task_version":"prescreen-v0.3","browser_interactions":0},{"responses":{"Q10":"2","Q11":"1","Q12":"2","Q13":"2","Q16":"0","Q14":"2","Q15":"2"},"rt":39911,"radio_events":[6094,12446,15750,21165,23910,31950,38606],"key_events":[],"mouse_events":[6094,12446,15750,21165,23910,31950,38606,39911],"survey":"map","page":4,"trial_type":"survey-map","trial_index":7,"time_elapsed":338304,"internal_node_id":"0.0-7.0","task_version":"prescreen-v0.3","browser_interactions":0,"infrequency":0},{"view_history":[{"page_index":0,"viewing_time":2374},{"page_index":1,"viewing_time":4088}],"rt":6462,"trial_type":"instructions","trial_index":8,"time_elapsed":344767,"internal_node_id":"0.0-8.0","task_version":"prescreen-v0.3"},{"responses":{"01":"Yes","01_ages_8":"8","01_ages_9":"9","01_ages_10":"10","01_ages_11":"11","01_ages_12":"12","01_ages_13":"13","01_ages_14":"14","01_ages_15":"15","01_ages_16":"16","01_ages_17":"17","01_ages_18":"18","02":"Yes","02_ages_8":"8","02_ages_9":"9","02_ages_10":"10","02_ages_11":"11","02_ages_12":"12","02_ages_13":"13","02_ages_14":"14","02_ages_15":"15","02_ages_16":"16","02_ages_17":"17","02_ages_18":"18","03":"No","04":"Yes","04_ages_6":"6","04_ages_10":"10","04_ages_11":"11","04_ages_12":"12","04_ages_15":"15","04_ages_16":"16","04_ages_17":"17","04_ages_18":"18","05":"No","06":"Yes","06_ages_6":"6","06_ages_15":"15","06_ages_16":"16"},"rt":84231,"item_order":[0,1,2,3,4,5],"radio_events":[6389,26701,39973,40837,63309,75430],"checkbox_events":[17365,17789,18164,19629,20101,20684,21045,21781,22285,23205,23732,28829,29149,29485,29837,30325,30869,31277,32141,32517,32876,33213,44581,45452,49917,52525,53253,53669,57886,58333,58661,59461,77093,79533,81965],"key_events":[],"mouse_events":[0,6389,17365,17789,18164,18541,19629,20101,20684,21045,21781,22285,22845,23205,23732,26701,28829,29149,29485,29837,30325,30869,31277,31572,32141,32517,32876,33213,37980,39973,40837,44581,45452,49917,52525,53253,53669,57886,58333,58661,59461,60021,63309,75430,77093,79533,81965,84231],"honeypot":0,"survey":"mace","page":1,"trial_type":"survey-mace","trial_index":9,"time_elapsed":429010,"internal_node_id":"0.0-9.0","task_version":"prescreen-v0.3","browser_interactions":0},{"responses":{"01":"No","02":"No","03":"Yes","03_ages_6":"6","03_ages_8":"8","03_ages_10":"10","03_ages_11":"11","03_ages_12":"12","03_ages_16":"16","04":"No","05":"Yes","05_ages_6":"6","05_ages_8":"8","06":"No","07":"No","08":"No"},"rt":48266,"item_order":[0,1,2,3,4,5,6,7],"radio_events":[6823,11062,12198,32583,36471,43167,45303,47111],"checkbox_events":[18207,19607,20119,21423,22119,23320,25495,26119,26783,29023,38023,39167],"key_events":[],"mouse_events":[6823,11062,12198,18207,19607,20119,21423,21807,22119,23320,25495,25840,26119,26422,26783,29023,32583,36471,38023,39167,43167,45303,47111,48266],"honeypot":0,"survey":"mace","page":2,"trial_type":"survey-mace","trial_index":10,"time_elapsed":477283,"internal_node_id":"0.0-10.0","task_version":"prescreen-v0.3","browser_interactions":0},{"responses":{"01":"Yes","01_ages_10":"10","01_ages_11":"11","01_ages_12":"12","02":"No","03":"No","04":"No"},"rt":24600,"item_order":[0,1,2,3],"radio_events":[8648,19656,21920,23744],"checkbox_events":[12368,14223,14608],"key_events":[],"mouse_events":[8648,12368,14223,14608,19656,21920,23744,24600],"honeypot":0,"survey":"mace","page":3,"trial_type":"survey-mace","trial_index":11,"time_elapsed":501888,"internal_node_id":"0.0-11.0","task_version":"prescreen-v0.3","browser_interactions":0},{"responses":{"01":"No","02":"No"},"rt":8732,"item_order":[0,1],"radio_events":[4395,7804],"checkbox_events":[],"key_events":[],"mouse_events":[4395,7804,8732],"honeypot":0,"survey":"mace","page":4,"trial_type":"survey-mace","trial_index":12,"time_elapsed":510624,"internal_node_id":"0.0-12.0","task_version":"prescreen-v0.3","browser_interactions":0},{"responses":{"01":"Yes","01_ages_6":"6","01_ages_8":"8","01_ages_9":"9","01_ages_10":"10","01_ages_11":"11","01_ages_12":"12","01_ages_13":"13","01_ages_14":"14","01_ages_15":"15","01_ages_18":"18","02":"No","03":"No","04":"Yes","04_ages_6":"6","04_ages_8":"8","04_ages_9":"9","04_ages_10":"10","04_ages_11":"11","04_ages_12":"12","04_ages_13":"13","04_ages_14":"14","04_ages_15":"15","04_ages_18":"18","05":"No"},"rt":55423,"item_order":[0,1,2,3,4],"radio_events":[9245,27125,30021,41325,53853],"checkbox_events":[10924,11845,13524,13812,14117,15069,15853,18117,18485,22869,44564,45597,45957,46621,46989,47477,47981,48301,48701,49525],"key_events":[],"mouse_events":[9245,10924,11845,13524,13812,14117,14717,15069,15853,17589,18117,18485,22869,27125,30021,41325,44564,45597,45957,46621,46989,47477,47981,48301,48701,49525,53853,55423],"honeypot":0,"survey":"mace","page":5,"trial_type":"survey-mace","trial_index":13,"time_elapsed":566050,"internal_node_id":"0.0-13.0","task_version":"prescreen-v0.3","browser_interactions":0},{"responses":{"01":"Yes","01_ages_10":"10","01_ages_11":"11","01_ages_12":"12","01_ages_16":"16","02":"Yes","02_ages_10":"10","02_ages_11":"11","02_ages_12":"12","02_ages_16":"16","03":"Yes","03_ages_10":"10","03_ages_11":"11","03_ages_12":"12","03_ages_15":"15","03_ages_16":"16","03_ages_17":"17","03_ages_18":"18","04":"Yes","04_ages_16":"16","04_ages_17":"17","04_ages_18":"18","05":"Yes","05_ages_12":"12"},"rt":53442,"item_order":[0,1,2,3,4],"radio_events":[6881,18320,27352,41112,50440],"checkbox_events":[10457,10945,11377,13192,21169,21560,21953,24289,29593,31009,31385,32376,32969,33745,34089,36169,36697,37008,37873,42881,43289,43776,51473],"key_events":[],"mouse_events":[6881,10457,10945,11377,13192,18320,21169,21560,21953,24289,27352,29593,30000,31009,31385,31913,32376,32969,33745,34089,36169,36697,37008,37337,37873,41112,42881,43289,43776,50440,51473,53442],"honeypot":0,"survey":"mace","page":6,"trial_type":"survey-mace","trial_index":14,"time_elapsed":619498,"internal_node_id":"0.0-14.0","task_version":"prescreen-v0.3","browser_interactions":0},{"responses":{"01":"No","02":"No","03":"Yes","03_ages_10":"10","03_ages_11":"11","04":"No","05":"No","06":"No","07":"No"},"rt":43834,"item_order":[0,1,2,3,4,5,6],"radio_events":[3288,11960,24200,34600,41480,42168,43280],"checkbox_events":[18591,31048],"key_events":[],"mouse_events":[3288,11960,18591,24200,31048,34600,41480,42168,43280,43834],"honeypot":0,"survey":"mace","page":7,"trial_type":"survey-mace","trial_index":15,"time_elapsed":663338,"internal_node_id":"0.0-15.0","task_version":"prescreen-v0.3","browser_interactions":0},{"responses":{"01":"Yes","01_ages_10":"10","01_ages_11":"11","01_ages_12":"12","01_ages_16":"16","02":"No","03":"Yes","03_ages_6":"6","03_ages_7":"7","03_ages_8":"8","03_ages_9":"9","03_ages_10":"10","03_ages_11":"11","03_ages_12":"12","03_ages_13":"13","03_ages_14":"14","03_ages_15":"15","03_ages_16":"16","03_ages_17":"17","03_ages_18":"18","04":"No"},"rt":42523,"item_order":[0,1,2,3],"radio_events":[8323,16338,24883,38619],"checkbox_events":[10483,10842,11242,20755,25738,26050,26795,30642,30971,31995,32578,33171,33522,33875,34170,34506,34771],"key_events":[],"mouse_events":[8323,10483,10842,11242,16338,20755,24883,25738,26050,26362,26795,30642,30971,31410,31995,32283,32578,33171,33522,33875,34170,34506,34771,38619,42523],"honeypot":0,"survey":"mace","page":8,"trial_type":"survey-mace","trial_index":16,"time_elapsed":705865,"internal_node_id":"0.0-16.0","task_version":"prescreen-v0.3","browser_interactions":0},{"responses":{"01":"Yes","01_ages_1":"1","01_ages_2":"2","01_ages_3":"3","01_ages_4":"4","01_ages_5":"5","01_ages_6":"6","01_ages_7":"7","01_ages_8":"8","01_ages_9":"9","01_ages_10":"10","01_ages_11":"11","01_ages_12":"12","01_ages_13":"13","01_ages_14":"14","01_ages_15":"15","01_ages_16":"16","01_ages_17":"17","01_ages_18":"18","02":"Yes","02_ages_1":"1","02_ages_2":"2","02_ages_3":"3","02_ages_4":"4","02_ages_5":"5","02_ages_6":"6","02_ages_7":"7","02_ages_8":"8","02_ages_9":"9","02_ages_10":"10","02_ages_11":"11","02_ages_12":"12","02_ages_13":"13","02_ages_14":"14","02_ages_15":"15","02_ages_16":"16","02_ages_17":"17","02_ages_18":"18","03":"Yes","03_ages_1":"1","03_ages_2":"2","03_ages_3":"3","03_ages_4":"4","03_ages_5":"5","03_ages_6":"6","03_ages_7":"7","03_ages_8":"8","03_ages_9":"9","03_ages_10":"10","03_ages_11":"11","03_ages_12":"12","03_ages_13":"13","03_ages_14":"14","03_ages_15":"15","03_ages_16":"16","03_ages_17":"17","03_ages_18":"18","04":"Yes","04_ages_1":"1","04_ages_2":"2","04_ages_3":"3","04_ages_4":"4","04_ages_5":"5","04_ages_6":"6","04_ages_7":"7","04_ages_8":"8","04_ages_9":"9","04_ages_10":"10","04_ages_11":"11","04_ages_12":"12","04_ages_13":"13","04_ages_14":"14","04_ages_15":"15","04_ages_16":"16","04_ages_17":"17","04_ages_18":"18"},"rt":47077,"item_order":[0,1,2,3],"radio_events":[4259,15020,24764,37387],"checkbox_events":[5819,6187,6548,6907,7220,7564,7892,8228,8564,9076,9411,9739,10051,10747,11124,11660,12331,12652,15764,16052,16324,16627,16932,17284,17644,17940,18284,18620,18979,19371,20020,20340,20684,21275,21852,22131,25675,26004,26700,26980,27291,27611,27956,28372,28716,29035,29404,30867,31235,31652,31980,32316,32628,32923,38052,38340,38604,38900,39203,39475,39764,40596,40869,41148,41491,42300,43099,44019,44340,45373,45660,46508],"key_events":[],"mouse_events":[4259,5819,6187,6548,6907,7220,7564,7892,8228,8564,9076,9411,9739,10051,10428,10747,11124,11660,12052,12331,12652,15020,15764,16052,16324,16627,16932,17284,17644,17940,18284,18620,18979,19371,19667,20020,20340,20684,20995,21275,21564,21852,22131,24764,25675,26004,26371,26700,26980,27291,27611,27956,28372,28716,29035,29404,29772,30475,30867,31235,31652,31980,32316,32628,32923,37387,38052,38340,38604,38900,39203,39475,39764,40075,40596,40869,41148,41491,41827,42300,42644,43099,43443,43731,44019,44340,44964,45373,45660,46508,47077],"honeypot":0,"survey":"mace","page":9,"trial_type":"survey-mace","trial_index":17,"time_elapsed":752945,"internal_node_id":"0.0-17.0","task_version":"prescreen-v0.3","browser_interactions":0},{"responses":{"01":"No","02":"Yes","02_ages_10":"10","02_ages_11":"11","02_ages_12":"12","03":"No","04":"No","05":"Yes","05_ages_10":"10","05_ages_11":"11","05_ages_12":"12","05_ages_16":"16","05_ages_17":"17","05_ages_18":"18","06":"Yes","06_ages_17":"17","07":"Yes","07_ages_16":"16","07_ages_17":"17","07_ages_18":"18","08":"Yes","08_ages_13":"13","08_ages_14":"14","08_ages_15":"15","08_ages_16":"16","08_ages_17":"17","08_ages_18":"18"},"rt":67556,"item_order":[0,1,2,3,4,5,6,7],"radio_events":[3113,5186,13905,21818,23345,32065,37650,43762],"checkbox_events":[6634,7001,7450,24841,25177,25505,27194,27482,29857,33425,38649,38969,39297,44697,45001,45282,62954,63377,65169],"key_events":[],"mouse_events":[3113,5186,6634,7001,7450,13905,19794,21818,23345,24841,25177,25505,26649,27194,27482,29426,29857,32065,33425,37650,38649,38969,39297,43762,44697,45001,45282,62954,63377,64626,65169,67556],"honeypot":0,"survey":"mace","page":10,"trial_type":"survey-mace","trial_index":18,"time_elapsed":820506,"internal_node_id":"0.0-18.0","task_version":"prescreen-v0.3","browser_interactions":0,"instructed":0},{"rt":10716,"trial_type":"mental-health-alert","trial_index":19,"time_elapsed":831223,"internal_node_id":"0.0-19.0","task_version":"prescreen-v0.3","interactions":"[{\"event\":\"focus\",\"trial\":0,\"time\":2}]"}]