[{"view_history":[{"page_index":0,"viewing_time":2548},{"page_index":1,"viewing_time":3038},{"page_index":2,"viewing_time":1866},{"page_index":3,"viewing_time":994}],"rt":8446,"trial_type":"instructions","trial_index":0,"time_elapsed":8449,"internal_node_id":"0.0-0.0","task_version":"prescreen-v0.3"},{"rt":13849,"responses":{"age":"23","gender-categorical":"Male","gender-free-response":"","ethnicity":"Not Hispanic or Latino","race":["Asian"],"education":"Some college"},"trial_type":"survey-demo","trial_index":1,"time_elapsed":22305,"internal_node_id":"0.0-1.0","task_version":"prescreen-v0.3"},{"responses":{"Q13":"3","Q02":"2","Q11":"2","Q21":"3","Q18":"2","Q12":"1","Q05":"3","Q10":"3","Q14":"3","Q06":"1","Q08":"3","Q16":"3","Q01":"2","Q04":"3","Q15":"3","Q03":"3","Q07":"0","Q20":"0","Q09":"2","Q17":"2","Q19":"2"},"rt":87736,"item_order":[12,1,10,20,17,11,4,9,13,5,7,15,0,3,14,2,6,19,8,16,18],"radio_events":[7334,8558,11214,16604,18536,23832,29189,35157,40332,43449,47847,50508,52892,55017,57563,61783,63786,71315,75032,78215,80254,87115],"key_events":[],"mouse_events":[6939,7334,8310,8558,11214,16042,16604,18536,23832,29189,34244,34819,35157,39610,40033,40332,42787,43083,43449,47847,50258,50508,52892,55017,57563,60985,61275,61783,63183,63786,71315,74669,75032,78215,80254,86108,87115,87735],"straightlining":0.47619047619047616,"zigzagging":0.35,"honeypot":0,"survey":"sns","trial_type":"survey-template","trial_index":2,"time_elapsed":110047,"internal_node_id":"0.0-2.0","task_version":"prescreen-v0.3","browser_interactions":0,"infrequency":0},{"responses":{"Q04":"3","Q03":"3","Q01":"3","Q05":"3","Q08":"3","Q11":"3","Q13":"0","Q12":"2","Q06":"3","Q09":"3","Q02":"3","Q07":"3","Q10":"3"},"rt":44397,"item_order":[3,2,0,4,7,10,12,11,5,8,1,6,9],"radio_events":[5429,9682,10924,13122,16458,19424,21919,32498,34632,37897,38872,40571,43896],"key_events":[],"mouse_events":[4661,5140,5429,9682,10924,13122,16018,16458,19424,21919,27388,32498,34299,34632,36235,37119,37897,38547,38872,40571,43896,44397],"straightlining":0.8461538461538461,"zigzagging":0.16666666666666666,"honeypot":0,"survey":"bisbas","trial_type":"survey-template","trial_index":3,"time_elapsed":154449,"internal_node_id":"0.0-3.0","task_version":"prescreen-v0.3","browser_interactions":2,"infrequency":0},{"responses":{"Q01":"2","Q02":"1","Q03":"1"},"rt":19787,"radio_events":[6621,12016,17868],"key_events":[],"mouse_events":[2414,6621,12016,17868,19786],"survey":"map","page":1,"trial_type":"survey-map","trial_index":4,"time_elapsed":174240,"internal_node_id":"0.0-4.0","task_version":"prescreen-v0.3","browser_interactions":0},{"responses":{"Q04":"3","Q05":"3","Q06":"3"},"rt":9605,"radio_events":[3352,6226,8896],"key_events":[],"mouse_events":[3352,6226,8896,9605],"survey":"map","page":2,"trial_type":"survey-map","trial_index":5,"time_elapsed":183846,"internal_node_id":"0.0-5.0","task_version":"prescreen-v0.3","browser_interactions":0},{"responses":{"Q07":"3","Q08":"4","Q09":"1"},"rt":13742,"radio_events":[5954,9435,12001],"key_events":[],"mouse_events":[5954,9435,12001,13742],"survey":"map","page":3,"trial_type":"survey-map","trial_index":6,"time_elapsed":197590,"internal_node_id":"0.0-6.0","task_version":"prescreen-v0.3","browser_interactions":0},{"responses":{"Q10":"1","Q11":"1","Q12":"2","Q13":"2","Q16":"0","Q14":"3","Q15":"2"},"rt":36188,"radio_events":[2944,8250,11864,19960,20542,22795,28675,34471],"key_events":[],"mouse_events":[2944,8250,11442,11864,19960,20542,22795,28675,34471,36188],"survey":"map","page":4,"trial_type":"survey-map","trial_index":7,"time_elapsed":233780,"internal_node_id":"0.0-7.0","task_version":"prescreen-v0.3","browser_interactions":0,"infrequency":0},{"view_history":[{"page_index":0,"viewing_time":2754},{"page_index":1,"viewing_time":2448}],"rt":5202,"trial_type":"instructions","trial_index":8,"time_elapsed":238984,"internal_node_id":"0.0-8.0","task_version":"prescreen-v0.3"},{"responses":{"01":"Yes","01_ages_10":"10","01_ages_11":"11","01_ages_12":"12","01_ages_14":"14","01_ages_15":"15","01_ages_16":"16","02":"Yes","02_ages_14":"14","02_ages_15":"15","02_ages_16":"16","03":"No","04":"No","05":"No","06":"No"},"rt":50128,"item_order":[0,1,2,3,4,5],"radio_events":[8172,34080,42990,45288,46745,48629],"checkbox_events":[19878,22640,22935,23671,23968,24328,38405,38835,39238],"key_events":[],"mouse_events":[0,7871,8172,19878,22385,22640,22935,23671,23968,24328,33549,34080,38405,38835,39238,42990,45288,46745,48629,50128],"honeypot":0,"survey":"mace","page":1,"trial_type":"survey-mace","trial_index":9,"time_elapsed":289123,"internal_node_id":"0.0-9.0","task_version":"prescreen-v0.3","browser_interactions":0},{"responses":{"01":"No","02":"No","03":"No","04":"No","05":"No","06":"No","07":"No","08":"No"},"rt":11048,"item_order":[0,1,2,3,4,5,6,7],"radio_events":[3487,4292,5218,6946,7719,8697,10146,10595],"checkbox_events":[],"key_events":[],"mouse_events":[3487,4019,4292,5218,6091,6946,7719,8697,9860,10146,10595,11048],"honeypot":0,"survey":"mace","page":2,"trial_type":"survey-mace","trial_index":10,"time_elapsed":300180,"internal_node_id":"0.0-10.0","task_version":"prescreen-v0.3","browser_interactions":0},{"responses":{"01":"No","02":"No","03":"No","04":"No"},"rt":8109,"item_order":[0,1,2,3],"radio_events":[3299,4314,6015,7203],"checkbox_events":[],"key_events":[],"mouse_events":[3299,4314,5447,6015,7203,8109],"honeypot":0,"survey":"mace","page":3,"trial_type":"survey-mace","trial_index":11,"time_elapsed":308295,"internal_node_id":"0.0-11.0","task_version":"prescreen-v0.3","browser_interactions":0},{"responses":{"01":"No","02":"No"},"rt":13910,"item_order":[0,1],"radio_events":[7677,13452],"checkbox_events":[],"key_events":[],"mouse_events":[7677,13452,13910],"honeypot":0,"survey":"mace","page":4,"trial_type":"survey-mace","trial_index":12,"time_elapsed":322211,"internal_node_id":"0.0-12.0","task_version":"prescreen-v0.3","browser_interactions":0},{"responses":{"01":"No","02":"No","03":"No","04":"No","05":"No"},"rt":19332,"item_order":[0,1,2,3,4],"radio_events":[13370,15496,16720,17911,18694],"checkbox_events":[],"key_events":[],"mouse_events":[13370,15496,16720,17911,18694,19332],"honeypot":0,"survey":"mace","page":5,"trial_type":"survey-mace","trial_index":13,"time_elapsed":341552,"internal_node_id":"0.0-13.0","task_version":"prescreen-v0.3","browser_interactions":0},{"responses":{"01":"Yes","01_ages_14":"14","01_ages_15":"15","01_ages_16":"16","02":"Yes","02_ages_14":"14","02_ages_15":"15","02_ages_16":"16","03":"No","04":"Yes","04_ages_15":"15","04_ages_16":"16","05":"No"},"rt":33730,"item_order":[0,1,2,3,4],"radio_events":[6197,18873,25806,28138,33206],"checkbox_events":[11273,11514,12243,19594,19915,20254,29339,30440],"key_events":[],"mouse_events":[6197,11273,11514,11796,12243,18204,18873,19594,19915,20254,25806,28138,29339,30440,33206,33730],"honeypot":0,"survey":"mace","page":6,"trial_type":"survey-mace","trial_index":14,"time_elapsed":375289,"internal_node_id":"0.0-14.0","task_version":"prescreen-v0.3","browser_interactions":0},{"responses":{"01":"No","02":"No","03":"No","04":"No","05":"No","06":"No","07":"No"},"rt":10180,"item_order":[0,1,2,3,4,5,6],"radio_events":[1854,5387,5947,6453,8284,8724,9520],"checkbox_events":[],"key_events":[],"mouse_events":[1854,5387,5947,6453,7102,8011,8284,8724,9271,9520,10180],"honeypot":0,"survey":"mace","page":7,"trial_type":"survey-mace","trial_index":15,"time_elapsed":385476,"internal_node_id":"0.0-15.0","task_version":"prescreen-v0.3","browser_interactions":0},{"responses":{"01":"No","02":"Yes","02_ages_12":"12","02_ages_13":"13","02_ages_14":"14","02_ages_15":"15","02_ages_16":"16","02_ages_17":"17","02_ages_18":"18","03":"No","04":"Yes","04_ages_14":"14","04_ages_15":"15","04_ages_16":"16"},"rt":41196,"item_order":[0,1,2,3],"radio_events":[7336,12503,14110,15600,29509,36090],"checkbox_events":[20466,20788,21123,21471,22092,23216,23562,36908,37244,37617,39160,39596],"key_events":[],"mouse_events":[3641,7336,12503,14110,15600,20466,20788,21123,21471,21798,22092,22388,23216,23562,29509,36090,36908,37244,37617,39160,39596,41196],"honeypot":0,"survey":"mace","page":8,"trial_type":"survey-mace","trial_index":16,"time_elapsed":426677,"internal_node_id":"0.0-16.0","task_version":"prescreen-v0.3","browser_interactions":0},{"responses":{"01":"Yes","01_ages_10":"10","01_ages_11":"11","01_ages_12":"12","01_ages_13":"13","01_ages_14":"14","01_ages_15":"15","01_ages_16":"16","01_ages_17":"17","01_ages_18":"18","02":"Yes","02_ages_10":"10","02_ages_11":"11","02_ages_12":"12","02_ages_13":"13","02_ages_14":"14","02_ages_15":"15","02_ages_16":"16","02_ages_17":"17","02_ages_18":"18","03":"Yes","03_ages_10":"10","03_ages_11":"11","03_ages_12":"12","03_ages_13":"13","03_ages_14":"14","03_ages_15":"15","03_ages_16":"16","03_ages_17":"17","03_ages_18":"18","04":"Yes","04_ages_10":"10","04_ages_11":"11","04_ages_12":"12","04_ages_13":"13","04_ages_14":"14","04_ages_15":"15","04_ages_16":"16","04_ages_17":"17","04_ages_18":"18"},"rt":41841,"item_order":[0,1,2,3],"radio_events":[2402,19184,27061,36680],"checkbox_events":[7809,8138,8569,8940,9830,10286,10645,11780,12159,19833,20133,20485,21397,21997,22269,22588,22952,23307,29448,29747,30075,30387,30723,31081,31450,31814,32450,37253,37927,38218,38954,39899,40378,40750,41075,41452],"key_events":[],"mouse_events":[2402,7809,8138,8569,8940,9256,9830,10286,10645,10911,11780,12159,19184,19833,20133,20485,20777,21397,21661,21997,22269,22588,22952,23307,27061,29448,29747,30075,30387,30723,31081,31450,31814,32450,36680,37253,37541,37927,38218,38570,38954,39305,39655,39899,40378,40750,41075,41452,41841],"honeypot":0,"survey":"mace","page":9,"trial_type":"survey-mace","trial_index":17,"time_elapsed":468524,"internal_node_id":"0.0-17.0","task_version":"prescreen-v0.3","browser_interactions":0},{"responses":{"01":"No","02":"No","03":"No","04":"No","05":"No","06":"Yes","06_ages_17":"17","07":"Yes","07_ages_10":"10","07_ages_11":"11","07_ages_12":"12","07_ages_13":"13","07_ages_14":"14","07_ages_15":"15","07_ages_16":"16","07_ages_17":"17","07_ages_18":"18","08":"Yes","08_ages_15":"15","08_ages_16":"16","08_ages_17":"17","08_ages_18":"18"},"rt":41199,"item_order":[0,1,2,3,4,5,6,7],"radio_events":[4475,6342,6793,9079,10989,13924,19940,28601,32373,33313],"checkbox_events":[14968,22156,23589,24197,24467,24877,25166,25711,26528,26842,31192,31857,37758,38024,38302,40339],"key_events":[],"mouse_events":[4475,5433,6092,6342,6793,9079,10989,13924,14968,19940,21581,22156,22471,23589,23894,24197,24467,24877,25166,25711,25951,26528,26842,27868,28601,31192,31857,32373,33313,35030,35320,37758,38024,38302,40339,41199],"honeypot":0,"survey":"mace","page":10,"trial_type":"survey-mace","trial_index":18,"time_elapsed":509735,"internal_node_id":"0.0-18.0","task_version":"prescreen-v0.3","browser_interactions":0,"instructed":0},{"rt":4786,"trial_type":"mental-health-alert","trial_index":19,"time_elapsed":514523,"internal_node_id":"0.0-19.0","task_version":"prescreen-v0.3","interactions":"[{\"event\":\"focus\",\"trial\":0,\"time\":1},{\"event\":\"blur\",\"trial\":3,\"time\":138286},{\"event\":\"focus\",\"trial\":3,\"time\":141388}]"}]