[{"view_history":[{"page_index":0,"viewing_time":23634},{"page_index":1,"viewing_time":3035},{"page_index":2,"viewing_time":12988},{"page_index":3,"viewing_time":2599}],"rt":42256,"trial_type":"instructions","trial_index":0,"time_elapsed":42259,"internal_node_id":"0.0-0.0","task_version":"prescreen-v0.3"},{"rt":10517,"responses":{"age":"42","gender-categorical":"Male","gender-free-response":"","ethnicity":"Not Hispanic or Latino","race":["White"],"education":"Master degree or higher"},"trial_type":"survey-demo","trial_index":1,"time_elapsed":52787,"internal_node_id":"0.0-1.0","task_version":"prescreen-v0.3"},{"responses":{"Q04":"2","Q19":"3","Q01":"2","Q06":"2","Q14":"3","Q18":"2","Q02":"3","Q20":"1","Q12":"2","Q21":"3","Q10":"2","Q16":"2","Q11":"3","Q08":"2","Q05":"2","Q03":"3","Q07":"2","Q09":"3","Q13":"2","Q15":"2","Q17":"3"},"rt":54388,"item_order":[3,18,0,5,13,17,1,19,11,20,9,15,10,7,4,2,6,8,12,14,16],"radio_events":[9850,11464,12122,12496,13242,14060,15323,23109,26772,28741,29591,30031,32220,33112,36933,37774,39434,40166,41620,41968,42620],"key_events":[],"mouse_events":[9031,9850,11464,12122,12496,13242,14060,15323,23109,25294,26772,28741,29591,30031,30822,32220,33112,35845,36248,36933,37774,39434,40166,40975,41620,41968,42620,54388],"straightlining":0.5714285714285714,"zigzagging":0.75,"honeypot":0,"survey":"sns","trial_type":"survey-template","trial_index":2,"time_elapsed":107185,"internal_node_id":"0.0-2.0","task_version":"prescreen-v0.3","browser_interactions":0,"infrequency":0},{"responses":{"Q04":"2","Q03":"3","Q13":"3","Q02":"2","Q09":"2","Q06":"3","Q08":"2","Q01":"2","Q05":"3","Q12":"2","Q07":"2","Q10":"3","Q11":"2"},"rt":36310,"item_order":[3,2,12,1,8,5,7,0,4,11,6,9,10],"radio_events":[7496,9965,10545,11459,12016,13143,13993,23011,27599,28204,28554,29371,31238],"key_events":[],"mouse_events":[7496,9171,9965,10545,11459,12016,13143,13993,23011,27599,28204,28554,29371,30221,31238,36310],"straightlining":0.6153846153846154,"zigzagging":0.6666666666666666,"honeypot":0,"survey":"bisbas","trial_type":"survey-template","trial_index":3,"time_elapsed":143505,"internal_node_id":"0.0-3.0","task_version":"prescreen-v0.3","browser_interactions":2,"infrequency":1},{"responses":{"Q01":"3","Q02":"4","Q03":"3"},"rt":16233,"radio_events":[2694,3633,4410],"key_events":[],"mouse_events":[2694,3633,4410,16233],"survey":"map","page":1,"trial_type":"survey-map","trial_index":4,"time_elapsed":159745,"internal_node_id":"0.0-4.0","task_version":"prescreen-v0.3","browser_interactions":0},{"responses":{"Q04":"3","Q05":"4","Q06":"3"},"rt":10729,"radio_events":[1782,3602,4412],"key_events":[],"mouse_events":[1782,2504,3602,4412,10729],"survey":"map","page":2,"trial_type":"survey-map","trial_index":5,"time_elapsed":170478,"internal_node_id":"0.0-5.0","task_version":"prescreen-v0.3","browser_interactions":0},{"responses":{"Q07":"3","Q08":"4","Q09":"3"},"rt":10413,"radio_events":[2465,3737,7098],"key_events":[],"mouse_events":[1798,2465,3737,7098,10412],"survey":"map","page":3,"trial_type":"survey-map","trial_index":6,"time_elapsed":180894,"internal_node_id":"0.0-6.0","task_version":"prescreen-v0.3","browser_interactions":2},{"responses":{"Q10":"3","Q11":"4","Q12":"3","Q13":"2","Q16":"3","Q14":"4","Q15":"3"},"rt":28744,"radio_events":[7893,8552,10794,15528,16260,17428,18421],"key_events":[],"mouse_events":[7893,8552,10794,15528,16260,17428,18421,28744],"survey":"map","page":4,"trial_type":"survey-map","trial_index":7,"time_elapsed":209642,"internal_node_id":"0.0-7.0","task_version":"prescreen-v0.3","browser_interactions":4,"infrequency":1},{"view_history":[{"page_index":0,"viewing_time":25212},{"page_index":1,"viewing_time":17532}],"rt":42744,"trial_type":"instructions","trial_index":8,"time_elapsed":252389,"internal_node_id":"0.0-8.0","task_version":"prescreen-v0.3"},{"responses":{"01":"No","02":"No","03":"No","04":"No","05":"No","06":"No"},"rt":46017,"item_order":[0,1,2,3,4,5],"radio_events":[14712,17866,29164,32772,33192,35449,36218],"checkbox_events":[19376,25931],"key_events":[],"mouse_events":[0,14712,17866,19376,25931,29164,32772,33192,35449,36218,46016],"honeypot":0,"survey":"mace","page":1,"trial_type":"survey-mace","trial_index":9,"time_elapsed":298418,"internal_node_id":"0.0-9.0","task_version":"prescreen-v0.3","browser_interactions":2},{"responses":{"01":"No","02":"No","02_ages_9":"9","03":"No","04":"No","05":"No","06":"No","07":"No","08":"No"},"rt":40219,"item_order":[0,1,2,3,4,5,6,7],"radio_events":[19561,20412,22716,25449,26600,28800,29253,30239,31239,31969],"checkbox_events":[21962],"key_events":[],"mouse_events":[19561,20412,21962,22716,25449,26083,26600,28245,28800,29253,30239,31239,31969,40219],"honeypot":0,"survey":"mace","page":2,"trial_type":"survey-mace","trial_index":10,"time_elapsed":338649,"internal_node_id":"0.0-10.0","task_version":"prescreen-v0.3","browser_interactions":2},{"responses":{"01":"Yes","01_ages_11":"11","02":"Yes","02_ages_14":"14","03":"Yes","03_ages_14":"14","04":"Yes","04_ages_12":"12"},"rt":16088,"item_order":[0,1,2,3],"radio_events":[1912,4486,6703,8736],"checkbox_events":[2889,5503,7537,11644,12638,14069],"key_events":[],"mouse_events":[1419,1912,2889,3405,4486,5503,6703,7537,8736,11644,12638,14069,16088],"honeypot":0,"survey":"mace","page":3,"trial_type":"survey-mace","trial_index":11,"time_elapsed":354746,"internal_node_id":"0.0-11.0","task_version":"prescreen-v0.3","browser_interactions":0},{"responses":{"01":"No","02":"No"},"rt":4222,"item_order":[0,1],"radio_events":[2948,3712],"checkbox_events":[],"key_events":[],"mouse_events":[2187,2948,3712,4222],"honeypot":0,"survey":"mace","page":4,"trial_type":"survey-mace","trial_index":12,"time_elapsed":358974,"internal_node_id":"0.0-12.0","task_version":"prescreen-v0.3","browser_interactions":0},{"responses":{"01":"No","02":"Yes","02_ages_9":"9","03":"No","04":"Yes","04_ages_11":"11","05":"Yes","05_ages_13":"13"},"rt":46158,"item_order":[0,1,2,3,4],"radio_events":[34627,35452,38217,40092,43293],"checkbox_events":[36151,41785,45049],"key_events":[],"mouse_events":[34627,35452,36151,37319,38217,40092,41785,43293,45049,46158],"honeypot":0,"survey":"mace","page":5,"trial_type":"survey-mace","trial_index":13,"time_elapsed":405145,"internal_node_id":"0.0-13.0","task_version":"prescreen-v0.3","browser_interactions":2},{"responses":{"01":"No","02":"No","03":"No","04":"No","05":"No"},"rt":6742,"item_order":[0,1,2,3,4],"radio_events":[2149,2636,3341,4016,5256],"checkbox_events":[],"key_events":[],"mouse_events":[1785,2149,2636,3341,4016,5256,6742],"honeypot":0,"survey":"mace","page":6,"trial_type":"survey-mace","trial_index":14,"time_elapsed":411897,"internal_node_id":"0.0-14.0","task_version":"prescreen-v0.3","browser_interactions":0},{"responses":{"01":"Yes","01_ages_11":"11","02":"No","03":"No","04":"Yes","04_ages_12":"12","05":"No","06":"No","07":"No"},"rt":32671,"item_order":[0,1,2,3,4,5,6],"radio_events":[20500,22445,23843,25894,28651,29841,30445],"checkbox_events":[21428,27426],"key_events":[],"mouse_events":[20500,21428,22445,23843,25894,27426,28651,29841,30445,32671],"honeypot":0,"survey":"mace","page":7,"trial_type":"survey-mace","trial_index":15,"time_elapsed":444576,"internal_node_id":"0.0-15.0","task_version":"prescreen-v0.3","browser_interactions":2},{"responses":{"01":"No","02":"Yes","02_ages_8":"8","03":"No","04":"No"},"rt":29759,"item_order":[0,1,2,3],"radio_events":[23943,24745,27414,28440],"checkbox_events":[26033],"key_events":[],"mouse_events":[23943,24745,26033,27414,28440,29759],"honeypot":0,"survey":"mace","page":8,"trial_type":"survey-mace","trial_index":16,"time_elapsed":474343,"internal_node_id":"0.0-16.0","task_version":"prescreen-v0.3","browser_interactions":2},{"responses":{"01":"No","02":"No","03":"No","04":"No"},"rt":6190,"item_order":[0,1,2,3],"radio_events":[1724,2192,2764,3559],"checkbox_events":[],"key_events":[],"mouse_events":[1724,2192,2764,3559,6190],"honeypot":0,"survey":"mace","page":9,"trial_type":"survey-mace","trial_index":17,"time_elapsed":480541,"internal_node_id":"0.0-17.0","task_version":"prescreen-v0.3","browser_interactions":0},{"responses":{"01":"No","02":"Yes","02_ages_11":"11","03":"No","04":"No","05":"Yes","05_ages_11":"11","06":"Yes","06_ages_17":"17","07":"No","08":"No"},"rt":26644,"item_order":[0,1,2,3,4,5,6,7],"radio_events":[6998,7784,14576,15059,15941,19755,24360,25012],"checkbox_events":[9024,17490,21747],"key_events":[],"mouse_events":[6998,7784,9024,14576,15059,15941,17490,19755,21747,24360,25012,26644],"honeypot":0,"survey":"mace","page":10,"trial_type":"survey-mace","trial_index":18,"time_elapsed":507194,"internal_node_id":"0.0-18.0","task_version":"prescreen-v0.3","browser_interactions":0,"instructed":0},{"rt":7243,"trial_type":"mental-health-alert","trial_index":19,"time_elapsed":514440,"internal_node_id":"0.0-19.0","task_version":"prescreen-v0.3","interactions":"[{\"event\":\"focus\",\"trial\":0,\"time\":11035},{\"event\":\"blur\",\"trial\":0,\"time\":20765},{\"event\":\"focus\",\"trial\":0,\"time\":22242},{\"event\":\"blur\",\"trial\":3,\"time\":122161},{\"event\":\"focus\",\"trial\":3,\"time\":123514},{\"event\":\"blur\",\"trial\":6,\"time\":174992},{\"event\":\"focus\",\"trial\":6,\"time\":176418},{\"event\":\"blur\",\"trial\":7,\"time\":182150},{\"event\":\"focus\",\"trial\":7,\"time\":187443},{\"event\":\"blur\",\"trial\":7,\"time\":192542},{\"event\":\"focus\",\"trial\":7,\"time\":194249},{\"event\":\"blur\",\"trial\":8,\"time\":210543},{\"event\":\"focus\",\"trial\":8,\"time\":228258},{\"event\":\"blur\",\"trial\":8,\"time\":236932},{\"event\":\"focus\",\"trial\":8,\"time\":242928},{\"event\":\"blur\",\"trial\":8,\"time\":246146},{\"event\":\"focus\",\"trial\":8,\"time\":250320},{\"event\":\"blur\",\"trial\":9,\"time\":253467},{\"event\":\"focus\",\"trial\":9,\"time\":262639},{\"event\":\"blur\",\"trial\":10,\"time\":301582},{\"event\":\"focus\",\"trial\":10,\"time\":316596},{\"event\":\"blur\",\"trial\":13,\"time\":360111},{\"event\":\"focus\",\"trial\":13,\"time\":391882},{\"event\":\"blur\",\"trial\":15,\"time\":413675},{\"event\":\"focus\",\"trial\":15,\"time\":430903},{\"event\":\"blur\",\"trial\":16,\"time\":446695},{\"event\":\"focus\",\"trial\":16,\"time\":466996},{\"event\":\"blur\",\"trial\":19,\"time\":510462},{\"event\":\"focus\",\"trial\":19,\"time\":512942}]"}]