[{"view_history":[{"page_index":0,"viewing_time":1914},{"page_index":1,"viewing_time":1129.7999999523163},{"page_index":2,"viewing_time":1443.7000000476837},{"page_index":3,"viewing_time":768.1999999284744}],"rt":5256.199999928474,"trial_type":"instructions","trial_index":0,"time_elapsed":5272,"internal_node_id":"0.0-0.0","task_version":"prescreen-v0.3"},{"rt":12227,"responses":{"age":"46","gender-categorical":"Female","gender-free-response":"","ethnicity":"Not Hispanic or Latino","race":["White"],"education":"Associate degree"},"trial_type":"survey-demo","trial_index":1,"time_elapsed":17502,"internal_node_id":"0.0-1.0","task_version":"prescreen-v0.3"},{"responses":{"Q07":"0","Q17":"2","Q15":"3","Q11":"0","Q14":"2","Q21":"3","Q16":"2","Q10":"3","Q08":"0","Q13":"2","Q20":"0","Q09":"0","Q04":"2","Q12":"0","Q01":"2","Q19":"1","Q05":"0","Q18":"2","Q02":"1","Q06":"0","Q03":"0"},"rt":80513.70000004768,"item_order":[6,16,14,10,13,20,15,9,7,12,19,8,3,11,0,18,4,17,1,5,2],"radio_events":[9190.300000071526,10240.300000071526,13354.100000023842,14916,18100.100000023842,26110.700000047684,27694.5,30910.100000023842,32910.300000071526,34982.300000071526,36213.800000071526,39247.800000071526,41908.10000002384,44206.300000071526,60847.60000002384,64440,65366.10000002384,69296,70630,72072.80000007153,73696.10000002384,79672.10000002384],"key_events":[],"mouse_events":[7770.399999976158,9190.300000071526,10240.300000071526,12570.899999976158,13017.800000071526,13354.100000023842,14916,18100.100000023842,21466.200000047684,22446.5,25678.200000047684,26110.700000047684,27694.5,30158.200000047684,30910.100000023842,32910.300000071526,34982.300000071526,36213.800000071526,38848.10000002384,39247.800000071526,41626.300000071526,41908.10000002384,44206.300000071526,60526.200000047684,60847.60000002384,63758.10000002384,64440,65366.10000002384,67884.20000004768,69296,70042.10000002384,70324.10000002384,70630,72072.80000007153,73696.10000002384,74638.30000007153,78299.89999997616,79382.10000002384,79672.10000002384,80512.30000007153],"straightlining":0.42857142857142855,"zigzagging":0.5,"honeypot":0,"survey":"sns","trial_type":"survey-template","trial_index":2,"time_elapsed":98020,"internal_node_id":"0.0-2.0","task_version":"prescreen-v0.3","browser_interactions":0,"infrequency":0},{"responses":{"Q07":"2","Q06":"2","Q09":"1","Q08":"1","Q02":"3","Q03":"3","Q04":"3","Q11":"1","Q01":"3","Q10":"1","Q13":"0","Q05":"2","Q12":"1"},"rt":40590.299999952316,"item_order":[6,5,8,7,1,2,3,10,0,9,12,4,11],"radio_events":[6129.199999928474,6889.399999976158,9806.899999976158,13377.599999904633,14688,16985.299999952316,18878,23717.399999976158,28047.399999976158,29279.199999928474,31217.399999976158,38793.09999990463,39845.299999952316],"key_events":[],"mouse_events":[3657.5,4059.2999999523163,6129.199999928474,6889.399999976158,8787.399999976158,9806.899999976158,10867.299999952316,13377.599999904633,14688,16985.299999952316,18878,23717.399999976158,28047.399999976158,29279.199999928474,31217.399999976158,37257.39999997616,38793.09999990463,39485.39999997616,39845.299999952316,40589.299999952316],"straightlining":0.38461538461538464,"zigzagging":0.25,"honeypot":0,"survey":"bisbas","trial_type":"survey-template","trial_index":3,"time_elapsed":138613,"internal_node_id":"0.0-3.0","task_version":"prescreen-v0.3","browser_interactions":0,"infrequency":0},{"responses":{"Q01":"2","Q02":"2","Q03":"2"},"rt":10809,"radio_events":[4790.5,7018.5,9804.200000047684],"key_events":[],"mouse_events":[4374.200000047684,4790.5,7018.5,9482.399999976158,9804.200000047684,10808.5],"survey":"map","page":1,"trial_type":"survey-map","trial_index":4,"time_elapsed":149424,"internal_node_id":"0.0-4.0","task_version":"prescreen-v0.3","browser_interactions":0},{"responses":{"Q04":"2","Q05":"2","Q06":"3"},"rt":8123.900000095367,"radio_events":[3143.600000023842,4687.700000047684,7481.700000047684],"key_events":[],"mouse_events":[2663.5,3143.600000023842,4687.700000047684,7481.700000047684,8123.5],"survey":"map","page":2,"trial_type":"survey-map","trial_index":5,"time_elapsed":157550,"internal_node_id":"0.0-5.0","task_version":"prescreen-v0.3","browser_interactions":0},{"responses":{"Q07":"3","Q08":"3","Q09":"1"},"rt":10000.699999928474,"radio_events":[3490.2999999523163,6540.299999952316,9264.5],"key_events":[],"mouse_events":[3201,3490.2999999523163,6118.199999928474,6540.299999952316,8668.799999952316,8950.199999928474,9264.5,10000.299999952316],"survey":"map","page":3,"trial_type":"survey-map","trial_index":6,"time_elapsed":167552,"internal_node_id":"0.0-6.0","task_version":"prescreen-v0.3","browser_interactions":0},{"responses":{"Q10":"1","Q11":"0","Q12":"2","Q13":"2","Q16":"0","Q14":"2","Q15":"3"},"rt":24600.899999976158,"radio_events":[4580.200000047684,7114.200000047684,10745.600000023842,13610,18216.300000071526,21413.899999976158,23768],"key_events":[],"mouse_events":[3747.899999976158,4580.200000047684,6541.800000071526,7114.200000047684,10321.899999976158,10745.600000023842,13271.800000071526,13610,18216.300000071526,20669.899999976158,21413.899999976158,22747.700000047684,22993.899999976158,23768,24600.100000023842],"survey":"map","page":4,"trial_type":"survey-map","trial_index":7,"time_elapsed":192155,"internal_node_id":"0.0-7.0","task_version":"prescreen-v0.3","browser_interactions":0,"infrequency":0},{"view_history":[{"page_index":0,"viewing_time":1825.6000000238419},{"page_index":1,"viewing_time":1983.8999999761581}],"rt":3810,"trial_type":"instructions","trial_index":8,"time_elapsed":195966,"internal_node_id":"0.0-8.0","task_version":"prescreen-v0.3"},{"responses":{"01":"Yes","01_ages_11":"11","01_ages_12":"12","01_ages_13":"13","01_ages_14":"14","01_ages_15":"15","01_ages_16":"16","01_ages_17":"17","01_ages_18":"18","02":"Yes","02_ages_11":"11","02_ages_12":"12","02_ages_13":"13","02_ages_14":"14","02_ages_15":"15","02_ages_16":"16","02_ages_17":"17","02_ages_18":"18","03":"Yes","03_ages_13":"13","03_ages_14":"14","03_ages_15":"15","03_ages_16":"16","04":"No","05":"No","06":"Yes","06_ages_11":"11","06_ages_12":"12","06_ages_13":"13","06_ages_14":"14","06_ages_15":"15","06_ages_16":"16","06_ages_17":"17","06_ages_18":"18"},"rt":43970.09999990463,"item_order":[0,1,2,3,4,5],"radio_events":[6046,17537.899999976158,25979.899999976158,34341.89999997616,35077.5,36679.799999952316],"checkbox_events":[10126,11521.799999952316,12155.899999976158,12651.699999928474,13137.899999976158,14439.799999952316,14925.899999976158,15387.899999976158,18385.299999952316,19022,19586.299999952316,20103.399999976158,20495.599999904633,20965.799999952316,21703.699999928474,22283.899999976158,27005.399999976158,27531.699999928474,28371.299999952316,30237.699999928474,37683.699999928474,38153.699999928474,38601.5,39009.699999928474,39447.59999990463,40247.699999928474,40907.699999928474,41667.699999928474],"key_events":[],"mouse_events":[0.09999990463256836,6046,10126,11521.799999952316,12155.899999976158,12651.699999928474,13137.899999976158,13559.699999928474,14164.399999976158,14439.799999952316,14925.899999976158,15387.899999976158,17537.899999976158,18385.299999952316,19022,19586.299999952316,20103.399999976158,20495.599999904633,20965.799999952316,21703.699999928474,22283.899999976158,25979.899999976158,27005.399999976158,27531.699999928474,28003.5,28371.299999952316,28724.399999976158,29163.899999976158,29665.699999928474,30237.699999928474,32795.699999928474,33979.699999928474,34341.89999997616,35077.5,36679.799999952316,37683.699999928474,38153.699999928474,38601.5,39009.699999928474,39447.59999990463,39879.89999997616,40247.699999928474,40655.5,40907.699999928474,41308.5,41667.699999928474,43968.09999990463],"honeypot":0,"survey":"mace","page":1,"trial_type":"survey-mace","trial_index":9,"time_elapsed":239941,"internal_node_id":"0.0-9.0","task_version":"prescreen-v0.3","browser_interactions":0},{"responses":{"01":"Yes","01_ages_14":"14","01_ages_15":"15","02":"No","03":"Yes","03_ages_8":"8","03_ages_9":"9","03_ages_10":"10","03_ages_11":"11","03_ages_12":"12","03_ages_13":"13","03_ages_14":"14","04":"No","05":"No","06":"No","07":"No","08":"No"},"rt":34621.89999997616,"item_order":[0,1,2,3,4,5,6,7],"radio_events":[3406.2999999523163,9956.199999928474,19346,21088.299999952316,22978.199999928474,27316.099999904633,28076.199999928474,28970.299999952316,33262.299999952316],"checkbox_events":[4646.799999952316,5352.099999904633,11902.099999904633,12474.299999952316,12866.5,14403.799999952316,14882.099999904633,15668.199999928474,16060.199999928474],"key_events":[],"mouse_events":[3406.2999999523163,4646.799999952316,5014.5,5352.099999904633,8434.099999904633,9626.199999928474,9956.199999928474,11902.099999904633,12474.299999952316,12866.5,13556.199999928474,14403.799999952316,14882.099999904633,15668.199999928474,16060.199999928474,19346,21088.299999952316,22978.199999928474,25332.099999904633,26523.799999952316,27316.099999904633,28076.199999928474,28970.299999952316,29545.099999904633,32870.299999952316,33262.299999952316,34619.299999952316],"honeypot":0,"survey":"mace","page":2,"trial_type":"survey-mace","trial_index":10,"time_elapsed":274566,"internal_node_id":"0.0-10.0","task_version":"prescreen-v0.3","browser_interactions":0},{"responses":{"01":"No","02":"No","03":"No","04":"No"},"rt":9872.599999904633,"item_order":[0,1,2,3],"radio_events":[5477.799999952316,6301.199999928474,8357.599999904633,9173.199999928474,9455],"checkbox_events":[],"key_events":[],"mouse_events":[5477.799999952316,6301.199999928474,8097.699999928474,8357.599999904633,9173.199999928474,9455,9871.199999928474],"honeypot":0,"survey":"mace","page":3,"trial_type":"survey-mace","trial_index":11,"time_elapsed":284441,"internal_node_id":"0.0-11.0","task_version":"prescreen-v0.3","browser_interactions":0},{"responses":{"01":"Yes","01_ages_3":"3","01_ages_4":"4","01_ages_5":"5","02":"No"},"rt":12689.599999904633,"item_order":[0,1],"radio_events":[6216.399999976158,12100.699999928474],"checkbox_events":[8514.599999904633,9166.899999976158,10281.299999952316],"key_events":[],"mouse_events":[5864.899999976158,6216.399999976158,8514.599999904633,9166.899999976158,10281.299999952316,12100.699999928474,12688.899999976158],"honeypot":0,"survey":"mace","page":4,"trial_type":"survey-mace","trial_index":12,"time_elapsed":297132,"internal_node_id":"0.0-12.0","task_version":"prescreen-v0.3","browser_interactions":0},{"responses":{"01":"No","02":"No","03":"No","04":"No","05":"No"},"rt":16977.099999904633,"item_order":[0,1,2,3,4],"radio_events":[10997.199999928474,11820.899999976158,13155.099999904633,15421.199999928474,16175.799999952316],"checkbox_events":[],"key_events":[],"mouse_events":[10997.199999928474,11820.899999976158,13155.099999904633,15421.199999928474,16175.799999952316,16975.399999976158],"honeypot":0,"survey":"mace","page":5,"trial_type":"survey-mace","trial_index":13,"time_elapsed":314112,"internal_node_id":"0.0-13.0","task_version":"prescreen-v0.3","browser_interactions":0},{"responses":{"01":"Yes","01_ages_11":"11","01_ages_12":"12","01_ages_13":"13","01_ages_14":"14","01_ages_15":"15","02":"Yes","02_ages_11":"11","02_ages_12":"12","02_ages_13":"13","02_ages_14":"14","02_ages_15":"15","02_ages_16":"16","02_ages_17":"17","02_ages_18":"18","03":"No","04":"No","05":"Yes","05_ages_11":"11","05_ages_12":"12","05_ages_13":"13","05_ages_14":"14","05_ages_15":"15","05_ages_16":"16"},"rt":37063.199999928474,"item_order":[0,1,2,3,4],"radio_events":[6209.299999952316,14767.599999904633,24158.5,25703.899999976158,26031.299999952316,27985.599999904633],"checkbox_events":[8029.599999904633,9434.5,9959.599999904633,10429.599999904633,10963.799999952316,12077.699999928474,12759.699999928474,15739.699999928474,16139.599999904633,16925.599999904633,17474.5,17975.599999904633,18737.599999904633,19073.599999904633,19780,28841.599999904633,30095.599999904633,30519.599999904633,31155.599999904633,31625.399999976158,35351.59999990463],"key_events":[],"mouse_events":[6209.299999952316,7747.699999928474,8029.599999904633,8789.799999952316,9157.599999904633,9434.5,9959.599999904633,10429.599999904633,10963.799999952316,11715.699999928474,12077.699999928474,12759.699999928474,14767.599999904633,15739.699999928474,16139.599999904633,16555.5,16925.599999904633,17474.5,17975.599999904633,18737.599999904633,19073.599999904633,19490.399999976158,19780,23231.599999904633,23546.199999928474,24158.5,25703.899999976158,26031.299999952316,27985.599999904633,28841.599999904633,29327.599999904633,29752.299999952316,30095.599999904633,30519.599999904633,31155.599999904633,31625.399999976158,32111.599999904633,35351.59999990463,37061.39999997616],"honeypot":0,"survey":"mace","page":6,"trial_type":"survey-mace","trial_index":14,"time_elapsed":351177,"internal_node_id":"0.0-14.0","task_version":"prescreen-v0.3","browser_interactions":0},{"responses":{"01":"No","02":"No","03":"Yes","03_ages_8":"8","03_ages_9":"9","03_ages_10":"10","03_ages_11":"11","03_ages_12":"12","04":"No","05":"No","06":"No","07":"No"},"rt":37118,"item_order":[0,1,2,3,4,5,6],"radio_events":[6977.299999952316,10579.299999952316,13991.200000047684,21301.399999976158,24533.600000023842,31136.799999952316,32879.39999997616,34777.60000002384,36613.200000047684],"checkbox_events":[7857.5,8295.200000047684,18125.200000047684,18564,25913.600000023842,26439.5,27264.399999976158,27843.200000047684,28345.200000047684],"key_events":[],"mouse_events":[6609.600000023842,6977.299999952316,7857.5,8295.200000047684,10579.299999952316,12352.399999976158,13991.200000047684,18125.200000047684,18564,21301.399999976158,24227.799999952316,24533.600000023842,25913.600000023842,26439.5,26988.299999952316,27264.399999976158,27843.200000047684,28345.200000047684,31136.799999952316,32879.39999997616,33969.200000047684,34511.5,34777.60000002384,36613.200000047684,37115.700000047684],"honeypot":0,"survey":"mace","page":7,"trial_type":"survey-mace","trial_index":15,"time_elapsed":388299,"internal_node_id":"0.0-15.0","task_version":"prescreen-v0.3","browser_interactions":0},{"responses":{"01":"Yes","01_ages_11":"11","01_ages_12":"12","01_ages_13":"13","01_ages_14":"14","01_ages_15":"15","01_ages_16":"16","01_ages_17":"17","01_ages_18":"18","02":"No","03":"Yes","03_ages_11":"11","03_ages_12":"12","03_ages_13":"13","03_ages_14":"14","03_ages_15":"15","03_ages_16":"16","03_ages_17":"17","03_ages_18":"18","04":"No"},"rt":27740.600000023842,"item_order":[0,1,2,3],"radio_events":[6609.399999976158,14844.899999976158,17338.799999952316,27206.899999976158],"checkbox_events":[8842.899999976158,9234.799999952316,9948.700000047684,10678.799999952316,11117,12389,13189,14066.299999952316,18302.799999952316,19840.799999952316,20286.700000047684,20877.5,21967,22335.5,23292.700000047684,24256.799999952316],"key_events":[],"mouse_events":[6252.799999952316,6609.399999976158,8842.899999976158,9234.799999952316,9603,9948.700000047684,10372.799999952316,10678.799999952316,11117,11532.799999952316,11948.700000047684,12389,12938,13189,14066.299999952316,14844.899999976158,17338.799999952316,18302.799999952316,18804.700000047684,19244.799999952316,19840.799999952316,20286.700000047684,20877.5,21252.5,21730.700000047684,21967,22335.5,22978.899999976158,23292.700000047684,23676.600000023842,23966.399999976158,24256.799999952316,27206.899999976158,27739.200000047684],"honeypot":0,"survey":"mace","page":8,"trial_type":"survey-mace","trial_index":16,"time_elapsed":416041,"internal_node_id":"0.0-16.0","task_version":"prescreen-v0.3","browser_interactions":0},{"responses":{"01":"Yes","01_ages_1":"1","01_ages_2":"2","01_ages_3":"3","01_ages_4":"4","01_ages_5":"5","01_ages_6":"6","01_ages_7":"7","01_ages_8":"8","01_ages_9":"9","01_ages_10":"10","01_ages_11":"11","01_ages_12":"12","01_ages_13":"13","01_ages_14":"14","01_ages_15":"15","01_ages_16":"16","01_ages_17":"17","01_ages_18":"18","02":"Yes","02_ages_1":"1","02_ages_2":"2","02_ages_3":"3","02_ages_4":"4","02_ages_5":"5","02_ages_6":"6","02_ages_7":"7","02_ages_8":"8","02_ages_9":"9","02_ages_10":"10","02_ages_11":"11","02_ages_12":"12","02_ages_13":"13","02_ages_14":"14","02_ages_15":"15","02_ages_16":"16","02_ages_17":"17","02_ages_18":"18","03":"Yes","03_ages_1":"1","03_ages_2":"2","03_ages_3":"3","03_ages_4":"4","03_ages_5":"5","03_ages_6":"6","03_ages_7":"7","03_ages_8":"8","03_ages_9":"9","03_ages_10":"10","03_ages_11":"11","03_ages_12":"12","03_ages_13":"13","03_ages_14":"14","03_ages_15":"15","03_ages_16":"16","03_ages_17":"17","03_ages_18":"18","04":"Yes","04_ages_1":"1","04_ages_2":"2","04_ages_3":"3","04_ages_4":"4","04_ages_5":"5","04_ages_6":"6","04_ages_7":"7","04_ages_8":"8","04_ages_9":"9","04_ages_10":"10","04_ages_11":"11"},"rt":73763.29999995232,"item_order":[0,1,2,3],"radio_events":[6092.099999904633,20941.699999928474,39292.09999990463,41166.09999990463],"checkbox_events":[8837.799999952316,9654.899999976158,10140.099999904633,10714.799999952316,11160.299999952316,11874,12416.099999904633,12980.699999928474,13379.899999976158,13938.199999928474,14423.799999952316,14886,15482.299999952316,15938.099999904633,16911,17632,18276.099999904633,18910.199999928474,22998.399999976158,23626,24182.799999952316,24605.799999952316,26238.699999928474,26842.699999928474,27336.199999928474,27845.599999904633,28238.5,28699.699999928474,29234.799999952316,29642.5,30168.799999952316,31118.199999928474,31840,32262.099999904633,32755.799999952316,33172.09999990463,41857.89999997616,42242.09999990463,43254.39999997616,43834,44218.299999952316,44634.09999990463,46454.09999990463,47036.199999928474,47889.89999997616,48126.799999952316,48776,49224,56034,56529.299999952316,57565.199999928474,58002,58668,59070.5,59964.09999990463,61768.09999990463,62480,62866.09999990463,64371.699999928474,65290,65690.69999992847,66576.09999990463,67445.89999997616,67666,68317.89999997616,69862,70631.79999995232,71330.69999992847,71863.89999997616],"key_events":[],"mouse_events":[5716.599999904633,6092.099999904633,8837.799999952316,9654.899999976158,10140.099999904633,10714.799999952316,11160.299999952316,11874,12416.099999904633,12980.699999928474,13379.899999976158,13938.199999928474,14423.799999952316,14886,15482.299999952316,15938.099999904633,16376.299999952316,16911,17632,18040.5,18276.099999904633,18910.199999928474,20941.699999928474,22323.799999952316,22998.399999976158,23264.199999928474,23626,24182.799999952316,24605.799999952316,25108,25955.899999976158,26238.699999928474,26576.899999976158,26842.699999928474,27336.199999928474,27845.599999904633,28238.5,28699.699999928474,29234.799999952316,29642.5,30168.799999952316,30568.099999904633,30866.099999904633,31118.199999928474,31493.799999952316,31840,32262.099999904633,32755.799999952316,33172.09999990463,34240.299999952316,39292.09999990463,41166.09999990463,41857.89999997616,42242.09999990463,42899.89999997616,43254.39999997616,43834,44218.299999952316,44634.09999990463,45026,45316.299999952316,45670,46093.89999997616,46454.09999990463,47036.199999928474,47592.09999990463,47889.89999997616,48126.799999952316,48494.799999952316,48776,49224,56034,56529.299999952316,57312.199999928474,57565.199999928474,58002,58668,59070.5,59964.09999990463,61359.59999990463,61768.09999990463,62128.09999990463,62480,62866.09999990463,64371.699999928474,65290,65690.69999992847,66128.29999995232,66576.09999990463,67115.79999995232,67445.89999997616,67666,68317.89999997616,68992,69862,70631.79999995232,71330.69999992847,71863.89999997616,73762],"honeypot":0,"survey":"mace","page":9,"trial_type":"survey-mace","trial_index":17,"time_elapsed":489807,"internal_node_id":"0.0-17.0","task_version":"prescreen-v0.3","browser_interactions":0},{"responses":{"01":"No","02":"No","03":"Yes","03_ages_11":"11","03_ages_12":"12","03_ages_13":"13","03_ages_14":"14","03_ages_15":"15","03_ages_16":"16","03_ages_17":"17","03_ages_18":"18","04":"Yes","04_ages_11":"11","04_ages_12":"12","04_ages_13":"13","05":"Yes","05_ages_1":"1","05_ages_2":"2","05_ages_3":"3","05_ages_4":"4","05_ages_5":"5","05_ages_6":"6","05_ages_7":"7","05_ages_8":"8","05_ages_9":"9","05_ages_10":"10","05_ages_11":"11","05_ages_12":"12","05_ages_13":"13","05_ages_14":"14","05_ages_15":"15","05_ages_16":"16","05_ages_17":"17","05_ages_18":"18","06":"Yes","06_ages_17":"17","07":"Yes","07_ages_1":"1","07_ages_2":"2","07_ages_3":"3","07_ages_4":"4","07_ages_5":"5","07_ages_6":"6","07_ages_7":"7","07_ages_8":"8","07_ages_9":"9","07_ages_10":"10","07_ages_11":"11","07_ages_12":"12","07_ages_13":"13","07_ages_14":"14","07_ages_15":"15","07_ages_16":"16","07_ages_17":"17","07_ages_18":"18","08":"No"},"rt":60454.5,"item_order":[0,1,2,3,4,5,6,7],"radio_events":[11812.100000023842,12415.700000047684,14228.200000047684,22111.899999976158,27141.700000047684,42494.39999997616,46166.39999997616,59847.700000047684],"checkbox_events":[15483.899999976158,16133.700000047684,16737.700000047684,17217.700000047684,17655.700000047684,18299.600000023842,19295.5,19719.700000047684,23461.799999952316,23885.399999976158,24323.700000047684,28795.700000047684,29290.5,29925.5,30301.899999976158,30843.899999976158,31769.600000023842,33550.5,34647.60000002384,35056.10000002384,35691.39999997616,36155.60000002384,36593.89999997616,37826.299999952316,38201.700000047684,39192.39999997616,39723.39999997616,40305.60000002384,40971.89999997616,43843.60000002384,48739.5,49414.299999952316,49781.799999952316,50565.39999997616,50943.299999952316,51578.299999952316,51985.5,52699.700000047684,53107.60000002384,53516.39999997616,54222.700000047684,54646.60000002384,55257.799999952316,55987.89999997616,56653.700000047684,57118.5,57493.700000047684,58057.700000047684],"key_events":[],"mouse_events":[11812.100000023842,12415.700000047684,14228.200000047684,15483.899999976158,16133.700000047684,16737.700000047684,17217.700000047684,17655.700000047684,18050.200000047684,18299.600000023842,18715.600000023842,18965.5,19295.5,19719.700000047684,21274.5,21602,22111.899999976158,23461.799999952316,23885.399999976158,24323.700000047684,27141.700000047684,28795.700000047684,29290.5,29667.899999976158,29925.5,30301.899999976158,30843.899999976158,31769.600000023842,32390.100000023842,33189.799999952316,33550.5,34647.60000002384,35056.10000002384,35691.39999997616,36155.60000002384,36593.89999997616,37356.39999997616,37826.299999952316,38201.700000047684,39192.39999997616,39723.39999997616,40305.60000002384,40971.89999997616,41820.299999952316,42494.39999997616,43843.60000002384,46166.39999997616,48739.5,49194.10000002384,49414.299999952316,49781.799999952316,50565.39999997616,50943.299999952316,51578.299999952316,51985.5,52699.700000047684,53107.60000002384,53516.39999997616,53822.39999997616,54222.700000047684,54646.60000002384,55257.799999952316,55649.799999952316,55987.89999997616,56427.39999997616,56653.700000047684,57118.5,57493.700000047684,58057.700000047684,59048.39999997616,59407.5,59847.700000047684,60451.799999952316],"honeypot":0,"survey":"mace","page":10,"trial_type":"survey-mace","trial_index":18,"time_elapsed":550265,"internal_node_id":"0.0-18.0","task_version":"prescreen-v0.3","browser_interactions":0,"instructed":0},{"rt":15596.799999952316,"trial_type":"mental-health-alert","trial_index":19,"time_elapsed":565863,"internal_node_id":"0.0-19.0","task_version":"prescreen-v0.3","interactions":"[]"}]