[{"view_history":[{"page_index":0,"viewing_time":1927.9000000059605},{"page_index":1,"viewing_time":2626.2000000178814},{"page_index":2,"viewing_time":2602.7999999821186},{"page_index":3,"viewing_time":1172.5999999940395}],"rt":8331.100000023842,"trial_type":"instructions","trial_index":0,"time_elapsed":8353,"internal_node_id":"0.0-0.0","task_version":"prescreen-v0.3"},{"rt":11883.199999988079,"responses":{"age":"23","gender-categorical":"Female","gender-free-response":"","ethnicity":"Not Hispanic or Latino","race":["Asian","White"],"education":"Bachelor degree"},"trial_type":"survey-demo","trial_index":1,"time_elapsed":20248,"internal_node_id":"0.0-1.0","task_version":"prescreen-v0.3"},{"responses":{"Q14":"3","Q15":"3","Q10":"1","Q20":"2","Q08":"1","Q06":"2","Q19":"3","Q12":"1","Q09":"1","Q04":"3","Q11":"0","Q01":"3","Q03":"2","Q07":"1","Q21":"3","Q13":"3","Q17":"3","Q18":"2","Q16":"3","Q05":"1","Q02":"3"},"rt":75549.70000001788,"item_order":[13,14,9,19,7,5,18,11,8,3,10,0,2,6,20,12,16,17,15,4,1],"radio_events":[6496.700000017881,10150.90000000596,14160.700000017881,16165.800000011921,21217.09999999404,24475.30000001192,30054.20000001788,36485.80000001192,37852.20000001788,41926.5,44125.70000001788,45758.90000000596,48362.20000001788,52282.80000001192,58296.90000000596,59404.70000001788,61385.5,63544.20000001788,65056,67036.90000000596,71806,74263.40000000596],"key_events":[],"mouse_events":[6496.700000017881,8598.59999999404,10150.90000000596,14160.700000017881,16165.800000011921,20004.80000001192,21217.09999999404,24475.30000001192,29488.70000001788,30054.20000001788,35645.20000001788,36485.80000001192,37852.20000001788,39864.80000001192,40865.40000000596,41926.5,44125.70000001788,45758.90000000596,48362.20000001788,51587.30000001192,52282.80000001192,55629.30000001192,58296.90000000596,59404.70000001788,61385.5,63544.20000001788,65056,67036.90000000596,71806,74263.40000000596,75104.70000001788,75541.5],"straightlining":0.47619047619047616,"zigzagging":0.5,"honeypot":0,"survey":"sns","trial_type":"survey-template","trial_index":2,"time_elapsed":95810,"internal_node_id":"0.0-2.0","task_version":"prescreen-v0.3","browser_interactions":0,"infrequency":0},{"responses":{"Q12":"1","Q02":"3","Q04":"3","Q03":"3","Q07":"2","Q09":"1","Q05":"2","Q10":"2","Q11":"1","Q13":"0","Q08":"1","Q06":"2","Q01":"3"},"rt":43429.90000000596,"item_order":[11,1,3,2,6,8,4,9,10,12,7,5,0],"radio_events":[7496.9000000059605,11378.200000017881,14280.5,17959.20000001788,19997.90000000596,22923.5,25235.20000001788,29447,31573.40000000596,33457.30000001192,36859.90000000596,39470.5,41766.80000001192],"key_events":[],"mouse_events":[7496.9000000059605,11378.200000017881,14280.5,17959.20000001788,19997.90000000596,22923.5,25235.20000001788,29447,31573.40000000596,33457.30000001192,36859.90000000596,39470.5,41766.80000001192,43423.59999999404],"straightlining":0.3076923076923077,"zigzagging":0.6666666666666666,"honeypot":0,"survey":"bisbas","trial_type":"survey-template","trial_index":3,"time_elapsed":139248,"internal_node_id":"0.0-3.0","task_version":"prescreen-v0.3","browser_interactions":0,"infrequency":0},{"responses":{"Q01":"2","Q02":"1","Q03":"2"},"rt":20835.70000001788,"radio_events":[7237.100000023842,14310.5,16210.300000011921,19758.90000000596],"key_events":[],"mouse_events":[7237.100000023842,14310.5,15741.200000017881,16210.300000011921,19758.90000000596,20833.70000001788],"survey":"map","page":1,"trial_type":"survey-map","trial_index":4,"time_elapsed":160089,"internal_node_id":"0.0-4.0","task_version":"prescreen-v0.3","browser_interactions":0},{"responses":{"Q04":"2","Q05":"1","Q06":"1"},"rt":12569.90000000596,"radio_events":[5130.700000017881,8251,11557.600000023842],"key_events":[],"mouse_events":[5130.700000017881,8251,11557.600000023842,12568.100000023842],"survey":"map","page":2,"trial_type":"survey-map","trial_index":5,"time_elapsed":172667,"internal_node_id":"0.0-5.0","task_version":"prescreen-v0.3","browser_interactions":0},{"responses":{"Q07":"1","Q08":"0","Q09":"0"},"rt":11223.700000017881,"radio_events":[3565.600000023842,6508.200000017881,8998.200000017881],"key_events":[],"mouse_events":[3565.600000023842,6508.200000017881,8998.200000017881,11221.800000011921],"survey":"map","page":3,"trial_type":"survey-map","trial_index":6,"time_elapsed":183897,"internal_node_id":"0.0-6.0","task_version":"prescreen-v0.3","browser_interactions":0},{"responses":{"Q10":"1","Q11":"1","Q12":"0","Q13":"0","Q16":"4","Q14":"2","Q15":"1"},"rt":35427.30000001192,"radio_events":[3679.5999999940395,6525.5,9613.700000017881,14602.40000000596,19380.30000001192,27921.20000001788,32181.80000001192,33240.09999999404,34057.40000000596],"key_events":[],"mouse_events":[3679.5999999940395,6525.5,8902.90000000596,9613.700000017881,14602.40000000596,19380.30000001192,27921.20000001788,32181.80000001192,33240.09999999404,34057.40000000596,35423.59999999404],"survey":"map","page":4,"trial_type":"survey-map","trial_index":7,"time_elapsed":219333,"internal_node_id":"0.0-7.0","task_version":"prescreen-v0.3","browser_interactions":0,"infrequency":1},{"view_history":[{"page_index":0,"viewing_time":2189.0999999940395},{"page_index":1,"viewing_time":1665.5}],"rt":3855.800000011921,"trial_type":"instructions","trial_index":8,"time_elapsed":223191,"internal_node_id":"0.0-8.0","task_version":"prescreen-v0.3"},{"responses":{"01":"Yes","01_ages_2":"2","01_ages_3":"3","01_ages_4":"4","01_ages_5":"5","01_ages_6":"6","01_ages_7":"7","01_ages_8":"8","01_ages_9":"9","01_ages_10":"10","01_ages_11":"11","01_ages_12":"12","01_ages_13":"13","02":"No","03":"Yes","03_ages_2":"2","03_ages_3":"3","03_ages_4":"4","03_ages_5":"5","03_ages_6":"6","03_ages_7":"7","03_ages_8":"8","03_ages_9":"9","04":"No","05":"No","06":"Yes","06_ages_2":"2","06_ages_3":"3","06_ages_4":"4","06_ages_5":"5","06_ages_6":"6","06_ages_7":"7","06_ages_8":"8","06_ages_9":"9"},"rt":82202.40000000596,"item_order":[0,1,2,3,4,5],"radio_events":[18188.20000001788,20564.40000000596,48843.90000000596,60728.30000001192,62312.30000001192,65990.80000001192],"checkbox_events":[29457.30000001192,30378.20000001788,32610.100000023842,33167.5,33798.10000002384,34339.70000001788,34994.5,35625,36789.60000002384,37525.30000001192,38365.80000001192,40217.30000001192,53686.5,55497.40000000596,56006.40000000596,56604.30000001192,57202.70000001788,57760.5,58326.90000000596,59102.90000000596,70357,72709.20000001788,73274.80000001192,73824.60000002384,74447.20000001788,75174.60000002384,76250,76953.30000001192],"key_events":[],"mouse_events":[0.20000001788139343,18188.20000001788,20564.40000000596,27953.40000000596,28712.70000001788,29457.30000001192,30378.20000001788,32610.100000023842,33167.5,33798.10000002384,34339.70000001788,34994.5,35625,36272.10000002384,36789.60000002384,37525.30000001192,38365.80000001192,39328.20000001788,40217.30000001192,48843.90000000596,53686.5,55497.40000000596,56006.40000000596,56604.30000001192,57202.70000001788,57760.5,58326.90000000596,59102.90000000596,60728.30000001192,62312.30000001192,65990.80000001192,70357,72709.20000001788,73274.80000001192,73824.60000002384,74447.20000001788,75174.60000002384,75845.60000002384,76250,76953.30000001192,82192.10000002384],"honeypot":0,"survey":"mace","page":1,"trial_type":"survey-mace","trial_index":9,"time_elapsed":305407,"internal_node_id":"0.0-9.0","task_version":"prescreen-v0.3","browser_interactions":0},{"responses":{"01":"No","02":"No","03":"Yes","03_ages_2":"2","03_ages_3":"3","03_ages_4":"4","03_ages_5":"5","03_ages_6":"6","03_ages_7":"7","03_ages_8":"8","03_ages_9":"9","04":"No","05":"No","06":"No","07":"No","08":"No"},"rt":25827.90000000596,"item_order":[0,1,2,3,4,5,6,7],"radio_events":[5413.9000000059605,6569.800000011921,7620.700000017881,18791,20407,21239.90000000596,23947.80000001192,24966.20000001788],"checkbox_events":[9786.600000023842,11476,11968.90000000596,12688.100000023842,14394,14951.700000017881,15663,17110.100000023842],"key_events":[],"mouse_events":[4856.300000011921,5413.9000000059605,6569.800000011921,7620.700000017881,9786.600000023842,11476,11968.90000000596,12688.100000023842,13957.5,14394,14951.700000017881,15663,16227.40000000596,17110.100000023842,18791,19429.70000001788,20407,21239.90000000596,23947.80000001192,24966.20000001788,25815],"honeypot":0,"survey":"mace","page":2,"trial_type":"survey-mace","trial_index":10,"time_elapsed":331244,"internal_node_id":"0.0-10.0","task_version":"prescreen-v0.3","browser_interactions":0},{"responses":{"01":"No","02":"No","03":"No","04":"No"},"rt":11854.40000000596,"item_order":[0,1,2,3],"radio_events":[4200.200000017881,7781,9607.09999999404,10997.40000000596],"checkbox_events":[],"key_events":[],"mouse_events":[4200.200000017881,7781,9607.09999999404,10997.40000000596,11846.40000000596],"honeypot":0,"survey":"mace","page":3,"trial_type":"survey-mace","trial_index":11,"time_elapsed":343103,"internal_node_id":"0.0-11.0","task_version":"prescreen-v0.3","browser_interactions":0},{"responses":{"01":"Yes","01_ages_4":"4","02":"No"},"rt":13588.799999982119,"item_order":[0,1],"radio_events":[6600,9994.90000000596],"checkbox_events":[12161],"key_events":[],"mouse_events":[5492.4000000059605,6600,8871.299999982119,9994.90000000596,12161,13584],"honeypot":0,"survey":"mace","page":4,"trial_type":"survey-mace","trial_index":12,"time_elapsed":356697,"internal_node_id":"0.0-12.0","task_version":"prescreen-v0.3","browser_interactions":0},{"responses":{"01":"No","02":"No","03":"No","04":"No","05":"No"},"rt":19877.40000000596,"item_order":[0,1,2,3,4],"radio_events":[8455,9659.5,12811.699999988079,17653,18946.40000000596],"checkbox_events":[],"key_events":[],"mouse_events":[6911.199999988079,8455,9659.5,12811.699999988079,17653,18405,18946.40000000596,19867.59999999404],"honeypot":0,"survey":"mace","page":5,"trial_type":"survey-mace","trial_index":13,"time_elapsed":376580,"internal_node_id":"0.0-13.0","task_version":"prescreen-v0.3","browser_interactions":0},{"responses":{"01":"Yes","01_ages_7":"7","01_ages_9":"9","01_ages_10":"10","01_ages_12":"12","01_ages_13":"13","02":"Yes","02_ages_5":"5","02_ages_6":"6","02_ages_7":"7","02_ages_8":"8","02_ages_9":"9","02_ages_10":"10","02_ages_11":"11","02_ages_12":"12","02_ages_13":"13","02_ages_14":"14","02_ages_15":"15","02_ages_16":"16","02_ages_17":"17","02_ages_18":"18","03":"Yes","03_ages_6":"6","03_ages_7":"7","03_ages_8":"8","03_ages_9":"9","03_ages_10":"10","03_ages_11":"11","03_ages_12":"12","03_ages_13":"13","03_ages_14":"14","03_ages_15":"15","03_ages_16":"16","03_ages_17":"17","03_ages_18":"18","04":"Yes","04_ages_10":"10","05":"No"},"rt":78951.59999999404,"item_order":[0,1,2,3,4],"radio_events":[5076.800000011921,6410.4000000059605,52885.59999999404,68007.09999999404,78172.80000001192],"checkbox_events":[8681.700000017881,12303,13936.200000017881,14518,23134.09999999404,23936,26488.59999999404,27191.90000000596,27951.30000001192,32704,33229.5,36066.09999999404,36704.40000000596,37302.80000001192,37746.90000000596,38448.80000001192,38967.70000001788,39549.59999999404,40365.40000000596,44569,47147,47996.09999999404,49596.09999999404,56434.5,57104.80000001192,57614.09999999404,60006.5,60661.09999999404,61162.5,61760.09999999404,62892,63578.70000001788,64144.5,64766.59999999404,65381.40000000596,66391.5,71475.09999999404],"key_events":[],"mouse_events":[3969.0999999940395,5076.800000011921,6410.4000000059605,8681.700000017881,12303,13936.200000017881,14518,23134.09999999404,23936,25397.59999999404,26488.59999999404,27191.90000000596,27951.30000001192,32704,33229.5,36066.09999999404,36704.40000000596,37302.80000001192,37746.90000000596,38448.80000001192,38967.70000001788,39549.59999999404,40365.40000000596,44569,47147,47996.09999999404,49596.09999999404,52077.5,52885.59999999404,56434.5,57104.80000001192,57614.09999999404,60006.5,60661.09999999404,61162.5,61760.09999999404,62358.59999999404,62892,63578.70000001788,64144.5,64766.59999999404,65381.40000000596,65929.5,66391.5,68007.09999999404,71475.09999999404,77041.40000000596,77663.30000001192,78172.80000001192,78940.90000000596],"honeypot":0,"survey":"mace","page":6,"trial_type":"survey-mace","trial_index":14,"time_elapsed":455540,"internal_node_id":"0.0-14.0","task_version":"prescreen-v0.3","browser_interactions":0},{"responses":{"01":"No","02":"No","03":"No","04":"No","05":"No","06":"Yes","06_ages_16":"16","06_ages_17":"17","06_ages_18":"18","07":"Yes","07_ages_16":"16","07_ages_17":"17","07_ages_18":"18"},"rt":32384.80000001192,"item_order":[0,1,2,3,4,5,6],"radio_events":[4255.5999999940395,18036.09999999404,18843.90000000596,20961.40000000596,21664.5,23353.5,28874],"checkbox_events":[26327.80000001192,26932.59999999404,27968.40000000596,29827.59999999404,30360.80000001192,31201.40000000596],"key_events":[],"mouse_events":[4255.5999999940395,18036.09999999404,18843.90000000596,19692.40000000596,20961.40000000596,21664.5,22844.80000001192,23353.5,26327.80000001192,26932.59999999404,27968.40000000596,28874,29827.59999999404,30360.80000001192,31201.40000000596,32373.40000000596],"honeypot":0,"survey":"mace","page":7,"trial_type":"survey-mace","trial_index":15,"time_elapsed":487933,"internal_node_id":"0.0-15.0","task_version":"prescreen-v0.3","browser_interactions":0},{"responses":{"01":"No","02":"Yes","02_ages_3":"3","02_ages_4":"4","02_ages_5":"5","02_ages_6":"6","02_ages_7":"7","02_ages_8":"8","02_ages_9":"9","02_ages_10":"10","02_ages_11":"11","02_ages_12":"12","02_ages_13":"13","02_ages_14":"14","02_ages_15":"15","02_ages_16":"16","02_ages_17":"17","02_ages_18":"18","03":"No","04":"No"},"rt":37539.69999998808,"item_order":[0,1,2,3],"radio_events":[4695.0999999940395,9156.299999982119,35932.19999998808,36708],"checkbox_events":[18936.19999998808,20341.899999976158,21441.19999998808,21974.5,22613.29999998212,23437.399999976158,23963,25611.399999976158,26524.59999999404,27648.29999998212,28286.09999999404,28860.899999976158,30533.19999998808,31179.69999998808,32230.399999976158,33047.19999998808],"key_events":[],"mouse_events":[4695.0999999940395,9156.299999982119,18936.19999998808,20341.899999976158,20883.29999998212,21441.19999998808,21974.5,22613.29999998212,23437.399999976158,23963,24666.09999999404,25086.09999999404,25611.399999976158,26524.59999999404,27122.899999976158,27648.29999998212,28286.09999999404,28860.899999976158,30533.19999998808,31179.69999998808,32230.399999976158,33047.19999998808,34879.69999998808,35932.19999998808,36708,37531.79999998212],"honeypot":0,"survey":"mace","page":8,"trial_type":"survey-mace","trial_index":16,"time_elapsed":525479,"internal_node_id":"0.0-16.0","task_version":"prescreen-v0.3","browser_interactions":0},{"responses":{"01":"Yes","01_ages_1":"1","01_ages_2":"2","01_ages_3":"3","01_ages_4":"4","01_ages_5":"5","01_ages_6":"6","01_ages_7":"7","01_ages_8":"8","01_ages_9":"9","01_ages_10":"10","01_ages_11":"11","01_ages_12":"12","01_ages_13":"13","01_ages_14":"14","01_ages_15":"15","01_ages_16":"16","01_ages_17":"17","01_ages_18":"18","02":"Yes","02_ages_1":"1","02_ages_2":"2","02_ages_3":"3","02_ages_4":"4","02_ages_5":"5","02_ages_6":"6","02_ages_7":"7","02_ages_8":"8","02_ages_9":"9","02_ages_10":"10","02_ages_11":"11","02_ages_12":"12","02_ages_13":"13","02_ages_14":"14","02_ages_15":"15","02_ages_16":"16","02_ages_17":"17","02_ages_18":"18","03":"Yes","03_ages_1":"1","03_ages_2":"2","03_ages_3":"3","03_ages_4":"4","03_ages_5":"5","03_ages_6":"6","03_ages_7":"7","03_ages_8":"8","03_ages_9":"9","03_ages_10":"10","03_ages_11":"11","03_ages_12":"12","03_ages_13":"13","03_ages_14":"14","03_ages_15":"15","03_ages_16":"16","03_ages_17":"17","03_ages_18":"18","04":"Yes","04_ages_1":"1","04_ages_2":"2","04_ages_3":"3","04_ages_4":"4","04_ages_5":"5","04_ages_6":"6","04_ages_7":"7","04_ages_8":"8","04_ages_9":"9","04_ages_10":"10","04_ages_11":"11","04_ages_12":"12","04_ages_13":"13","04_ages_14":"14","04_ages_15":"15","04_ages_16":"16","04_ages_17":"17","04_ages_18":"18"},"rt":76370.79999998212,"item_order":[0,1,2,3],"radio_events":[3407.2999999821186,22254,39541.69999998808,61509.89999997616],"checkbox_events":[6187.399999976158,6688.0999999940395,7254.0999999940395,8280.199999988079,8870.399999976158,9484.899999976158,10623.899999976158,12200.199999988079,13525.699999988079,14511.799999982119,15367.899999976158,15893.699999988079,16499.5,17178.59999999404,17833.19999998808,18391.09999999404,19126.399999976158,19764.79999998212,23289.29999998212,24218.899999976158,24962.399999976158,25641.5,26304,26958.69999998808,27710.19999998808,28373.19999998808,29245.899999976158,29859.399999976158,31088,31799,32467.899999976158,33747,34329,34943.29999998212,35557.39999997616,36163.59999999404,41909.89999997616,42436.19999998808,42985.79999998212,44052.59999999404,44723.29999998212,45280.69999998808,46080.39999997616,46977.59999999404,47697.29999998212,48473,49054.89999997616,49838.69999998808,50485.5,51495.39999997616,51713.69999998808,52699.79999998212,53338.69999998808,53903.19999998808,56078.69999998808,56215.39999997616,56830.09999999404,57436.19999998808,63675.29999998212,64289.5,64847.5,65421.89999997616,66698.5,67239.59999999404,67845.69999998808,68549.09999999404,69187.69999998808,69922.79999998212,70569.5,71208,71764.19999998808,72735.69999998808,73397.79999998212,74149.79999998212,74739.79999998212,75305.19999998808],"key_events":[],"mouse_events":[3407.2999999821186,6187.399999976158,6688.0999999940395,7254.0999999940395,7755,8280.199999988079,8870.399999976158,9484.899999976158,10187.399999976158,10623.899999976158,12200.199999988079,13105.199999988079,13525.699999988079,14107.09999999404,14511.799999982119,15367.899999976158,15893.699999988079,16499.5,17178.59999999404,17833.19999998808,18391.09999999404,19126.399999976158,19764.79999998212,21244.399999976158,22254,23289.29999998212,23757.09999999404,24218.899999976158,24962.399999976158,25641.5,26304,26958.69999998808,27710.19999998808,28373.19999998808,29245.899999976158,29859.399999976158,30482.19999998808,31088,31799,32467.899999976158,33164.5,33747,34329,34943.29999998212,35557.39999997616,36163.59999999404,37634.39999997616,39541.69999998808,41288.39999997616,41909.89999997616,42436.19999998808,42985.79999998212,43624.09999999404,44052.59999999404,44723.29999998212,45280.69999998808,46080.39999997616,46977.59999999404,47697.29999998212,48473,49054.89999997616,49838.69999998808,50485.5,51059,51495.39999997616,51713.69999998808,52699.79999998212,53338.69999998808,53903.19999998808,54623.69999998808,55084.5,55528.69999998808,56078.69999998808,56215.39999997616,56830.09999999404,57436.19999998808,59666.89999997616,60734,61509.89999997616,62875.19999998808,63675.29999998212,64289.5,64847.5,65421.89999997616,66099.89999997616,66698.5,67239.59999999404,67845.69999998808,68549.09999999404,69187.69999998808,69922.79999998212,70569.5,71208,71764.19999998808,72735.69999998808,73397.79999998212,74149.79999998212,74739.79999998212,75305.19999998808,76363.79999998212],"honeypot":0,"survey":"mace","page":9,"trial_type":"survey-mace","trial_index":17,"time_elapsed":601857,"internal_node_id":"0.0-17.0","task_version":"prescreen-v0.3","browser_interactions":0},{"responses":{"01":"No","02":"No","03":"No","04":"No","05":"No","06":"Yes","06_ages_17":"17","07":"Yes","07_ages_1":"1","07_ages_2":"2","07_ages_3":"3","07_ages_4":"4","07_ages_5":"5","07_ages_6":"6","07_ages_7":"7","07_ages_8":"8","07_ages_9":"9","07_ages_10":"10","07_ages_11":"11","07_ages_12":"12","07_ages_13":"13","07_ages_14":"14","07_ages_15":"15","07_ages_16":"16","07_ages_17":"17","07_ages_18":"18","08":"Yes","08_ages_1":"1","08_ages_2":"2","08_ages_3":"3","08_ages_4":"4","08_ages_5":"5","08_ages_6":"6","08_ages_7":"7","08_ages_8":"8","08_ages_9":"9","08_ages_10":"10","08_ages_11":"11","08_ages_12":"12","08_ages_13":"13","08_ages_14":"14","08_ages_15":"15","08_ages_16":"16","08_ages_17":"17","08_ages_18":"18"},"rt":53806.40000000596,"item_order":[0,1,2,3,4,5,6,7],"radio_events":[3706.100000023842,5742.200000017881,6599.700000017881,10689,12644.600000023842,16888,19831.100000023842,21164.20000001788],"checkbox_events":[14404,22716.30000001192,23201.20000001788,24316.600000023842,25089.70000001788,26522.90000000596,27371.90000000596,28422.600000023842,28882.80000001192,29521.5,30062.90000000596,31210.90000000596,32294.30000001192,32900.30000001192,33595.20000001788,34096.60000002384,34557.5,35122.80000001192,35810.20000001788,36481.20000001788,37176.40000000596,38784.40000000596,39352.20000001788,40425.10000002384,40999.30000001192,41629.60000002384,42316.90000000596,43537.20000001788,44280.60000002384,45015.80000001192,45905.5,46494.60000002384,47198.80000001192,48266.10000002384,48807.60000002384,49382.90000000596,49938.90000000596,51410.5,52064.30000001192],"key_events":[],"mouse_events":[3706.100000023842,4538.4000000059605,5742.200000017881,6599.700000017881,10689,12644.600000023842,14404,16888,19831.100000023842,21164.20000001788,22716.30000001192,23201.20000001788,23733.80000001192,24316.600000023842,25089.70000001788,26522.90000000596,27371.90000000596,27888.70000001788,28422.600000023842,28882.80000001192,29521.5,30062.90000000596,30677.600000023842,31210.90000000596,31752.100000023842,32294.30000001192,32900.30000001192,33595.20000001788,34096.60000002384,34557.5,35122.80000001192,35810.20000001788,36481.20000001788,37176.40000000596,38784.40000000596,39352.20000001788,39972.90000000596,40425.10000002384,40999.30000001192,41629.60000002384,42316.90000000596,42930.80000001192,43537.20000001788,44280.60000002384,45015.80000001192,45905.5,46494.60000002384,47198.80000001192,48266.10000002384,48807.60000002384,49382.90000000596,49938.90000000596,50877.80000001192,51410.5,52064.30000001192,53793.60000002384],"honeypot":0,"survey":"mace","page":10,"trial_type":"survey-mace","trial_index":18,"time_elapsed":655672,"internal_node_id":"0.0-18.0","task_version":"prescreen-v0.3","browser_interactions":0,"instructed":0},{"rt":4784.0999999940395,"trial_type":"mental-health-alert","trial_index":19,"time_elapsed":660459,"internal_node_id":"0.0-19.0","task_version":"prescreen-v0.3","interactions":"[]"}]