[{"view_history":[{"page_index":0,"viewing_time":4372.099999904633},{"page_index":1,"viewing_time":5453.400000095367},{"page_index":2,"viewing_time":4020.0999999046326},{"page_index":3,"viewing_time":936}],"rt":14782.199999809265,"trial_type":"instructions","trial_index":0,"time_elapsed":14796,"internal_node_id":"0.0-0.0","task_version":"prescreen-v0.3"},{"rt":51363.299999952316,"responses":{"age":"20","gender-categorical":"Female","gender-free-response":"","ethnicity":"Not Hispanic or Latino","race":["White"],"education":"Some college"},"trial_type":"survey-demo","trial_index":1,"time_elapsed":66163,"internal_node_id":"0.0-1.0","task_version":"prescreen-v0.3"},{"responses":{"Q05":"1","Q03":"2","Q06":"0","Q04":"1","Q19":"2","Q21":"3","Q11":"2","Q09":"3","Q02":"3","Q01":"3","Q14":"2","Q07":"2","Q15":"3","Q17":"3","Q20":"1","Q18":"3","Q08":"3","Q16":"3","Q12":"3","Q13":"2","Q10":"3"},"rt":101311.29999995232,"item_order":[4,2,5,3,18,20,10,8,1,0,13,6,14,16,19,17,7,15,11,12,9],"radio_events":[21403,22528.89999985695,28065,35130.89999985695,41139,46062.59999990463,47940.699999809265,54684.699999809265,55756.89999985695,56812.799999952316,60974.09999990463,65771.5,71178.59999990463,73110.59999990463,79768.79999995232,82450.89999985695,86542.69999980927,90558.79999995232,93558.79999995232,95494.79999995232,99298.79999995232],"key_events":[],"mouse_events":[18522.799999952316,21403,22528.89999985695,28065,35130.89999985695,41139,46062.59999990463,47940.699999809265,52380.799999952316,54684.699999809265,55756.89999985695,56812.799999952316,60974.09999990463,65771.5,71178.59999990463,73110.59999990463,79768.79999995232,82450.89999985695,86542.69999980927,90166.89999985695,90558.79999995232,93558.79999995232,95494.79999995232,99298.79999995232,101309],"straightlining":0.5238095238095238,"zigzagging":0.5,"honeypot":0,"survey":"sns","trial_type":"survey-template","trial_index":2,"time_elapsed":167482,"internal_node_id":"0.0-2.0","task_version":"prescreen-v0.3","browser_interactions":0,"infrequency":0},{"responses":{"Q07":"2","Q08":"2","Q09":"1","Q03":"3","Q10":"1","Q02":"3","Q06":"3","Q13":"0","Q04":"3","Q12":"1","Q05":"2","Q11":"1","Q01":"3"},"rt":51723.09999990463,"item_order":[6,7,8,2,9,1,5,12,3,11,4,10,0],"radio_events":[3104,10596,13863.799999952316,17601.699999809265,19645.699999809265,21577.799999952316,24735.699999809265,30857.599999904633,36549.39999985695,40777.699999809265,42880.299999952316,48859.89999985695,50571.59999990463],"key_events":[],"mouse_events":[3104,10596,13413.799999952316,13863.799999952316,17601.699999809265,19645.699999809265,21577.799999952316,24735.699999809265,29753.89999985695,30857.599999904633,36549.39999985695,40777.699999809265,42880.299999952316,48859.89999985695,50571.59999990463,51721.799999952316],"straightlining":0.38461538461538464,"zigzagging":0.4166666666666667,"honeypot":0,"survey":"bisbas","trial_type":"survey-template","trial_index":3,"time_elapsed":219210,"internal_node_id":"0.0-3.0","task_version":"prescreen-v0.3","browser_interactions":0,"infrequency":0},{"responses":{"Q01":"2","Q02":"1","Q03":"2"},"rt":18323.200000047684,"radio_events":[6357,10962.799999952316,16727],"key_events":[],"mouse_events":[6357,10962.799999952316,16727,18322.799999952316],"survey":"map","page":1,"trial_type":"survey-map","trial_index":4,"time_elapsed":237538,"internal_node_id":"0.0-4.0","task_version":"prescreen-v0.3","browser_interactions":0},{"responses":{"Q04":"2","Q05":"1","Q06":"2"},"rt":22618.39999985695,"radio_events":[5851.899999856949,9135.899999856949,16277.799999952316,17967.89999985695],"key_events":[],"mouse_events":[5851.899999856949,9135.899999856949,13502,16277.799999952316,17434,17967.89999985695,22617.89999985695],"survey":"map","page":2,"trial_type":"survey-map","trial_index":5,"time_elapsed":260160,"internal_node_id":"0.0-5.0","task_version":"prescreen-v0.3","browser_interactions":0},{"responses":{"Q07":"3","Q08":"3","Q09":"2"},"rt":14833.200000047684,"radio_events":[6714.400000095367,10032.900000095367,13490.5],"key_events":[],"mouse_events":[6714.400000095367,10032.900000095367,13490.5,14832.700000047684],"survey":"map","page":3,"trial_type":"survey-map","trial_index":6,"time_elapsed":274998,"internal_node_id":"0.0-6.0","task_version":"prescreen-v0.3","browser_interactions":0},{"responses":{"Q10":"2","Q11":"1","Q12":"4","Q13":"4","Q16":"0","Q14":"2","Q15":"1"},"rt":41457.09999990463,"radio_events":[5820.399999856949,9014.299999952316,15430.299999952316,22831.799999952316,25268.199999809265,25980.799999952316,33072.09999990463,36326.299999952316,37525.89999985695,39822.299999952316],"key_events":[],"mouse_events":[5820.399999856949,8608.299999952316,9014.299999952316,15430.299999952316,22831.799999952316,25268.199999809265,25980.799999952316,33072.09999990463,36326.299999952316,37525.89999985695,39822.299999952316,41456.299999952316],"survey":"map","page":4,"trial_type":"survey-map","trial_index":7,"time_elapsed":316460,"internal_node_id":"0.0-7.0","task_version":"prescreen-v0.3","browser_interactions":0,"infrequency":0},{"view_history":[{"page_index":0,"viewing_time":2595.800000190735},{"page_index":1,"viewing_time":3867.399999856949}],"rt":6463.600000143051,"trial_type":"instructions","trial_index":8,"time_elapsed":322927,"internal_node_id":"0.0-8.0","task_version":"prescreen-v0.3"},{"responses":{"01":"Yes","01_ages_4":"4","01_ages_5":"5","01_ages_6":"6","01_ages_7":"7","01_ages_8":"8","01_ages_9":"9","01_ages_10":"10","01_ages_11":"11","01_ages_12":"12","01_ages_13":"13","01_ages_14":"14","01_ages_15":"15","01_ages_16":"16","01_ages_17":"17","01_ages_18":"18","02":"Yes","02_ages_3":"3","02_ages_4":"4","02_ages_5":"5","02_ages_6":"6","02_ages_7":"7","02_ages_8":"8","02_ages_9":"9","02_ages_10":"10","02_ages_11":"11","02_ages_12":"12","02_ages_13":"13","02_ages_14":"14","02_ages_15":"15","02_ages_16":"16","02_ages_17":"17","02_ages_18":"18","03":"Yes","03_ages_3":"3","03_ages_4":"4","03_ages_5":"5","03_ages_6":"6","03_ages_7":"7","03_ages_8":"8","03_ages_9":"9","03_ages_10":"10","03_ages_11":"11","03_ages_12":"12","03_ages_13":"13","03_ages_14":"14","03_ages_15":"15","03_ages_16":"16","03_ages_17":"17","03_ages_18":"18","04":"No","05":"Yes","05_ages_3":"3","05_ages_4":"4","05_ages_5":"5","05_ages_6":"6","05_ages_7":"7","05_ages_8":"8","06":"Yes","06_ages_3":"3","06_ages_4":"4","06_ages_5":"5","06_ages_6":"6","06_ages_7":"7","06_ages_8":"8","06_ages_9":"9","06_ages_10":"10"},"rt":97992.80000019073,"item_order":[0,1,2,3,4,5],"radio_events":[9377.400000095367,33156.800000190735,46460.90000009537,64621.10000014305,69255.20000004768,87473.90000009537],"checkbox_events":[18911.60000014305,19487.700000047684,20007.200000047684,20459.5,21042.900000095367,21559.800000190735,22034.800000190735,22495.200000047684,23211.400000095367,23973.200000047684,24511.200000047684,26082.900000095367,26807,27333.10000014305,29213.10000014305,34603.300000190735,35095.200000047684,35641.200000047684,36674,38001.60000014305,38689,39173.200000047684,39623.5,40021.5,40513.10000014305,41221.40000009537,41635.300000190735,42196.90000009537,42621.60000014305,43427.10000014305,44003,49519.90000009537,49995.60000014305,50425.5,51171.60000014305,51625.40000009537,52092.90000009537,53165.5,53641.60000014305,54175.5,54975.60000014305,55393.200000047684,56033.800000190735,56442.700000047684,57577.700000047684,58033.10000014305,58571.10000014305,71549.10000014305,72335.20000004768,74471.20000004768,78993.10000014305,79597,80607.10000014305,89331.5,89745.20000004768,90097.10000014305,91565.40000009537,92965.10000014305,93862.90000009537,94997.40000009537,95589.10000014305],"key_events":[],"mouse_events":[0.10000014305114746,8923.300000190735,9377.400000095367,18911.60000014305,19487.700000047684,20007.200000047684,20459.5,21042.900000095367,21559.800000190735,22034.800000190735,22495.200000047684,23211.400000095367,23645,23973.200000047684,24511.200000047684,26082.900000095367,26807,27333.10000014305,28595.10000014305,29213.10000014305,33156.800000190735,34603.300000190735,35095.200000047684,35641.200000047684,36093.300000190735,36674,37315.10000014305,38001.60000014305,38689,39173.200000047684,39623.5,40021.5,40513.10000014305,41221.40000009537,41635.300000190735,42196.90000009537,42621.60000014305,43121.300000190735,43427.10000014305,44003,46460.90000009537,49519.90000009537,49995.60000014305,50425.5,50900.700000047684,51171.60000014305,51625.40000009537,52092.90000009537,52751.60000014305,53165.5,53641.60000014305,54175.5,54975.60000014305,55393.200000047684,56033.800000190735,56442.700000047684,57181.200000047684,57577.700000047684,58033.10000014305,58571.10000014305,63404.90000009537,64621.10000014305,69255.20000004768,71549.10000014305,72335.20000004768,74471.20000004768,78993.10000014305,79597,80607.10000014305,87473.90000009537,89331.5,89745.20000004768,90097.10000014305,91565.40000009537,92965.10000014305,93337.60000014305,93862.90000009537,94215.5,94997.40000009537,95589.10000014305,97989.70000004768],"honeypot":0,"survey":"mace","page":1,"trial_type":"survey-mace","trial_index":9,"time_elapsed":420924,"internal_node_id":"0.0-9.0","task_version":"prescreen-v0.3","browser_interactions":0},{"responses":{"01":"Yes","01_ages_3":"3","01_ages_4":"4","01_ages_5":"5","01_ages_6":"6","01_ages_7":"7","01_ages_8":"8","02":"No","03":"Yes","03_ages_3":"3","03_ages_4":"4","03_ages_5":"5","03_ages_6":"6","03_ages_7":"7","03_ages_8":"8","04":"Yes","04_ages_3":"3","04_ages_4":"4","04_ages_5":"5","04_ages_6":"6","04_ages_7":"7","04_ages_8":"8","05":"No","06":"Yes","06_ages_12":"12","06_ages_13":"13","06_ages_14":"14","06_ages_15":"15","06_ages_16":"16","06_ages_17":"17","06_ages_18":"18","07":"No","08":"No"},"rt":84989.40000009537,"item_order":[0,1,2,3,4,5,6,7],"radio_events":[6303,13280.799999952316,15591,24261,31776.799999952316,34214.700000047684,37013,47956.700000047684,50067],"checkbox_events":[17723.10000014305,18094.799999952316,19655,20019,20745.299999952316,21159,25896.799999952316,26767.10000014305,27317.5,27739,28351.400000095367,28785,40817,41358.90000009537,41947,42330.799999952316,43150.90000009537,43529,43929,44322.90000009537,45063.10000014305,45465.40000009537,45949,66221,67409.20000004768,68055.40000009537,68472.90000009537,68875.40000009537,69615.29999995232,70125.40000009537,71452.90000009537],"key_events":[],"mouse_events":[6303,13280.799999952316,15591,17723.10000014305,18094.799999952316,18637.60000014305,18981.60000014305,19655,20019,20745.299999952316,21159,24261,25525.5,25896.799999952316,26462.900000095367,26767.10000014305,27317.5,27739,28351.400000095367,28785,31776.799999952316,33777.10000014305,34214.700000047684,37013,40817,41358.90000009537,41947,42330.799999952316,43150.90000009537,43529,43929,44322.90000009537,44775.200000047684,45063.10000014305,45465.40000009537,45949,47956.700000047684,50067,65400.799999952316,65903.29999995232,66221,66716.70000004768,67409.20000004768,68055.40000009537,68472.90000009537,68875.40000009537,69309.5,69615.29999995232,70125.40000009537,71452.90000009537,84985.29999995232],"honeypot":0,"survey":"mace","page":2,"trial_type":"survey-mace","trial_index":10,"time_elapsed":505920,"internal_node_id":"0.0-10.0","task_version":"prescreen-v0.3","browser_interactions":0},{"responses":{"01":"Yes","01_ages_3":"3","01_ages_4":"4","01_ages_5":"5","01_ages_6":"6","01_ages_7":"7","01_ages_8":"8","01_ages_9":"9","01_ages_10":"10","01_ages_11":"11","01_ages_12":"12","01_ages_13":"13","01_ages_14":"14","01_ages_15":"15","01_ages_16":"16","01_ages_17":"17","01_ages_18":"18","02":"No","03":"Yes","03_ages_10":"10","03_ages_11":"11","03_ages_12":"12","03_ages_13":"13","03_ages_14":"14","03_ages_15":"15","03_ages_16":"16","03_ages_17":"17","03_ages_18":"18","04":"No"},"rt":37043.09999990463,"item_order":[0,1,2,3],"radio_events":[7258.099999904633,26480.700000047684,27622.700000047684,35736.799999952316],"checkbox_events":[9398.700000047684,9866.700000047684,10247,10606.700000047684,11399.200000047684,12018.599999904633,12397.299999952316,13930.700000047684,18621.099999904633,19018.700000047684,19444.200000047684,19804.799999952316,20172.700000047684,20575.200000047684,20926.5,21609,22180.599999904633,22772.799999952316,29055.099999904633,29482.700000047684,29905.900000095367,30479.200000047684,30902.799999952316,31324.599999904633,31843.900000095367,32942.59999990463,33310.799999952316],"key_events":[],"mouse_events":[7258.099999904633,9398.700000047684,9866.700000047684,10247,10606.700000047684,10969,11399.200000047684,11737,12018.599999904633,12397.299999952316,12808.700000047684,13930.700000047684,18621.099999904633,19018.700000047684,19444.200000047684,19804.799999952316,20172.700000047684,20575.200000047684,20926.5,21609,22180.599999904633,22772.799999952316,26480.700000047684,27622.700000047684,29055.099999904633,29482.700000047684,29905.900000095367,30479.200000047684,30902.799999952316,31324.599999904633,31843.900000095367,32942.59999990463,33310.799999952316,35736.799999952316,37040.90000009537],"honeypot":0,"survey":"mace","page":3,"trial_type":"survey-mace","trial_index":11,"time_elapsed":542967,"internal_node_id":"0.0-11.0","task_version":"prescreen-v0.3","browser_interactions":0},{"responses":{"01":"No","02":"No"},"rt":6143.700000047684,"item_order":[0,1],"radio_events":[3738.399999856949,4760.599999904633],"checkbox_events":[],"key_events":[],"mouse_events":[3738.399999856949,4760.599999904633,6142.5],"honeypot":0,"survey":"mace","page":4,"trial_type":"survey-mace","trial_index":12,"time_elapsed":549115,"internal_node_id":"0.0-12.0","task_version":"prescreen-v0.3","browser_interactions":0},{"responses":{"01":"No","02":"No","03":"No","04":"No","05":"No"},"rt":30694.400000095367,"item_order":[0,1,2,3,4],"radio_events":[12653.5,14309.799999952316,18793.900000095367,27617.700000047684,29077.900000095367],"checkbox_events":[],"key_events":[],"mouse_events":[12653.5,14309.799999952316,18793.900000095367,27617.700000047684,29077.900000095367,30691.700000047684],"honeypot":0,"survey":"mace","page":5,"trial_type":"survey-mace","trial_index":13,"time_elapsed":579815,"internal_node_id":"0.0-13.0","task_version":"prescreen-v0.3","browser_interactions":0},{"responses":{"01":"Yes","01_ages_5":"5","01_ages_6":"6","01_ages_7":"7","01_ages_8":"8","01_ages_9":"9","01_ages_10":"10","01_ages_11":"11","01_ages_12":"12","01_ages_13":"13","01_ages_14":"14","01_ages_15":"15","01_ages_16":"16","01_ages_17":"17","01_ages_18":"18","02":"Yes","02_ages_5":"5","02_ages_6":"6","02_ages_7":"7","02_ages_8":"8","02_ages_9":"9","02_ages_10":"10","02_ages_11":"11","02_ages_12":"12","02_ages_13":"13","02_ages_14":"14","02_ages_15":"15","02_ages_16":"16","02_ages_17":"17","02_ages_18":"18","03":"Yes","03_ages_5":"5","03_ages_6":"6","03_ages_7":"7","03_ages_8":"8","03_ages_9":"9","03_ages_10":"10","03_ages_11":"11","03_ages_12":"12","03_ages_13":"13","03_ages_14":"14","03_ages_15":"15","03_ages_16":"16","03_ages_17":"17","03_ages_18":"18","04":"Yes","04_ages_5":"5","04_ages_6":"6","04_ages_7":"7","04_ages_8":"8","04_ages_9":"9","04_ages_10":"10","04_ages_11":"11","04_ages_12":"12","04_ages_13":"13","04_ages_14":"14","04_ages_15":"15","04_ages_16":"16","04_ages_17":"17","04_ages_18":"18","05":"No"},"rt":63262,"item_order":[0,1,2,3,4],"radio_events":[8440.5,25380.799999952316,36944.5,45244.40000009537,62574.5],"checkbox_events":[12091.100000143051,13046.5,14466.400000095367,16404.60000014305,19331.10000014305,19742.5,20162.799999952316,20741,21564.400000095367,21975,22463,22908.400000095367,23356.400000095367,26316.10000014305,27006.700000047684,27888.400000095367,28926.900000095367,29626.900000095367,30532.299999952316,31062.60000014305,31506.299999952316,31902.299999952316,32284.200000047684,32868.299999952316,33290.799999952316,33682.299999952316,34196.700000047684,34944.200000047684,38334.299999952316,38652.40000009537,39298.5,39658.40000009537,40018.5,40436.5,40870.40000009537,41298.90000009537,42058.40000009537,46850.700000047684,47644.799999952316,48912.5,49306.10000014305,49710.200000047684,50178.799999952316,50596.799999952316,50982.799999952316,51428.299999952316,52144.40000009537,52588.40000009537,53238.700000047684,53648.40000009537,54186.700000047684,56656.799999952316,57156.90000009537,57594.40000009537,58179.299999952316,58556.40000009537],"key_events":[],"mouse_events":[8440.5,12091.100000143051,13046.5,14466.400000095367,16404.60000014305,19331.10000014305,19742.5,20162.799999952316,20741,21150.299999952316,21564.400000095367,21975,22463,22908.400000095367,23356.400000095367,25380.799999952316,26316.10000014305,27006.700000047684,27374.700000047684,27888.400000095367,28522.799999952316,28926.900000095367,29626.900000095367,30532.299999952316,31062.60000014305,31506.299999952316,31902.299999952316,32284.200000047684,32868.299999952316,33290.799999952316,33682.299999952316,34196.700000047684,34944.200000047684,36944.5,38334.299999952316,38652.40000009537,39298.5,39658.40000009537,40018.5,40436.5,40870.40000009537,41298.90000009537,41702.5,42058.40000009537,45244.40000009537,46850.700000047684,47187,47644.799999952316,47969,48630.700000047684,48912.5,49306.10000014305,49710.200000047684,50178.799999952316,50596.799999952316,50982.799999952316,51428.299999952316,52144.40000009537,52588.40000009537,52953,53238.700000047684,53648.40000009537,54186.700000047684,56656.799999952316,57156.90000009537,57594.40000009537,58179.299999952316,58556.40000009537,62574.5,63259.299999952316],"honeypot":0,"survey":"mace","page":6,"trial_type":"survey-mace","trial_index":14,"time_elapsed":643082,"internal_node_id":"0.0-14.0","task_version":"prescreen-v0.3","browser_interactions":0},{"responses":{"01":"No","02":"Yes","02_ages_5":"5","02_ages_6":"6","02_ages_7":"7","02_ages_8":"8","02_ages_9":"9","02_ages_10":"10","03":"No","04":"No","05":"No","06":"No","07":"No"},"rt":24214.200000047684,"item_order":[0,1,2,3,4,5,6],"radio_events":[5212.300000190735,7417.600000143051,18074.200000047684,19744,21114.700000047684,22310.300000190735,23704.5],"checkbox_events":[12232.600000143051,12630.400000095367,12968.5,13665.400000095367,14040.700000047684,14458.200000047684],"key_events":[],"mouse_events":[5212.300000190735,7417.600000143051,12232.600000143051,12630.400000095367,12968.5,13408.300000190735,13665.400000095367,14040.700000047684,14458.200000047684,18074.200000047684,19744,21114.700000047684,22310.300000190735,23025.800000190735,23704.5,24210.400000095367],"honeypot":0,"survey":"mace","page":7,"trial_type":"survey-mace","trial_index":15,"time_elapsed":667303,"internal_node_id":"0.0-15.0","task_version":"prescreen-v0.3","browser_interactions":0},{"responses":{"01":"Yes","01_ages_4":"4","01_ages_5":"5","01_ages_6":"6","01_ages_7":"7","01_ages_8":"8","01_ages_9":"9","01_ages_10":"10","01_ages_11":"11","01_ages_12":"12","01_ages_13":"13","01_ages_14":"14","01_ages_15":"15","01_ages_16":"16","01_ages_17":"17","01_ages_18":"18","02":"Yes","02_ages_3":"3","02_ages_4":"4","02_ages_5":"5","02_ages_6":"6","02_ages_7":"7","02_ages_8":"8","02_ages_9":"9","02_ages_10":"10","02_ages_11":"11","02_ages_12":"12","02_ages_13":"13","02_ages_14":"14","02_ages_15":"15","02_ages_16":"16","02_ages_17":"17","02_ages_18":"18","03":"Yes","03_ages_1":"1","03_ages_2":"2","03_ages_3":"3","03_ages_4":"4","03_ages_5":"5","03_ages_6":"6","03_ages_7":"7","03_ages_8":"8","03_ages_9":"9","03_ages_10":"10","03_ages_11":"11","03_ages_12":"12","03_ages_13":"13","03_ages_14":"14","03_ages_15":"15","03_ages_16":"16","03_ages_17":"17","03_ages_18":"18","04":"Yes","04_ages_3":"3","04_ages_4":"4","04_ages_5":"5","04_ages_6":"6","04_ages_7":"7","04_ages_8":"8","04_ages_9":"9","04_ages_10":"10","04_ages_11":"11","04_ages_12":"12","04_ages_13":"13","04_ages_14":"14","04_ages_15":"15","04_ages_16":"16","04_ages_17":"17","04_ages_18":"18"},"rt":71153.40000009537,"item_order":[0,1,2,3],"radio_events":[7723.5,25539.400000095367,44209.40000009537,59847.40000009537],"checkbox_events":[12039.799999952316,12379.5,13423.400000095367,14599.5,15923.5,16609.5,17243.5,17885.799999952316,18775.299999952316,19461.5,19897.60000014305,21345.5,21883.5,22653.5,24082.10000014305,27517.60000014305,27873.60000014305,28179.799999952316,28585.5,28978.10000014305,29735.60000014305,30857.5,32661.400000095367,33957.299999952316,34963.40000009537,35609.5,36113.40000009537,36593.299999952316,37057.799999952316,37557.5,38005.40000009537,38655.5,39132.700000047684,39863.5,40281.5,40850.90000009537,41292,46383.5,47127,47637.299999952316,48187.299999952316,49453.90000009537,49822.5,50571.60000014305,50791.40000009537,51498,52027.5,52801.799999952316,53179.200000047684,53927.700000047684,54341.60000014305,54793.40000009537,55235.60000014305,55703.5,56357.700000047684,56767.90000009537,57239.10000014305,62181.299999952316,63379.299999952316,63871.40000009537,64437.40000009537,65171,65647.40000009537,66101.40000009537,66573.40000009537,66983.40000009537,67767.60000014305,68163.5,68627.90000009537,69289.60000014305,69703.5,70151.79999995232,70563.29999995232],"key_events":[],"mouse_events":[7333.400000095367,7723.5,12039.799999952316,12379.5,12785.299999952316,13423.400000095367,13912.100000143051,14291.600000143051,14599.5,15066.400000095367,15923.5,16609.5,17243.5,17885.799999952316,18449.60000014305,18775.299999952316,19167.60000014305,19461.5,19897.60000014305,20919.299999952316,21345.5,21883.5,22273.299999952316,22653.5,23067.299999952316,24082.10000014305,25539.400000095367,27517.60000014305,27873.60000014305,28179.799999952316,28585.5,28978.10000014305,29465.700000047684,29735.60000014305,30857.5,31217.5,31863.5,32169.60000014305,32661.400000095367,33167.5,33957.299999952316,34963.40000009537,35609.5,36113.40000009537,36593.299999952316,37057.799999952316,37557.5,38005.40000009537,38655.5,39132.700000047684,39863.5,40281.5,40850.90000009537,41292,44209.40000009537,46009.799999952316,46383.5,46797.90000009537,47127,47637.299999952316,48187.299999952316,49175.299999952316,49453.90000009537,49822.5,50571.60000014305,50791.40000009537,51498,52027.5,52503.700000047684,52801.799999952316,53179.200000047684,53617.5,53927.700000047684,54341.60000014305,54793.40000009537,55235.60000014305,55703.5,56357.700000047684,56767.90000009537,57239.10000014305,59847.40000009537,62181.299999952316,62675.60000014305,63121.60000014305,63379.299999952316,63871.40000009537,64437.40000009537,64885.200000047684,65171,65647.40000009537,66101.40000009537,66573.40000009537,66983.40000009537,67431.79999995232,67767.60000014305,68163.5,68627.90000009537,69289.60000014305,69703.5,70151.79999995232,70563.29999995232,71151.20000004768],"honeypot":0,"survey":"mace","page":8,"trial_type":"survey-mace","trial_index":16,"time_elapsed":738460,"internal_node_id":"0.0-16.0","task_version":"prescreen-v0.3","browser_interactions":0},{"responses":{"01":"Yes","01_ages_8":"8","01_ages_9":"9","01_ages_10":"10","01_ages_11":"11","01_ages_12":"12","01_ages_13":"13","01_ages_14":"14","01_ages_15":"15","01_ages_16":"16","01_ages_17":"17","01_ages_18":"18","02":"Yes","02_ages_8":"8","02_ages_9":"9","02_ages_10":"10","02_ages_11":"11","02_ages_12":"12","02_ages_13":"13","02_ages_14":"14","02_ages_15":"15","02_ages_16":"16","02_ages_17":"17","02_ages_18":"18","03":"Yes","03_ages_8":"8","03_ages_9":"9","03_ages_10":"10","03_ages_11":"11","03_ages_12":"12","03_ages_13":"13","03_ages_14":"14","03_ages_15":"15","03_ages_16":"16","03_ages_17":"17","03_ages_18":"18","04":"No"},"rt":72407.29999995232,"item_order":[0,1,2,3],"radio_events":[4802.899999856949,15271.099999904633,20325.200000047684,25867,40725.5,46043.299999952316],"checkbox_events":[7097.299999952316,7448.899999856949,7797.399999856949,8198.700000047684,8617,8986.599999904633,9635.5,11072.099999904633,11767.399999856949,12611.399999856949,13192.899999856949,27323.200000047684,27845,28243,28963.099999904633,29950.799999952316,30411.700000047684,31587,32001.200000047684,32381.099999904633,32799.5,33523.299999952316,33929.59999990463,35059.09999990463,35928.5,36452.89999985695,36847.39999985695,47863.59999990463,49013,50169.09999990463,51091.09999990463,52275.5,52735.39999985695,53211,54071.200000047684,54504.59999990463,56451.09999990463,57254.89999985695,59117.299999952316,59495,59903,60421,61389.09999990463,61763,62511.299999952316,62866.89999985695,63300.200000047684,64291.09999990463,65633.20000004768,66336.89999985695,66817.09999990463,68261.5,68679.39999985695,69151.09999990463,69677.09999990463],"key_events":[],"mouse_events":[4802.899999856949,7097.299999952316,7448.899999856949,7797.399999856949,8198.700000047684,8617,8986.599999904633,9635.5,10022.599999904633,10401.399999856949,10723,11072.099999904633,11501.700000047684,11767.399999856949,12611.399999856949,13192.899999856949,15271.099999904633,20325.200000047684,25030.700000047684,25867,27323.200000047684,27845,28243,28689.200000047684,28963.099999904633,29359.099999904633,29950.799999952316,30411.700000047684,31255.39999985695,31587,32001.200000047684,32381.099999904633,32799.5,33243.09999990463,33523.299999952316,33929.59999990463,34393.5,35059.09999990463,35667.5,35928.5,36452.89999985695,36847.39999985695,40725.5,46043.299999952316,47863.59999990463,49013,50169.09999990463,51091.09999990463,52275.5,52735.39999985695,53211,54071.200000047684,54504.59999990463,56451.09999990463,56898.89999985695,57254.89999985695,59117.299999952316,59495,59903,60421,61067,61389.09999990463,61763,62511.299999952316,62866.89999985695,63300.200000047684,63935.5,64291.09999990463,65016.89999985695,65633.20000004768,66336.89999985695,66817.09999990463,67652.89999985695,68261.5,68679.39999985695,69151.09999990463,69677.09999990463,70758.89999985695,72405.09999990463],"honeypot":0,"survey":"mace","page":9,"trial_type":"survey-mace","trial_index":17,"time_elapsed":810873,"internal_node_id":"0.0-17.0","task_version":"prescreen-v0.3","browser_interactions":0},{"responses":{"01":"No","02":"No","03":"Yes","03_ages_4":"4","03_ages_5":"5","03_ages_6":"6","03_ages_7":"7","03_ages_8":"8","03_ages_9":"9","03_ages_10":"10","03_ages_11":"11","03_ages_12":"12","03_ages_13":"13","03_ages_14":"14","03_ages_15":"15","03_ages_16":"16","03_ages_17":"17","03_ages_18":"18","04":"Yes","04_ages_4":"4","04_ages_5":"5","04_ages_6":"6","04_ages_7":"7","04_ages_8":"8","04_ages_9":"9","04_ages_10":"10","04_ages_11":"11","04_ages_12":"12","04_ages_13":"13","04_ages_14":"14","04_ages_15":"15","04_ages_16":"16","04_ages_17":"17","04_ages_18":"18","05":"Yes","05_ages_8":"8","05_ages_9":"9","05_ages_10":"10","05_ages_11":"11","05_ages_12":"12","05_ages_13":"13","05_ages_14":"14","05_ages_15":"15","05_ages_16":"16","05_ages_17":"17","05_ages_18":"18","06":"Yes","06_ages_17":"17","07":"Yes","07_ages_12":"12","07_ages_13":"13","07_ages_14":"14","07_ages_15":"15","07_ages_16":"16","07_ages_17":"17","07_ages_18":"18","08":"No"},"rt":60868.5,"item_order":[0,1,2,3,4,5,6,7],"radio_events":[4998.300000190735,18416,28950.10000014305,39252,44964.10000014305,48233.90000009537,58322.10000014305,58908.300000190735],"checkbox_events":[7664.600000143051,8728.200000047684,9126.600000143051,9576.5,10384.100000143051,11298.200000047684,11796,12288.5,12714.200000047684,13146.200000047684,13614.100000143051,14486.400000095367,15278,15802.400000095367,16512.300000190735,19288.10000014305,19871.800000190735,20360.200000047684,20668.60000014305,21354.10000014305,21933.900000095367,22634.200000047684,23428.200000047684,24086.300000190735,24576.5,25076,25544.10000014305,26256.60000014305,26644,27092.400000095367,27575.900000095367,28130.200000047684,29906.300000190735,30320.800000190735,30920.60000014305,31414.5,31848.10000014305,32336.10000014305,33306.10000014305,33776,34286.200000047684,34874.40000009537,36268.200000047684,40518.200000047684,49910,50696,51044.200000047684,51508.200000047684,51876.60000014305,52728.300000190735,53204],"key_events":[],"mouse_events":[4998.300000190735,7664.600000143051,8256.700000047684,8728.200000047684,9126.600000143051,9576.5,9994.100000143051,10384.100000143051,11298.200000047684,11796,12288.5,12714.200000047684,13146.200000047684,13614.100000143051,14166.100000143051,14486.400000095367,14937.900000095367,15278,15802.400000095367,16512.300000190735,18416,19288.10000014305,19871.800000190735,20360.200000047684,20668.60000014305,21354.10000014305,21933.900000095367,22634.200000047684,23428.200000047684,24086.300000190735,24576.5,25076,25544.10000014305,26256.60000014305,26644,27092.400000095367,27575.900000095367,28130.200000047684,28950.10000014305,29906.300000190735,30320.800000190735,30920.60000014305,31414.5,31848.10000014305,32336.10000014305,32762.5,33306.10000014305,33776,34286.200000047684,34874.40000009537,35354.10000014305,36268.200000047684,39252,40518.200000047684,44964.10000014305,48233.90000009537,49910,50394.5,50696,51044.200000047684,51508.200000047684,51876.60000014305,52728.300000190735,53204,57861.90000009537,58322.10000014305,58908.300000190735,60864.40000009537],"honeypot":0,"survey":"mace","page":10,"trial_type":"survey-mace","trial_index":18,"time_elapsed":871747,"internal_node_id":"0.0-18.0","task_version":"prescreen-v0.3","browser_interactions":0,"instructed":0},{"rt":3857.300000190735,"trial_type":"mental-health-alert","trial_index":19,"time_elapsed":875608,"internal_node_id":"0.0-19.0","task_version":"prescreen-v0.3","interactions":"[]"}]