[{"view_history":[{"page_index":0,"viewing_time":2693.8000000715256},{"page_index":1,"viewing_time":2071.6999999284744},{"page_index":2,"viewing_time":2239.3000000715256},{"page_index":3,"viewing_time":775.8999999761581}],"rt":7781.5,"trial_type":"instructions","trial_index":0,"time_elapsed":7795,"internal_node_id":"0.0-0.0","task_version":"prescreen-v0.3"},{"rt":10907.5,"responses":{"age":"24","gender-categorical":"Female","gender-free-response":"","ethnicity":"Not Hispanic or Latino","race":["White"],"education":"Associate degree"},"trial_type":"survey-demo","trial_index":1,"time_elapsed":18706,"internal_node_id":"0.0-1.0","task_version":"prescreen-v0.3"},{"responses":{"Q17":"1","Q12":"0","Q21":"3","Q09":"1","Q11":"1","Q04":"0","Q16":"0","Q03":"0","Q15":"2","Q05":"0","Q07":"0","Q14":"2","Q19":"1","Q20":"0","Q10":"0","Q06":"0","Q18":"0","Q01":"0","Q08":"1","Q13":"2","Q02":"0"},"rt":133828.79999995232,"item_order":[16,11,20,8,10,3,15,2,14,4,6,13,18,19,9,5,17,0,7,12,1],"radio_events":[5730.5,12666,30465.199999928474,33944.39999997616,38714.10000002384,43344,59758.89999997616,69014.60000002384,72846.29999995232,83605.29999995232,87564.60000002384,91061.39999997616,93188.39999997616,97484.5,102060.19999992847,107291.79999995232,111739.19999992847,114723,121402.5,123234.19999992847,131929.79999995232],"key_events":[],"mouse_events":[5730.5,12666,22657.299999952316,29824.699999928474,30465.199999928474,33944.39999997616,38714.10000002384,42744.5,43344,59038.799999952316,59758.89999997616,69014.60000002384,72846.29999995232,83605.29999995232,87564.60000002384,91061.39999997616,93188.39999997616,97484.5,102060.19999992847,107291.79999995232,111739.19999992847,114723,119939,121402.5,123234.19999992847,126082.79999995232,131929.79999995232,133827.10000002384],"straightlining":0.5714285714285714,"zigzagging":0.35,"honeypot":0,"survey":"sns","trial_type":"survey-template","trial_index":2,"time_elapsed":152549,"internal_node_id":"0.0-2.0","task_version":"prescreen-v0.3","browser_interactions":0,"infrequency":0},{"responses":{"Q09":"2","Q11":"1","Q03":"2","Q12":"1","Q08":"2","Q10":"1","Q04":"2","Q01":"3","Q06":"2","Q13":"0","Q07":"2","Q05":"2","Q02":"2"},"rt":322556.1999999285,"item_order":[8,10,2,11,7,9,3,0,5,12,6,4,1],"radio_events":[4456.799999952316,58909.199999928474,77395.79999995232,111009.89999997616,236216.89999997616,238384.5,241705.89999997616,244432.79999995232,248889,253775.60000002384,255263.39999997616,320851.39999997616,321802.7999999523],"key_events":[],"mouse_events":[4456.799999952316,58437,58909.199999928474,77395.79999995232,111009.89999997616,236216.89999997616,238384.5,241705.89999997616,244096.19999992847,244432.79999995232,248889,252151.69999992847,252872.89999997616,253775.60000002384,255263.39999997616,318371.2999999523,320851.39999997616,321802.7999999523,322555.2999999523],"straightlining":0.6153846153846154,"zigzagging":0.6666666666666666,"honeypot":0,"survey":"bisbas","trial_type":"survey-template","trial_index":3,"time_elapsed":475134,"internal_node_id":"0.0-3.0","task_version":"prescreen-v0.3","browser_interactions":2,"infrequency":0},{"responses":{"Q01":"3","Q02":"2","Q03":"3"},"rt":143866.09999990463,"radio_events":[128138.69999992847,134946.59999990463,143329.89999997616],"key_events":[],"mouse_events":[128138.69999992847,134946.59999990463,143329.89999997616,143865.5],"survey":"map","page":1,"trial_type":"survey-map","trial_index":4,"time_elapsed":619010,"internal_node_id":"0.0-4.0","task_version":"prescreen-v0.3","browser_interactions":2},{"responses":{"Q04":"2","Q05":"2","Q06":"2"},"rt":15652.399999976158,"radio_events":[8812.5,12076.200000047684,14796.100000023842],"key_events":[],"mouse_events":[8812.5,12076.200000047684,14796.100000023842,15652],"survey":"map","page":2,"trial_type":"survey-map","trial_index":5,"time_elapsed":634664,"internal_node_id":"0.0-5.0","task_version":"prescreen-v0.3","browser_interactions":0},{"responses":{"Q07":"1","Q08":"0","Q09":"4"},"rt":18574.5,"radio_events":[8053.399999976158,14228.899999976158,18052.600000023842],"key_events":[],"mouse_events":[8053.399999976158,14228.899999976158,18052.600000023842,18574.100000023842],"survey":"map","page":3,"trial_type":"survey-map","trial_index":6,"time_elapsed":653245,"internal_node_id":"0.0-6.0","task_version":"prescreen-v0.3","browser_interactions":0},{"responses":{"Q10":"4","Q11":"3","Q12":"2","Q13":"2","Q16":"0","Q14":"3","Q15":"4"},"rt":27747.600000023842,"radio_events":[5508.200000047684,6603.799999952316,10003.600000023842,13803.700000047684,17852.700000047684,22402.5,27306.200000047684],"key_events":[],"mouse_events":[3748.5,5508.200000047684,6603.799999952316,10003.600000023842,13803.700000047684,17852.700000047684,22402.5,26962.200000047684,27306.200000047684,27746.5],"survey":"map","page":4,"trial_type":"survey-map","trial_index":7,"time_elapsed":680995,"internal_node_id":"0.0-7.0","task_version":"prescreen-v0.3","browser_interactions":0,"infrequency":0},{"view_history":[{"page_index":0,"viewing_time":3292.8000000715256},{"page_index":1,"viewing_time":4607.5}],"rt":7900.800000071526,"trial_type":"instructions","trial_index":8,"time_elapsed":688897,"internal_node_id":"0.0-8.0","task_version":"prescreen-v0.3"},{"responses":{"01":"No","02":"Yes","02_ages_14":"14","02_ages_15":"15","02_ages_16":"16","03":"No","04":"No","05":"No","06":"No"},"rt":44268.199999928474,"item_order":[0,1,2,3,4,5],"radio_events":[11844.100000023842,17979,29402.399999976158,31074.799999952316,42002.199999928474,43505.39999997616],"checkbox_events":[23098.899999976158,23666.600000023842,24211.199999928474],"key_events":[],"mouse_events":[0.10000002384185791,11844.100000023842,17979,23098.899999976158,23666.600000023842,24211.199999928474,29402.399999976158,31074.799999952316,42002.199999928474,43505.39999997616,44265.799999952316],"honeypot":0,"survey":"mace","page":1,"trial_type":"survey-mace","trial_index":9,"time_elapsed":733174,"internal_node_id":"0.0-9.0","task_version":"prescreen-v0.3","browser_interactions":0},{"responses":{"01":"No","02":"No","03":"No","04":"No","05":"No","06":"No","07":"No","08":"No"},"rt":23315.599999904633,"item_order":[0,1,2,3,4,5,6,7],"radio_events":[5000.799999952316,5737.399999976158,8088.899999976158,10936.199999928474,16687.899999976158,18152.199999928474,19567.799999952316,21119.699999928474],"checkbox_events":[],"key_events":[],"mouse_events":[2800.899999976158,5000.799999952316,5737.399999976158,8088.899999976158,10936.199999928474,16080,16687.899999976158,18152.199999928474,19567.799999952316,20807.699999928474,21119.699999928474,23311.799999952316],"honeypot":0,"survey":"mace","page":2,"trial_type":"survey-mace","trial_index":10,"time_elapsed":756493,"internal_node_id":"0.0-10.0","task_version":"prescreen-v0.3","browser_interactions":0},{"responses":{"01":"No","02":"No","03":"No","04":"No"},"rt":12817.5,"item_order":[0,1,2,3],"radio_events":[8856.399999976158,10080.200000047684,11279.899999976158,12143.799999952316],"checkbox_events":[],"key_events":[],"mouse_events":[8856.399999976158,10080.200000047684,11279.899999976158,12143.799999952316,12815.799999952316],"honeypot":0,"survey":"mace","page":3,"trial_type":"survey-mace","trial_index":11,"time_elapsed":769318,"internal_node_id":"0.0-11.0","task_version":"prescreen-v0.3","browser_interactions":0},{"responses":{"01":"No","02":"No"},"rt":6100.900000095367,"item_order":[0,1],"radio_events":[3003.7000000476837,3516.600000023842],"checkbox_events":[],"key_events":[],"mouse_events":[3003.7000000476837,3516.600000023842,6099.700000047684],"honeypot":0,"survey":"mace","page":4,"trial_type":"survey-mace","trial_index":12,"time_elapsed":775421,"internal_node_id":"0.0-12.0","task_version":"prescreen-v0.3","browser_interactions":0},{"responses":{"01":"No","02":"No","03":"No","04":"No","05":"No"},"rt":52771.199999928474,"item_order":[0,1,2,3,4],"radio_events":[40122.5,43041.5,47209.5,50625.39999997616,52168.799999952316],"checkbox_events":[],"key_events":[],"mouse_events":[40122.5,43041.5,47209.5,50625.39999997616,52168.799999952316,52768.699999928474],"honeypot":0,"survey":"mace","page":5,"trial_type":"survey-mace","trial_index":13,"time_elapsed":828199,"internal_node_id":"0.0-13.0","task_version":"prescreen-v0.3","browser_interactions":0},{"responses":{"01":"No","02":"Yes","02_ages_10":"10","02_ages_11":"11","02_ages_12":"12","02_ages_13":"13","02_ages_14":"14","02_ages_15":"15","02_ages_16":"16","02_ages_17":"17","03":"Yes","03_ages_13":"13","03_ages_14":"14","03_ages_15":"15","04":"Yes","04_ages_12":"12","04_ages_13":"13","04_ages_14":"14","04_ages_15":"15","04_ages_16":"16","04_ages_17":"17","04_ages_18":"18","05":"No"},"rt":31259.200000047684,"item_order":[0,1,2,3,4],"radio_events":[5482.5,7194.600000023842,17905.700000047684,23361.100000023842,30704.700000047684],"checkbox_events":[9964,10411.200000047684,11098.300000071526,11658.200000047684,12307.100000023842,13490.300000071526,14146.100000023842,14617.899999976158,19929.5,20490.200000047684,20945.700000047684,24817,25201.300000071526,25929.300000071526,26353.5,26825.700000047684,27201,28777.300000071526],"key_events":[],"mouse_events":[5482.5,7194.600000023842,9964,10411.200000047684,10842,11098.300000071526,11658.200000047684,12307.100000023842,13002.300000071526,13490.300000071526,14146.100000023842,14617.899999976158,17905.700000047684,19929.5,20490.200000047684,20945.700000047684,23361.100000023842,24274.600000023842,24817,25201.300000071526,25929.300000071526,26353.5,26825.700000047684,27201,27665.899999976158,28777.300000071526,30704.700000047684,31257.200000047684],"honeypot":0,"survey":"mace","page":6,"trial_type":"survey-mace","trial_index":14,"time_elapsed":859461,"internal_node_id":"0.0-14.0","task_version":"prescreen-v0.3","browser_interactions":0},{"responses":{"01":"No","02":"No","03":"No","04":"No","05":"No","06":"No","07":"No"},"rt":13581,"item_order":[0,1,2,3,4,5,6],"radio_events":[4489.399999976158,6257.300000071526,7465.899999976158,8665.600000023842,10345.300000071526,12224.899999976158,13169.100000023842],"checkbox_events":[],"key_events":[],"mouse_events":[4489.399999976158,6257.300000071526,7465.899999976158,8665.600000023842,10345.300000071526,12224.899999976158,13169.100000023842,13578.200000047684],"honeypot":0,"survey":"mace","page":7,"trial_type":"survey-mace","trial_index":15,"time_elapsed":873046,"internal_node_id":"0.0-15.0","task_version":"prescreen-v0.3","browser_interactions":0},{"responses":{"01":"No","02":"No","03":"Yes","03_ages_15":"15","03_ages_16":"16","03_ages_17":"17","03_ages_18":"18","04":"No"},"rt":47462.700000047684,"item_order":[0,1,2,3],"radio_events":[8055.700000047684,10951.300000071526,14951.200000047684,46893.10000002384],"checkbox_events":[19727.399999976158,20142.899999976158,20583.200000047684,21039.200000047684],"key_events":[],"mouse_events":[8055.700000047684,10951.300000071526,14631.300000071526,14951.200000047684,19727.399999976158,20142.899999976158,20583.200000047684,21039.200000047684,46893.10000002384,47461],"honeypot":0,"survey":"mace","page":8,"trial_type":"survey-mace","trial_index":16,"time_elapsed":920515,"internal_node_id":"0.0-16.0","task_version":"prescreen-v0.3","browser_interactions":0},{"responses":{"01":"Yes","01_ages_1":"1","01_ages_2":"2","01_ages_3":"3","01_ages_4":"4","01_ages_5":"5","01_ages_6":"6","01_ages_7":"7","01_ages_8":"8","01_ages_9":"9","01_ages_10":"10","01_ages_11":"11","01_ages_12":"12","01_ages_13":"13","01_ages_14":"14","01_ages_15":"15","01_ages_16":"16","01_ages_17":"17","01_ages_18":"18","02":"Yes","02_ages_1":"1","02_ages_2":"2","02_ages_3":"3","02_ages_4":"4","02_ages_5":"5","02_ages_6":"6","02_ages_7":"7","02_ages_8":"8","02_ages_9":"9","02_ages_10":"10","02_ages_11":"11","02_ages_12":"12","02_ages_13":"13","02_ages_14":"14","02_ages_15":"15","02_ages_16":"16","02_ages_17":"17","02_ages_18":"18","03":"Yes","03_ages_1":"1","03_ages_2":"2","03_ages_3":"3","03_ages_4":"4","03_ages_5":"5","03_ages_6":"6","03_ages_7":"7","03_ages_8":"8","03_ages_9":"9","03_ages_10":"10","03_ages_11":"11","03_ages_12":"12","03_ages_13":"13","03_ages_14":"14","03_ages_15":"15","03_ages_16":"16","03_ages_17":"17","03_ages_18":"18","04":"Yes","04_ages_1":"1","04_ages_2":"2","04_ages_3":"3","04_ages_4":"4","04_ages_5":"5","04_ages_6":"6","04_ages_7":"7","04_ages_8":"8","04_ages_9":"9","04_ages_10":"10","04_ages_11":"11","04_ages_12":"12","04_ages_13":"13","04_ages_14":"14","04_ages_15":"15","04_ages_16":"16","04_ages_17":"17","04_ages_18":"18"},"rt":59266.200000047684,"item_order":[0,1,2,3],"radio_events":[3667.600000023842,21802.600000023842,24922.600000023842,27658.600000023842],"checkbox_events":[8723.399999976158,9611.399999976158,10091.200000047684,10475.200000047684,10875.899999976158,11380.600000023842,11795.200000047684,13155.299999952316,13619.299999952316,14115.299999952316,14947.5,15635.600000023842,16002.799999952316,16778.700000047684,17251.299999952316,17668.600000023842,18323.100000023842,18970.600000023842,28738.100000023842,29121.600000023842,29793.899999976158,30129.799999952316,30537.899999976158,31137.700000047684,31505.799999952316,32017.799999952316,32370,32793.5,33370.200000047684,33793.60000002384,34569.5,34993.89999997616,35529.799999952316,36545.39999997616,37113.5,37738.39999997616,38689.39999997616,39066.5,39697.39999997616,40257,40705.39999997616,41169.60000002384,41977,42553.10000002384,43065.10000002384,43576.799999952316,44024.89999997616,44545,45073.799999952316,45601.200000047684,46136.799999952316,46753.10000002384,47329,47784.60000002384,48720.89999997616,49305.299999952316,49824.5,50241.60000002384,50728.39999997616,51152.299999952316,51704.5,52320.5,52712.700000047684,53112.200000047684,53632.39999997616,55248.60000002384,56200.5,56584.10000002384,56999.799999952316,57703.89999997616,58168.10000002384,58807.89999997616],"key_events":[],"mouse_events":[3667.600000023842,8723.399999976158,9267.299999952316,9611.399999976158,10091.200000047684,10475.200000047684,10875.899999976158,11380.600000023842,11795.200000047684,12291.799999952316,12875,13155.299999952316,13619.299999952316,14115.299999952316,14947.5,15635.600000023842,16002.799999952316,16427.299999952316,16778.700000047684,17251.299999952316,17668.600000023842,18323.100000023842,18970.600000023842,21802.600000023842,24922.600000023842,27658.600000023842,28738.100000023842,29121.600000023842,29458.200000047684,29793.899999976158,30129.799999952316,30537.899999976158,31137.700000047684,31505.799999952316,32017.799999952316,32370,32793.5,33370.200000047684,33793.60000002384,34569.5,34993.89999997616,35529.799999952316,36545.39999997616,37113.5,37738.39999997616,38689.39999997616,39066.5,39697.39999997616,40257,40705.39999997616,41169.60000002384,41977,42553.10000002384,43065.10000002384,43576.799999952316,44024.89999997616,44545,45073.799999952316,45601.200000047684,46136.799999952316,46753.10000002384,47329,47784.60000002384,48720.89999997616,49305.299999952316,49824.5,50241.60000002384,50728.39999997616,51152.299999952316,51704.5,52320.5,52712.700000047684,53112.200000047684,53632.39999997616,54040.60000002384,54608.60000002384,55248.60000002384,56200.5,56584.10000002384,56999.799999952316,57703.89999997616,58168.10000002384,58807.89999997616,59264.5],"honeypot":0,"survey":"mace","page":9,"trial_type":"survey-mace","trial_index":17,"time_elapsed":979788,"internal_node_id":"0.0-17.0","task_version":"prescreen-v0.3","browser_interactions":0},{"responses":{"01":"No","02":"No","03":"No","04":"No","05":"No","06":"Yes","06_ages_17":"17","07":"Yes","07_ages_1":"1","07_ages_2":"2","07_ages_3":"3","07_ages_4":"4","07_ages_5":"5","07_ages_6":"6","07_ages_7":"7","07_ages_8":"8","07_ages_9":"9","07_ages_10":"10","07_ages_11":"11","07_ages_12":"12","07_ages_13":"13","07_ages_14":"14","07_ages_15":"15","07_ages_16":"16","07_ages_17":"17","07_ages_18":"18","08":"No"},"rt":36635,"item_order":[0,1,2,3,4,5,6,7],"radio_events":[4026.8000000715256,7378.100000023842,10362.399999976158,13345.800000071526,14699,17169.100000023842,21785.399999976158,36248.10000002384],"checkbox_events":[18314,23320.899999976158,24136.700000047684,25312.800000071526,26008.399999976158,26441,26952.600000023842,27424.800000071526,27832.300000071526,28289.100000023842,28864.300000071526,29408.5,30024.300000071526,30488.899999976158,31089.100000023842,31784.600000023842,32401,32913.10000002384,33808.10000002384],"key_events":[],"mouse_events":[4026.8000000715256,7378.100000023842,10362.399999976158,13345.800000071526,14699,17169.100000023842,18314,21785.399999976158,23320.899999976158,23769.200000047684,24136.700000047684,24545.200000047684,25056.899999976158,25312.800000071526,25712.899999976158,26008.399999976158,26441,26952.600000023842,27424.800000071526,27832.300000071526,28289.100000023842,28864.300000071526,29408.5,30024.300000071526,30488.899999976158,31089.100000023842,31784.600000023842,32401,32913.10000002384,33808.10000002384,36248.10000002384,36631.89999997616],"honeypot":0,"survey":"mace","page":10,"trial_type":"survey-mace","trial_index":18,"time_elapsed":1016432,"internal_node_id":"0.0-18.0","task_version":"prescreen-v0.3","browser_interactions":0,"instructed":0},{"rt":5633.200000047684,"trial_type":"mental-health-alert","trial_index":19,"time_elapsed":1022067,"internal_node_id":"0.0-19.0","task_version":"prescreen-v0.3","interactions":"[{\"event\":\"blur\",\"trial\":3,\"time\":275832},{\"event\":\"focus\",\"trial\":3,\"time\":295558},{\"event\":\"blur\",\"trial\":4,\"time\":582633},{\"event\":\"focus\",\"trial\":4,\"time\":592342}]"}]