[{"view_history":[{"page_index":0,"viewing_time":1620.1999999284744},{"page_index":1,"viewing_time":2331.7000000476837},{"page_index":2,"viewing_time":1032},{"page_index":3,"viewing_time":651.2999999523163}],"rt":5635.699999928474,"trial_type":"instructions","trial_index":0,"time_elapsed":5653,"internal_node_id":"0.0-0.0","task_version":"prescreen-v0.3"},{"rt":13248.600000023842,"responses":{"age":"18","gender-categorical":"Female","gender-free-response":"","ethnicity":"Not Hispanic or Latino","race":["White"],"education":"Some college"},"trial_type":"survey-demo","trial_index":1,"time_elapsed":18904,"internal_node_id":"0.0-1.0","task_version":"prescreen-v0.3"},{"responses":{"Q12":"2","Q02":"1","Q14":"2","Q07":"1","Q10":"3","Q19":"2","Q18":"1","Q20":"0","Q13":"3","Q09":"2","Q03":"1","Q05":"3","Q01":"2","Q21":"3","Q11":"1","Q16":"3","Q06":"1","Q08":"3","Q04":"2","Q15":"2","Q17":"1"},"rt":94498.89999997616,"item_order":[11,1,13,6,9,18,17,19,12,8,2,4,0,20,10,15,5,7,3,14,16],"radio_events":[3402.399999976158,11361.699999928474,16791.899999976158,18254,31003,34627.299999952316,37207.59999990463,40723.5,42680,44930.199999928474,45381.199999928474,48714.39999997616,51048,56081.199999928474,58431.89999997616,61265.5,75632.09999990463,78449.79999995232,82814.09999990463,85164,87433.59999990463,91400.59999990463,93846.19999992847],"key_events":[],"mouse_events":[3402.399999976158,9100.599999904633,10051.599999904633,11361.699999928474,12876.299999952316,13893.899999976158,16791.899999976158,18254,25292.399999976158,27859.699999928474,31003,32847.699999928474,33769.5,34627.299999952316,36029.799999952316,37207.59999990463,40723.5,42680,44930.199999928474,45381.199999928474,48714.39999997616,51048,56081.199999928474,58431.89999997616,61265.5,74415.29999995232,75632.09999990463,78449.79999995232,82814.09999990463,84547.29999995232,85164,86870.39999997616,87433.59999990463,91400.59999990463,93114.19999992847,93846.19999992847,94497.69999992847],"straightlining":0.3333333333333333,"zigzagging":0.65,"honeypot":0,"survey":"sns","trial_type":"survey-template","trial_index":2,"time_elapsed":113406,"internal_node_id":"0.0-2.0","task_version":"prescreen-v0.3","browser_interactions":0,"infrequency":0},{"responses":{"Q04":"3","Q08":"2","Q05":"2","Q12":"0","Q07":"2","Q01":"3","Q06":"2","Q13":"0","Q11":"2","Q02":"3","Q10":"1","Q09":"1","Q03":"3"},"rt":52814.799999952316,"item_order":[3,7,4,11,6,0,5,12,10,1,9,8,2],"radio_events":[6178.799999952316,10995.299999952316,12978.899999976158,16462.599999904633,17479.399999976158,19129.199999928474,20862.299999952316,22878.699999928474,25445.299999952316,41865.39999997616,43430.799999952316,45214.09999990463,47998.799999952316,50982,52331.5],"key_events":[],"mouse_events":[6178.799999952316,10995.299999952316,12978.899999976158,16462.599999904633,17479.399999976158,19129.199999928474,20862.299999952316,22878.699999928474,25445.299999952316,40433.39999997616,41865.39999997616,43430.799999952316,45214.09999990463,47998.799999952316,50982,51447.39999997616,51815.09999990463,52331.5,52814.09999990463],"straightlining":0.38461538461538464,"zigzagging":0.3333333333333333,"honeypot":0,"survey":"bisbas","trial_type":"survey-template","trial_index":3,"time_elapsed":166223,"internal_node_id":"0.0-3.0","task_version":"prescreen-v0.3","browser_interactions":0,"infrequency":0},{"responses":{"Q01":"2","Q02":"3","Q03":"2"},"rt":15033.099999904633,"radio_events":[3464.5,8614.099999904633,14447.699999928474],"key_events":[],"mouse_events":[3464.5,7880.399999976158,8614.099999904633,14447.699999928474,15032.899999976158],"survey":"map","page":1,"trial_type":"survey-map","trial_index":4,"time_elapsed":181258,"internal_node_id":"0.0-4.0","task_version":"prescreen-v0.3","browser_interactions":0},{"responses":{"Q04":"2","Q05":"2","Q06":"2"},"rt":11863.100000023842,"radio_events":[5490.899999976158,6644.699999928474,11302.199999928474],"key_events":[],"mouse_events":[3764.5,4320.199999928474,5490.899999976158,6644.699999928474,9257.199999928474,11302.199999928474,11862.899999976158],"survey":"map","page":2,"trial_type":"survey-map","trial_index":5,"time_elapsed":193123,"internal_node_id":"0.0-5.0","task_version":"prescreen-v0.3","browser_interactions":0},{"responses":{"Q07":"2","Q08":"4","Q09":"3"},"rt":117597.40000009537,"radio_events":[108610.40000009537,112131.5,115568.90000009537],"key_events":[],"mouse_events":[107509.70000004768,108610.40000009537,110745.60000002384,112131.5,113783.40000009537,114661.60000002384,115568.90000009537,117596.10000002384],"survey":"map","page":3,"trial_type":"survey-map","trial_index":6,"time_elapsed":310722,"internal_node_id":"0.0-6.0","task_version":"prescreen-v0.3","browser_interactions":0},{"responses":{"Q10":"2","Q11":"3","Q12":"3","Q13":"2","Q16":"0","Q14":"2","Q15":"1"},"rt":36370.89999997616,"radio_events":[8508.799999952316,12229,14165.399999976158,24037.5,26635.100000023842,33766.700000047684,35052.5],"key_events":[],"mouse_events":[7292.600000023842,8508.799999952316,9682.600000023842,11333.600000023842,12229,14165.399999976158,24037.5,26635.100000023842,33766.700000047684,35052.5,36370.299999952316],"survey":"map","page":4,"trial_type":"survey-map","trial_index":7,"time_elapsed":347097,"internal_node_id":"0.0-7.0","task_version":"prescreen-v0.3","browser_interactions":0,"infrequency":0},{"view_history":[{"page_index":0,"viewing_time":2430.0999999046326},{"page_index":1,"viewing_time":2815.2000000476837}],"rt":5245.5,"trial_type":"instructions","trial_index":8,"time_elapsed":352343,"internal_node_id":"0.0-8.0","task_version":"prescreen-v0.3"},{"responses":{"01":"Yes","01_ages_10":"10","01_ages_11":"11","01_ages_12":"12","01_ages_13":"13","02":"Yes","02_ages_9":"9","02_ages_10":"10","02_ages_11":"11","02_ages_12":"12","02_ages_13":"13","03":"Yes","03_ages_6":"6","03_ages_7":"7","03_ages_8":"8","03_ages_9":"9","03_ages_10":"10","03_ages_11":"11","03_ages_12":"12","04":"No","05":"No","06":"Yes","06_ages_5":"5","06_ages_6":"6","06_ages_7":"7","06_ages_8":"8","06_ages_9":"9","06_ages_10":"10","06_ages_11":"11"},"rt":66634.70000004768,"item_order":[0,1,2,3,4,5],"radio_events":[6582,23731.5,34515.60000002384,35799,37299.60000002384,54648.39999997616],"checkbox_events":[10562.700000047684,11065.200000047684,11515.700000047684,12748,28733.799999952316,29050,29515.299999952316,29929.399999976158,30214,31118.299999952316,33664.200000047684,40834.89999997616,41465.700000047684,44448.89999997616,44912,45833,46215.700000047684,46949.39999997616,56082.700000047684,56850.10000002384,57214.89999997616,57581,58032.5,58450.700000047684,59583.299999952316],"key_events":[],"mouse_events":[0.10000002384185791,6582,10562.700000047684,11065.200000047684,11515.700000047684,12748,22748.299999952316,23731.5,28733.799999952316,29050,29515.299999952316,29929.399999976158,30214,31118.299999952316,33664.200000047684,34515.60000002384,35799,37299.60000002384,40834.89999997616,41465.700000047684,44448.89999997616,44912,45833,46215.700000047684,46949.39999997616,54648.39999997616,56082.700000047684,56850.10000002384,57214.89999997616,57581,58032.5,58450.700000047684,59583.299999952316,66633.29999995232],"honeypot":0,"survey":"mace","page":1,"trial_type":"survey-mace","trial_index":9,"time_elapsed":418982,"internal_node_id":"0.0-9.0","task_version":"prescreen-v0.3","browser_interactions":0},{"responses":{"01":"No","02":"No","03":"Yes","03_ages_4":"4","03_ages_5":"5","03_ages_6":"6","03_ages_7":"7","03_ages_8":"8","03_ages_9":"9","03_ages_10":"10","04":"No","05":"No","06":"No","07":"No","08":"No"},"rt":45925,"item_order":[0,1,2,3,4,5,6,7],"radio_events":[7196.300000071526,9646,18848.300000071526,20346.300000071526,21311.700000047684,21994.899999976158,32430.5,36165.300000071526],"checkbox_events":[11812.899999976158,12861.700000047684,13296.300000071526,14379.200000047684,14727.700000047684,15162.5,15527,15930,16262.5],"key_events":[],"mouse_events":[7196.300000071526,8330.600000023842,9646,11812.899999976158,12861.700000047684,13296.300000071526,14379.200000047684,14727.700000047684,15162.5,15527,15930,16262.5,18848.300000071526,20346.300000071526,21311.700000047684,21994.899999976158,29412.100000023842,32430.5,36165.300000071526,45918.5],"honeypot":0,"survey":"mace","page":2,"trial_type":"survey-mace","trial_index":10,"time_elapsed":464910,"internal_node_id":"0.0-10.0","task_version":"prescreen-v0.3","browser_interactions":0},{"responses":{"01":"No","02":"No","03":"No","04":"No"},"rt":19290.199999928474,"item_order":[0,1,2,3],"radio_events":[3775.7999999523163,10468.699999928474,11872,13579.799999952316],"checkbox_events":[],"key_events":[],"mouse_events":[3775.7999999523163,5903.599999904633,7915,9192.899999976158,10468.699999928474,11872,13579.799999952316,19285.699999928474],"honeypot":0,"survey":"mace","page":3,"trial_type":"survey-mace","trial_index":11,"time_elapsed":484204,"internal_node_id":"0.0-11.0","task_version":"prescreen-v0.3","browser_interactions":0},{"responses":{"01":"No","02":"No"},"rt":11737.100000023842,"item_order":[0,1],"radio_events":[5108.200000047684,10102.399999976158],"checkbox_events":[],"key_events":[],"mouse_events":[3455.7000000476837,5108.200000047684,8488.100000023842,10102.399999976158,11736.299999952316],"honeypot":0,"survey":"mace","page":4,"trial_type":"survey-mace","trial_index":12,"time_elapsed":495943,"internal_node_id":"0.0-12.0","task_version":"prescreen-v0.3","browser_interactions":0},{"responses":{"01":"No","02":"No","03":"No","04":"No","05":"No"},"rt":29054.399999976158,"item_order":[0,1,2,3,4],"radio_events":[20055.200000047684,21443.899999976158,22849.100000023842,25715.5,27254.600000023842],"checkbox_events":[],"key_events":[],"mouse_events":[15997.399999976158,20055.200000047684,21443.899999976158,22849.100000023842,24436.200000047684,25715.5,27254.600000023842,29052.899999976158],"honeypot":0,"survey":"mace","page":5,"trial_type":"survey-mace","trial_index":13,"time_elapsed":525000,"internal_node_id":"0.0-13.0","task_version":"prescreen-v0.3","browser_interactions":0},{"responses":{"01":"No","02":"Yes","02_ages_5":"5","02_ages_9":"9","02_ages_10":"10","02_ages_11":"11","02_ages_12":"12","02_ages_13":"13","02_ages_14":"14","03":"Yes","03_ages_11":"11","03_ages_12":"12","03_ages_13":"13","03_ages_14":"14","04":"Yes","04_ages_5":"5","04_ages_6":"6","04_ages_7":"7","04_ages_8":"8","04_ages_9":"9","04_ages_10":"10","04_ages_11":"11","04_ages_12":"12","04_ages_13":"13","05":"No"},"rt":44884.300000071526,"item_order":[0,1,2,3,4],"radio_events":[7777,11243,12682,15062.100000023842,16146.800000071526],"checkbox_events":[17931.600000023842,19031.100000023842,19448.800000071526,19846.700000047684,20398.400000095367,20881.900000095367,21714.600000023842,22898.5,23164.900000095367,29431.600000023842,29827.900000095367,30283.200000047684,32848.200000047684,36280.700000047684,36965.10000002384,37467.10000002384,37898.700000047684,38598.200000047684,41030.60000002384,41598.10000002384],"key_events":[],"mouse_events":[5854.900000095367,6869.100000023842,7777,9855,11243,12682,14112.600000023842,15062.100000023842,16146.800000071526,17931.600000023842,19031.100000023842,19448.800000071526,19846.700000047684,20398.400000095367,20881.900000095367,21714.600000023842,22898.5,23164.900000095367,29431.600000023842,29827.900000095367,30283.200000047684,32848.200000047684,36280.700000047684,36965.10000002384,37467.10000002384,37898.700000047684,38598.200000047684,41030.60000002384,41598.10000002384,44883.10000002384],"honeypot":0,"survey":"mace","page":6,"trial_type":"survey-mace","trial_index":14,"time_elapsed":569885,"internal_node_id":"0.0-14.0","task_version":"prescreen-v0.3","browser_interactions":0},{"responses":{"01":"No","02":"No","03":"No","04":"No","05":"No","06":"No","07":"No"},"rt":13383.100000023842,"item_order":[0,1,2,3,4,5,6],"radio_events":[3446.6999999284744,4494.699999928474,5928.699999928474,6879.699999928474,8745.600000023842,9197,10780.299999952316],"checkbox_events":[],"key_events":[],"mouse_events":[2380.6999999284744,3446.6999999284744,4494.699999928474,5928.699999928474,6879.699999928474,8745.600000023842,9197,10780.299999952316,13381.399999976158],"honeypot":0,"survey":"mace","page":7,"trial_type":"survey-mace","trial_index":15,"time_elapsed":583271,"internal_node_id":"0.0-15.0","task_version":"prescreen-v0.3","browser_interactions":0},{"responses":{"01":"No","02":"Yes","02_ages_10":"10","02_ages_11":"11","02_ages_12":"12","02_ages_13":"13","02_ages_14":"14","02_ages_15":"15","02_ages_16":"16","02_ages_17":"17","02_ages_18":"18","03":"Yes","03_ages_6":"6","03_ages_7":"7","03_ages_8":"8","03_ages_9":"9","03_ages_10":"10","03_ages_11":"11","03_ages_12":"12","03_ages_13":"13","03_ages_14":"14","03_ages_15":"15","04":"No"},"rt":34979,"item_order":[0,1,2,3],"radio_events":[8927,9611.299999952316,20292.700000047684,31510.5],"checkbox_events":[13912.100000023842,14476.700000047684,14877.799999952316,15259,15660.100000023842,16160.600000023842,16492.5,16842.200000047684,17159.899999976158,21944.299999952316,22310.899999976158,22610,22960.399999976158,23443.899999976158,23894.200000047684,24273.200000047684,24645,25642.600000023842,26142.200000047684],"key_events":[],"mouse_events":[8927,9611.299999952316,13912.100000023842,14476.700000047684,14877.799999952316,15259,15660.100000023842,16160.600000023842,16492.5,16842.200000047684,17159.899999976158,20292.700000047684,21944.299999952316,22310.899999976158,22610,22960.399999976158,23443.899999976158,23894.200000047684,24273.200000047684,24645,25126.399999976158,25642.600000023842,26142.200000047684,31510.5,34977.89999997616],"honeypot":0,"survey":"mace","page":8,"trial_type":"survey-mace","trial_index":16,"time_elapsed":618253,"internal_node_id":"0.0-16.0","task_version":"prescreen-v0.3","browser_interactions":0},{"responses":{"01":"Yes","01_ages_1":"1","01_ages_2":"2","01_ages_3":"3","01_ages_4":"4","01_ages_5":"5","01_ages_6":"6","01_ages_7":"7","01_ages_8":"8","01_ages_9":"9","01_ages_10":"10","01_ages_11":"11","01_ages_12":"12","01_ages_13":"13","01_ages_14":"14","01_ages_15":"15","01_ages_16":"16","01_ages_17":"17","01_ages_18":"18","02":"Yes","02_ages_1":"1","02_ages_2":"2","02_ages_3":"3","02_ages_4":"4","02_ages_5":"5","02_ages_6":"6","02_ages_7":"7","02_ages_8":"8","02_ages_9":"9","02_ages_10":"10","02_ages_11":"11","02_ages_12":"12","02_ages_13":"13","02_ages_14":"14","02_ages_15":"15","02_ages_16":"16","02_ages_17":"17","02_ages_18":"18","03":"Yes","03_ages_1":"1","03_ages_2":"2","03_ages_3":"3","03_ages_4":"4","03_ages_5":"5","03_ages_6":"6","03_ages_7":"7","03_ages_8":"8","03_ages_9":"9","03_ages_10":"10","03_ages_11":"11","03_ages_12":"12","03_ages_13":"13","03_ages_14":"14","03_ages_15":"15","03_ages_16":"16","03_ages_17":"17","03_ages_18":"18","04":"Yes","04_ages_1":"1","04_ages_2":"2","04_ages_3":"3","04_ages_4":"4","04_ages_5":"5","04_ages_6":"6","04_ages_7":"7","04_ages_8":"8","04_ages_9":"9","04_ages_10":"10","04_ages_11":"11","04_ages_12":"12","04_ages_13":"13","04_ages_14":"14","04_ages_15":"15","04_ages_16":"16","04_ages_17":"17","04_ages_18":"18"},"rt":47832.5,"item_order":[0,1,2,3],"radio_events":[4199,18446.799999952316,19413,21779.600000023842],"checkbox_events":[6579.899999976158,6998,7413.700000047684,7764.600000023842,8431.600000023842,8814.899999976158,9180.399999976158,9612.799999952316,10079,10412.700000047684,10730.5,12413.100000023842,12697.299999952316,12945.5,13329.799999952316,13730.600000023842,14077.899999976158,14479.299999952316,24080,24864.5,25297.899999976158,25647.299999952316,26013.5,26344.799999952316,26694.5,27212.899999976158,27613.200000047684,27943.899999976158,28297.5,28666.399999976158,28999.299999952316,29347.700000047684,29763,30146.899999976158,30547.200000047684,30896.299999952316,31812.600000023842,32145.899999976158,32447.700000047684,32796.799999952316,33180,33479.89999997616,33761.299999952316,33998.299999952316,34227.299999952316,34444.39999997616,34646.89999997616,34948.5,35314.200000047684,35679,36046.799999952316,36397.60000002384,36929.299999952316,37413.299999952316,37897.60000002384,38146.60000002384,38914.39999997616,39197.10000002384,39580.39999997616,39929.799999952316,40247.299999952316,40547.5,40914.10000002384,41212.60000002384,41562.5,41929.299999952316,42296.299999952316,42664.700000047684,43013.799999952316,43380.299999952316,43747,44029.60000002384,44366.200000047684,44679.60000002384],"key_events":[],"mouse_events":[4199,6579.899999976158,6998,7413.700000047684,7764.600000023842,8431.600000023842,8814.899999976158,9180.399999976158,9612.799999952316,10079,10412.700000047684,10730.5,12413.100000023842,12697.299999952316,12945.5,13329.799999952316,13730.600000023842,14077.899999976158,14479.299999952316,17379.600000023842,18446.799999952316,19413,21779.600000023842,24080,24864.5,25297.899999976158,25647.299999952316,26013.5,26344.799999952316,26694.5,27212.899999976158,27613.200000047684,27943.899999976158,28297.5,28666.399999976158,28999.299999952316,29347.700000047684,29763,30146.899999976158,30547.200000047684,30896.299999952316,31812.600000023842,32145.899999976158,32447.700000047684,32796.799999952316,33180,33479.89999997616,33761.299999952316,33998.299999952316,34227.299999952316,34444.39999997616,34646.89999997616,34948.5,35314.200000047684,35679,36046.799999952316,36397.60000002384,36929.299999952316,37413.299999952316,37897.60000002384,38146.60000002384,38914.39999997616,39197.10000002384,39580.39999997616,39929.799999952316,40247.299999952316,40547.5,40914.10000002384,41212.60000002384,41562.5,41929.299999952316,42296.299999952316,42664.700000047684,43013.799999952316,43380.299999952316,43747,44029.60000002384,44366.200000047684,44679.60000002384,47831.60000002384],"honeypot":0,"survey":"mace","page":9,"trial_type":"survey-mace","trial_index":17,"time_elapsed":666087,"internal_node_id":"0.0-17.0","task_version":"prescreen-v0.3","browser_interactions":0},{"responses":{"01":"Yes","01_ages_10":"10","01_ages_11":"11","01_ages_12":"12","02":"No","03":"Yes","03_ages_10":"10","03_ages_11":"11","03_ages_12":"12","03_ages_13":"13","03_ages_14":"14","03_ages_15":"15","03_ages_16":"16","03_ages_17":"17","03_ages_18":"18","04":"No","05":"Yes","05_ages_1":"1","05_ages_2":"2","05_ages_3":"3","05_ages_4":"4","05_ages_5":"5","05_ages_6":"6","05_ages_7":"7","05_ages_8":"8","05_ages_9":"9","05_ages_10":"10","05_ages_11":"11","05_ages_12":"12","06":"Yes","06_ages_17":"17","07":"Yes","07_ages_1":"1","07_ages_2":"2","07_ages_3":"3","07_ages_4":"4","07_ages_5":"5","07_ages_6":"6","07_ages_7":"7","07_ages_8":"8","07_ages_9":"9","07_ages_10":"10","07_ages_11":"11","07_ages_12":"12","07_ages_13":"13","07_ages_14":"14","07_ages_15":"15","07_ages_16":"16","07_ages_17":"17","07_ages_18":"18","08":"Yes","08_ages_1":"1","08_ages_2":"2","08_ages_3":"3","08_ages_4":"4","08_ages_5":"5","08_ages_6":"6","08_ages_7":"7","08_ages_8":"8","08_ages_9":"9","08_ages_10":"10","08_ages_11":"11","08_ages_12":"12","08_ages_14":"14","08_ages_15":"15","08_ages_16":"16","08_ages_17":"17","08_ages_18":"18"},"rt":85450.20000004768,"item_order":[0,1,2,3,4,5,6,7],"radio_events":[5845,6579.800000071526,9295.899999976158,16062.5,19680.600000023842,22712.300000071526,44685.39999997616,48548.200000047684],"checkbox_events":[17601.300000071526,30031.800000071526,30546.899999976158,30846.5,38098.39999997616,38396.800000071526,38828.39999997616,39146.10000002384,39480.300000071526,39914.800000071526,40299,40596.700000047684,40830.89999997616,49315.700000047684,49998.700000047684,50830.300000071526,51681.300000071526,51964.39999997616,52579,52977.89999997616,53328.800000071526,54092.10000002384,54931.10000002384,55265,55579.89999997616,55962.39999997616,57599.300000071526,62932.200000047684,63263.39999997616,63713.60000002384,64016.800000071526,64599.39999997616,64897.5,65280.5,65561.10000002384,65879.20000004768,66063,66265.10000002384,66480.5,66746.70000004768,67115,67315.70000004768,67514,67695.20000004768,67882,68265.30000007153,68730.60000002384,69130.89999997616,69398.89999997616,69597.80000007153,70096.39999997616,71916,72230.39999997616,72713.5,73163.70000004768,73630.10000002384,73947.60000002384,74312.39999997616,74732.10000002384,75120.10000002384,75515.20000004768,75813.20000004768,76464.89999997616,77031.20000004768,77379.80000007153,77946.60000002384,78483.39999997616,78830.20000004768],"key_events":[],"mouse_events":[5845,6579.800000071526,9295.899999976158,16062.5,17601.300000071526,19680.600000023842,22712.300000071526,30031.800000071526,30546.899999976158,30846.5,38098.39999997616,38396.800000071526,38828.39999997616,39146.10000002384,39480.300000071526,39914.800000071526,40299,40596.700000047684,40830.89999997616,44685.39999997616,48548.200000047684,49315.700000047684,49998.700000047684,50830.300000071526,51681.300000071526,51964.39999997616,52579,52977.89999997616,53328.800000071526,54092.10000002384,54931.10000002384,55265,55579.89999997616,55962.39999997616,57599.300000071526,62932.200000047684,63263.39999997616,63713.60000002384,64016.800000071526,64599.39999997616,64897.5,65280.5,65561.10000002384,65879.20000004768,66063,66265.10000002384,66480.5,66746.70000004768,67115,67315.70000004768,67514,67695.20000004768,67882,68265.30000007153,68730.60000002384,69130.89999997616,69398.89999997616,69597.80000007153,70096.39999997616,71916,72230.39999997616,72713.5,73163.70000004768,73630.10000002384,73947.60000002384,74312.39999997616,74732.10000002384,75120.10000002384,75515.20000004768,75813.20000004768,76464.89999997616,77031.20000004768,77379.80000007153,77946.60000002384,78483.39999997616,78830.20000004768,85448.30000007153],"honeypot":0,"survey":"mace","page":10,"trial_type":"survey-mace","trial_index":18,"time_elapsed":751540,"internal_node_id":"0.0-18.0","task_version":"prescreen-v0.3","browser_interactions":0,"instructed":0},{"rt":7697.700000047684,"trial_type":"mental-health-alert","trial_index":19,"time_elapsed":759239,"internal_node_id":"0.0-19.0","task_version":"prescreen-v0.3","interactions":"[]"}]