[{"view_history":[{"page_index":0,"viewing_time":6506.599999904633},{"page_index":1,"viewing_time":7504.300000071526},{"page_index":2,"viewing_time":3719.2999999523163},{"page_index":3,"viewing_time":3400.399999976158}],"rt":21131.199999928474,"trial_type":"instructions","trial_index":0,"time_elapsed":21159,"internal_node_id":"0.0-0.0","task_version":"prescreen-v0.3"},{"rt":13868.700000047684,"responses":{"age":"42","gender-categorical":"Male","gender-free-response":"","ethnicity":"Not Hispanic or Latino","race":["White"],"education":"Master degree or higher","siblings":"2"},"trial_type":"survey-demo","trial_index":1,"time_elapsed":35032,"internal_node_id":"0.0-1.0","task_version":"prescreen-v0.3"},{"responses":{"Q20":"0","Q14":"2","Q19":"1","Q06":"2","Q18":"1","Q12":"1","Q09":"2","Q15":"2","Q11":"1","Q17":"1","Q08":"1","Q05":"2","Q02":"0","Q13":"1","Q03":"1","Q04":"2","Q01":"2","Q07":"0","Q16":"0","Q21":"3","Q10":"0"},"rt":97318,"item_order":[19,13,18,5,17,11,8,14,10,16,7,4,1,12,2,3,0,6,15,20,9],"radio_events":[5394.300000071526,9602.100000023842,16250.300000071526,27906.100000023842,30066.399999976158,35267.10000002384,39074.800000071526,43914.700000047684,51498.200000047684,53738.10000002384,56802.39999997616,65826.20000004768,68498.10000002384,71162.39999997616,73081.89999997616,76482.10000002384,78146.10000002384,83618.5,87634.30000007153,91018.20000004768,96442.70000004768],"key_events":[],"mouse_events":[5394.300000071526,9602.100000023842,16250.300000071526,27906.100000023842,30066.399999976158,35267.10000002384,39074.800000071526,43914.700000047684,51498.200000047684,53738.10000002384,56802.39999997616,65826.20000004768,68498.10000002384,71162.39999997616,73081.89999997616,76482.10000002384,78146.10000002384,83618.5,87634.30000007153,91018.20000004768,96442.70000004768,97314.80000007153],"straightlining":0.38095238095238093,"zigzagging":0.5,"honeypot":0,"survey":"sns","trial_type":"survey-template","trial_index":2,"time_elapsed":132358,"internal_node_id":"0.0-2.0","task_version":"prescreen-v0.3","browser_interactions":0,"infrequency":0},{"responses":{"Q05":"2","Q11":"2","Q10":"1","Q07":"3","Q02":"1","Q12":"1","Q01":"2","Q08":"3","Q06":"3","Q09":"2","Q03":"2","Q04":"3","Q13":"0"},"rt":54762.10000002384,"item_order":[4,10,9,6,1,11,0,7,5,8,2,3,12],"radio_events":[5831.600000023842,11016.100000023842,15760.100000023842,19056.100000023842,23128,27968,31056,33320,36959.699999928474,39991.89999997616,46272,50168.10000002384,53031.89999997616],"key_events":[],"mouse_events":[5831.600000023842,11016.100000023842,15760.100000023842,18120,19056.100000023842,23128,27968,31056,33320,36344.10000002384,36959.699999928474,39991.89999997616,46272,50168.10000002384,53031.89999997616,54760],"straightlining":0.38461538461538464,"zigzagging":0.5,"honeypot":0,"survey":"bisbas","trial_type":"survey-template","trial_index":3,"time_elapsed":187126,"internal_node_id":"0.0-3.0","task_version":"prescreen-v0.3","browser_interactions":0,"infrequency":0},{"responses":{"Q01":"2","Q02":"3","Q03":"3"},"rt":17146.600000023842,"radio_events":[7737.600000023842,11937.5,15793.5],"key_events":[],"mouse_events":[7737.600000023842,11937.5,15793.5,17145.5],"survey":"map","page":1,"trial_type":"survey-map","trial_index":4,"time_elapsed":204277,"internal_node_id":"0.0-4.0","task_version":"prescreen-v0.3","browser_interactions":0},{"responses":{"Q04":"3","Q05":"4","Q06":"3"},"rt":14028,"radio_events":[4714.899999976158,9179,12546.899999976158],"key_events":[],"mouse_events":[4714.899999976158,9179,12546.899999976158,14027],"survey":"map","page":2,"trial_type":"survey-map","trial_index":5,"time_elapsed":218309,"internal_node_id":"0.0-5.0","task_version":"prescreen-v0.3","browser_interactions":0},{"responses":{"Q07":"3","Q08":"1","Q09":"1"},"rt":14868.399999976158,"radio_events":[8155.399999976158,10739.399999976158,14075.399999976158],"key_events":[],"mouse_events":[8155.399999976158,10739.399999976158,13019.399999976158,13643.299999952316,14075.399999976158,14867.399999976158],"survey":"map","page":3,"trial_type":"survey-map","trial_index":6,"time_elapsed":233182,"internal_node_id":"0.0-6.0","task_version":"prescreen-v0.3","browser_interactions":0},{"responses":{"Q10":"2","Q11":"1","Q12":"2","Q13":"3","Q16":"0","Q14":"3","Q15":"2"},"rt":31220.899999976158,"radio_events":[5123,10538.899999976158,14267,18275,23826.899999976158,26947,29483],"key_events":[],"mouse_events":[5123,10538.899999976158,14267,18275,23826.899999976158,26947,29483,31219],"survey":"map","page":4,"trial_type":"survey-map","trial_index":7,"time_elapsed":264408,"internal_node_id":"0.0-7.0","task_version":"prescreen-v0.3","browser_interactions":0,"infrequency":0},{"view_history":[{"page_index":0,"viewing_time":3194.6999999284744},{"page_index":1,"viewing_time":3479.7000000476837}],"rt":6675.199999928474,"trial_type":"instructions","trial_index":8,"time_elapsed":271086,"internal_node_id":"0.0-8.0","task_version":"prescreen-v0.3"},{"responses":{"01":"Yes","01_ages_11":"11","01_ages_12":"12","01_ages_13":"13","01_ages_14":"14","01_ages_15":"15","01_ages_16":"16","01_ages_17":"17","01_ages_18":"18","02":"Yes","02_ages_8":"8","02_ages_9":"9","02_ages_10":"10","02_ages_11":"11","02_ages_12":"12","02_ages_13":"13","02_ages_14":"14","02_ages_15":"15","02_ages_16":"16","02_ages_17":"17","02_ages_18":"18","03":"Yes","03_ages_7":"7","03_ages_8":"8","03_ages_9":"9","03_ages_10":"10","03_ages_11":"11","03_ages_12":"12","03_ages_13":"13","03_ages_14":"14","03_ages_15":"15","03_ages_16":"16","03_ages_17":"17","03_ages_18":"18","04":"No","05":"No","06":"Yes","06_ages_11":"11","06_ages_12":"12","06_ages_13":"13","06_ages_14":"14","06_ages_15":"15","06_ages_16":"16"},"rt":64007.799999952316,"item_order":[0,1,2,3,4,5],"radio_events":[9674.199999928474,31106.399999976158,37970.60000002384,52290.5,54698.60000002384,56906.60000002384],"checkbox_events":[15867,16498.5,16970.699999928474,17490.600000023842,18130.600000023842,18698.600000023842,19226.5,19682.5,20146.699999928474,32130.600000023842,32482.299999952316,32834.299999952316,33194.39999997616,33618.699999928474,33994.299999952316,34930.5,35330.299999952316,35818.699999928474,38994.699999928474,39522.5,40106.199999928474,40578.5,40970.39999997616,41498.60000002384,41914.39999997616,42514.60000002384,42890.699999928474,44018.60000002384,44346.60000002384,44794.299999952316,46874.699999928474,47530.199999928474,48306.699999928474,59442.60000002384,59850.60000002384,60274.60000002384,60618.60000002384,61066.60000002384,61402.60000002384],"key_events":[],"mouse_events":[0,9674.199999928474,15867,16498.5,16970.699999928474,17490.600000023842,18130.600000023842,18698.600000023842,19226.5,19682.5,20146.699999928474,31106.399999976158,32130.600000023842,32482.299999952316,32834.299999952316,33194.39999997616,33618.699999928474,33994.299999952316,34346.299999952316,34930.5,35330.299999952316,35818.699999928474,37970.60000002384,38994.699999928474,39522.5,40106.199999928474,40578.5,40970.39999997616,41498.60000002384,41914.39999997616,42514.60000002384,42890.699999928474,44018.60000002384,44346.60000002384,44794.299999952316,46874.699999928474,47530.199999928474,48306.699999928474,52290.5,54074.5,54698.60000002384,56906.60000002384,59442.60000002384,59850.60000002384,60274.60000002384,60618.60000002384,61066.60000002384,61402.60000002384,64003.10000002384],"honeypot":0,"survey":"mace","page":1,"trial_type":"survey-mace","trial_index":9,"time_elapsed":335102,"internal_node_id":"0.0-9.0","task_version":"prescreen-v0.3","browser_interactions":0},{"responses":{"01":"No","02":"No","03":"Yes","03_ages_5":"5","03_ages_6":"6","03_ages_7":"7","03_ages_8":"8","03_ages_9":"9","04":"No","05":"No","06":"No","07":"No","08":"No"},"rt":23459.899999976158,"item_order":[0,1,2,3,4,5,6,7],"radio_events":[3846.1999999284744,4590.199999928474,6310.100000023842,14110.199999928474,17094,18326.100000023842,19806.100000023842,21846.100000023842],"checkbox_events":[8765.899999976158,9133.799999952316,9622.100000023842,10518.199999928474,10837.600000023842],"key_events":[],"mouse_events":[2422.100000023842,3846.1999999284744,4590.199999928474,6310.100000023842,8765.899999976158,9133.799999952316,9622.100000023842,10013.799999952316,10518.199999928474,10837.600000023842,14110.199999928474,17094,18326.100000023842,19806.100000023842,21846.100000023842,23454.5],"honeypot":0,"survey":"mace","page":2,"trial_type":"survey-mace","trial_index":10,"time_elapsed":358567,"internal_node_id":"0.0-10.0","task_version":"prescreen-v0.3","browser_interactions":0},{"responses":{"01":"No","02":"No","03":"No","04":"No"},"rt":15481.399999976158,"item_order":[0,1,2,3],"radio_events":[4830,9901.899999976158,12958,14910],"checkbox_events":[],"key_events":[],"mouse_events":[4830,9901.899999976158,12958,14910,15478],"honeypot":0,"survey":"mace","page":3,"trial_type":"survey-mace","trial_index":11,"time_elapsed":374053,"internal_node_id":"0.0-11.0","task_version":"prescreen-v0.3","browser_interactions":0},{"responses":{"01":"No","02":"No"},"rt":6546.899999976158,"item_order":[0,1],"radio_events":[3793,5249.099999904633],"checkbox_events":[],"key_events":[],"mouse_events":[3793,5249.099999904633,6544.899999976158],"honeypot":0,"survey":"mace","page":4,"trial_type":"survey-mace","trial_index":12,"time_elapsed":380603,"internal_node_id":"0.0-12.0","task_version":"prescreen-v0.3","browser_interactions":0},{"responses":{"01":"Yes","01_ages_8":"8","01_ages_9":"9","01_ages_10":"10","01_ages_11":"11","01_ages_12":"12","01_ages_13":"13","02":"No","03":"No","04":"No","05":"No"},"rt":23997.799999952316,"item_order":[0,1,2,3,4],"radio_events":[5706.099999904633,13514,17602,20770.099999904633,22370],"checkbox_events":[7354.099999904633,7801.799999952316,8130,9002,9370,10106],"key_events":[],"mouse_events":[5706.099999904633,7354.099999904633,7801.799999952316,8130,8537.699999928474,9002,9370,9674,10106,10849.799999952316,13514,17602,20770.099999904633,22370,22954,23993.899999976158],"honeypot":0,"survey":"mace","page":5,"trial_type":"survey-mace","trial_index":13,"time_elapsed":404606,"internal_node_id":"0.0-13.0","task_version":"prescreen-v0.3","browser_interactions":0},{"responses":{"01":"Yes","01_ages_10":"10","01_ages_11":"11","01_ages_12":"12","01_ages_13":"13","02":"Yes","02_ages_8":"8","02_ages_9":"9","02_ages_10":"10","02_ages_11":"11","02_ages_12":"12","02_ages_13":"13","02_ages_14":"14","02_ages_15":"15","03":"Yes","03_ages_9":"9","03_ages_10":"10","03_ages_11":"11","03_ages_12":"12","03_ages_13":"13","03_ages_14":"14","03_ages_15":"15","03_ages_16":"16","04":"No","05":"No"},"rt":46356.10000002384,"item_order":[0,1,2,3,4],"radio_events":[8464.199999928474,15288.100000023842,32855.60000002384,42032.199999928474,45472.10000002384],"checkbox_events":[10968.100000023842,11352.100000023842,12544,12903.799999952316,16184,16856.100000023842,17255.899999976158,18064,18416.199999928474,19312,19672,19991.699999928474,34768.10000002384,35168.10000002384,35840.199999928474,36287.89999997616,36680.199999928474,37096,37543.89999997616,37936],"key_events":[],"mouse_events":[8464.199999928474,10440,10968.100000023842,11352.100000023842,11855.899999976158,12544,12903.799999952316,15288.100000023842,16184,16856.100000023842,17255.899999976158,17656,18064,18416.199999928474,18816.100000023842,19312,19672,19991.699999928474,32855.60000002384,34768.10000002384,35168.10000002384,35840.199999928474,36287.89999997616,36680.199999928474,37096,37543.89999997616,37936,42032.199999928474,45472.10000002384,46008,46352.10000002384],"honeypot":0,"survey":"mace","page":6,"trial_type":"survey-mace","trial_index":14,"time_elapsed":450968,"internal_node_id":"0.0-14.0","task_version":"prescreen-v0.3","browser_interactions":2},{"responses":{"01":"No","02":"No","03":"No","04":"No","05":"No","06":"No","07":"No"},"rt":17581,"item_order":[0,1,2,3,4,5,6],"radio_events":[4199.700000047684,6687.799999952316,9935.700000047684,10607.700000047684,13391.799999952316,15895.700000047684,16799.799999952316],"checkbox_events":[],"key_events":[],"mouse_events":[4199.700000047684,6687.799999952316,9935.700000047684,10607.700000047684,13391.799999952316,15895.700000047684,16799.799999952316,17575.799999952316],"honeypot":0,"survey":"mace","page":7,"trial_type":"survey-mace","trial_index":15,"time_elapsed":468554,"internal_node_id":"0.0-15.0","task_version":"prescreen-v0.3","browser_interactions":0},{"responses":{"01":"No","02":"Yes","02_ages_7":"7","02_ages_8":"8","02_ages_9":"9","02_ages_10":"10","02_ages_11":"11","02_ages_12":"12","02_ages_13":"13","02_ages_14":"14","02_ages_15":"15","02_ages_16":"16","02_ages_17":"17","02_ages_18":"18","03":"Yes","03_ages_7":"7","03_ages_8":"8","03_ages_9":"9","03_ages_10":"10","03_ages_11":"11","03_ages_12":"12","03_ages_13":"13","03_ages_14":"14","03_ages_15":"15","03_ages_16":"16","03_ages_17":"17","03_ages_18":"18","04":"Yes","04_ages_7":"7","04_ages_8":"8","04_ages_9":"9","04_ages_10":"10","04_ages_11":"11","04_ages_12":"12","04_ages_13":"13","04_ages_14":"14","04_ages_15":"15","04_ages_16":"16","04_ages_17":"17","04_ages_18":"18"},"rt":42058.10000002384,"item_order":[0,1,2,3],"radio_events":[8430.700000047684,17230.899999976158,20558.700000047684,31302.700000047684],"checkbox_events":[11166.899999976158,11478.800000071526,11846.700000047684,12182.600000023842,12550.800000071526,13022.600000023842,13486.800000071526,13926.800000071526,14302.899999976158,15094.800000071526,15774.700000047684,16230.800000071526,21734.600000023842,22478.600000023842,23230.800000071526,23766.899999976158,24358.800000071526,24782.800000071526,25430.700000047684,26070.800000071526,26590.5,27254.800000071526,27782.700000047684,28462.899999976158,33630.89999997616,34134.700000047684,34662.800000071526,35046.700000047684,35686.60000002384,36830.700000047684,37670.700000047684,38238.5,39110.800000071526,40438.700000047684,40942.60000002384,41414.60000002384],"key_events":[],"mouse_events":[8430.700000047684,11166.899999976158,11478.800000071526,11846.700000047684,12182.600000023842,12550.800000071526,13022.600000023842,13486.800000071526,13926.800000071526,14302.899999976158,14702.800000071526,15094.800000071526,15774.700000047684,16230.800000071526,17230.899999976158,20558.700000047684,21734.600000023842,22102.800000071526,22478.600000023842,22918.600000023842,23230.800000071526,23766.899999976158,24358.800000071526,24782.800000071526,25150.800000071526,25430.700000047684,26070.800000071526,26590.5,27254.800000071526,27782.700000047684,28462.899999976158,29102.700000047684,31302.700000047684,32734.399999976158,33630.89999997616,34134.700000047684,34662.800000071526,35046.700000047684,35686.60000002384,36126.700000047684,36534.5,36830.700000047684,37670.700000047684,38238.5,38766.700000047684,39110.800000071526,40438.700000047684,40942.60000002384,41414.60000002384,42054.800000071526],"honeypot":0,"survey":"mace","page":8,"trial_type":"survey-mace","trial_index":16,"time_elapsed":510624,"internal_node_id":"0.0-16.0","task_version":"prescreen-v0.3","browser_interactions":0},{"responses":{"01":"Yes","01_ages_1":"1","01_ages_2":"2","01_ages_3":"3","01_ages_4":"4","01_ages_5":"5","01_ages_6":"6","01_ages_7":"7","01_ages_8":"8","01_ages_9":"9","01_ages_10":"10","01_ages_11":"11","01_ages_12":"12","01_ages_13":"13","01_ages_14":"14","01_ages_15":"15","01_ages_16":"16","01_ages_17":"17","01_ages_18":"18","02":"Yes","02_ages_1":"1","02_ages_2":"2","02_ages_3":"3","02_ages_4":"4","02_ages_5":"5","02_ages_6":"6","02_ages_7":"7","02_ages_8":"8","02_ages_9":"9","02_ages_10":"10","02_ages_11":"11","02_ages_12":"12","02_ages_13":"13","02_ages_14":"14","02_ages_15":"15","02_ages_16":"16","02_ages_17":"17","02_ages_18":"18","03":"Yes","03_ages_1":"1","03_ages_2":"2","03_ages_3":"3","03_ages_4":"4","03_ages_5":"5","03_ages_6":"6","03_ages_7":"7","03_ages_8":"8","03_ages_9":"9","03_ages_10":"10","03_ages_11":"11","03_ages_12":"12","03_ages_13":"13","03_ages_14":"14","03_ages_15":"15","03_ages_16":"16","03_ages_17":"17","03_ages_18":"18","04":"Yes","04_ages_1":"1","04_ages_2":"2","04_ages_3":"3","04_ages_4":"4","04_ages_5":"5","04_ages_6":"6","04_ages_7":"7","04_ages_8":"8","04_ages_9":"9","04_ages_10":"10","04_ages_11":"11","04_ages_12":"12","04_ages_13":"13","04_ages_14":"14","04_ages_15":"15","04_ages_16":"16","04_ages_17":"17","04_ages_18":"18"},"rt":54979.89999997616,"item_order":[0,1,2,3],"radio_events":[3472.7000000476837,16480.600000023842,29672.5,43440.700000047684],"checkbox_events":[4696.5,4984.700000047684,5360.700000047684,5704.5,6784.600000023842,8008.700000047684,8576.5,9080.600000023842,9592.299999952316,10120.399999976158,10480.700000047684,11128.600000023842,11592,12224.799999952316,12616.600000023842,13000.700000047684,13344.700000047684,13992.700000047684,18920.399999976158,19728.700000047684,20160.799999952316,20512.700000047684,20960.5,21584.700000047684,22024.5,22464.600000023842,23008.700000047684,23984.600000023842,24656.700000047684,25016.5,25432.700000047684,25800.399999976158,26184.200000047684,26592.799999952316,27168.600000023842,27656.5,30632.700000047684,31944.799999952316,32328.399999976158,32952.700000047684,33384.5,33784.60000002384,34144.5,34552.60000002384,34992.700000047684,35480.700000047684,36032.60000002384,36496.60000002384,37088.60000002384,37568.5,38200.5,39312.700000047684,39760.700000047684,40184.60000002384,45280.299999952316,45952.60000002384,46376.5,46856.39999997616,47320.5,47712.700000047684,48112.39999997616,48472.60000002384,48840.60000002384,49384.700000047684,50216.5,50624.60000002384,51168.60000002384,51560.5,52072.700000047684,52552.60000002384,53224.39999997616,53776.700000047684],"key_events":[],"mouse_events":[2200.5,3472.7000000476837,4696.5,4984.700000047684,5360.700000047684,5704.5,6784.600000023842,7456.600000023842,8008.700000047684,8576.5,9080.600000023842,9592.299999952316,10120.399999976158,10480.700000047684,10808.5,11128.600000023842,11592,12224.799999952316,12616.600000023842,13000.700000047684,13344.700000047684,13992.700000047684,14608.600000023842,16480.600000023842,17592.700000047684,18000.5,18384.299999952316,18920.399999976158,19728.700000047684,20160.799999952316,20512.700000047684,20960.5,21584.700000047684,22024.5,22464.600000023842,23008.700000047684,23984.600000023842,24296.5,24656.700000047684,25016.5,25432.700000047684,25800.399999976158,26184.200000047684,26592.799999952316,27168.600000023842,27656.5,28128.600000023842,29672.5,30632.700000047684,31160.399999976158,31944.799999952316,32328.399999976158,32952.700000047684,33384.5,33784.60000002384,34144.5,34552.60000002384,34992.700000047684,35480.700000047684,36032.60000002384,36496.60000002384,37088.60000002384,37568.5,38200.5,39312.700000047684,39760.700000047684,40184.60000002384,40648.700000047684,43440.700000047684,44472.5,44808.700000047684,45280.299999952316,45952.60000002384,46376.5,46856.39999997616,47320.5,47712.700000047684,48112.39999997616,48472.60000002384,48840.60000002384,49384.700000047684,49856.60000002384,50216.5,50624.60000002384,51168.60000002384,51560.5,52072.700000047684,52552.60000002384,53224.39999997616,53776.700000047684,54208.700000047684,54976.5],"honeypot":0,"survey":"mace","page":9,"trial_type":"survey-mace","trial_index":17,"time_elapsed":565610,"internal_node_id":"0.0-17.0","task_version":"prescreen-v0.3","browser_interactions":0},{"responses":{"01":"No","02":"No","03":"No","04":"Yes","04_ages_10":"10","04_ages_11":"11","04_ages_12":"12","04_ages_13":"13","04_ages_14":"14","04_ages_15":"15","04_ages_16":"16","04_ages_17":"17","04_ages_18":"18","05":"No","06":"Yes","06_ages_17":"17","07":"Yes","07_ages_1":"1","07_ages_2":"2","07_ages_3":"3","07_ages_4":"4","07_ages_5":"5","07_ages_6":"6","07_ages_7":"7","07_ages_8":"8","07_ages_9":"9","07_ages_10":"10","07_ages_11":"11","07_ages_12":"12","07_ages_13":"13","07_ages_14":"14","07_ages_15":"15","07_ages_16":"16","07_ages_17":"17","07_ages_18":"18","08":"No"},"rt":38878.5,"item_order":[0,1,2,3,4,5,6,7],"radio_events":[2776.5999999046326,4080.2999999523163,5792.599999904633,6840.5,8048.199999928474,17456.599999904633,19304.5,23104.399999976158,29512.5],"checkbox_events":[10496.599999904633,11000.5,11400.299999952316,11752.5,12128.299999952316,12800.299999952316,13280.299999952316,14184.299999952316,14784.599999904633,20296.5,25136.5,25456.299999952316,25872.399999976158,26504.199999928474,27096.399999976158,27552.299999952316,28040.399999976158,30809,31200.699999928474,33272.5,33800.5,34304.39999997616,35040.5,35696.39999997616,36664.39999997616,37080.5,37504.39999997616,38112.39999997616],"key_events":[],"mouse_events":[2776.5999999046326,4080.2999999523163,5792.599999904633,6840.5,8048.199999928474,10496.599999904633,11000.5,11400.299999952316,11752.5,12128.299999952316,12496.399999976158,12800.299999952316,13280.299999952316,13824.599999904633,14184.299999952316,14784.599999904633,15712.5,17456.599999904633,19304.5,20296.5,23104.399999976158,25136.5,25456.299999952316,25872.399999976158,26504.199999928474,27096.399999976158,27552.299999952316,28040.399999976158,28592.5,29512.5,30328.399999976158,30809,31200.699999928474,31904.199999928474,32968.59999990463,33272.5,33800.5,34304.39999997616,34640.59999990463,35040.5,35696.39999997616,36664.39999997616,37080.5,37504.39999997616,38112.39999997616,38872.5],"honeypot":0,"survey":"mace","page":10,"trial_type":"survey-mace","trial_index":18,"time_elapsed":604495,"internal_node_id":"0.0-18.0","task_version":"prescreen-v0.3","browser_interactions":0,"instructed":0},{"rt":5374.399999976158,"trial_type":"mental-health-alert","trial_index":19,"time_elapsed":609872,"internal_node_id":"0.0-19.0","task_version":"prescreen-v0.3","interactions":"[{\"event\":\"blur\",\"trial\":14,\"time\":425297},{\"event\":\"focus\",\"trial\":14,\"time\":433275}]"}]