[{"view_history":[{"page_index":0,"viewing_time":5304.5},{"page_index":1,"viewing_time":3813.7000000178814},{"page_index":2,"viewing_time":4372.399999976158},{"page_index":3,"viewing_time":1207.2000000178814}],"rt":14699.200000017881,"trial_type":"instructions","trial_index":0,"time_elapsed":14703,"internal_node_id":"0.0-0.0","task_version":"prescreen-v0.3"},{"rt":15012.90000000596,"responses":{"age":"22","gender-categorical":"Female","gender-free-response":"","ethnicity":"Hispanic or Latino","race":["Rather not say"],"education":"Bachelor degree"},"trial_type":"survey-demo","trial_index":1,"time_elapsed":29725,"internal_node_id":"0.0-1.0","task_version":"prescreen-v0.3"},{"responses":{"Q19":"1","Q04":"1","Q17":"2","Q06":"0","Q10":"1","Q05":"0","Q20":"0","Q01":"0","Q21":"3","Q03":"1","Q08":"0","Q18":"1","Q11":"2","Q13":"1","Q15":"2","Q02":"0","Q07":"0","Q12":"3","Q09":"2","Q14":"2","Q16":"0"},"rt":125177.40000000596,"item_order":[18,3,16,5,9,4,19,0,20,2,7,17,10,12,14,1,6,11,8,13,15],"radio_events":[11348.800000011921,16153.200000017881,25380,31442.70000001788,39127.10000002384,44293.40000000596,47662.60000002384,55998.30000001192,57108.90000000596,61373.5,67450.5,72681.30000001192,77847.5,82207.10000002384,89663.70000001788,93108.80000001192,98941.90000000596,105894.70000001788,112847.70000001788,119188.5,124091.40000000596],"key_events":[],"mouse_events":[11348.800000011921,16153.200000017881,22891.5,24010.40000000596,24717.40000000596,25380,30604,31442.70000001788,37761.5,39127.10000002384,44293.40000000596,47662.60000002384,51107.70000001788,55139.30000001192,55998.30000001192,57108.90000000596,61373.5,66668,67450.5,72681.30000001192,77847.5,81616.20000001788,82207.10000002384,89663.70000001788,93108.80000001192,98272.5,98941.90000000596,104879.20000001788,105894.70000001788,111577.40000000596,112847.70000001788,118414.30000001192,119188.5,124091.40000000596,125170.80000001192],"straightlining":0.38095238095238093,"zigzagging":0.55,"honeypot":0,"survey":"sns","trial_type":"survey-template","trial_index":2,"time_elapsed":154918,"internal_node_id":"0.0-2.0","task_version":"prescreen-v0.3","browser_interactions":0,"infrequency":0},{"responses":{"Q05":"3","Q02":"3","Q13":"0","Q07":"2","Q09":"2","Q01":"2","Q11":"3","Q10":"2","Q08":"3","Q12":"1","Q03":"3","Q04":"3","Q06":"2"},"rt":77583.30000001192,"item_order":[4,1,12,6,8,0,10,9,7,11,2,3,5],"radio_events":[10005.800000011921,14544.300000011921,21862.09999999404,26573,30342.09999999404,32478,36043.40000000596,41167.90000000596,44632.59999999404,50048.90000000596,53559.20000001788,60360.09999999404,64987.09999999404,75587.09999999404],"key_events":[],"mouse_events":[10005.800000011921,14544.300000011921,21862.09999999404,26573,30342.09999999404,32478,36043.40000000596,41167.90000000596,44632.59999999404,50048.90000000596,52221.59999999404,53559.20000001788,60360.09999999404,64987.09999999404,75587.09999999404,77580.59999999404],"straightlining":0.46153846153846156,"zigzagging":0.4166666666666667,"honeypot":0,"survey":"bisbas","trial_type":"survey-template","trial_index":3,"time_elapsed":232511,"internal_node_id":"0.0-3.0","task_version":"prescreen-v0.3","browser_interactions":0,"infrequency":0},{"responses":{"Q01":"3","Q02":"1","Q03":"1"},"rt":35160.09999999404,"radio_events":[5745.300000011921,8521.5,15029.5,34048.19999998808],"key_events":[],"mouse_events":[5745.300000011921,8521.5,15029.5,34048.19999998808,35158.5],"survey":"map","page":1,"trial_type":"survey-map","trial_index":4,"time_elapsed":267680,"internal_node_id":"0.0-4.0","task_version":"prescreen-v0.3","browser_interactions":0},{"responses":{"Q04":"3","Q05":"2","Q06":"0"},"rt":20643.29999998212,"radio_events":[7410.799999982119,14556.699999988079,15715.09999999404,19611.69999998808],"key_events":[],"mouse_events":[6716.799999982119,7410.799999982119,14556.699999988079,15715.09999999404,19611.69999998808,20641.90000000596],"survey":"map","page":2,"trial_type":"survey-map","trial_index":5,"time_elapsed":288331,"internal_node_id":"0.0-5.0","task_version":"prescreen-v0.3","browser_interactions":0},{"responses":{"Q07":"1","Q08":"3","Q09":"2"},"rt":27939,"radio_events":[9915,14953.199999988079,26442],"key_events":[],"mouse_events":[9915,14953.199999988079,26442,27937.5],"survey":"map","page":3,"trial_type":"survey-map","trial_index":6,"time_elapsed":316277,"internal_node_id":"0.0-6.0","task_version":"prescreen-v0.3","browser_interactions":0},{"responses":{"Q10":"1","Q11":"1","Q12":"3","Q13":"3","Q16":"0","Q14":"3","Q15":"2"},"rt":53221.30000001192,"radio_events":[6074.0999999940395,22292.30000001192,26557.70000001788,27931,34647.90000000596,38774.09999999404,45351.30000001192,48751.5,52291.20000001788],"key_events":[],"mouse_events":[6074.0999999940395,22292.30000001192,26557.70000001788,27931,34647.90000000596,38774.09999999404,45351.30000001192,48751.5,52291.20000001788,53218.70000001788],"survey":"map","page":4,"trial_type":"survey-map","trial_index":7,"time_elapsed":369508,"internal_node_id":"0.0-7.0","task_version":"prescreen-v0.3","browser_interactions":0,"infrequency":0},{"view_history":[{"page_index":0,"viewing_time":4140.0999999940395},{"page_index":1,"viewing_time":6754.600000023842}],"rt":10895.59999999404,"trial_type":"instructions","trial_index":8,"time_elapsed":380410,"internal_node_id":"0.0-8.0","task_version":"prescreen-v0.3"},{"responses":{"01":"Yes","01_ages_9":"9","01_ages_10":"10","01_ages_11":"11","01_ages_12":"12","01_ages_13":"13","01_ages_14":"14","01_ages_15":"15","01_ages_16":"16","01_ages_17":"17","01_ages_18":"18","02":"Yes","02_ages_14":"14","02_ages_15":"15","02_ages_16":"16","02_ages_17":"17","02_ages_18":"18","03":"Yes","03_ages_5":"5","03_ages_6":"6","03_ages_7":"7","03_ages_8":"8","03_ages_9":"9","03_ages_10":"10","03_ages_11":"11","03_ages_12":"12","04":"No","05":"No","06":"No"},"rt":69392.89999997616,"item_order":[0,1,2,3,4,5],"radio_events":[11904.59999999404,31476.79999998212,43240.59999999404,57563.89999997616,60466.79999998212,68410],"checkbox_events":[18988.5,19491,20019.19999998808,20626.5,21130.19999998808,22321.09999999404,22868.5,23428.5,24682.899999976158,25305.69999998808,35867.69999998808,37074.19999998808,37577.09999999404,38153.29999998212,38721,44946.19999998808,45825.59999999404,46321.79999998212,47399.59999999404,48043.39999997616,48682.39999997616,52117.5,52686],"key_events":[],"mouse_events":[0.19999998807907104,11904.59999999404,18988.5,19491,20019.19999998808,20626.5,21130.19999998808,21673.79999998212,22321.09999999404,22868.5,23428.5,24059.399999976158,24682.899999976158,25305.69999998808,31476.79999998212,35867.69999998808,36435.09999999404,37074.19999998808,37577.09999999404,38153.29999998212,38721,43240.59999999404,44946.19999998808,45825.59999999404,46321.79999998212,47399.59999999404,48043.39999997616,48682.39999997616,52117.5,52686,57563.89999997616,60466.79999998212,68410,69385.69999998808],"honeypot":0,"survey":"mace","page":1,"trial_type":"survey-mace","trial_index":9,"time_elapsed":449815,"internal_node_id":"0.0-9.0","task_version":"prescreen-v0.3","browser_interactions":0},{"responses":{"01":"Yes","01_ages_14":"14","02":"No","03":"Yes","03_ages_5":"5","03_ages_6":"6","03_ages_7":"7","03_ages_11":"11","03_ages_12":"12","04":"No","05":"Yes","05_ages_5":"5","05_ages_6":"6","06":"Yes","06_ages_13":"13","06_ages_14":"14","07":"No","08":"No"},"rt":65666.69999998808,"item_order":[0,1,2,3,4,5,6,7],"radio_events":[4464.0999999940395,16254,18762.59999999404,36864.39999997616,40357,50188.29999998212,62603.39999997616,64521.39999997616],"checkbox_events":[6461.899999976158,20222.19999998808,20692.399999976158,21220.29999998212,22803.09999999404,24269.399999976158,24780.899999976158,25515.399999976158,26843.29999998212,29959.59999999404,30582.19999998808,31461.19999998808,41847.69999998808,42383.19999998808,56701.59999999404,57732.29999998212],"key_events":[],"mouse_events":[4464.0999999940395,6461.899999976158,16254,18762.59999999404,20222.19999998808,20692.399999976158,21220.29999998212,22803.09999999404,24269.399999976158,24780.899999976158,25515.399999976158,26843.29999998212,29959.59999999404,30582.19999998808,31461.19999998808,36864.39999997616,40357,41847.69999998808,42383.19999998808,50188.29999998212,56701.59999999404,57732.29999998212,62603.39999997616,64521.39999997616,65656.89999997616],"honeypot":0,"survey":"mace","page":2,"trial_type":"survey-mace","trial_index":10,"time_elapsed":515492,"internal_node_id":"0.0-10.0","task_version":"prescreen-v0.3","browser_interactions":0},{"responses":{"01":"No","02":"No","03":"No","04":"No"},"rt":13309.699999988079,"item_order":[0,1,2,3],"radio_events":[4062,8013.199999988079,10079.800000011921,12095],"checkbox_events":[],"key_events":[],"mouse_events":[4062,8013.199999988079,10079.800000011921,11430.199999988079,12095,13304.09999999404],"honeypot":0,"survey":"mace","page":3,"trial_type":"survey-mace","trial_index":11,"time_elapsed":528810,"internal_node_id":"0.0-11.0","task_version":"prescreen-v0.3","browser_interactions":0},{"responses":{"01":"No","02":"No"},"rt":6145.5999999940395,"item_order":[0,1],"radio_events":[3657.7999999821186,5368],"checkbox_events":[],"key_events":[],"mouse_events":[3657.7999999821186,5368,6143.199999988079],"honeypot":0,"survey":"mace","page":4,"trial_type":"survey-mace","trial_index":12,"time_elapsed":534962,"internal_node_id":"0.0-12.0","task_version":"prescreen-v0.3","browser_interactions":0},{"responses":{"01":"No","02":"No","03":"No","04":"No","05":"No"},"rt":21584.5,"item_order":[0,1,2,3,4],"radio_events":[5518.9000000059605,10149.600000023842,14729.600000023842,18001.100000023842,19579.40000000596],"checkbox_events":[],"key_events":[],"mouse_events":[5518.9000000059605,10149.600000023842,14729.600000023842,18001.100000023842,19579.40000000596,21577.30000001192],"honeypot":0,"survey":"mace","page":5,"trial_type":"survey-mace","trial_index":13,"time_elapsed":556556,"internal_node_id":"0.0-13.0","task_version":"prescreen-v0.3","browser_interactions":0},{"responses":{"01":"No","02":"Yes","02_ages_15":"15","02_ages_16":"16","02_ages_17":"17","03":"Yes","03_ages_11":"11","03_ages_12":"12","03_ages_13":"13","04":"No","05":"No"},"rt":38886.90000000596,"item_order":[0,1,2,3,4],"radio_events":[9249.699999988079,12587.699999988079,23649.90000000596,27010.69999998808,35362.59999999404,37793.09999999404],"checkbox_events":[15120.299999982119,15607.90000000596,18584.69999998808,29048.40000000596,30156.09999999404,30851.29999998212],"key_events":[],"mouse_events":[9249.699999988079,12587.699999988079,15120.299999982119,15607.90000000596,18584.69999998808,23649.90000000596,27010.69999998808,29048.40000000596,29596.5,30156.09999999404,30851.29999998212,35362.59999999404,37793.09999999404,38879.90000000596],"honeypot":0,"survey":"mace","page":6,"trial_type":"survey-mace","trial_index":14,"time_elapsed":595452,"internal_node_id":"0.0-14.0","task_version":"prescreen-v0.3","browser_interactions":0},{"responses":{"01":"No","02":"No","03":"No","04":"No","05":"No","06":"No","07":"No"},"rt":16282.59999999404,"item_order":[0,1,2,3,4,5,6],"radio_events":[4377.5,7258.699999988079,8977.09999999404,10631.5,11698.09999999404,14143.800000011921,15143.199999988079],"checkbox_events":[],"key_events":[],"mouse_events":[4377.5,7258.699999988079,8977.09999999404,10631.5,11698.09999999404,14143.800000011921,15143.199999988079,16273.699999988079],"honeypot":0,"survey":"mace","page":7,"trial_type":"survey-mace","trial_index":15,"time_elapsed":611744,"internal_node_id":"0.0-15.0","task_version":"prescreen-v0.3","browser_interactions":0},{"responses":{"01":"No","02":"Yes","02_ages_11":"11","02_ages_12":"12","02_ages_13":"13","02_ages_14":"14","02_ages_15":"15","02_ages_16":"16","02_ages_17":"17","02_ages_18":"18","03":"Yes","03_ages_5":"5","03_ages_6":"6","03_ages_7":"7","03_ages_8":"8","03_ages_9":"9","03_ages_10":"10","03_ages_11":"11","03_ages_12":"12","03_ages_13":"13","03_ages_14":"14","03_ages_15":"15","03_ages_16":"16","03_ages_17":"17","03_ages_18":"18","04":"No"},"rt":50430.30000001192,"item_order":[0,1,2,3],"radio_events":[9705,15632,33656.60000002384,49617.90000000596],"checkbox_events":[18912.80000001192,19711.5,20412,20954.5,21921.80000001192,25594.100000023842,26041.70000001788,27185.70000001788,35662.90000000596,36485.5,37013.70000001788,37537.10000002384,38167.70000001788,38775.5,39398,40311,40869.70000001788,41453.30000001192,42448.5,43839,44414.80000001192,45134.30000001192],"key_events":[],"mouse_events":[9705,15632,18912.80000001192,19711.5,20412,20954.5,21921.80000001192,25594.100000023842,26041.70000001788,26569.20000001788,27185.70000001788,33656.60000002384,35662.90000000596,36485.5,37013.70000001788,37537.10000002384,38167.70000001788,38775.5,39398,40311,40869.70000001788,41453.30000001192,42448.5,42952.60000002384,43839,44414.80000001192,45134.30000001192,49617.90000000596,50424.40000000596],"honeypot":0,"survey":"mace","page":8,"trial_type":"survey-mace","trial_index":16,"time_elapsed":662184,"internal_node_id":"0.0-16.0","task_version":"prescreen-v0.3","browser_interactions":0},{"responses":{"01":"Yes","01_ages_11":"11","01_ages_12":"12","01_ages_13":"13","01_ages_14":"14","01_ages_15":"15","01_ages_16":"16","01_ages_17":"17","01_ages_18":"18","02":"No","03":"No","04":"Yes","04_ages_1":"1","04_ages_2":"2","04_ages_3":"3","04_ages_4":"4","04_ages_5":"5","04_ages_6":"6","04_ages_7":"7","04_ages_8":"8","04_ages_9":"9","04_ages_10":"10","04_ages_11":"11","04_ages_12":"12","04_ages_13":"13","04_ages_14":"14","04_ages_15":"15","04_ages_16":"16","04_ages_17":"17","04_ages_18":"18"},"rt":57304.60000002384,"item_order":[0,1,2,3],"radio_events":[14208.40000000596,26464.80000001192,33053.30000001192,40362.10000002384],"checkbox_events":[16178.200000017881,16761.20000001788,17417.40000000596,18736.5,19231.80000001192,21177.40000000596,22248,23103.90000000596,44074.70000001788,44610.80000001192,46297.10000002384,46760.30000001192,47291.30000001192,47795.10000002384,48626.30000001192,49113.5,49689,50208.80000001192,50751.90000000596,51307.60000002384,51874.5,52761.40000000596,53322.30000001192,53889.10000002384,55203.70000001788,55842.60000002384],"key_events":[],"mouse_events":[14208.40000000596,16178.200000017881,16761.20000001788,17417.40000000596,18057.100000023842,18736.5,19231.80000001192,21177.40000000596,21673.5,22248,23103.90000000596,26464.80000001192,33053.30000001192,40362.10000002384,44074.70000001788,44610.80000001192,45170.30000001192,45769.40000000596,46297.10000002384,46760.30000001192,47291.30000001192,47795.10000002384,48626.30000001192,49113.5,49689,50208.80000001192,50751.90000000596,51307.60000002384,51874.5,52761.40000000596,53322.30000001192,53889.10000002384,54488.90000000596,54671.60000002384,55203.70000001788,55842.60000002384,57298],"honeypot":0,"survey":"mace","page":9,"trial_type":"survey-mace","trial_index":17,"time_elapsed":719498,"internal_node_id":"0.0-17.0","task_version":"prescreen-v0.3","browser_interactions":0},{"responses":{"01":"No","02":"No","03":"Yes","03_ages_11":"11","03_ages_12":"12","03_ages_13":"13","03_ages_14":"14","03_ages_15":"15","03_ages_16":"16","03_ages_17":"17","03_ages_18":"18","04":"No","05":"No","06":"Yes","06_ages_17":"17","07":"No","08":"No"},"rt":30958.90000000596,"item_order":[0,1,2,3,4,5,6,7],"radio_events":[2577.0999999940395,4048.0999999940395,9460.59999999404,17350.09999999404,21030.90000000596,24059.30000001192,28314.40000000596,30229],"checkbox_events":[10261,10735.90000000596,11376.300000011921,11911.300000011921,12510.5,13477.40000000596,14133,14735.90000000596,25285.59999999404],"key_events":[],"mouse_events":[2577.0999999940395,4048.0999999940395,8703.300000011921,9460.59999999404,10261,10735.90000000596,11376.300000011921,11911.300000011921,12510.5,13477.40000000596,14133,14735.90000000596,17350.09999999404,21030.90000000596,24059.30000001192,25285.59999999404,28314.40000000596,30229,30949.09999999404],"honeypot":0,"survey":"mace","page":10,"trial_type":"survey-mace","trial_index":18,"time_elapsed":750469,"internal_node_id":"0.0-18.0","task_version":"prescreen-v0.3","browser_interactions":0,"instructed":0},{"rt":3008.9000000059605,"trial_type":"mental-health-alert","trial_index":19,"time_elapsed":753483,"internal_node_id":"0.0-19.0","task_version":"prescreen-v0.3","interactions":"[]"}]