[{"view_history":[{"page_index":0,"viewing_time":3773.099999997765},{"page_index":1,"viewing_time":2946.60000000149},{"page_index":2,"viewing_time":2431.60000000149},{"page_index":3,"viewing_time":1287.2999999970198}],"rt":10439.800000000745,"trial_type":"instructions","trial_index":0,"time_elapsed":10448,"internal_node_id":"0.0-0.0","task_version":"prescreen-v0.3"},{"rt":12928.5,"responses":{"age":"33","gender-categorical":"Male","gender-free-response":"","ethnicity":"Not Hispanic or Latino","race":["White"],"education":"Some college","siblings":"1"},"trial_type":"survey-demo","trial_index":1,"time_elapsed":23383,"internal_node_id":"0.0-1.0","task_version":"prescreen-v0.3"},{"responses":{"Q08":"0","Q20":"0","Q04":"0","Q11":"2","Q03":"0","Q19":"0","Q15":"0","Q05":"1","Q10":"0","Q14":"0","Q09":"2","Q02":"1","Q16":"0","Q07":"3","Q12":"1","Q21":"3","Q13":"1","Q06":"0","Q01":"2","Q17":"2","Q18":"0"},"rt":81972.79999999702,"item_order":[7,19,3,10,2,18,14,4,9,13,8,1,15,6,11,20,12,5,0,16,17],"radio_events":[9119.699999999255,10671.79999999702,13063.699999999255,15282.599999997765,17093,19969.199999999255,24601.39999999851,29431.39999999851,35146.79999999702,37199.89999999851,39324.29999999702,42602,46142.29999999702,48703.599999997765,56474.099999997765,61122.699999999255,62801.199999999255,64886.199999999255,66946.39999999851,72140.79999999702,76953.29999999702,77207.89999999851,80829.69999999925],"key_events":[],"mouse_events":[9119.699999999255,10671.79999999702,13063.699999999255,15282.599999997765,17093,19969.199999999255,24601.39999999851,29431.39999999851,35146.79999999702,37199.89999999851,39324.29999999702,42602,46142.29999999702,48703.599999997765,56474.099999997765,61122.699999999255,62801.199999999255,64886.199999999255,66946.39999999851,72140.79999999702,76953.29999999702,77207.89999999851,80829.69999999925,81971.89999999851],"straightlining":0.5238095238095238,"zigzagging":0.3,"honeypot":0,"survey":"sns","trial_type":"survey-template","trial_index":2,"time_elapsed":105359,"internal_node_id":"0.0-2.0","task_version":"prescreen-v0.3","browser_interactions":0,"infrequency":0},{"responses":{"Q07":"2","Q02":"1","Q06":"2","Q04":"2","Q13":"0","Q09":"1","Q08":"1","Q05":"2","Q10":"1","Q01":"2","Q03":"2","Q11":"1","Q12":"1"},"rt":30421.400000002235,"item_order":[6,1,5,3,12,8,7,4,9,0,2,10,11],"radio_events":[2647.5,4216.60000000149,5842.800000000745,8343.800000000745,9699.20000000298,16962,18930.5,21679,23094.400000002235,24278.20000000298,26302.800000000745,27879.70000000298,29483.5],"key_events":[],"mouse_events":[2647.5,4216.60000000149,5842.800000000745,8343.800000000745,9699.20000000298,16962,18930.5,21679,23094.400000002235,24278.20000000298,26302.800000000745,27879.70000000298,29483.5,30420.5],"straightlining":0.46153846153846156,"zigzagging":0.5833333333333334,"honeypot":0,"survey":"bisbas","trial_type":"survey-template","trial_index":3,"time_elapsed":135782,"internal_node_id":"0.0-3.0","task_version":"prescreen-v0.3","browser_interactions":0,"infrequency":0},{"responses":{"Q01":"3","Q02":"2","Q03":"3"},"rt":15233.800000000745,"radio_events":[4864.699999999255,9121.10000000149,12933],"key_events":[],"mouse_events":[4864.699999999255,9121.10000000149,12933,15233.5],"survey":"map","page":1,"trial_type":"survey-map","trial_index":4,"time_elapsed":151018,"internal_node_id":"0.0-4.0","task_version":"prescreen-v0.3","browser_interactions":0},{"responses":{"Q04":"3","Q05":"3","Q06":"3"},"rt":10639.699999999255,"radio_events":[7563.199999999255,7955.5,9911.29999999702],"key_events":[],"mouse_events":[7563.199999999255,7955.5,9911.29999999702,10639],"survey":"map","page":2,"trial_type":"survey-map","trial_index":5,"time_elapsed":161659,"internal_node_id":"0.0-5.0","task_version":"prescreen-v0.3","browser_interactions":0},{"responses":{"Q07":"4","Q08":"4","Q09":"3"},"rt":11706.60000000149,"radio_events":[3540.400000002235,6139.300000000745,10088.199999999255],"key_events":[],"mouse_events":[3540.400000002235,6139.300000000745,10088.199999999255,11706.10000000149],"survey":"map","page":3,"trial_type":"survey-map","trial_index":6,"time_elapsed":173368,"internal_node_id":"0.0-6.0","task_version":"prescreen-v0.3","browser_interactions":0},{"responses":{"Q10":"2","Q11":"2","Q12":"4","Q13":"4","Q16":"0","Q14":"2","Q15":"2"},"rt":24750.300000000745,"radio_events":[3975,7824.89999999851,10612.89999999851,14264.89999999851,16516.800000000745,20958.800000000745,23041.39999999851],"key_events":[],"mouse_events":[3975,7824.89999999851,10612.89999999851,14264.89999999851,16516.800000000745,20958.800000000745,23041.39999999851,24749.60000000149],"survey":"map","page":4,"trial_type":"survey-map","trial_index":7,"time_elapsed":198121,"internal_node_id":"0.0-7.0","task_version":"prescreen-v0.3","browser_interactions":0,"infrequency":0},{"view_history":[{"page_index":0,"viewing_time":2301.199999999255},{"page_index":1,"viewing_time":3450.400000002235}],"rt":5752.10000000149,"trial_type":"instructions","trial_index":8,"time_elapsed":203874,"internal_node_id":"0.0-8.0","task_version":"prescreen-v0.3"},{"responses":{"01":"No","02":"No","03":"No","04":"No","05":"No","06":"No"},"rt":18376.900000002235,"item_order":[0,1,2,3,4,5],"radio_events":[7605.900000002235,10694.699999999255,12748.5,13552,14574.400000002235,15576.300000000745],"checkbox_events":[],"key_events":[],"mouse_events":[0.10000000149011612,7605.900000002235,10694.699999999255,12748.5,13552,14574.400000002235,15576.300000000745,18375.300000000745],"honeypot":0,"survey":"mace","page":1,"trial_type":"survey-mace","trial_index":9,"time_elapsed":222256,"internal_node_id":"0.0-9.0","task_version":"prescreen-v0.3","browser_interactions":0},{"responses":{"01":"No","02":"No","03":"Yes","03_ages_3":"3","03_ages_4":"4","03_ages_5":"5","03_ages_6":"6","04":"Yes","04_ages_3":"3","04_ages_4":"4","04_ages_5":"5","04_ages_6":"6","05":"No","06":"No","07":"No","08":"No"},"rt":33292.39999999851,"item_order":[0,1,2,3,4,5,6,7],"radio_events":[1798.1000000014901,2595.699999999255,3872,17436.39999999851,25188.60000000149,26765.60000000149,27906.699999999255,28976.800000000745],"checkbox_events":[9968,10341.39999999851,10632,10907.300000000745,13994.800000000745,18412,19488.800000000745,20026,20743.60000000149,21069.800000000745,21325.89999999851,21583.39999999851],"key_events":[],"mouse_events":[1798.1000000014901,2595.699999999255,3872,9968,10341.39999999851,10632,10907.300000000745,13994.800000000745,17436.39999999851,18412,19488.800000000745,20026,20743.60000000149,21069.800000000745,21325.89999999851,21583.39999999851,25188.60000000149,26765.60000000149,27906.699999999255,28976.800000000745,33290.89999999851],"honeypot":0,"survey":"mace","page":2,"trial_type":"survey-mace","trial_index":10,"time_elapsed":255551,"internal_node_id":"0.0-10.0","task_version":"prescreen-v0.3","browser_interactions":0},{"responses":{"01":"No","02":"No","03":"No","04":"No"},"rt":11253.29999999702,"item_order":[0,1,2,3],"radio_events":[3132.7999999970198,4262.39999999851,5406.699999999255,6386.099999997765],"checkbox_events":[],"key_events":[],"mouse_events":[3132.7999999970198,4262.39999999851,5406.699999999255,6386.099999997765,11251.099999997765],"honeypot":0,"survey":"mace","page":3,"trial_type":"survey-mace","trial_index":11,"time_elapsed":266806,"internal_node_id":"0.0-11.0","task_version":"prescreen-v0.3","browser_interactions":0},{"responses":{"01":"Yes","01_ages_10":"10","01_ages_11":"11","01_ages_12":"12","01_ages_13":"13","02":"Yes","02_ages_10":"10","02_ages_11":"11","02_ages_12":"12","02_ages_13":"13"},"rt":44079,"item_order":[0,1],"radio_events":[11104,15530.800000000745],"checkbox_events":[21557.099999997765,22399.800000000745,22971.699999999255,23400.89999999851,28857.199999999255,29342.300000000745,29761.199999999255,30366.5],"key_events":[],"mouse_events":[11104,15530.800000000745,21557.099999997765,22399.800000000745,22971.699999999255,23400.89999999851,28857.199999999255,29342.300000000745,29761.199999999255,30366.5,44078.199999999255],"honeypot":0,"survey":"mace","page":4,"trial_type":"survey-mace","trial_index":12,"time_elapsed":310886,"internal_node_id":"0.0-12.0","task_version":"prescreen-v0.3","browser_interactions":0},{"responses":{"01":"No","02":"No","03":"No","04":"No","05":"No"},"rt":11468.60000000149,"item_order":[0,1,2,3,4],"radio_events":[3797.699999999255,5761.89999999851,7057.89999999851,8429.39999999851,10136.89999999851],"checkbox_events":[],"key_events":[],"mouse_events":[3797.699999999255,5761.89999999851,7057.89999999851,8429.39999999851,10136.89999999851,11466.5],"honeypot":0,"survey":"mace","page":5,"trial_type":"survey-mace","trial_index":13,"time_elapsed":322357,"internal_node_id":"0.0-13.0","task_version":"prescreen-v0.3","browser_interactions":0},{"responses":{"01":"No","02":"Yes","02_ages_5":"5","02_ages_6":"6","02_ages_7":"7","02_ages_8":"8","02_ages_9":"9","02_ages_10":"10","02_ages_11":"11","02_ages_12":"12","02_ages_13":"13","02_ages_14":"14","02_ages_15":"15","02_ages_16":"16","02_ages_17":"17","02_ages_18":"18","03":"Yes","03_ages_11":"11","03_ages_12":"12","03_ages_13":"13","03_ages_14":"14","03_ages_15":"15","03_ages_16":"16","04":"Yes","04_ages_13":"13","04_ages_14":"14","04_ages_15":"15","04_ages_16":"16","05":"No"},"rt":50298.800000000745,"item_order":[0,1,2,3,4],"radio_events":[8835.699999999255,10068.300000000745,20900.300000000745,33302.10000000149,34446.39999999851],"checkbox_events":[13895.89999999851,14205,14460.5,14721,15018.89999999851,15303,16228.199999999255,16526.300000000745,16803,17072.199999999255,17307.39999999851,17585.89999999851,17832.699999999255,18054.800000000745,23638.300000000745,24126.89999999851,24543.699999999255,24870.60000000149,25126.10000000149,25393.800000000745,44622.10000000149,45021.39999999851,45329.10000000149,45666.39999999851],"key_events":[],"mouse_events":[8835.699999999255,10068.300000000745,13895.89999999851,14205,14460.5,14721,15018.89999999851,15303,16228.199999999255,16526.300000000745,16803,17072.199999999255,17307.39999999851,17585.89999999851,17832.699999999255,18054.800000000745,20900.300000000745,23638.300000000745,24126.89999999851,24543.699999999255,24870.60000000149,25126.10000000149,25393.800000000745,33302.10000000149,34446.39999999851,44622.10000000149,45021.39999999851,45329.10000000149,45666.39999999851,50297.60000000149],"honeypot":0,"survey":"mace","page":6,"trial_type":"survey-mace","trial_index":14,"time_elapsed":372658,"internal_node_id":"0.0-14.0","task_version":"prescreen-v0.3","browser_interactions":0},{"responses":{"01":"No","02":"No","03":"No","04":"No","05":"No","06":"No","07":"No"},"rt":13532.29999999702,"item_order":[0,1,2,3,4,5,6],"radio_events":[3865.5,5089.39999999851,7044.099999997765,8082.79999999702,9375.89999999851,10545.29999999702,12818.599999997765],"checkbox_events":[],"key_events":[],"mouse_events":[3865.5,5089.39999999851,7044.099999997765,8082.79999999702,9375.89999999851,10545.29999999702,12818.599999997765,13531],"honeypot":0,"survey":"mace","page":7,"trial_type":"survey-mace","trial_index":15,"time_elapsed":386193,"internal_node_id":"0.0-15.0","task_version":"prescreen-v0.3","browser_interactions":0},{"responses":{"01":"No","02":"Yes","02_ages_9":"9","02_ages_10":"10","02_ages_11":"11","02_ages_12":"12","02_ages_13":"13","02_ages_14":"14","02_ages_15":"15","02_ages_16":"16","02_ages_17":"17","02_ages_18":"18","03":"Yes","03_ages_5":"5","03_ages_6":"6","03_ages_7":"7","03_ages_8":"8","03_ages_9":"9","03_ages_10":"10","03_ages_11":"11","03_ages_12":"12","03_ages_13":"13","03_ages_14":"14","03_ages_15":"15","03_ages_16":"16","03_ages_17":"17","03_ages_18":"18","04":"No"},"rt":41778.60000000149,"item_order":[0,1,2,3],"radio_events":[6913.70000000298,9818.900000002235,23441.20000000298,31399.10000000149],"checkbox_events":[17449.300000000745,17875,18144.20000000298,18423.70000000298,18662.10000000149,18910.20000000298,19188.400000002235,19432.5,19671.300000000745,19890.400000002235,24893.900000002235,25276.5,25545.60000000149,25802.900000002235,26063.70000000298,26311.900000002235,26589.60000000149,26867.800000000745,27141.900000002235,27430.5,27707.20000000298,27975.70000000298,28236.400000002235,28455],"key_events":[],"mouse_events":[6913.70000000298,9818.900000002235,17449.300000000745,17875,18144.20000000298,18423.70000000298,18662.10000000149,18910.20000000298,19188.400000002235,19432.5,19671.300000000745,19890.400000002235,23441.20000000298,24893.900000002235,25276.5,25545.60000000149,25802.900000002235,26063.70000000298,26311.900000002235,26589.60000000149,26867.800000000745,27141.900000002235,27430.5,27707.20000000298,27975.70000000298,28236.400000002235,28455,31399.10000000149,41777],"honeypot":0,"survey":"mace","page":8,"trial_type":"survey-mace","trial_index":16,"time_elapsed":427974,"internal_node_id":"0.0-16.0","task_version":"prescreen-v0.3","browser_interactions":0},{"responses":{"01":"Yes","01_ages_1":"1","01_ages_2":"2","01_ages_3":"3","01_ages_4":"4","01_ages_5":"5","01_ages_6":"6","01_ages_7":"7","01_ages_8":"8","01_ages_9":"9","01_ages_10":"10","01_ages_11":"11","01_ages_12":"12","01_ages_13":"13","01_ages_14":"14","01_ages_15":"15","01_ages_16":"16","01_ages_17":"17","01_ages_18":"18","02":"Yes","02_ages_3":"3","02_ages_4":"4","02_ages_5":"5","02_ages_6":"6","02_ages_7":"7","02_ages_8":"8","02_ages_9":"9","02_ages_10":"10","02_ages_11":"11","02_ages_12":"12","02_ages_13":"13","02_ages_14":"14","02_ages_15":"15","02_ages_16":"16","02_ages_17":"17","02_ages_18":"18","03":"Yes","03_ages_1":"1","03_ages_2":"2","03_ages_3":"3","03_ages_4":"4","03_ages_5":"5","03_ages_6":"6","03_ages_7":"7","03_ages_8":"8","03_ages_9":"9","03_ages_10":"10","03_ages_11":"11","03_ages_12":"12","03_ages_13":"13","03_ages_14":"14","03_ages_15":"15","03_ages_16":"16","03_ages_17":"17","03_ages_18":"18","04":"Yes","04_ages_1":"1","04_ages_2":"2","04_ages_3":"3","04_ages_4":"4","04_ages_5":"5","04_ages_6":"6","04_ages_7":"7","04_ages_8":"8","04_ages_9":"9","04_ages_10":"10","04_ages_11":"11","04_ages_12":"12","04_ages_13":"13","04_ages_14":"14","04_ages_15":"15","04_ages_16":"16","04_ages_17":"17","04_ages_18":"18"},"rt":50583.39999999851,"item_order":[0,1,2,3],"radio_events":[2478.599999997765,16067.89999999851,25121.29999999702,34901.29999999702],"checkbox_events":[4561.29999999702,4808.29999999702,5097.599999997765,5353.5,5719.599999997765,6792.29999999702,8709.89999999851,9155.599999997765,9530.099999997765,10425.699999999255,11012.79999999702,11464.89999999851,11813,12131.699999999255,12469.89999999851,12864.5,13271.39999999851,13628.39999999851,13945,18678.5,19065,19375.599999997765,19651.29999999702,19942.5,20278.199999999255,25925.599999997765,26347.89999999851,26615.5,26876.89999999851,27122.39999999851,27360.599999997765,27568.5,27807,28057.599999997765,28263.79999999702,28501.89999999851,28769.5,29027.699999999255,29297.39999999851,29615.29999999702,29862.89999999851,30149.79999999702,30348.39999999851,31141.199999999255,36587.79999999702,36865.79999999702,37123.5,37373.89999999851,37633,37880.5,38118.099999997765,38376.5,38627.199999999255,38919.699999999255,39196.5,39447.39999999851,39716.199999999255,39974,40192.89999999851,40420.699999999255,40635.199999999255,40834.099999997765,45281.39999999851,46569.39999999851,46878.199999999255,47145.39999999851,47406,47633.29999999702,47871.39999999851,48100.89999999851,48316.099999997765,48543.699999999255],"key_events":[],"mouse_events":[2478.599999997765,4561.29999999702,4808.29999999702,5097.599999997765,5353.5,5719.599999997765,6792.29999999702,8709.89999999851,9155.599999997765,9530.099999997765,10425.699999999255,11012.79999999702,11464.89999999851,11813,12131.699999999255,12469.89999999851,12864.5,13271.39999999851,13628.39999999851,13945,16067.89999999851,17954.699999999255,18678.5,19065,19375.599999997765,19651.29999999702,19942.5,20278.199999999255,25121.29999999702,25925.599999997765,26347.89999999851,26615.5,26876.89999999851,27122.39999999851,27360.599999997765,27568.5,27807,28057.599999997765,28263.79999999702,28501.89999999851,28769.5,29027.699999999255,29297.39999999851,29615.29999999702,29862.89999999851,30149.79999999702,30348.39999999851,31141.199999999255,34901.29999999702,36587.79999999702,36865.79999999702,37123.5,37373.89999999851,37633,37880.5,38118.099999997765,38376.5,38627.199999999255,38919.699999999255,39196.5,39447.39999999851,39716.199999999255,39974,40192.89999999851,40420.699999999255,40635.199999999255,40834.099999997765,45281.39999999851,46569.39999999851,46878.199999999255,47145.39999999851,47406,47633.29999999702,47871.39999999851,48100.89999999851,48316.099999997765,48543.699999999255,50582.099999997765],"honeypot":0,"survey":"mace","page":9,"trial_type":"survey-mace","trial_index":17,"time_elapsed":478561,"internal_node_id":"0.0-17.0","task_version":"prescreen-v0.3","browser_interactions":0},{"responses":{"01":"No","02":"No","03":"No","04":"No","05":"No","06":"Yes","06_ages_17":"17","07":"Yes","07_ages_1":"1","07_ages_2":"2","07_ages_3":"3","07_ages_4":"4","07_ages_5":"5","07_ages_6":"6","07_ages_7":"7","07_ages_8":"8","07_ages_9":"9","07_ages_10":"10","07_ages_11":"11","07_ages_12":"12","07_ages_13":"13","07_ages_14":"14","07_ages_15":"15","07_ages_16":"16","07_ages_17":"17","07_ages_18":"18","08":"Yes","08_ages_1":"1","08_ages_2":"2","08_ages_3":"3","08_ages_4":"4","08_ages_5":"5","08_ages_6":"6","08_ages_7":"7","08_ages_8":"8","08_ages_9":"9","08_ages_10":"10","08_ages_11":"11","08_ages_12":"12","08_ages_13":"13","08_ages_14":"14","08_ages_15":"15","08_ages_16":"16","08_ages_17":"17","08_ages_18":"18"},"rt":45083.199999999255,"item_order":[0,1,2,3,4,5,6,7],"radio_events":[2156.5,3030.699999999255,4071.10000000149,7890.699999999255,11791.199999999255,15544.199999999255,31606.39999999851,33442.5],"checkbox_events":[13232.60000000149,35516.699999999255,35760.5,35998.699999999255,36226.60000000149,36455.89999999851,36675.89999999851,36903.39999999851,37133,37380.89999999851,37618.300000000745,37834.60000000149,38083,38330.5,38568.89999999851,38809.800000000745,39048.10000000149,39246.60000000149,39463.39999999851,40177.10000000149,40433.5,40682.10000000149,40893.699999999255,41151.10000000149,41390.39999999851,41608.5,41833.5,42051.300000000745,42290.5,42517.10000000149,42769,43027,43284.800000000745,43532.60000000149,43770.89999999851,44016.10000000149,44224.60000000149],"key_events":[],"mouse_events":[2156.5,3030.699999999255,4071.10000000149,7890.699999999255,11791.199999999255,13232.60000000149,15544.199999999255,31606.39999999851,33442.5,35516.699999999255,35760.5,35998.699999999255,36226.60000000149,36455.89999999851,36675.89999999851,36903.39999999851,37133,37380.89999999851,37618.300000000745,37834.60000000149,38083,38330.5,38568.89999999851,38809.800000000745,39048.10000000149,39246.60000000149,39463.39999999851,40177.10000000149,40433.5,40682.10000000149,40893.699999999255,41151.10000000149,41390.39999999851,41608.5,41833.5,42051.300000000745,42290.5,42517.10000000149,42769,43027,43284.800000000745,43532.60000000149,43770.89999999851,44016.10000000149,44224.60000000149,45081.5],"honeypot":0,"survey":"mace","page":10,"trial_type":"survey-mace","trial_index":18,"time_elapsed":523646,"internal_node_id":"0.0-18.0","task_version":"prescreen-v0.3","browser_interactions":0,"instructed":0},{"rt":7499.29999999702,"trial_type":"mental-health-alert","trial_index":19,"time_elapsed":531147,"internal_node_id":"0.0-19.0","task_version":"prescreen-v0.3","interactions":"[]"}]