[{"view_history":[{"page_index":0,"viewing_time":7904.599999904633},{"page_index":1,"viewing_time":6571.700000047684},{"page_index":2,"viewing_time":5789.200000047684},{"page_index":3,"viewing_time":2249.2999999523163}],"rt":22517.099999904633,"trial_type":"instructions","trial_index":0,"time_elapsed":22637,"internal_node_id":"0.0-0.0","task_version":"prescreen-v0.3"},{"rt":80008.70000004768,"responses":{"age":"38","gender-categorical":"Male","gender-free-response":"","ethnicity":"Not Hispanic or Latino","race":["White"],"education":"Some college"},"trial_type":"survey-demo","trial_index":1,"time_elapsed":102661,"internal_node_id":"0.0-1.0","task_version":"prescreen-v0.3"},{"responses":{"Q19":"2","Q02":"1","Q01":"2","Q06":"1","Q11":"1","Q08":"2","Q10":"0","Q13":"2","Q17":"0","Q14":"2","Q18":"1","Q12":"1","Q05":"1","Q04":"3","Q16":"0","Q09":"1","Q20":"0","Q03":"1","Q15":"0","Q21":"1","Q07":"0"},"rt":171344.39999985695,"item_order":[18,1,0,5,10,7,9,12,16,13,17,11,4,3,15,8,19,2,14,20,6],"radio_events":[16229.399999856949,23724.89999985695,26127.099999904633,28011.39999985695,35971.700000047684,40639.89999985695,44263.5,49819.200000047684,91225.79999995232,94484.89999985695,101598.5,105860.29999995232,115068.59999990463,127213.70000004768,131978.09999990463,137839.29999995232,143404.59999990463,145232.39999985695,148693.79999995232,154387.29999995232,162053.79999995232,170238.70000004768],"key_events":[],"mouse_events":[16229.399999856949,23724.89999985695,26127.099999904633,28011.39999985695,35971.700000047684,40639.89999985695,44263.5,49819.200000047684,91225.79999995232,94484.89999985695,101598.5,105860.29999995232,115068.59999990463,127213.70000004768,131978.09999990463,137839.29999995232,143404.59999990463,145232.39999985695,148693.79999995232,154387.29999995232,162053.79999995232,170238.70000004768,171339.39999985695],"straightlining":0.42857142857142855,"zigzagging":0.6,"honeypot":0,"survey":"sns","trial_type":"survey-template","trial_index":2,"time_elapsed":274017,"internal_node_id":"0.0-2.0","task_version":"prescreen-v0.3","browser_interactions":0,"infrequency":1},{"responses":{"Q04":"3","Q05":"3","Q07":"2","Q08":"3","Q11":"2","Q02":"2","Q03":"2","Q10":"3","Q01":"3","Q06":"3","Q09":"3","Q13":"0","Q12":"3"},"rt":77023.10000014305,"item_order":[3,4,6,7,10,1,2,9,0,5,8,12,11],"radio_events":[17379.299999952316,25055.299999952316,30117,37229.60000014305,41935.40000009537,46989.200000047684,51429.60000014305,57860.5,59413.40000009537,63189.799999952316,67201.29999995232,69837.79999995232,76096.70000004768],"key_events":[],"mouse_events":[17379.299999952316,25055.299999952316,30117,37229.60000014305,41935.40000009537,46989.200000047684,51429.60000014305,57860.5,59413.40000009537,63189.799999952316,67201.29999995232,69837.79999995232,76096.70000004768,77020.40000009537],"straightlining":0.6153846153846154,"zigzagging":0.5,"honeypot":0,"survey":"bisbas","trial_type":"survey-template","trial_index":3,"time_elapsed":351045,"internal_node_id":"0.0-3.0","task_version":"prescreen-v0.3","browser_interactions":0,"infrequency":0},{"responses":{"Q01":"2","Q02":"2","Q03":"1"},"rt":25249.5,"radio_events":[9068.400000095367,16238.400000095367,18340.900000095367,24261.400000095367],"key_events":[],"mouse_events":[9068.400000095367,16238.400000095367,18340.900000095367,24261.400000095367,25247.800000190735],"survey":"map","page":1,"trial_type":"survey-map","trial_index":4,"time_elapsed":376299,"internal_node_id":"0.0-4.0","task_version":"prescreen-v0.3","browser_interactions":0},{"responses":{"Q04":"1","Q05":"1","Q06":"2"},"rt":40209.200000047684,"radio_events":[19993.200000047684,25764.39999985695,38751.799999952316],"key_events":[],"mouse_events":[19993.200000047684,25764.39999985695,38751.799999952316,40207.89999985695],"survey":"map","page":2,"trial_type":"survey-map","trial_index":5,"time_elapsed":416512,"internal_node_id":"0.0-5.0","task_version":"prescreen-v0.3","browser_interactions":0},{"responses":{"Q07":"0","Q08":"4","Q09":"0"},"rt":20294.599999904633,"radio_events":[8788.099999904633,14947.399999856949,19362.700000047684],"key_events":[],"mouse_events":[8788.099999904633,14947.399999856949,19362.700000047684,20293.099999904633],"survey":"map","page":3,"trial_type":"survey-map","trial_index":6,"time_elapsed":436809,"internal_node_id":"0.0-6.0","task_version":"prescreen-v0.3","browser_interactions":0},{"responses":{"Q10":"2","Q11":"1","Q12":"2","Q13":"2","Q16":"0","Q14":"2","Q15":"1"},"rt":47329.299999952316,"radio_events":[7349.900000095367,13567.799999952316,22690.400000095367,28205.200000047684,32516.299999952316,40361.59999990463,46379.59999990463],"key_events":[],"mouse_events":[7349.900000095367,13567.799999952316,22690.400000095367,28205.200000047684,32516.299999952316,40361.59999990463,46379.59999990463,47326.40000009537],"survey":"map","page":4,"trial_type":"survey-map","trial_index":7,"time_elapsed":484143,"internal_node_id":"0.0-7.0","task_version":"prescreen-v0.3","browser_interactions":0,"infrequency":0},{"view_history":[{"page_index":0,"viewing_time":32155.799999952316},{"page_index":1,"viewing_time":8685.299999952316}],"rt":40842.09999990463,"trial_type":"instructions","trial_index":8,"time_elapsed":524986,"internal_node_id":"0.0-8.0","task_version":"prescreen-v0.3"},{"responses":{"01":"Yes","01_ages_8":"8","01_ages_9":"9","01_ages_10":"10","01_ages_11":"11","01_ages_12":"12","01_ages_13":"13","01_ages_14":"14","01_ages_15":"15","01_ages_16":"16","02":"Yes","02_ages_8":"8","02_ages_9":"9","02_ages_10":"10","02_ages_11":"11","02_ages_12":"12","02_ages_13":"13","02_ages_14":"14","02_ages_15":"15","02_ages_16":"16","03":"Yes","03_ages_8":"8","03_ages_9":"9","03_ages_10":"10","03_ages_11":"11","03_ages_12":"12","03_ages_13":"13","03_ages_14":"14","03_ages_15":"15","03_ages_16":"16","04":"No","05":"No","06":"No"},"rt":81414.90000009537,"item_order":[0,1,2,3,4,5],"radio_events":[14083.400000095367,31275.900000095367,32004,32861.40000009537,73482.60000014305,75828.10000014305,79670],"checkbox_events":[41723.5,42271.40000009537,43371.5,43897.40000009537,44908.200000047684,45442.200000047684,46032.700000047684,46616.10000014305,47326.5,52575.60000014305,53570.60000014305,54112.40000009537,55098.90000009537,55664.799999952316,56305.700000047684,57509.5,58099.799999952316,59069.60000014305,59888.299999952316,60477.200000047684,64812.5,65378.799999952316,65953.20000004768,66422.20000004768,66971.40000009537,67594.60000014305,68792.70000004768,69359.60000014305,69948.10000014305],"key_events":[],"mouse_events":[0.10000014305114746,14083.400000095367,20682.60000014305,31275.900000095367,32004,32861.40000009537,41723.5,42271.40000009537,43371.5,43897.40000009537,44390.799999952316,44908.200000047684,45442.200000047684,46032.700000047684,46616.10000014305,47326.5,52575.60000014305,53076.700000047684,53570.60000014305,54112.40000009537,54605.5,55098.90000009537,55664.799999952316,56305.700000047684,57082,57509.5,58099.799999952316,58617.5,59069.60000014305,59888.299999952316,60477.200000047684,64812.5,65378.799999952316,65953.20000004768,66422.20000004768,66971.40000009537,67594.60000014305,68235.60000014305,68792.70000004768,69359.60000014305,69948.10000014305,73482.60000014305,75828.10000014305,79670,81409.29999995232],"honeypot":0,"survey":"mace","page":1,"trial_type":"survey-mace","trial_index":9,"time_elapsed":606411,"internal_node_id":"0.0-9.0","task_version":"prescreen-v0.3","browser_interactions":0},{"responses":{"01":"No","02":"No","03":"No","04":"No","05":"No","06":"No","07":"No","08":"No"},"rt":40519.5,"item_order":[0,1,2,3,4,5,6,7],"radio_events":[3763.399999856949,7839.299999952316,26596.599999904633,28562,31571.799999952316,33294.59999990463,36327.5,39570.59999990463],"checkbox_events":[],"key_events":[],"mouse_events":[3763.399999856949,7839.299999952316,26596.599999904633,28562,31571.799999952316,33294.59999990463,36327.5,39570.59999990463,40509.199999809265],"honeypot":0,"survey":"mace","page":2,"trial_type":"survey-mace","trial_index":10,"time_elapsed":646938,"internal_node_id":"0.0-10.0","task_version":"prescreen-v0.3","browser_interactions":0},{"responses":{"01":"No","02":"No","03":"No","04":"No"},"rt":11742.200000047684,"item_order":[0,1,2,3],"radio_events":[3938.7000000476837,7385.700000047684,9374.600000143051,10799],"checkbox_events":[],"key_events":[],"mouse_events":[3938.7000000476837,7385.700000047684,9374.600000143051,10799,11737.200000047684],"honeypot":0,"survey":"mace","page":3,"trial_type":"survey-mace","trial_index":11,"time_elapsed":658684,"internal_node_id":"0.0-11.0","task_version":"prescreen-v0.3","browser_interactions":0},{"responses":{"01":"No","02":"No"},"rt":15903.299999952316,"item_order":[0,1],"radio_events":[3048.399999856949,15189.099999904633],"checkbox_events":[],"key_events":[],"mouse_events":[3048.399999856949,15189.099999904633,15900.700000047684],"honeypot":0,"survey":"mace","page":4,"trial_type":"survey-mace","trial_index":12,"time_elapsed":674591,"internal_node_id":"0.0-12.0","task_version":"prescreen-v0.3","browser_interactions":0},{"responses":{"01":"Yes","01_ages_4":"4","01_ages_5":"5","01_ages_6":"6","02":"Yes","02_ages_4":"4","02_ages_5":"5","02_ages_6":"6","03":"No","04":"No","05":"No"},"rt":51231.60000014305,"item_order":[0,1,2,3,4],"radio_events":[12934.200000047684,32271.900000095367,43541.299999952316,47599.799999952316,50254.799999952316],"checkbox_events":[22648.200000047684,26939.5,28064.400000095367,33517.700000047684,33994.90000009537,34561],"key_events":[],"mouse_events":[12934.200000047684,22648.200000047684,26939.5,28064.400000095367,32271.900000095367,33517.700000047684,33994.90000009537,34561,43541.299999952316,47599.799999952316,50254.799999952316,51225.799999952316],"honeypot":0,"survey":"mace","page":5,"trial_type":"survey-mace","trial_index":13,"time_elapsed":725828,"internal_node_id":"0.0-13.0","task_version":"prescreen-v0.3","browser_interactions":0},{"responses":{"01":"Yes","01_ages_14":"14","01_ages_15":"15","01_ages_16":"16","01_ages_17":"17","01_ages_18":"18","02":"Yes","02_ages_14":"14","02_ages_15":"15","02_ages_16":"16","02_ages_17":"17","02_ages_18":"18","03":"No","04":"No","05":"No"},"rt":88199,"item_order":[0,1,2,3,4],"radio_events":[9067.400000095367,25825.400000095367,81286,84658.79999995232,87214.60000014305],"checkbox_events":[11614.700000047684,15864.400000095367,16637.299999952316,17656.60000014305,19686.900000095367,20244.400000095367,20802.799999952316,21838.400000095367,22558.299999952316,23124.200000047684,23674.400000095367,24758.10000014305,26982,27533.799999952316,28081.400000095367,28696.400000095367,29270.200000047684,30319.10000014305,31192.200000047684,31746.900000095367,32432.5,33330.700000047684,58552.200000047684,60273.799999952316,60865,61415.200000047684,62409.799999952316,62927.700000047684,63509.90000009537,65313.40000009537,67699.10000014305,69065.90000009537,69648.29999995232,70893.29999995232,71508.60000014305,72066.5,72737.90000009537,73303.90000009537,73821.20000004768,74500.90000009537],"key_events":[],"mouse_events":[9067.400000095367,11614.700000047684,15864.400000095367,16637.299999952316,17656.60000014305,19686.900000095367,20244.400000095367,20802.799999952316,21312.60000014305,21838.400000095367,22558.299999952316,23124.200000047684,23674.400000095367,24758.10000014305,25825.400000095367,26982,27533.799999952316,28081.400000095367,28696.400000095367,29270.200000047684,30319.10000014305,31192.200000047684,31746.900000095367,32432.5,33330.700000047684,58552.200000047684,59044.90000009537,59538.60000014305,60273.799999952316,60865,61415.200000047684,61941.10000014305,62409.799999952316,62927.700000047684,63509.90000009537,65313.40000009537,67699.10000014305,69065.90000009537,69648.29999995232,70893.29999995232,71508.60000014305,72066.5,72737.90000009537,73303.90000009537,73821.20000004768,74500.90000009537,81286,84658.79999995232,87214.60000014305,88193.5],"honeypot":0,"survey":"mace","page":6,"trial_type":"survey-mace","trial_index":14,"time_elapsed":814032,"internal_node_id":"0.0-14.0","task_version":"prescreen-v0.3","browser_interactions":0},{"responses":{"01":"No","02":"Yes","02_ages_13":"13","02_ages_14":"14","03":"No","04":"No","05":"No","06":"No","07":"No"},"rt":20505.099999904633,"item_order":[0,1,2,3,4,5,6],"radio_events":[3321,7170.399999856949,12085.099999904633,13932.299999952316,16245.199999809265,18033.199999809265,19507.699999809265],"checkbox_events":[8642.899999856949,9435.099999904633],"key_events":[],"mouse_events":[3321,7170.399999856949,8642.899999856949,9435.099999904633,12085.099999904633,13932.299999952316,16245.199999809265,18033.199999809265,19507.699999809265,20498],"honeypot":0,"survey":"mace","page":7,"trial_type":"survey-mace","trial_index":15,"time_elapsed":834542,"internal_node_id":"0.0-15.0","task_version":"prescreen-v0.3","browser_interactions":0},{"responses":{"01":"No","02":"No","03":"No","04":"Yes","04_ages_1":"1","04_ages_2":"2","04_ages_3":"3","04_ages_4":"4","04_ages_5":"5","04_ages_6":"6","04_ages_7":"7","04_ages_8":"8","04_ages_9":"9","04_ages_10":"10","04_ages_11":"11","04_ages_12":"12","04_ages_13":"13","04_ages_14":"14","04_ages_15":"15","04_ages_16":"16","04_ages_17":"17","04_ages_18":"18"},"rt":59018.300000190735,"item_order":[0,1,2,3],"radio_events":[25284.300000190735,35751.90000009537,39789,43283.700000047684],"checkbox_events":[45653.60000014305,46850.5,47885.60000014305,49074.700000047684,49656.700000047684,50238.90000009537,50885.800000190735,51573.10000014305,52147.5,52842.90000009537,53425.40000009537,54096.60000014305,54800.10000014305,55519.90000009537,56304.200000047684,57113.200000047684,57735.800000190735,58350.700000047684],"key_events":[],"mouse_events":[25284.300000190735,35751.90000009537,39789,43283.700000047684,45653.60000014305,46850.5,47885.60000014305,48492.200000047684,49074.700000047684,49656.700000047684,50238.90000009537,50885.800000190735,51573.10000014305,52147.5,52842.90000009537,53425.40000009537,54096.60000014305,54800.10000014305,55519.90000009537,56304.200000047684,57113.200000047684,57735.800000190735,58350.700000047684,59013.40000009537],"honeypot":0,"survey":"mace","page":8,"trial_type":"survey-mace","trial_index":16,"time_elapsed":893564,"internal_node_id":"0.0-16.0","task_version":"prescreen-v0.3","browser_interactions":0},{"responses":{"01":"Yes","01_ages_1":"1","01_ages_2":"2","01_ages_3":"3","01_ages_4":"4","01_ages_5":"5","01_ages_6":"6","01_ages_7":"7","01_ages_8":"8","01_ages_9":"9","01_ages_10":"10","01_ages_11":"11","01_ages_12":"12","01_ages_13":"13","01_ages_14":"14","01_ages_15":"15","01_ages_16":"16","01_ages_17":"17","01_ages_18":"18","02":"Yes","02_ages_1":"1","02_ages_2":"2","02_ages_3":"3","02_ages_4":"4","02_ages_5":"5","02_ages_6":"6","02_ages_7":"7","02_ages_8":"8","02_ages_9":"9","02_ages_10":"10","02_ages_11":"11","02_ages_12":"12","02_ages_13":"13","02_ages_14":"14","02_ages_15":"15","02_ages_16":"16","02_ages_17":"17","02_ages_18":"18","03":"Yes","03_ages_1":"1","03_ages_2":"2","03_ages_3":"3","03_ages_4":"4","03_ages_5":"5","03_ages_6":"6","03_ages_7":"7","03_ages_8":"8","03_ages_9":"9","03_ages_10":"10","03_ages_11":"11","03_ages_12":"12","03_ages_13":"13","03_ages_14":"14","03_ages_15":"15","03_ages_16":"16","03_ages_17":"17","03_ages_18":"18","04":"Yes","04_ages_1":"1","04_ages_2":"2","04_ages_3":"3","04_ages_4":"4","04_ages_5":"5","04_ages_6":"6","04_ages_7":"7","04_ages_8":"8","04_ages_9":"9","04_ages_10":"10","04_ages_11":"11","04_ages_12":"12","04_ages_13":"13","04_ages_14":"14","04_ages_15":"15","04_ages_16":"16","04_ages_17":"17","04_ages_18":"18"},"rt":72286.29999995232,"item_order":[0,1,2,3],"radio_events":[3581.0999999046326,19779.700000047684,23903.700000047684,39634,58490.90000009537],"checkbox_events":[5360.900000095367,5942.599999904633,6686.700000047684,7535.900000095367,8409.5,8935,9582.099999904633,10164.200000047684,10739,11321.200000047684,11911.599999904633,12493.799999952316,13035.799999952316,13593.700000047684,14119.400000095367,14677.599999904633,15195.099999904633,15744.799999952316,25020,25723.400000095367,26297.599999904633,27154.900000095367,27664,28198,28756.200000047684,29322,29871.599999904633,31060.700000047684,32108,32637.900000095367,33236.5,33842.90000009537,35621.90000009537,36268.799999952316,36932,38250.59999990463,41275.200000047684,41840.90000009537,42405.59999990463,43426.299999952316,43911.40000009537,44420.799999952316,44914.200000047684,45690.40000009537,46709.59999990463,47403.799999952316,48036,48658.09999990463,49329.799999952316,49928.40000009537,50558.799999952316,51246.5,51812.40000009537,52483.799999952316,60034.799999952316,61062.5,61985.59999990463,62835,63214.799999952316,63659.59999990463,64419.90000009537,64945.700000047684,65633.09999990463,66328.5,66943,67404,68147.90000009537,68754.40000009537,69304.59999990463,69862.70000004768,70396.20000004768,71447.59999990463],"key_events":[],"mouse_events":[3581.0999999046326,5360.900000095367,5942.599999904633,6686.700000047684,7535.900000095367,8409.5,8935,9582.099999904633,10164.200000047684,10739,11321.200000047684,11911.599999904633,12493.799999952316,13035.799999952316,13593.700000047684,14119.400000095367,14677.599999904633,15195.099999904633,15744.799999952316,19779.700000047684,23475,23903.700000047684,25020,25723.400000095367,26297.599999904633,27154.900000095367,27664,28198,28756.200000047684,29322,29871.599999904633,31060.700000047684,31658.799999952316,32108,32637.900000095367,33236.5,33842.90000009537,35621.90000009537,36268.799999952316,36932,37554.5,38250.59999990463,39634,40749.700000047684,41275.200000047684,41840.90000009537,42405.59999990463,42956.90000009537,43426.299999952316,43911.40000009537,44420.799999952316,44914.200000047684,45690.40000009537,46256.5,46709.59999990463,47403.799999952316,48036,48658.09999990463,49329.799999952316,49928.40000009537,50558.799999952316,51246.5,51812.40000009537,52483.799999952316,58490.90000009537,60034.799999952316,61062.5,61613.09999990463,61985.59999990463,62835,63214.799999952316,63659.59999990463,64419.90000009537,64945.700000047684,65633.09999990463,66328.5,66943,67404,68147.90000009537,68754.40000009537,69304.59999990463,69862.70000004768,70396.20000004768,70986.70000004768,71447.59999990463,72281.40000009537],"honeypot":0,"survey":"mace","page":9,"trial_type":"survey-mace","trial_index":17,"time_elapsed":965855,"internal_node_id":"0.0-17.0","task_version":"prescreen-v0.3","browser_interactions":0},{"responses":{"01":"No","02":"No","03":"No","04":"Yes","04_ages_1":"1","04_ages_2":"2","04_ages_3":"3","04_ages_4":"4","04_ages_5":"5","04_ages_6":"6","04_ages_7":"7","04_ages_8":"8","04_ages_9":"9","04_ages_10":"10","04_ages_11":"11","04_ages_12":"12","04_ages_13":"13","04_ages_14":"14","04_ages_15":"15","04_ages_16":"16","04_ages_17":"17","04_ages_18":"18","05":"No","06":"Yes","06_ages_17":"17","07":"No","08":"No"},"rt":51586.799999952316,"item_order":[0,1,2,3,4,5,6,7],"radio_events":[13850.099999904633,16494.39999985695,18548.89999985695,22180.89999985695,38250.59999990463,41841.59999990463,47955.699999809265,50511.39999985695],"checkbox_events":[23596.099999904633,24162.39999985695,24921.799999952316,25569.299999952316,26167.89999985695,26853.89999985695,27445.5,28044.199999809265,28715.699999809265,29523.599999904633,30389.699999809265,31141.89999985695,31780.5,32379.099999904633,33025.89999985695,33745.5,34425.39999985695,35120.89999985695,43572.09999990463],"key_events":[],"mouse_events":[13850.099999904633,16494.39999985695,18548.89999985695,22180.89999985695,23596.099999904633,24162.39999985695,24921.799999952316,25569.299999952316,26167.89999985695,26853.89999985695,27445.5,28044.199999809265,28715.699999809265,29523.599999904633,30389.699999809265,31141.89999985695,31780.5,32379.099999904633,33025.89999985695,33745.5,34425.39999985695,35120.89999985695,38250.59999990463,41841.59999990463,43572.09999990463,47955.699999809265,50511.39999985695,51579],"honeypot":0,"survey":"mace","page":10,"trial_type":"survey-mace","trial_index":18,"time_elapsed":1017448,"internal_node_id":"0.0-18.0","task_version":"prescreen-v0.3","browser_interactions":0,"instructed":0},{"rt":8459.700000047684,"trial_type":"mental-health-alert","trial_index":19,"time_elapsed":1025913,"internal_node_id":"0.0-19.0","task_version":"prescreen-v0.3","interactions":"[]"}]