[{"view_history":[{"page_index":0,"viewing_time":5737.199999928474},{"page_index":1,"viewing_time":5981.700000047684},{"page_index":2,"viewing_time":5090},{"page_index":3,"viewing_time":1939.8999999761581}],"rt":18749.600000023842,"trial_type":"instructions","trial_index":0,"time_elapsed":18763,"internal_node_id":"0.0-0.0","task_version":"prescreen-v0.3"},{"rt":39733.299999952316,"responses":{"age":"36","gender-categorical":"Male","gender-free-response":"","ethnicity":"Not Hispanic or Latino","race":["White"],"education":"Some college"},"trial_type":"survey-demo","trial_index":1,"time_elapsed":58503,"internal_node_id":"0.0-1.0","task_version":"prescreen-v0.3"},{"responses":{"Q07":"2","Q12":"0","Q20":"3","Q21":"3","Q14":"1","Q10":"2","Q17":"3","Q05":"3","Q01":"2","Q04":"3","Q08":"3","Q03":"3","Q09":"3","Q13":"1","Q11":"2","Q18":"2","Q06":"2","Q19":"2","Q02":"2","Q16":"1","Q15":"1"},"rt":176268.09999990463,"item_order":[6,11,19,20,13,9,16,4,0,3,7,2,8,12,10,17,5,18,1,15,14],"radio_events":[23208.299999952316,30520.199999928474,47895.199999928474,52917.09999990463,62901.09999990463,70753.09999990463,79977,81321.19999992847,99517,102197,106492.89999997616,110687,114227.19999992847,121070.29999995232,125091.89999997616,130690,135561.89999997616,139805.89999997616,148461.89999997616,155313.79999995232,162973.89999997616,168100,174652],"key_events":[],"mouse_events":[23208.299999952316,30520.199999928474,47895.199999928474,52267.199999928474,52917.09999990463,62151.199999928474,62901.09999990463,69877.09999990463,70753.09999990463,79977,81321.19999992847,97262.79999995232,97840.89999997616,99517,102197,106492.89999997616,110687,114227.19999992847,121070.29999995232,125091.89999997616,129628.19999992847,130215.89999997616,130690,135561.89999997616,139805.89999997616,148461.89999997616,155313.79999995232,162973.89999997616,168100,174652,176266],"straightlining":0.38095238095238093,"zigzagging":0.35,"honeypot":0,"survey":"sns","trial_type":"survey-template","trial_index":2,"time_elapsed":234781,"internal_node_id":"0.0-2.0","task_version":"prescreen-v0.3","browser_interactions":0,"infrequency":0},{"responses":{"Q12":"1","Q01":"3","Q03":"3","Q10":"1","Q08":"1","Q09":"1","Q11":"1","Q07":"2","Q04":"3","Q02":"3","Q13":"0","Q06":"2","Q05":"2"},"rt":110822.20000004768,"item_order":[11,0,2,9,7,8,10,6,3,1,12,5,4],"radio_events":[21532.899999976158,25625,37132.89999997616,40446.89999997616,46730.89999997616,51807,57111,61161.10000002384,68126.89999997616,72504.89999997616,82685.10000002384,103252.89999997616,109705.10000002384],"key_events":[],"mouse_events":[21532.899999976158,24657,25146.899999976158,25625,37132.89999997616,40446.89999997616,46730.89999997616,51807,57111,61161.10000002384,68126.89999997616,72504.89999997616,82685.10000002384,103252.89999997616,109705.10000002384,110821],"straightlining":0.38461538461538464,"zigzagging":0.25,"honeypot":0,"survey":"bisbas","trial_type":"survey-template","trial_index":3,"time_elapsed":345609,"internal_node_id":"0.0-3.0","task_version":"prescreen-v0.3","browser_interactions":0,"infrequency":0},{"responses":{"Q01":"1","Q02":"1","Q03":"1"},"rt":29883.700000047684,"radio_events":[6519.100000023842,15713,27626.899999976158],"key_events":[],"mouse_events":[6519.100000023842,15713,27626.899999976158,29882.899999976158],"survey":"map","page":1,"trial_type":"survey-map","trial_index":4,"time_elapsed":375496,"internal_node_id":"0.0-4.0","task_version":"prescreen-v0.3","browser_interactions":0},{"responses":{"Q04":"2","Q05":"2","Q06":"2"},"rt":24481.399999976158,"radio_events":[6208.799999952316,10702.799999952316,12291,15756.799999952316,20597,21436.799999952316],"key_events":[],"mouse_events":[6208.799999952316,10702.799999952316,11626.799999952316,12291,15756.799999952316,20597,21436.799999952316,24480.899999976158],"survey":"map","page":2,"trial_type":"survey-map","trial_index":5,"time_elapsed":399981,"internal_node_id":"0.0-5.0","task_version":"prescreen-v0.3","browser_interactions":0},{"responses":{"Q07":"1","Q08":"0","Q09":"0"},"rt":20971.799999952316,"radio_events":[6967.299999952316,13803.299999952316,18695.200000047684],"key_events":[],"mouse_events":[6271.200000047684,6967.299999952316,13803.299999952316,18695.200000047684,20971.299999952316],"survey":"map","page":3,"trial_type":"survey-map","trial_index":6,"time_elapsed":420955,"internal_node_id":"0.0-6.0","task_version":"prescreen-v0.3","browser_interactions":0},{"responses":{"Q10":"0","Q11":"1","Q12":"1","Q13":"1","Q16":"0","Q14":"3","Q15":"3"},"rt":58630.09999990463,"radio_events":[4697.099999904633,8853.099999904633,11391.099999904633,22955.099999904633,33665.199999928474,43831,52444.89999997616,57748.89999997616],"key_events":[],"mouse_events":[4697.099999904633,8853.099999904633,11391.099999904633,22955.099999904633,33665.199999928474,43831,52444.89999997616,57748.89999997616,58629.09999990463],"survey":"map","page":4,"trial_type":"survey-map","trial_index":7,"time_elapsed":479589,"internal_node_id":"0.0-7.0","task_version":"prescreen-v0.3","browser_interactions":0,"infrequency":0},{"view_history":[{"page_index":0,"viewing_time":3076.6999999284744},{"page_index":1,"viewing_time":7204}],"rt":10281.399999976158,"trial_type":"instructions","trial_index":8,"time_elapsed":489872,"internal_node_id":"0.0-8.0","task_version":"prescreen-v0.3"},{"responses":{"01":"Yes","01_ages_13":"13","01_ages_14":"14","02":"Yes","02_ages_11":"11","02_ages_12":"12","02_ages_13":"13","02_ages_14":"14","02_ages_15":"15","03":"Yes","03_ages_11":"11","03_ages_12":"12","04":"No","05":"No","06":"Yes","06_ages_11":"11","06_ages_12":"12"},"rt":214028.60000002384,"item_order":[0,1,2,3,4,5],"radio_events":[21677.800000071526,33569.300000071526,77917.39999997616,87319.20000004768,90779.39999997616,94753.30000007153],"checkbox_events":[35523.60000002384,41385.39999997616,43253.300000071526,43795.300000071526,58793.200000047684,59293.10000002384,60863.39999997616,65487.5,66827.5,72739.30000007153,100657.39999997616,107533.30000007153,153951.39999997616,155141.10000002384,156261.10000002384,157331.10000002384,158003.10000002384,164847.10000002384,187415.20000004768],"key_events":[],"mouse_events":[0.10000002384185791,21677.800000071526,33569.300000071526,35523.60000002384,41385.39999997616,43253.300000071526,43795.300000071526,58793.200000047684,59293.10000002384,60863.39999997616,65487.5,66827.5,72739.30000007153,77917.39999997616,87319.20000004768,90779.39999997616,94753.30000007153,100657.39999997616,107533.30000007153,153951.39999997616,155141.10000002384,156261.10000002384,157331.10000002384,158003.10000002384,164847.10000002384,187415.20000004768,214025.60000002384],"honeypot":0,"survey":"mace","page":1,"trial_type":"survey-mace","trial_index":9,"time_elapsed":703912,"internal_node_id":"0.0-9.0","task_version":"prescreen-v0.3","browser_interactions":0},{"responses":{"01":"Yes","01_ages_12":"12","02":"Yes","02_ages_12":"12","03":"Yes","03_ages_6":"6","03_ages_7":"7","03_ages_8":"8","04":"Yes","04_ages_6":"6","04_ages_7":"7","05":"No","06":"No","07":"No","08":"No"},"rt":109663.39999997616,"item_order":[0,1,2,3,4,5,6,7],"radio_events":[7631.199999928474,26873.199999928474,30221.099999904633,49463.299999952316,59579.199999928474,62457.199999928474,65039,67233.09999990463,98121.09999990463],"checkbox_events":[12279.299999952316,37919.199999928474,39383.299999952316,40123.299999952316,41327.199999928474,52545.199999928474,53207,54887.199999928474,72803.19999992847,78697.19999992847,99529.09999990463],"key_events":[],"mouse_events":[7631.199999928474,12279.299999952316,26873.199999928474,30221.099999904633,37919.199999928474,39383.299999952316,40123.299999952316,41327.199999928474,49463.299999952316,52545.199999928474,53207,54887.199999928474,59579.199999928474,62457.199999928474,65039,67233.09999990463,72803.19999992847,78697.19999992847,98121.09999990463,99099.09999990463,99529.09999990463,109659.59999990463],"honeypot":0,"survey":"mace","page":2,"trial_type":"survey-mace","trial_index":10,"time_elapsed":813582,"internal_node_id":"0.0-10.0","task_version":"prescreen-v0.3","browser_interactions":0},{"responses":{"01":"No","02":"No","03":"No","04":"No"},"rt":21283.100000023842,"item_order":[0,1,2,3],"radio_events":[9683.100000023842,15509.100000023842,17751.100000023842,19803.100000023842],"checkbox_events":[],"key_events":[],"mouse_events":[9683.100000023842,15509.100000023842,17751.100000023842,19803.100000023842,21281.100000023842],"honeypot":0,"survey":"mace","page":3,"trial_type":"survey-mace","trial_index":11,"time_elapsed":834869,"internal_node_id":"0.0-11.0","task_version":"prescreen-v0.3","browser_interactions":0},{"responses":{"01":"No","02":"No"},"rt":15072,"item_order":[0,1],"radio_events":[10270.899999976158,12468.899999976158],"checkbox_events":[],"key_events":[],"mouse_events":[10270.899999976158,12468.899999976158,15070.899999976158],"honeypot":0,"survey":"mace","page":4,"trial_type":"survey-mace","trial_index":12,"time_elapsed":849943,"internal_node_id":"0.0-12.0","task_version":"prescreen-v0.3","browser_interactions":0},{"responses":{"01":"No","02":"No","03":"No","04":"No","05":"No"},"rt":29922.5,"item_order":[0,1,2,3,4],"radio_events":[10318.100000023842,15030.100000023842,20638.199999928474,23984.100000023842,28675.899999976158],"checkbox_events":[],"key_events":[],"mouse_events":[10318.100000023842,15030.100000023842,20638.199999928474,23984.100000023842,27630.199999928474,28109.899999976158,28675.899999976158,29920.100000023842],"honeypot":0,"survey":"mace","page":5,"trial_type":"survey-mace","trial_index":13,"time_elapsed":879870,"internal_node_id":"0.0-13.0","task_version":"prescreen-v0.3","browser_interactions":0},{"responses":{"01":"Yes","01_ages_13":"13","01_ages_14":"14","02":"Yes","02_ages_13":"13","02_ages_14":"14","03":"Yes","03_ages_13":"13","03_ages_14":"14","04":"Yes","04_ages_13":"13","04_ages_14":"14","04_ages_15":"15","04_ages_16":"16","04_ages_17":"17","04_ages_18":"18","05":"Yes","05_ages_13":"13","05_ages_14":"14"},"rt":96118.10000002384,"item_order":[0,1,2,3,4],"radio_events":[16181.5,32821.5,40095.39999997616,44895.299999952316,58467.5],"checkbox_events":[22923.699999928474,27253.600000023842,33681.39999997616,37315.5,41375.39999997616,45735.299999952316,47717.39999997616,48775.39999997616,49737.5,52571.5,59375.39999997616,59853.5,79125.5,80427.39999997616,82323.39999997616,83265.5],"key_events":[],"mouse_events":[16181.5,22923.699999928474,27253.600000023842,32821.5,33681.39999997616,37315.5,40095.39999997616,41375.39999997616,44895.299999952316,45735.299999952316,47717.39999997616,48775.39999997616,49737.5,52571.5,58467.5,59375.39999997616,59853.5,79125.5,80427.39999997616,82323.39999997616,83265.5,96115.69999992847],"honeypot":0,"survey":"mace","page":6,"trial_type":"survey-mace","trial_index":14,"time_elapsed":975994,"internal_node_id":"0.0-14.0","task_version":"prescreen-v0.3","browser_interactions":0},{"responses":{"01":"Yes","01_ages_13":"13","01_ages_14":"14","02":"Yes","02_ages_13":"13","02_ages_14":"14","03":"Yes","03_ages_13":"13","03_ages_14":"14","04":"Yes","04_ages_13":"13","04_ages_14":"14","05":"No","06":"Yes","06_ages_14":"14","07":"No"},"rt":52760.199999928474,"item_order":[0,1,2,3,4,5,6],"radio_events":[8324.899999976158,12830.899999976158,16500.899999976158,28550.899999976158,32348.899999976158,35106.699999928474,50398.89999997616],"checkbox_events":[9330.799999952316,10114.899999976158,13844.899999976158,14368.799999952316,17376.899999976158,17916.899999976158,29794.899999976158,30364.899999976158,36124.799999952316],"key_events":[],"mouse_events":[8324.899999976158,9330.799999952316,10114.899999976158,12830.899999976158,13844.899999976158,14368.799999952316,16500.899999976158,17376.899999976158,17916.899999976158,28550.899999976158,29794.899999976158,30364.899999976158,32348.899999976158,35106.699999928474,36124.799999952316,50398.89999997616,52757],"honeypot":0,"survey":"mace","page":7,"trial_type":"survey-mace","trial_index":15,"time_elapsed":1028760,"internal_node_id":"0.0-15.0","task_version":"prescreen-v0.3","browser_interactions":0},{"responses":{"01":"No","02":"No","03":"No","04":"Yes","04_ages_13":"13","04_ages_14":"14","04_ages_15":"15","04_ages_16":"16","04_ages_17":"17","04_ages_18":"18"},"rt":60613.5,"item_order":[0,1,2,3],"radio_events":[10604.600000023842,18540.600000023842,24902.5,33289.60000002384],"checkbox_events":[26246.600000023842,26726.5,44947.5,46973.5,51085.700000047684,57545.60000002384,58487.40000009537,59015.5],"key_events":[],"mouse_events":[10604.600000023842,18540.600000023842,24902.5,26246.600000023842,26726.5,33289.60000002384,44947.5,46973.5,51085.700000047684,57545.60000002384,58487.40000009537,59015.5,60611.60000002384],"honeypot":0,"survey":"mace","page":8,"trial_type":"survey-mace","trial_index":16,"time_elapsed":1089377,"internal_node_id":"0.0-16.0","task_version":"prescreen-v0.3","browser_interactions":0},{"responses":{"01":"Yes","01_ages_1":"1","01_ages_2":"2","01_ages_3":"3","01_ages_4":"4","01_ages_5":"5","01_ages_6":"6","01_ages_7":"7","01_ages_8":"8","01_ages_9":"9","01_ages_10":"10","01_ages_11":"11","01_ages_12":"12","02":"Yes","02_ages_1":"1","02_ages_2":"2","02_ages_3":"3","02_ages_4":"4","02_ages_5":"5","02_ages_6":"6","02_ages_7":"7","02_ages_8":"8","02_ages_9":"9","02_ages_10":"10","02_ages_11":"11","02_ages_12":"12","03":"Yes","03_ages_1":"1","03_ages_2":"2","03_ages_3":"3","03_ages_4":"4","03_ages_5":"5","03_ages_6":"6","03_ages_7":"7","03_ages_8":"8","03_ages_9":"9","03_ages_10":"10","03_ages_11":"11","03_ages_12":"12","04":"Yes","04_ages_1":"1","04_ages_2":"2","04_ages_3":"3","04_ages_4":"4","04_ages_5":"5","04_ages_6":"6","04_ages_7":"7","04_ages_8":"8","04_ages_9":"9","04_ages_10":"10","04_ages_11":"11","04_ages_12":"12","04_ages_13":"13","04_ages_14":"14","04_ages_15":"15","04_ages_16":"16","04_ages_17":"17","04_ages_18":"18"},"rt":103321.40000009537,"item_order":[0,1,2,3],"radio_events":[14724.400000095367,15484.5,20490.5,26486.400000095367,44968.5,50834.40000009537,69014.40000009537,81954.40000009537,95157.5],"checkbox_events":[38230.40000009537,39410.60000002384,43004.40000009537,43694.40000009537,56478.60000002384,56980.40000009537,57420.40000009537,57946.40000009537,58924.40000009537,59418.60000002384,59958.300000071526,60698.40000009537,61492.300000071526,62384.40000009537,62948.300000071526,63466.300000071526,63956.300000071526,64478.40000009537,64940.300000071526,65476.40000009537,65930.20000004768,66410.40000009537,70348.40000009537,71100.20000004768,72052.40000009537,72570.40000009537,73476.40000009537,74090.20000004768,74744.40000009537,75358.5,75932.30000007153,76426.30000007153,76934.30000007153,77520.30000007153,83278.40000009537,83748.40000009537,84560.40000009537,85034.30000007153,85508.5,86352.40000009537,87050.40000009537,87504.30000007153,87942.30000007153,88424.30000007153,88892.30000007153,89390.30000007153,96263.30000007153,96707.30000007153,97169.40000009537,97603.30000007153,98025.30000007153,98447.20000004768,98903.30000007153,99309.40000009537,99741.40000009537,100167.30000007153,100671.70000004768,101295.40000009537],"key_events":[],"mouse_events":[14724.400000095367,15484.5,20490.5,26486.400000095367,38230.40000009537,39410.60000002384,39978.5,40384.300000071526,43004.40000009537,43694.40000009537,44968.5,50834.40000009537,56478.60000002384,56980.40000009537,57420.40000009537,57946.40000009537,58924.40000009537,59418.60000002384,59958.300000071526,60698.40000009537,61492.300000071526,61958.300000071526,62384.40000009537,62948.300000071526,63466.300000071526,63956.300000071526,64478.40000009537,64940.300000071526,65476.40000009537,65930.20000004768,66410.40000009537,69014.40000009537,70348.40000009537,71100.20000004768,71606.30000007153,72052.40000009537,72570.40000009537,73138.30000007153,73476.40000009537,74090.20000004768,74744.40000009537,75358.5,75932.30000007153,76426.30000007153,76934.30000007153,77520.30000007153,81954.40000009537,83278.40000009537,83748.40000009537,84220.30000007153,84560.40000009537,85034.30000007153,85508.5,86352.40000009537,87050.40000009537,87504.30000007153,87942.30000007153,88424.30000007153,88892.30000007153,89390.30000007153,95157.5,96263.30000007153,96707.30000007153,97169.40000009537,97603.30000007153,98025.30000007153,98447.20000004768,98903.30000007153,99309.40000009537,99741.40000009537,100167.30000007153,100671.70000004768,101295.40000009537,103319.30000007153],"honeypot":0,"survey":"mace","page":9,"trial_type":"survey-mace","trial_index":17,"time_elapsed":1192704,"internal_node_id":"0.0-17.0","task_version":"prescreen-v0.3","browser_interactions":0},{"responses":{"01":"No","02":"No","03":"Yes","03_ages_15":"15","03_ages_16":"16","03_ages_17":"17","03_ages_18":"18","04":"No","05":"No","06":"Yes","06_ages_17":"17","07":"Yes","07_ages_1":"1","07_ages_2":"2","07_ages_3":"3","07_ages_4":"4","07_ages_5":"5","07_ages_6":"6","07_ages_7":"7","07_ages_8":"8","07_ages_9":"9","07_ages_10":"10","07_ages_11":"11","07_ages_12":"12","07_ages_13":"13","07_ages_14":"14","07_ages_15":"15","07_ages_16":"16","07_ages_17":"17","07_ages_18":"18","08":"Yes","08_ages_1":"1","08_ages_2":"2","08_ages_3":"3","08_ages_4":"4","08_ages_5":"5","08_ages_6":"6","08_ages_7":"7","08_ages_8":"8","08_ages_9":"9","08_ages_10":"10","08_ages_11":"11","08_ages_12":"12"},"rt":115689.80000007153,"item_order":[0,1,2,3,4,5,6,7],"radio_events":[7775.700000047684,9741.800000071526,19531.800000071526,22699.800000071526,38715.700000047684,42075.60000002384,56664.700000047684,57772.60000002384,62262.60000002384,93976.70000004768],"checkbox_events":[24599.700000047684,25113.800000071526,25533.700000047684,31057.800000071526,43229.700000047684,46801.800000071526,64526.60000002384,65022.60000002384,65546.5,66034.70000004768,67050.60000002384,67662.70000004768,68144.60000002384,68586.60000002384,69038.70000004768,70122.70000004768,70600.5,71570.80000007153,83510.60000002384,96701.60000002384,97359.89999997616,98165.60000002384,98621.5,99041.70000004768,99515.60000002384,99931.60000002384,100615.60000002384,101247.60000002384,101855.60000002384,102585.5,103001.60000002384,103693.5,105497.60000002384,106487.5,106961.60000002384,107505.5,108089.5],"key_events":[],"mouse_events":[7775.700000047684,9741.800000071526,19531.800000071526,22699.800000071526,24599.700000047684,25113.800000071526,25533.700000047684,31057.800000071526,38151.800000071526,38715.700000047684,42075.60000002384,43229.700000047684,46801.800000071526,56664.700000047684,57772.60000002384,62262.60000002384,64526.60000002384,65022.60000002384,65546.5,66034.70000004768,66548.80000007153,67050.60000002384,67662.70000004768,68144.60000002384,68586.60000002384,69038.70000004768,69458.70000004768,70122.70000004768,70600.5,71094.60000002384,71570.80000007153,83510.60000002384,93976.70000004768,96701.60000002384,97359.89999997616,98165.60000002384,98621.5,99041.70000004768,99515.60000002384,99931.60000002384,100615.60000002384,101247.60000002384,101855.60000002384,102585.5,103001.60000002384,103693.5,105497.60000002384,106487.5,106961.60000002384,107505.5,108089.5,115686],"honeypot":0,"survey":"mace","page":10,"trial_type":"survey-mace","trial_index":18,"time_elapsed":1308400,"internal_node_id":"0.0-18.0","task_version":"prescreen-v0.3","browser_interactions":0,"instructed":0},{"rt":9900.100000023842,"trial_type":"mental-health-alert","trial_index":19,"time_elapsed":1318303,"internal_node_id":"0.0-19.0","task_version":"prescreen-v0.3","interactions":"[]"}]