[{"view_history":[{"page_index":0,"viewing_time":39106.70000001788},{"page_index":1,"viewing_time":1443.699999988079},{"page_index":2,"viewing_time":45649.20000001788},{"page_index":3,"viewing_time":761.7999999821186}],"rt":86963,"trial_type":"instructions","trial_index":0,"time_elapsed":86971,"internal_node_id":"0.0-0.0","task_version":"prescreen-v0.3"},{"rt":12719.800000011921,"responses":{"age":"34","gender-categorical":"Female","gender-free-response":"","ethnicity":"Not Hispanic or Latino","race":["White"],"education":"Bachelor degree"},"trial_type":"survey-demo","trial_index":1,"time_elapsed":99696,"internal_node_id":"0.0-1.0","task_version":"prescreen-v0.3"},{"responses":{"Q13":"1","Q05":"0","Q09":"0","Q14":"2","Q20":"0","Q12":"1","Q21":"3","Q19":"1","Q11":"0","Q18":"1","Q06":"1","Q08":"1","Q07":"0","Q17":"0","Q02":"1","Q10":"0","Q16":"2","Q03":"1","Q15":"2","Q04":"0","Q01":"1"},"rt":158949.09999999404,"item_order":[12,4,8,13,19,11,20,18,10,17,5,7,6,16,1,9,15,2,14,3,0],"radio_events":[8122.4000000059605,24893.79999998212,28237.29999998212,33464.79999998212,36783.09999999404,55842.90000000596,61251.29999998212,81623.19999998808,84340.59999999404,91291.29999998212,100024.09999999404,107131.69999998808,115285.59999999404,119521.90000000596,126993.79999998212,129788.59999999404,136079.29999998212,140150.40000000596,145538.19999998808,151937.09999999404,157953.90000000596],"key_events":[],"mouse_events":[8122.4000000059605,24423.40000000596,24893.79999998212,28237.29999998212,33464.79999998212,36783.09999999404,55842.90000000596,61251.29999998212,81623.19999998808,84340.59999999404,91291.29999998212,100024.09999999404,107131.69999998808,115285.59999999404,119521.90000000596,126993.79999998212,129788.59999999404,136079.29999998212,140150.40000000596,144817.59999999404,145538.19999998808,151937.09999999404,157097.69999998808,157953.90000000596,158946.19999998808],"straightlining":0.42857142857142855,"zigzagging":0.5,"honeypot":0,"survey":"sns","trial_type":"survey-template","trial_index":2,"time_elapsed":258653,"internal_node_id":"0.0-2.0","task_version":"prescreen-v0.3","browser_interactions":0,"infrequency":0},{"responses":{"Q11":"3","Q12":"3","Q13":"0","Q08":"3","Q10":"3","Q05":"3","Q06":"2","Q02":"3","Q07":"3","Q09":"3","Q03":"3","Q01":"3","Q04":"3"},"rt":60582.90000000596,"item_order":[10,11,12,7,9,4,5,1,6,8,2,0,3],"radio_events":[7269.4000000059605,13923.40000000596,20859.90000000596,28141.90000000596,31414.59999999404,33654.79999998212,39271.19999998808,43833.5,48714,51684.69999998808,55419.40000000596,57202.69999998808,59514.29999998212],"key_events":[],"mouse_events":[6597.5,7269.4000000059605,13174.799999982119,13923.40000000596,20859.90000000596,28141.90000000596,31414.59999999404,33654.79999998212,39271.19999998808,43833.5,48714,51684.69999998808,55419.40000000596,57202.69999998808,59514.29999998212,60579.40000000596],"straightlining":0.8461538461538461,"zigzagging":0.3333333333333333,"honeypot":0,"survey":"bisbas","trial_type":"survey-template","trial_index":3,"time_elapsed":319241,"internal_node_id":"0.0-3.0","task_version":"prescreen-v0.3","browser_interactions":0,"infrequency":0},{"responses":{"Q01":"3","Q02":"2","Q03":"3"},"rt":24076.19999998808,"radio_events":[11475,14788.5,19821.5],"key_events":[],"mouse_events":[11475,14788.5,19821.5,24074.59999999404],"survey":"map","page":1,"trial_type":"survey-map","trial_index":4,"time_elapsed":343323,"internal_node_id":"0.0-4.0","task_version":"prescreen-v0.3","browser_interactions":0},{"responses":{"Q04":"1","Q05":"2","Q06":"2"},"rt":17019.80000001192,"radio_events":[5970.9000000059605,8805.40000000596,11789.200000017881,16019.300000011921],"key_events":[],"mouse_events":[5970.9000000059605,8805.40000000596,11789.200000017881,16019.300000011921,17019],"survey":"map","page":2,"trial_type":"survey-map","trial_index":5,"time_elapsed":360346,"internal_node_id":"0.0-5.0","task_version":"prescreen-v0.3","browser_interactions":0},{"responses":{"Q07":"1","Q08":"4","Q09":"3"},"rt":12771.09999999404,"radio_events":[4006.4000000059605,8343,11935.5],"key_events":[],"mouse_events":[4006.4000000059605,8343,11935.5,12769.699999988079],"survey":"map","page":3,"trial_type":"survey-map","trial_index":6,"time_elapsed":373121,"internal_node_id":"0.0-6.0","task_version":"prescreen-v0.3","browser_interactions":0},{"responses":{"Q10":"2","Q11":"4","Q12":"3","Q13":"2","Q16":"0","Q14":"2","Q15":"2"},"rt":56531.90000000596,"radio_events":[10592.09999999404,28878.5,32615.09999999404,35502.69999998808,38927.09999999404,43022.79999998212,50029.5,55577.19999998808],"key_events":[],"mouse_events":[9686,10592.09999999404,28878.5,32615.09999999404,35502.69999998808,38927.09999999404,43022.79999998212,50029.5,55577.19999998808,56528.69999998808],"survey":"map","page":4,"trial_type":"survey-map","trial_index":7,"time_elapsed":429657,"internal_node_id":"0.0-7.0","task_version":"prescreen-v0.3","browser_interactions":0,"infrequency":0},{"view_history":[{"page_index":0,"viewing_time":2690.300000011921},{"page_index":1,"viewing_time":3277.199999988079}],"rt":5968.9000000059605,"trial_type":"instructions","trial_index":8,"time_elapsed":435629,"internal_node_id":"0.0-8.0","task_version":"prescreen-v0.3"},{"responses":{"01":"No","02":"No","03":"No","04":"No","05":"No","06":"No"},"rt":34912.79999998212,"item_order":[0,1,2,3,4,5],"radio_events":[10648.399999976158,20291.79999998212,25251.69999998808,27122.09999999404,31353.5,33853.5],"checkbox_events":[],"key_events":[],"mouse_events":[0.09999999403953552,10648.399999976158,20291.79999998212,25251.69999998808,27122.09999999404,31353.5,33853.5,34909.79999998212],"honeypot":0,"survey":"mace","page":1,"trial_type":"survey-mace","trial_index":9,"time_elapsed":470550,"internal_node_id":"0.0-9.0","task_version":"prescreen-v0.3","browser_interactions":0},{"responses":{"01":"No","02":"No","03":"No","04":"No","05":"No","06":"No","07":"No","08":"No"},"rt":22802,"item_order":[0,1,2,3,4,5,6,7],"radio_events":[2106.699999988079,5447.699999988079,7688.299999982119,9982.299999982119,14217.199999988079,15848.199999988079,17966.399999976158,21750.09999999404],"checkbox_events":[],"key_events":[],"mouse_events":[2106.699999988079,5447.699999988079,7688.299999982119,9982.299999982119,14217.199999988079,15848.199999988079,17966.399999976158,21750.09999999404,22796.69999998808],"honeypot":0,"survey":"mace","page":2,"trial_type":"survey-mace","trial_index":10,"time_elapsed":493356,"internal_node_id":"0.0-10.0","task_version":"prescreen-v0.3","browser_interactions":0},{"responses":{"01":"No","02":"No","03":"No","04":"No"},"rt":10684.5,"item_order":[0,1,2,3],"radio_events":[4094.2999999821186,6657.799999982119,9361.5,10108.199999988079],"checkbox_events":[],"key_events":[],"mouse_events":[4094.2999999821186,6657.799999982119,9361.5,10108.199999988079,10682.299999982119],"honeypot":0,"survey":"mace","page":3,"trial_type":"survey-mace","trial_index":11,"time_elapsed":504044,"internal_node_id":"0.0-11.0","task_version":"prescreen-v0.3","browser_interactions":0},{"responses":{"01":"No","02":"No"},"rt":14556.300000011921,"item_order":[0,1],"radio_events":[8264,13785.59999999404],"checkbox_events":[],"key_events":[],"mouse_events":[8264,13785.59999999404,14553.90000000596],"honeypot":0,"survey":"mace","page":4,"trial_type":"survey-mace","trial_index":12,"time_elapsed":518603,"internal_node_id":"0.0-12.0","task_version":"prescreen-v0.3","browser_interactions":0},{"responses":{"01":"No","02":"No","03":"No","04":"No","05":"No"},"rt":28640.69999998808,"item_order":[0,1,2,3,4],"radio_events":[15613.09999999404,16385.80000001192,17171,17987.30000001192,18723.5],"checkbox_events":[],"key_events":[],"mouse_events":[15613.09999999404,16385.80000001192,17171,17987.30000001192,18723.5,28637],"honeypot":0,"survey":"mace","page":5,"trial_type":"survey-mace","trial_index":13,"time_elapsed":547248,"internal_node_id":"0.0-13.0","task_version":"prescreen-v0.3","browser_interactions":0},{"responses":{"01":"Yes","01_ages_16":"16","02":"Yes","02_ages_9":"9","02_ages_10":"10","02_ages_11":"11","02_ages_12":"12","02_ages_13":"13","02_ages_14":"14","03":"No","04":"Yes","04_ages_11":"11","04_ages_12":"12","04_ages_13":"13","05":"No"},"rt":61957.19999998808,"item_order":[0,1,2,3,4],"radio_events":[13560.09999999404,35946.5,50609.89999997616,55806.69999998808,61077.69999998808],"checkbox_events":[17314.5,20886.59999999404,22355,23037,29502.899999976158,30414.29999998212,41350.59999999404,57493.29999998212,58061.59999999404,58670.69999998808],"key_events":[],"mouse_events":[13560.09999999404,17314.5,20886.59999999404,22355,23037,29502.899999976158,30414.29999998212,35946.5,41350.59999999404,50609.89999997616,55806.69999998808,57493.29999998212,58061.59999999404,58670.69999998808,61077.69999998808,61954.79999998212],"honeypot":0,"survey":"mace","page":6,"trial_type":"survey-mace","trial_index":14,"time_elapsed":609209,"internal_node_id":"0.0-14.0","task_version":"prescreen-v0.3","browser_interactions":0},{"responses":{"01":"No","02":"No","03":"No","04":"No","05":"No","06":"No","07":"No"},"rt":15748.5,"item_order":[0,1,2,3,4,5,6],"radio_events":[4098.9000000059605,7273.0999999940395,9579.09999999404,10971.799999982119,12396.09999999404,13865.5,15074.40000000596],"checkbox_events":[],"key_events":[],"mouse_events":[4098.9000000059605,7273.0999999940395,9579.09999999404,10971.799999982119,12396.09999999404,13865.5,15074.40000000596,15744.09999999404],"honeypot":0,"survey":"mace","page":7,"trial_type":"survey-mace","trial_index":15,"time_elapsed":624962,"internal_node_id":"0.0-15.0","task_version":"prescreen-v0.3","browser_interactions":0},{"responses":{"01":"No","02":"Yes","02_ages_7":"7","02_ages_8":"8","02_ages_9":"9","02_ages_10":"10","02_ages_11":"11","02_ages_12":"12","02_ages_13":"13","02_ages_14":"14","02_ages_15":"15","02_ages_16":"16","02_ages_17":"17","02_ages_18":"18","03":"Yes","03_ages_9":"9","03_ages_10":"10","03_ages_11":"11","03_ages_12":"12","03_ages_13":"13","03_ages_14":"14","03_ages_15":"15","03_ages_16":"16","03_ages_17":"17","03_ages_18":"18","04":"No"},"rt":48213.59999999404,"item_order":[0,1,2,3],"radio_events":[13103.5,17954.80000001192,22435.80000001192,26520.69999998808],"checkbox_events":[29786.80000001192,30328.30000001192,31430.30000001192,32863.90000000596,33407.80000001192,33991.30000001192,34535.40000000596,35038.69999998808,35647.40000000596,36191.5,36735.19999998808,37358.19999998808,42123.90000000596,42709,43218.5,43778.30000001192,44274.5,45010.19999998808,45580.40000000596,46242.69999998808,46851.19999998808,47489.69999998808],"key_events":[],"mouse_events":[13103.5,17954.80000001192,22435.80000001192,26520.69999998808,29786.80000001192,30328.30000001192,31430.30000001192,32304.80000001192,32863.90000000596,33407.80000001192,33991.30000001192,34535.40000000596,35038.69999998808,35647.40000000596,36191.5,36735.19999998808,37358.19999998808,42123.90000000596,42709,43218.5,43778.30000001192,44274.5,45010.19999998808,45580.40000000596,46242.69999998808,46851.19999998808,47489.69999998808,48210.09999999404],"honeypot":0,"survey":"mace","page":8,"trial_type":"survey-mace","trial_index":16,"time_elapsed":673179,"internal_node_id":"0.0-16.0","task_version":"prescreen-v0.3","browser_interactions":0},{"responses":{"01":"Yes","01_ages_1":"1","01_ages_2":"2","01_ages_3":"3","01_ages_4":"4","01_ages_5":"5","01_ages_6":"6","01_ages_7":"7","01_ages_8":"8","01_ages_9":"9","01_ages_10":"10","01_ages_11":"11","01_ages_12":"12","01_ages_13":"13","01_ages_14":"14","01_ages_15":"15","01_ages_16":"16","01_ages_17":"17","01_ages_18":"18","02":"Yes","02_ages_1":"1","02_ages_2":"2","02_ages_3":"3","02_ages_4":"4","02_ages_5":"5","02_ages_6":"6","02_ages_7":"7","02_ages_8":"8","02_ages_9":"9","02_ages_10":"10","02_ages_11":"11","02_ages_12":"12","02_ages_13":"13","02_ages_14":"14","02_ages_15":"15","02_ages_16":"16","02_ages_17":"17","02_ages_18":"18","03":"Yes","03_ages_1":"1","03_ages_2":"2","03_ages_3":"3","03_ages_4":"4","03_ages_5":"5","03_ages_6":"6","03_ages_7":"7","03_ages_8":"8","03_ages_9":"9","03_ages_10":"10","03_ages_11":"11","03_ages_12":"12","03_ages_13":"13","03_ages_14":"14","03_ages_15":"15","03_ages_16":"16","03_ages_17":"17","03_ages_18":"18","04":"Yes","04_ages_1":"1","04_ages_2":"2","04_ages_3":"3","04_ages_4":"4","04_ages_5":"5","04_ages_6":"6","04_ages_7":"7","04_ages_8":"8","04_ages_9":"9","04_ages_10":"10","04_ages_11":"11","04_ages_12":"12","04_ages_13":"13","04_ages_14":"14","04_ages_15":"15","04_ages_16":"16","04_ages_17":"17","04_ages_18":"18"},"rt":65330,"item_order":[0,1,2,3],"radio_events":[4796.5,22862,37657,53299.19999998808],"checkbox_events":[8572.59999999404,9115.5,9628.399999976158,10123.699999988079,10595.399999976158,11233.699999988079,12418.799999982119,14442.299999982119,15202.899999976158,15784,16314.199999988079,16849.69999998808,17417.69999998808,17888.79999998212,18473.399999976158,19095.399999976158,19649.29999998212,20160.69999998808,25079.399999976158,25590.69999998808,26125.59999999404,26723.5,27310.899999976158,27771.399999976158,28366.19999998808,28854.29999998212,29442.29999998212,30140.899999976158,31178.19999998808,31827.29999998212,32396.09999999404,32876.19999998808,33450,34052.69999998808,34547.09999999404,35160.39999997616,40216.79999998212,40838.69999998808,41520,42671.5,43293.5,43831.59999999404,44431.19999998808,45013.89999997616,45614.39999997616,46176,46765.89999997616,47363.79999998212,47917.79999998212,48485.09999999404,49085.29999998212,49588,50141.59999999404,50870.29999998212,55002.29999998212,55531,56051,56609.69999998808,57315.5,58024.69999998808,58609.69999998808,59118.59999999404,59680.29999998212,60248.29999998212,60774.19999998808,61328.59999999404,61871.09999999404,62397,62974.59999999404,63502.79999998212,64054.39999997616,64678.09999999404],"key_events":[],"mouse_events":[4796.5,8572.59999999404,9115.5,9628.399999976158,10123.699999988079,10595.399999976158,11233.699999988079,12418.799999982119,14442.299999982119,15202.899999976158,15784,16314.199999988079,16849.69999998808,17417.69999998808,17888.79999998212,18473.399999976158,19095.399999976158,19649.29999998212,20160.69999998808,22862,25079.399999976158,25590.69999998808,26125.59999999404,26723.5,27310.899999976158,27771.399999976158,28366.19999998808,28854.29999998212,29442.29999998212,30140.899999976158,31178.19999998808,31827.29999998212,32396.09999999404,32876.19999998808,33450,34052.69999998808,34547.09999999404,35160.39999997616,37657,40216.79999998212,40838.69999998808,41520,42089.29999998212,42671.5,43293.5,43831.59999999404,44431.19999998808,45013.89999997616,45614.39999997616,46176,46765.89999997616,47363.79999998212,47917.79999998212,48485.09999999404,49085.29999998212,49588,50141.59999999404,50870.29999998212,53299.19999998808,55002.29999998212,55531,56051,56609.69999998808,57315.5,58024.69999998808,58609.69999998808,59118.59999999404,59680.29999998212,60248.29999998212,60774.19999998808,61328.59999999404,61871.09999999404,62397,62974.59999999404,63502.79999998212,64054.39999997616,64678.09999999404,65326.69999998808],"honeypot":0,"survey":"mace","page":9,"trial_type":"survey-mace","trial_index":17,"time_elapsed":738514,"internal_node_id":"0.0-17.0","task_version":"prescreen-v0.3","browser_interactions":0},{"responses":{"01":"No","02":"No","03":"No","04":"No","05":"Yes","05_ages_1":"1","05_ages_2":"2","05_ages_3":"3","05_ages_4":"4","05_ages_5":"5","05_ages_6":"6","05_ages_7":"7","05_ages_8":"8","05_ages_9":"9","05_ages_10":"10","05_ages_11":"11","05_ages_12":"12","05_ages_13":"13","05_ages_14":"14","05_ages_15":"15","05_ages_16":"16","05_ages_17":"17","05_ages_18":"18","06":"Yes","06_ages_17":"17","07":"No","08":"No"},"rt":87141.30000001192,"item_order":[0,1,2,3,4,5,6,7],"radio_events":[6511.9000000059605,8030.699999988079,32357.90000000596,43021,48910.59999999404,67658.59999999404,79978.30000001192,86484.19999998808],"checkbox_events":[52238.30000001192,53222.59999999404,53780.80000001192,54310.19999998808,54964.40000000596,55534.19999998808,56085.5,56579.5,57227.19999998808,57799.30000001192,58381.19999998808,59414.30000001192,61020.69999998808,61589.5,62133.19999998808,62659,63195.69999998808,63760.69999998808,69376.80000001192],"key_events":[],"mouse_events":[6511.9000000059605,8030.699999988079,32357.90000000596,43021,48910.59999999404,52238.30000001192,52765,53222.59999999404,53780.80000001192,54310.19999998808,54964.40000000596,55534.19999998808,56085.5,56579.5,57227.19999998808,57799.30000001192,58381.19999998808,58858.5,59414.30000001192,61020.69999998808,61589.5,62133.19999998808,62659,63195.69999998808,63760.69999998808,67658.59999999404,69376.80000001192,79978.30000001192,86484.19999998808,87137.5],"honeypot":0,"survey":"mace","page":10,"trial_type":"survey-mace","trial_index":18,"time_elapsed":825659,"internal_node_id":"0.0-18.0","task_version":"prescreen-v0.3","browser_interactions":0,"instructed":0},{"rt":12671.40000000596,"trial_type":"mental-health-alert","trial_index":19,"time_elapsed":838334,"internal_node_id":"0.0-19.0","task_version":"prescreen-v0.3","interactions":"[{\"event\":\"blur\",\"trial\":0,\"time\":5793},{\"event\":\"focus\",\"trial\":0,\"time\":20128}]"}]