[{"view_history":[{"page_index":0,"viewing_time":3965.10000000149},{"page_index":1,"viewing_time":6814.5},{"page_index":2,"viewing_time":3921.89999999851},{"page_index":3,"viewing_time":1231.9000000003725}],"rt":15934.5,"trial_type":"instructions","trial_index":0,"time_elapsed":15954,"internal_node_id":"0.0-0.0","task_version":"prescreen-v0.3"},{"rt":42392.09999999963,"responses":{"age":"29","gender-categorical":"Male","gender-free-response":"","ethnicity":"Not Hispanic or Latino","race":["Rather not say"],"education":"Bachelor degree"},"trial_type":"survey-demo","trial_index":1,"time_elapsed":58353,"internal_node_id":"0.0-1.0","task_version":"prescreen-v0.3"},{"responses":{"Q09":"1","Q07":"0","Q01":"2","Q08":"2","Q17":"1","Q10":"1","Q21":"3","Q11":"2","Q06":"0","Q04":"1","Q16":"2","Q19":"1","Q03":"1","Q12":"2","Q20":"0","Q05":"0","Q02":"1","Q18":"2","Q14":"2","Q15":"2","Q13":"2"},"rt":242464.69999999925,"item_order":[8,6,0,7,16,9,20,10,5,3,15,18,2,11,19,4,1,17,13,14,12],"radio_events":[34542.09999999963,43318.5,46358.199999999255,49015.199999999255,53558.40000000037,59693.59999999963,67509.80000000075,162990.80000000075,168170.80000000075,175360.59999999963,181239.59999999963,190752.69999999925,193970.69999999925,198511.69999999925,204793.40000000037,219836.5,223794.80000000075,230699.80000000075,234393.5,239941.19999999925,241914],"key_events":[],"mouse_events":[34542.09999999963,43318.5,46358.199999999255,49015.199999999255,52607,53558.40000000037,59693.59999999963,67509.80000000075,162990.80000000075,168170.80000000075,175360.59999999963,181239.59999999963,189974.80000000075,190300.30000000075,190752.69999999925,193970.69999999925,198511.69999999925,204793.40000000037,219836.5,223794.80000000075,230699.80000000075,234393.5,239941.19999999925,241914,242463.19999999925],"straightlining":0.42857142857142855,"zigzagging":0.45,"honeypot":0,"survey":"sns","trial_type":"survey-template","trial_index":2,"time_elapsed":300825,"internal_node_id":"0.0-2.0","task_version":"prescreen-v0.3","browser_interactions":0,"infrequency":0},{"responses":{"Q09":"2","Q13":"0","Q02":"2","Q06":"3","Q08":"3","Q03":"2","Q05":"3","Q10":"1","Q11":"2","Q04":"3","Q07":"3","Q12":"2","Q01":"2"},"rt":111934.40000000037,"item_order":[8,12,1,5,7,2,4,9,10,3,6,11,0],"radio_events":[7192.60000000149,15420.700000001118,18984.800000000745,24693.700000001118,26805.900000000373,30887,36067.70000000112,37081.70000000112,41817.60000000149,90617.80000000075,94177.40000000037,99170.40000000037,101445.5,109527.80000000075,111418.80000000075],"key_events":[],"mouse_events":[7192.60000000149,15420.700000001118,18984.800000000745,24206.60000000149,24693.700000001118,26805.900000000373,30887,36067.70000000112,37081.70000000112,40865.70000000112,41402.800000000745,41817.60000000149,90121.40000000037,90617.80000000075,94177.40000000037,98715.60000000149,99170.40000000037,101445.5,109527.80000000075,111418.80000000075,111932.60000000149],"straightlining":0.46153846153846156,"zigzagging":0.5,"honeypot":0,"survey":"bisbas","trial_type":"survey-template","trial_index":3,"time_elapsed":412766,"internal_node_id":"0.0-3.0","task_version":"prescreen-v0.3","browser_interactions":0,"infrequency":0},{"responses":{"Q01":"3","Q02":"3","Q03":"2"},"rt":32752.5,"radio_events":[11741.699999999255,22779.400000000373,25818.699999999255,32106.5],"key_events":[],"mouse_events":[11741.699999999255,22779.400000000373,25818.699999999255,31311.400000000373,32106.5,32751.699999999255],"survey":"map","page":1,"trial_type":"survey-map","trial_index":4,"time_elapsed":445528,"internal_node_id":"0.0-4.0","task_version":"prescreen-v0.3","browser_interactions":0},{"responses":{"Q04":"3","Q05":"2","Q06":"1"},"rt":25764.699999999255,"radio_events":[8900.099999999627,20316,23656],"key_events":[],"mouse_events":[8900.099999999627,19318.099999999627,19685,20316,23656,25763.900000000373],"survey":"map","page":2,"trial_type":"survey-map","trial_index":5,"time_elapsed":471301,"internal_node_id":"0.0-5.0","task_version":"prescreen-v0.3","browser_interactions":0},{"responses":{"Q07":"0","Q08":"3","Q09":"4"},"rt":24515.599999999627,"radio_events":[12804.5,18121.5,22146,23721.199999999255],"key_events":[],"mouse_events":[12804.5,18121.5,22146,23721.199999999255,24180.900000000373,24514.900000000373],"survey":"map","page":3,"trial_type":"survey-map","trial_index":6,"time_elapsed":495824,"internal_node_id":"0.0-6.0","task_version":"prescreen-v0.3","browser_interactions":2},{"responses":{"Q10":"3","Q11":"3","Q12":"1","Q13":"3","Q16":"0","Q14":"3","Q15":"3"},"rt":67766.59999999963,"radio_events":[11300.89999999851,16669.199999999255,28562,35188.89999999851,43822.89999999851,61056.199999999255,62288.29999999888,67214.89999999851],"key_events":[],"mouse_events":[10907.799999998882,11300.89999999851,16669.199999999255,28562,35188.89999999851,43822.89999999851,61056.199999999255,62288.29999999888,67214.89999999851,67765.09999999963],"survey":"map","page":4,"trial_type":"survey-map","trial_index":7,"time_elapsed":563599,"internal_node_id":"0.0-7.0","task_version":"prescreen-v0.3","browser_interactions":0,"infrequency":0},{"view_history":[{"page_index":0,"viewing_time":14269.700000001118},{"page_index":1,"viewing_time":6745.699999999255}],"rt":21016.599999999627,"trial_type":"instructions","trial_index":8,"time_elapsed":584621,"internal_node_id":"0.0-8.0","task_version":"prescreen-v0.3"},{"responses":{"01":"Yes","01_ages_6":"6","01_ages_7":"7","01_ages_8":"8","01_ages_9":"9","01_ages_10":"10","01_ages_11":"11","01_ages_12":"12","01_ages_13":"13","01_ages_14":"14","01_ages_15":"15","01_ages_16":"16","01_ages_17":"17","01_ages_18":"18","02":"Yes","02_ages_6":"6","02_ages_7":"7","02_ages_8":"8","02_ages_9":"9","02_ages_10":"10","02_ages_11":"11","02_ages_12":"12","02_ages_13":"13","02_ages_14":"14","02_ages_15":"15","02_ages_16":"16","02_ages_17":"17","02_ages_18":"18","03":"Yes","03_ages_6":"6","03_ages_7":"7","03_ages_8":"8","03_ages_9":"9","03_ages_10":"10","03_ages_11":"11","03_ages_12":"12","03_ages_13":"13","03_ages_14":"14","03_ages_15":"15","03_ages_16":"16","03_ages_17":"17","04":"No","05":"No","06":"Yes","06_ages_6":"6","06_ages_7":"7","06_ages_8":"8","06_ages_9":"9","06_ages_10":"10","06_ages_11":"11","06_ages_12":"12","06_ages_13":"13","06_ages_14":"14","06_ages_15":"15"},"rt":79394.59999999963,"item_order":[0,1,2,3,4,5],"radio_events":[15375.400000000373,35085.300000000745,48734.300000000745,64951.40000000037,68467.09999999963,71620.90000000037],"checkbox_events":[21184.5,21603.300000000745,21921.300000000745,22685.199999999255,23323.099999999627,23649.400000000373,23975.599999999627,24377.900000000373,24870,25375.300000000745,26034,27779.699999999255,28596.400000000373,38166.5,39174.09999999963,39532,40110.09999999963,40432,40859,41326.199999999255,41758.300000000745,42062.5,42388.699999999255,42999.199999999255,43954.90000000037,44228.40000000037,44447.09999999963,44833.300000000745,53729.40000000037,54075.40000000037,54413.300000000745,54868.09999999963,55681.300000000745,56377.90000000037,56992.09999999963,57528.90000000037,58757.90000000037,59535,60092.199999999255,60545.199999999255,73210.19999999925,73555.90000000037,73914,74600.09999999963,75611.80000000075,75990.19999999925,76444.80000000075,76855.80000000075,77315.09999999963,78786.59999999963],"key_events":[],"mouse_events":[0.09999999962747097,15375.400000000373,21184.5,21603.300000000745,21921.300000000745,22230.199999999255,22685.199999999255,23023,23323.099999999627,23649.400000000373,23975.599999999627,24377.900000000373,24870,25375.300000000745,26034,27779.699999999255,28596.400000000373,34605.300000000745,35085.300000000745,38166.5,38642,39174.09999999963,39532,40110.09999999963,40432,40859,41326.199999999255,41758.300000000745,42062.5,42388.699999999255,42774.300000000745,42999.199999999255,43405,43686,43954.90000000037,44228.40000000037,44447.09999999963,44833.300000000745,48734.300000000745,53034.300000000745,53729.40000000037,54075.40000000037,54413.300000000745,54868.09999999963,55315.300000000745,55681.300000000745,56035.199999999255,56377.90000000037,56703.40000000037,56992.09999999963,57528.90000000037,58196.300000000745,58757.90000000037,59535,60092.199999999255,60545.199999999255,64951.40000000037,67970.90000000037,68467.09999999963,71620.90000000037,73210.19999999925,73555.90000000037,73914,74303.30000000075,74600.09999999963,75153,75611.80000000075,75990.19999999925,76444.80000000075,76855.80000000075,77315.09999999963,78397.09999999963,78786.59999999963,79390.59999999963],"honeypot":0,"survey":"mace","page":1,"trial_type":"survey-mace","trial_index":9,"time_elapsed":664029,"internal_node_id":"0.0-9.0","task_version":"prescreen-v0.3","browser_interactions":0},{"responses":{"01":"Yes","01_ages_6":"6","01_ages_9":"9","01_ages_10":"10","01_ages_12":"12","01_ages_14":"14","02":"Yes","02_ages_9":"9","03":"Yes","03_ages_6":"6","03_ages_7":"7","03_ages_8":"8","03_ages_9":"9","03_ages_10":"10","03_ages_11":"11","03_ages_12":"12","03_ages_13":"13","03_ages_14":"14","03_ages_15":"15","04":"No","05":"Yes","05_ages_6":"6","05_ages_7":"7","05_ages_8":"8","05_ages_9":"9","05_ages_10":"10","05_ages_11":"11","05_ages_12":"12","05_ages_13":"13","05_ages_14":"14","05_ages_15":"15","06":"No","07":"No","08":"No"},"rt":55882.5,"item_order":[0,1,2,3,4,5,6,7],"radio_events":[5713.5,17437.700000001118,22632.800000000745,35590.20000000112,39006.90000000037,49158.90000000037,51290.10000000149,55113.90000000037],"checkbox_events":[7319.9000000003725,8459.10000000149,9281.200000001118,9996.800000000745,10684.10000000149,18741.10000000149,23618,24029.10000000149,24443.800000000745,25565.900000000373,26012.700000001118,26469.10000000149,27375.700000001118,27925.10000000149,28469.900000000373,28920.900000000373,29262.800000000745,29609.10000000149,30637.400000000373,31244.300000000745,40056.90000000037,40426.60000000149,40910.60000000149,41406.800000000745,41825.300000000745,42261,42749,43147.10000000149,43520.800000000745,43956.70000000112],"key_events":[],"mouse_events":[5713.5,7319.9000000003725,8459.10000000149,8934.900000000373,9281.200000001118,9996.800000000745,10684.10000000149,17437.700000001118,18741.10000000149,22632.800000000745,23618,24029.10000000149,24443.800000000745,24918.900000000373,25565.900000000373,26012.700000001118,26469.10000000149,26854.900000000373,27375.700000001118,27925.10000000149,28469.900000000373,28920.900000000373,29262.800000000745,29609.10000000149,30637.400000000373,31244.300000000745,35590.20000000112,39006.90000000037,40056.90000000037,40426.60000000149,40910.60000000149,41406.800000000745,41825.300000000745,42261,42749,43147.10000000149,43520.800000000745,43956.70000000112,49158.90000000037,51290.10000000149,55113.90000000037,55877.300000000745],"honeypot":0,"survey":"mace","page":2,"trial_type":"survey-mace","trial_index":10,"time_elapsed":719923,"internal_node_id":"0.0-10.0","task_version":"prescreen-v0.3","browser_interactions":0},{"responses":{"01":"Yes","01_ages_9":"9","01_ages_10":"10","01_ages_11":"11","02":"No","03":"No","04":"No"},"rt":30189.699999999255,"item_order":[0,1,2,3],"radio_events":[11208.099999999627,24656.699999999255,28111.900000000373,29609],"checkbox_events":[16571.900000000373,16949.900000000373,18943],"key_events":[],"mouse_events":[11208.099999999627,16571.900000000373,16949.900000000373,18634.300000000745,18943,24656.699999999255,28111.900000000373,29609,30187],"honeypot":0,"survey":"mace","page":3,"trial_type":"survey-mace","trial_index":11,"time_elapsed":750122,"internal_node_id":"0.0-11.0","task_version":"prescreen-v0.3","browser_interactions":0},{"responses":{"01":"No","02":"No"},"rt":7106.799999998882,"item_order":[0,1],"radio_events":[2868.2999999988824,6356.9000000003725],"checkbox_events":[],"key_events":[],"mouse_events":[2868.2999999988824,6071.4000000003725,6356.9000000003725,7105.0999999996275],"honeypot":0,"survey":"mace","page":4,"trial_type":"survey-mace","trial_index":12,"time_elapsed":757237,"internal_node_id":"0.0-12.0","task_version":"prescreen-v0.3","browser_interactions":0},{"responses":{"01":"No","02":"No","03":"No","04":"No","05":"No"},"rt":38648.40000000037,"item_order":[0,1,2,3,4],"radio_events":[15181.300000000745,20052.599999999627,24740.900000000373,34060.70000000112,34966.90000000037,35666.20000000112,38064],"checkbox_events":[],"key_events":[],"mouse_events":[15181.300000000745,20052.599999999627,24740.900000000373,34060.70000000112,34966.90000000037,35666.20000000112,37238.300000000745,38064,38645.09999999963],"honeypot":0,"survey":"mace","page":5,"trial_type":"survey-mace","trial_index":13,"time_elapsed":795894,"internal_node_id":"0.0-13.0","task_version":"prescreen-v0.3","browser_interactions":0},{"responses":{"01":"Yes","01_ages_6":"6","01_ages_7":"7","01_ages_8":"8","01_ages_9":"9","01_ages_10":"10","01_ages_11":"11","01_ages_12":"12","02":"Yes","02_ages_6":"6","02_ages_7":"7","02_ages_8":"8","02_ages_9":"9","02_ages_10":"10","02_ages_11":"11","02_ages_12":"12","02_ages_13":"13","02_ages_14":"14","02_ages_15":"15","03":"Yes","03_ages_14":"14","03_ages_15":"15","03_ages_16":"16","03_ages_17":"17","04":"No","05":"Yes","05_ages_14":"14","05_ages_15":"15"},"rt":175161.3999999985,"item_order":[0,1,2,3,4],"radio_events":[10481.199999999255,114203.89999999851,155126.8999999985,164424.8999999985,166561.69999999925,171077.79999999888],"checkbox_events":[13080.299999998882,13394.799999998882,14007.699999999255,14366.099999999627,14723.099999999627,15065.099999999627,15425.89999999851,16759.099999999627,17046.89999999851,17303.299999998882,18095.299999998882,18444.099999999627,19355.099999999627,19614.299999998882,19846.199999999255,21016,21377.799999998882,115503.79999999888,116043.89999999851,117833.09999999963,118374.09999999963,119003.5,119435.09999999963,119958.79999999888,120370,120771.79999999888,121117,121442.79999999888,121828.89999999851,122183.19999999925,141273.8999999985,141703.09999999963,142174.79999999888,142646.79999999888,143267.69999999925,144055.79999999888,147873.19999999925,148242.19999999925,148888.29999999888,149497.19999999925,150066.09999999963,156872.79999999888,157404.59999999963,157892,158386.8999999985,173940.69999999925,174586.69999999925],"key_events":[],"mouse_events":[10481.199999999255,13080.299999998882,13394.799999998882,13740.099999999627,14007.699999999255,14366.099999999627,14723.099999999627,15065.099999999627,15425.89999999851,15792.199999999255,16063.699999999255,16380.599999999627,16759.099999999627,17046.89999999851,17303.299999998882,17781.89999999851,18095.299999998882,18444.099999999627,18961,19355.099999999627,19614.299999998882,19846.199999999255,20382.89999999851,20694.799999998882,21016,21377.799999998882,114203.89999999851,115503.79999999888,116043.89999999851,117833.09999999963,118374.09999999963,119003.5,119435.09999999963,119958.79999999888,120370,120771.79999999888,121117,121442.79999999888,121828.89999999851,122183.19999999925,141273.8999999985,141703.09999999963,142174.79999999888,142646.79999999888,143267.69999999925,144055.79999999888,147873.19999999925,148242.19999999925,148620.09999999963,148888.29999999888,149497.19999999925,150066.09999999963,155126.8999999985,156872.79999999888,157404.59999999963,157892,158386.8999999985,164424.8999999985,166561.69999999925,171077.79999999888,173940.69999999925,174261.59999999963,174586.69999999925,175159.5],"honeypot":0,"survey":"mace","page":6,"trial_type":"survey-mace","trial_index":14,"time_elapsed":971065,"internal_node_id":"0.0-14.0","task_version":"prescreen-v0.3","browser_interactions":0},{"responses":{"01":"Yes","01_ages_10":"10","02":"Yes","02_ages_10":"10","02_ages_11":"11","03":"Yes","03_ages_8":"8","03_ages_9":"9","03_ages_10":"10","03_ages_11":"11","04":"No","05":"No","06":"No","07":"Yes","07_ages_11":"11"},"rt":48752.40000000037,"item_order":[0,1,2,3,4,5,6],"radio_events":[6808.60000000149,16888.800000000745,26850.60000000149,33433.800000000745,34934,38737.300000000745,42724.90000000037],"checkbox_events":[7959.60000000149,17831.60000000149,18271.10000000149,28434.800000000745,28881.5,29332.5,30043.60000000149,46483.40000000037],"key_events":[],"mouse_events":[6808.60000000149,7959.60000000149,16888.800000000745,17831.60000000149,18271.10000000149,26850.60000000149,28434.800000000745,28881.5,29332.5,30043.60000000149,33433.800000000745,34934,38737.300000000745,42724.90000000037,46483.40000000037,48747.800000000745],"honeypot":0,"survey":"mace","page":7,"trial_type":"survey-mace","trial_index":15,"time_elapsed":1019825,"internal_node_id":"0.0-15.0","task_version":"prescreen-v0.3","browser_interactions":0},{"responses":{"01":"Yes","01_ages_8":"8","01_ages_9":"9","01_ages_10":"10","01_ages_11":"11","01_ages_12":"12","01_ages_13":"13","01_ages_14":"14","01_ages_15":"15","01_ages_16":"16","01_ages_17":"17","01_ages_18":"18","02":"Yes","02_ages_8":"8","02_ages_9":"9","02_ages_10":"10","02_ages_11":"11","02_ages_12":"12","02_ages_13":"13","02_ages_14":"14","02_ages_15":"15","02_ages_16":"16","02_ages_17":"17","02_ages_18":"18","03":"Yes","03_ages_6":"6","03_ages_7":"7","03_ages_8":"8","03_ages_9":"9","03_ages_10":"10","03_ages_11":"11","03_ages_12":"12","03_ages_13":"13","03_ages_14":"14","04":"Yes","04_ages_6":"6","04_ages_7":"7","04_ages_8":"8","04_ages_9":"9","04_ages_10":"10","04_ages_11":"11","04_ages_12":"12","04_ages_13":"13","04_ages_14":"14"},"rt":65409.5,"item_order":[0,1,2,3],"radio_events":[15152.900000000373,18922.900000000373,34646.40000000037,46486.5,58725.5],"checkbox_events":[22093.699999999255,22525.099999999627,22955,23613.800000000745,23914.900000000373,24247.699999999255,24597,24978.900000000373,25320.699999999255,25625.300000000745,25955.400000000373,35467.90000000037,36089.59999999963,36410.800000000745,37076.699999999255,37873.59999999963,38864.09999999963,39258.699999999255,39920.90000000037,40298.90000000037,40652.699999999255,41509.59999999963,48389.699999999255,48945.699999999255,49331.59999999963,49844,50311,50647.90000000037,51086.90000000037,51713,52439.59999999963,60325.5,61280.59999999963,61638.800000000745,62362.09999999963,62698.800000000745,63137.699999999255,63572.699999999255,64307.59999999963,64839.800000000745],"key_events":[],"mouse_events":[15152.900000000373,18922.900000000373,22093.699999999255,22525.099999999627,22955,23275.699999999255,23613.800000000745,23914.900000000373,24247.699999999255,24597,24978.900000000373,25320.699999999255,25625.300000000745,25955.400000000373,26908.800000000745,27120.800000000745,27292,27526.5,34646.40000000037,35467.90000000037,35780.40000000037,36089.59999999963,36410.800000000745,37076.699999999255,37433.90000000037,37873.59999999963,38267.800000000745,38528.699999999255,38864.09999999963,39258.699999999255,39603.800000000745,39920.90000000037,40298.90000000037,40652.699999999255,41066.699999999255,41509.59999999963,46486.5,48389.699999999255,48945.699999999255,49331.59999999963,49844,50311,50647.90000000037,51086.90000000037,51713,52439.59999999963,58725.5,60325.5,60633.90000000037,61280.59999999963,61638.800000000745,62093.699999999255,62362.09999999963,62698.800000000745,63137.699999999255,63572.699999999255,64307.59999999963,64839.800000000745,65406.5],"honeypot":0,"survey":"mace","page":8,"trial_type":"survey-mace","trial_index":16,"time_elapsed":1085245,"internal_node_id":"0.0-16.0","task_version":"prescreen-v0.3","browser_interactions":0},{"responses":{"01":"Yes","01_ages_12":"12","01_ages_13":"13","01_ages_14":"14","01_ages_15":"15","01_ages_16":"16","01_ages_17":"17","01_ages_18":"18","02":"Yes","02_ages_12":"12","02_ages_13":"13","02_ages_14":"14","02_ages_15":"15","02_ages_16":"16","02_ages_17":"17","02_ages_18":"18","03":"No","04":"Yes","04_ages_1":"1","04_ages_2":"2","04_ages_3":"3","04_ages_4":"4","04_ages_5":"5","04_ages_6":"6","04_ages_7":"7","04_ages_8":"8","04_ages_9":"9","04_ages_10":"10","04_ages_11":"11","04_ages_12":"12"},"rt":67590.19999999925,"item_order":[0,1,2,3],"radio_events":[21013.300000000745,30735.400000000373,43715.90000000037,57218.09999999963],"checkbox_events":[23638.400000000373,24515.300000000745,24963.199999999255,25397.300000000745,25925.5,26571.300000000745,28538.099999999627,31670.5,31995.099999999627,32491.400000000373,33152.699999999255,33616,34087.300000000745,34660,34951.90000000037,35517.40000000037,61034.40000000037,61332.09999999963,61745.40000000037,62067.09999999963,62390.5,63642.40000000037,63963.199999999255,64625.199999999255,65105.5,65454.300000000745,66137.19999999925,66701.19999999925],"key_events":[],"mouse_events":[21013.300000000745,23638.400000000373,24515.300000000745,24963.199999999255,25397.300000000745,25925.5,26571.300000000745,28538.099999999627,30735.400000000373,31670.5,31995.099999999627,32491.400000000373,32909.09999999963,33152.699999999255,33616,34087.300000000745,34660,34951.90000000037,35517.40000000037,43715.90000000037,57218.09999999963,61034.40000000037,61332.09999999963,61745.40000000037,62067.09999999963,62390.5,62768.09999999963,63642.40000000037,63963.199999999255,64312.09999999963,64625.199999999255,65105.5,65454.300000000745,66137.19999999925,66701.19999999925,67587.59999999963],"honeypot":0,"survey":"mace","page":9,"trial_type":"survey-mace","trial_index":17,"time_elapsed":1152844,"internal_node_id":"0.0-17.0","task_version":"prescreen-v0.3","browser_interactions":0},{"responses":{"01":"Yes","01_ages_1":"1","01_ages_2":"2","01_ages_3":"3","01_ages_4":"4","01_ages_5":"5","01_ages_6":"6","01_ages_7":"7","01_ages_8":"8","01_ages_9":"9","01_ages_10":"10","01_ages_11":"11","01_ages_12":"12","01_ages_13":"13","01_ages_14":"14","01_ages_15":"15","01_ages_16":"16","01_ages_17":"17","02":"No","03":"Yes","03_ages_8":"8","03_ages_9":"9","03_ages_10":"10","03_ages_11":"11","03_ages_12":"12","03_ages_13":"13","03_ages_14":"14","03_ages_15":"15","03_ages_16":"16","03_ages_17":"17","03_ages_18":"18","04":"Yes","04_ages_1":"1","04_ages_2":"2","04_ages_3":"3","04_ages_4":"4","04_ages_5":"5","04_ages_6":"6","04_ages_7":"7","04_ages_8":"8","04_ages_9":"9","04_ages_10":"10","04_ages_11":"11","04_ages_12":"12","04_ages_13":"13","04_ages_14":"14","04_ages_15":"15","04_ages_16":"16","04_ages_17":"17","04_ages_18":"18","05":"No","06":"Yes","06_ages_17":"17","07":"No","08":"No"},"rt":72114,"item_order":[0,1,2,3,4,5,6,7],"radio_events":[5500.4000000003725,20460.800000000745,24905.900000000373,45179.800000000745,59340.699999999255,63127,68825.80000000075,71508],"checkbox_events":[6593,7083.4000000003725,7511.0999999996275,8046.199999999255,8514.099999999627,9534.199999999255,9891.800000000745,10301.900000000373,10910.900000000373,11259.900000000373,11637.699999999255,12023.800000000745,12401.900000000373,12643,13209.699999999255,13698.900000000373,15200.800000000745,16168.300000000745,16630.599999999627,26283.099999999627,26708,27258.400000000373,28049.900000000373,28910.400000000373,29334,29890.099999999627,30523.199999999255,31003.099999999627,31477.800000000745,31884,46122,46414.09999999963,46771.699999999255,47213.199999999255,47673.09999999963,48001.90000000037,48350.800000000745,48735.699999999255,49104.800000000745,49487.199999999255,49870.90000000037,50545.800000000745,50985.800000000745,51576.800000000745,52035.800000000745,52434.90000000037,52872,53326.5,64352.40000000037],"key_events":[],"mouse_events":[5500.4000000003725,6593,7083.4000000003725,7511.0999999996275,8046.199999999255,8514.099999999627,8868,9534.199999999255,9891.800000000745,10301.900000000373,10614.099999999627,10910.900000000373,11259.900000000373,11637.699999999255,12023.800000000745,12401.900000000373,12643,13209.699999999255,13698.900000000373,14290,15200.800000000745,15879,16168.300000000745,16630.599999999627,20460.800000000745,24905.900000000373,26283.099999999627,26708,27258.400000000373,27736.900000000373,28049.900000000373,28597.800000000745,28910.400000000373,29334,29890.099999999627,30523.199999999255,31003.099999999627,31477.800000000745,31884,45179.800000000745,46122,46414.09999999963,46771.699999999255,47213.199999999255,47673.09999999963,48001.90000000037,48350.800000000745,48735.699999999255,49104.800000000745,49487.199999999255,49870.90000000037,50545.800000000745,50985.800000000745,51576.800000000745,52035.800000000745,52434.90000000037,52872,53326.5,59340.699999999255,62327.199999999255,63127,64352.40000000037,68825.80000000075,71508,72109],"honeypot":0,"survey":"mace","page":10,"trial_type":"survey-mace","trial_index":18,"time_elapsed":1224971,"internal_node_id":"0.0-18.0","task_version":"prescreen-v0.3","browser_interactions":0,"instructed":0},{"rt":2347.800000000745,"trial_type":"mental-health-alert","trial_index":19,"time_elapsed":1227326,"internal_node_id":"0.0-19.0","task_version":"prescreen-v0.3","interactions":"[{\"event\":\"blur\",\"trial\":1,\"time\":54162},{\"event\":\"focus\",\"trial\":1,\"time\":54162},{\"event\":\"blur\",\"trial\":6,\"time\":472904},{\"event\":\"focus\",\"trial\":6,\"time\":474465}]"}]