[{"view_history":[{"page_index":0,"viewing_time":3391},{"page_index":1,"viewing_time":4482},{"page_index":2,"viewing_time":2986.000000000002},{"page_index":3,"viewing_time":1110.9999999999982}],"rt":11973,"trial_type":"instructions","trial_index":0,"time_elapsed":11980,"internal_node_id":"0.0-0.0","task_version":"prescreen-v0.3"},{"rt":14470.999999999998,"responses":{"age":"22","gender-categorical":"Female","gender-free-response":"","ethnicity":"Not Hispanic or Latino","race":["White"],"education":"Bachelor degree"},"trial_type":"survey-demo","trial_index":1,"time_elapsed":26459,"internal_node_id":"0.0-1.0","task_version":"prescreen-v0.3"},{"responses":{"Q11":"2","Q18":"2","Q04":"1","Q19":"1","Q01":"3","Q08":"3","Q03":"0","Q05":"1","Q12":"3","Q15":"3","Q07":"3","Q02":"2","Q06":"1","Q20":"1","Q09":"3","Q10":"3","Q21":"3","Q13":"2","Q16":"2","Q14":"2","Q17":"1"},"rt":125407,"item_order":[10,17,3,18,0,7,2,4,11,14,6,1,5,19,8,9,20,12,15,13,16],"radio_events":[3820,7133,26799,31677,38470.00000000001,40755,43362,46594,48951,57203,60515.000000000015,67548,73753.00000000001,82913,87541,91020,95719,98341,101388.00000000001,111571,117040,121498,124537],"key_events":[],"mouse_events":[3820,6667,7133,26799,31131,31677,38470.00000000001,40755,42849,43362,45968,46594,48951,57203,60178,60515.000000000015,66978,67548,73753.00000000001,81662,82224,82913,87541,91020,95719,97684,98341,100362,101388.00000000001,111571,117040,120944,121498,124048,124537,125395],"straightlining":0.38095238095238093,"zigzagging":0.35,"honeypot":0,"survey":"sns","trial_type":"survey-template","trial_index":2,"time_elapsed":151875,"internal_node_id":"0.0-2.0","task_version":"prescreen-v0.3","browser_interactions":3,"infrequency":0},{"responses":{"Q05":"3","Q07":"3","Q09":"2","Q08":"3","Q01":"3","Q04":"3","Q13":"0","Q03":"3","Q02":"3","Q11":"2","Q12":"1","Q06":"3","Q10":"1"},"rt":68190,"item_order":[4,6,8,7,0,3,12,2,1,10,11,5,9],"radio_events":[8167.000000000029,10372,17725,20819,23393,26341,29872,41441.00000000003,43095,47943,56828.00000000003,59352.00000000003,63138.00000000003,67518],"key_events":[],"mouse_events":[6340.000000000029,7606,8167.000000000029,9939,10372,17284,17725,20819,23393,25806,26341,29326,29872,41105,41441.00000000003,43095,47943,56828.00000000003,59352.00000000003,63138.00000000003,67518,68182],"straightlining":0.6153846153846154,"zigzagging":0.5,"honeypot":0,"survey":"bisbas","trial_type":"survey-template","trial_index":3,"time_elapsed":220070,"internal_node_id":"0.0-3.0","task_version":"prescreen-v0.3","browser_interactions":0,"infrequency":0},{"responses":{"Q01":"2","Q02":"2","Q03":"3"},"rt":14817,"radio_events":[6940,9836,13922],"key_events":[],"mouse_events":[6446,6940,9836,13922,14524,14813.00000000003],"survey":"map","page":1,"trial_type":"survey-map","trial_index":4,"time_elapsed":234891,"internal_node_id":"0.0-4.0","task_version":"prescreen-v0.3","browser_interactions":0},{"responses":{"Q04":"2","Q05":"2","Q06":"2"},"rt":17860,"radio_events":[6111,10905,15523,17079],"key_events":[],"mouse_events":[6111,10905,15523,16237.00000000003,16597,17079,17856.00000000003],"survey":"map","page":2,"trial_type":"survey-map","trial_index":5,"time_elapsed":252754,"internal_node_id":"0.0-5.0","task_version":"prescreen-v0.3","browser_interactions":0},{"responses":{"Q07":"3","Q08":"0","Q09":"3"},"rt":14556,"radio_events":[5196.000000000029,9181,13805],"key_events":[],"mouse_events":[5196.000000000029,9181,13805,14552],"survey":"map","page":3,"trial_type":"survey-map","trial_index":6,"time_elapsed":267313,"internal_node_id":"0.0-6.0","task_version":"prescreen-v0.3","browser_interactions":0},{"responses":{"Q10":"3","Q11":"0","Q12":"3","Q13":"1","Q16":"0","Q14":"0","Q15":"2"},"rt":55141,"radio_events":[9324.000000000058,12275,19515,24267,26182,30092,42669,44137,45998,49844,53774],"key_events":[],"mouse_events":[9324.000000000058,11880,12275,19515,23890,24267,26182,30092,42278,42669,44137,45998,49844,53774,55128],"survey":"map","page":4,"trial_type":"survey-map","trial_index":7,"time_elapsed":322457,"internal_node_id":"0.0-7.0","task_version":"prescreen-v0.3","browser_interactions":0,"infrequency":0},{"view_history":[{"page_index":0,"viewing_time":90242},{"page_index":1,"viewing_time":31259}],"rt":121502.00000000006,"trial_type":"instructions","trial_index":8,"time_elapsed":443962,"internal_node_id":"0.0-8.0","task_version":"prescreen-v0.3"},{"responses":{"01":"No","02":"Yes","02_ages_13":"13","02_ages_14":"14","02_ages_15":"15","03":"No","04":"No","05":"No","06":"No"},"rt":41329.00000000006,"item_order":[0,1,2,3,4,5],"radio_events":[10739,13866,31404,32808,34371,40031.00000000006],"checkbox_events":[19280,26513,27788.00000000006],"key_events":[],"mouse_events":[0,10739,13866,19280,26513,27788.00000000006,31404,32808,34371,40031.00000000006,41322],"honeypot":0,"survey":"mace","page":1,"trial_type":"survey-mace","trial_index":9,"time_elapsed":485303,"internal_node_id":"0.0-9.0","task_version":"prescreen-v0.3","browser_interactions":0},{"responses":{"01":"No","02":"No","03":"No","04":"No","05":"No","06":"No","07":"No","08":"No"},"rt":18075.99999999994,"item_order":[0,1,2,3,4,5,6,7],"radio_events":[2248.999999999942,5182.999999999942,6818.999999999942,8967.999999999942,10626.999999999942,13392.999999999942,14779.999999999942,17409.99999999994],"checkbox_events":[],"key_events":[],"mouse_events":[2248.999999999942,4549.999999999942,5182.999999999942,6818.999999999942,8967.999999999942,10626.999999999942,13392.999999999942,14779.999999999942,17409.99999999994,18067.99999999994],"honeypot":0,"survey":"mace","page":2,"trial_type":"survey-mace","trial_index":10,"time_elapsed":503384,"internal_node_id":"0.0-10.0","task_version":"prescreen-v0.3","browser_interactions":0},{"responses":{"01":"No","02":"No","03":"No","04":"No"},"rt":9278.000000000058,"item_order":[0,1,2,3],"radio_events":[2633,3949,7027,8527.000000000058],"checkbox_events":[],"key_events":[],"mouse_events":[2633,3949,5961,7027,8527.000000000058,9272.000000000058],"honeypot":0,"survey":"mace","page":3,"trial_type":"survey-mace","trial_index":11,"time_elapsed":512666,"internal_node_id":"0.0-11.0","task_version":"prescreen-v0.3","browser_interactions":0},{"responses":{"01":"No","02":"No"},"rt":27446,"item_order":[0,1],"radio_events":[2428,22544],"checkbox_events":[],"key_events":[],"mouse_events":[2428,22544,27442],"honeypot":0,"survey":"mace","page":4,"trial_type":"survey-mace","trial_index":12,"time_elapsed":540117,"internal_node_id":"0.0-12.0","task_version":"prescreen-v0.3","browser_interactions":0},{"responses":{"01":"No","02":"No","03":"No","04":"No","05":"No"},"rt":17357,"item_order":[0,1,2,3,4],"radio_events":[7976,9796,12033.000000000116,13902,16508],"checkbox_events":[],"key_events":[],"mouse_events":[7976,9796,12033.000000000116,13902,16010,16508,17350],"honeypot":0,"survey":"mace","page":5,"trial_type":"survey-mace","trial_index":13,"time_elapsed":557480,"internal_node_id":"0.0-13.0","task_version":"prescreen-v0.3","browser_interactions":0},{"responses":{"01":"No","02":"Yes","02_ages_14":"14","02_ages_15":"15","02_ages_16":"16","02_ages_17":"17","03":"No","04":"Yes","04_ages_12":"12","04_ages_13":"13","04_ages_14":"14","04_ages_15":"15","04_ages_16":"16","04_ages_17":"17","04_ages_18":"18","05":"No"},"rt":50395,"item_order":[0,1,2,3,4],"radio_events":[16359,19294,34183,36372.00000000012,49706],"checkbox_events":[21394,21884,22926,25227,26662,29805,42192,42866,43531,44061,45528,46009,46915],"key_events":[],"mouse_events":[16359,19294,21394,21884,22926,25227,26662,29805,33660,34183,35915,36372.00000000012,42192,42866,43531,44061,45528,46009,46466,46915,49706,50387],"honeypot":0,"survey":"mace","page":6,"trial_type":"survey-mace","trial_index":14,"time_elapsed":607881,"internal_node_id":"0.0-14.0","task_version":"prescreen-v0.3","browser_interactions":0},{"responses":{"01":"No","02":"No","03":"No","04":"No","05":"No","06":"No","07":"No"},"rt":16212.999999999884,"item_order":[0,1,2,3,4,5,6],"radio_events":[2479.9999999998836,8333.999999999884,9439.999999999884,10745.999999999884,12253.999999999884,13769,15660.999999999884],"checkbox_events":[],"key_events":[],"mouse_events":[2479.9999999998836,8333.999999999884,9439.999999999884,10745.999999999884,12253.999999999884,13769,15091.999999999884,15660.999999999884,16206.999999999884],"honeypot":0,"survey":"mace","page":7,"trial_type":"survey-mace","trial_index":15,"time_elapsed":624100,"internal_node_id":"0.0-15.0","task_version":"prescreen-v0.3","browser_interactions":0},{"responses":{"01":"No","02":"No","03":"Yes","03_ages_6":"6","03_ages_7":"7","03_ages_8":"8","03_ages_9":"9","03_ages_10":"10","03_ages_11":"11","03_ages_12":"12","03_ages_13":"13","03_ages_14":"14","03_ages_15":"15","03_ages_16":"16","03_ages_17":"17","03_ages_18":"18","04":"Yes","04_ages_6":"6","04_ages_7":"7","04_ages_8":"8","04_ages_9":"9","04_ages_10":"10","04_ages_11":"11","04_ages_12":"12","04_ages_13":"13","04_ages_14":"14","04_ages_15":"15","04_ages_16":"16","04_ages_17":"17","04_ages_18":"18"},"rt":50270,"item_order":[0,1,2,3],"radio_events":[7491,9044,10955.000000000116,22966,24361],"checkbox_events":[27865,29510,31529,32211,32988,33589,34134,34647.00000000012,35665,36682,37427,37997,38590,39126,39727,41410,42219,42772.00000000012,43438,44095,44575.00000000012,45185,45730,46644,47149,48384,49017,49563],"key_events":[],"mouse_events":[7491,9044,10955.000000000116,22966,24361,27865,29510,31529,32211,32652.000000000116,32988,33589,34134,34647.00000000012,35288,35665,36305,36682,37427,37997,38590,39126,39727,40961,41410,42219,42772.00000000012,43438,44095,44575.00000000012,45185,45730,46195,46644,47149,47871,48384,49017,49563,50261],"honeypot":0,"survey":"mace","page":8,"trial_type":"survey-mace","trial_index":16,"time_elapsed":674375,"internal_node_id":"0.0-16.0","task_version":"prescreen-v0.3","browser_interactions":0},{"responses":{"01":"Yes","01_ages_1":"1","01_ages_2":"2","01_ages_3":"3","01_ages_4":"4","01_ages_5":"5","01_ages_6":"6","01_ages_7":"7","01_ages_8":"8","01_ages_9":"9","01_ages_10":"10","01_ages_11":"11","01_ages_12":"12","01_ages_13":"13","01_ages_14":"14","01_ages_15":"15","01_ages_16":"16","01_ages_17":"17","01_ages_18":"18","02":"Yes","02_ages_1":"1","02_ages_2":"2","02_ages_3":"3","02_ages_4":"4","02_ages_5":"5","02_ages_6":"6","02_ages_7":"7","02_ages_8":"8","02_ages_9":"9","02_ages_10":"10","02_ages_11":"11","02_ages_12":"12","02_ages_13":"13","02_ages_14":"14","02_ages_15":"15","02_ages_16":"16","02_ages_17":"17","02_ages_18":"18","03":"Yes","03_ages_1":"1","03_ages_2":"2","03_ages_3":"3","03_ages_4":"4","03_ages_5":"5","03_ages_6":"6","03_ages_7":"7","03_ages_8":"8","03_ages_9":"9","03_ages_10":"10","03_ages_11":"11","03_ages_12":"12","03_ages_13":"13","03_ages_14":"14","03_ages_15":"15","03_ages_16":"16","03_ages_17":"17","03_ages_18":"18","04":"Yes","04_ages_1":"1","04_ages_2":"2","04_ages_3":"3","04_ages_4":"4","04_ages_5":"5","04_ages_6":"6","04_ages_7":"7","04_ages_8":"8","04_ages_9":"9","04_ages_10":"10","04_ages_11":"11","04_ages_12":"12","04_ages_13":"13","04_ages_14":"14","04_ages_15":"15","04_ages_16":"16","04_ages_17":"17","04_ages_18":"18"},"rt":61932,"item_order":[0,1,2,3],"radio_events":[2679.0000000001164,22017,36161,49610],"checkbox_events":[7881.000000000116,8947,9468,10118,10712,11273,11946,12419,13004,13452,14229,14767,15832,16378,16950,17855,18465,19354,23019,23741,24390,24903,25793,26411,26980,27526,28165,28808,29506.000000000116,30284,30821,31431,32072,32512,33171,33571,37076,37581,38055,38511,39120,39610,40219,40652,41630,42103,42753,43354,43819,44308,44878,45447,46000,46586,50563,51573.00000000012,51991,52367,52936,53530.00000000012,54179.00000000012,54941,55951,56576,57002,57475,58220,58742,59423,60065,60594,61187],"key_events":[],"mouse_events":[2679.0000000001164,7881.000000000116,8947,9468,10118,10712,11273,11946,12419,13004,13452,14229,14767,15248,15832,16378,16950,17855,18465,19026,19354,22017,23019,23741,24390,24903,25292,25793,26411,26980,27526,28165,28808,29506.000000000116,30284,30821,31431,32072,32512,33171,33571,36161,37076,37581,38055,38511,39120,39610,40219,40652,41293,41630,42103,42753,43354,43819,44308,44878,45447,46000,46586,49610,50563,51573.00000000012,51991,52367,52936,53530.00000000012,54179.00000000012,54941,55390,55951,56576,57002,57475,58220,58742,59423,60065,60594,61187,61925],"honeypot":0,"survey":"mace","page":9,"trial_type":"survey-mace","trial_index":17,"time_elapsed":736313,"internal_node_id":"0.0-17.0","task_version":"prescreen-v0.3","browser_interactions":0},{"responses":{"01":"No","02":"No","03":"No","04":"No","05":"Yes","05_ages_16":"16","05_ages_17":"17","05_ages_18":"18","06":"Yes","06_ages_17":"17","07":"Yes","07_ages_1":"1","07_ages_2":"2","07_ages_3":"3","07_ages_4":"4","07_ages_5":"5","07_ages_6":"6","07_ages_7":"7","07_ages_8":"8","07_ages_9":"9","07_ages_10":"10","07_ages_11":"11","07_ages_12":"12","07_ages_13":"13","07_ages_14":"14","07_ages_15":"15","07_ages_16":"16","07_ages_17":"17","07_ages_18":"18","08":"Yes","08_ages_1":"1","08_ages_2":"2","08_ages_3":"3","08_ages_4":"4","08_ages_5":"5","08_ages_6":"6","08_ages_7":"7","08_ages_8":"8","08_ages_9":"9","08_ages_10":"10","08_ages_11":"11","08_ages_12":"12","08_ages_13":"13","08_ages_14":"14","08_ages_15":"15","08_ages_16":"16","08_ages_17":"17","08_ages_18":"18"},"rt":56433.00000000012,"item_order":[0,1,2,3,4,5,6,7],"radio_events":[2497,4566,8671,10138,15872,21661,25125,43425],"checkbox_events":[17796,18325,22575,27018,27555,28036,28501,29271,29945,30394,30931,31396,32046,32527,33040,33762,34251,34964,35526,36151,36753,38597,45277,45959,46416,46953,47691,48589,49230,49831,50441,50986.00000000012,51732,52349,52822,53464,53961,54555,55163,55701],"key_events":[],"mouse_events":[2497,4566,8086,8671,10138,15872,17796,18325,21661,22575,25125,27018,27555,28036,28501,28910,29271,29945,30394,30931,31396,32046,32527,33040,33762,34251,34964,35526,36151,36753,38597,43425,44956,45277,45959,46416,46953,47395.00000000012,47691,48260.00000000012,48589,49230,49831,50441,50986.00000000012,51732,52349,52822,53464,53961,54555,55163,55701,56423],"honeypot":0,"survey":"mace","page":10,"trial_type":"survey-mace","trial_index":18,"time_elapsed":792752,"internal_node_id":"0.0-18.0","task_version":"prescreen-v0.3","browser_interactions":0,"instructed":0},{"rt":5488.999999999884,"trial_type":"mental-health-alert","trial_index":19,"time_elapsed":798246,"internal_node_id":"0.0-19.0","task_version":"prescreen-v0.3","interactions":"[{\"event\":\"blur\",\"trial\":2,\"time\":42338},{\"event\":\"focus\",\"trial\":2,\"time\":45629},{\"event\":\"focus\",\"trial\":2,\"time\":46353},{\"event\":\"blur\",\"trial\":8,\"time\":408325},{\"event\":\"focus\",\"trial\":8,\"time\":411238}]"}]