[{"view_history":[{"page_index":0,"viewing_time":6147.100000023842},{"page_index":1,"viewing_time":3713.300000011921},{"page_index":2,"viewing_time":3770},{"page_index":3,"viewing_time":1366.699999988079}],"rt":15000.400000035763,"trial_type":"instructions","trial_index":0,"time_elapsed":15050,"internal_node_id":"0.0-0.0","task_version":"prescreen-v0.3"},{"rt":25230.600000023842,"responses":{"age":"46","gender-categorical":"Male","gender-free-response":"","ethnicity":"Not Hispanic or Latino","race":["White"],"education":"Some college","siblings":"3"},"trial_type":"survey-demo","trial_index":1,"time_elapsed":40287,"internal_node_id":"0.0-1.0","task_version":"prescreen-v0.3"},{"responses":{"Q10":"0","Q12":"0","Q03":"2","Q17":"2","Q14":"2","Q11":"1","Q07":"1","Q15":"1","Q19":"1","Q13":"1","Q04":"2","Q21":"3","Q16":"0","Q01":"1","Q02":"0","Q09":"2","Q18":"1","Q06":"1","Q08":"1","Q05":"0","Q20":"0"},"rt":152889.30000001192,"item_order":[9,11,2,16,13,10,6,14,18,12,3,20,15,0,1,8,17,5,7,4,19],"radio_events":[13246,17000.30000001192,24521.80000001192,27907.69999998808,33004.19999998808,36933.89999997616,41689.5,58409.60000002384,65930,75697.10000002384,93299.39999997616,94617.60000002384,98915.10000002384,104172.60000002384,112297.30000001192,117001.69999998808,124053.10000002384,133984.19999998808,138765.30000001192,144374.19999998808,148688.39999997616],"key_events":[],"mouse_events":[13246,17000.30000001192,24521.80000001192,27907.69999998808,33004.19999998808,36933.89999997616,41689.5,58409.60000002384,65930,75697.10000002384,93299.39999997616,94617.60000002384,98915.10000002384,104172.60000002384,112297.30000001192,117001.69999998808,124053.10000002384,133984.19999998808,138765.30000001192,144374.19999998808,148688.39999997616,152885.30000001192],"straightlining":0.42857142857142855,"zigzagging":0.4,"honeypot":0,"survey":"sns","trial_type":"survey-template","trial_index":2,"time_elapsed":193185,"internal_node_id":"0.0-2.0","task_version":"prescreen-v0.3","browser_interactions":0,"infrequency":0},{"responses":{"Q11":"2","Q03":"2","Q10":"2","Q02":"1","Q06":"2","Q04":"2","Q05":"2","Q09":"2","Q01":"2","Q12":"2","Q08":"2","Q13":"0","Q07":"2"},"rt":122502.89999997616,"item_order":[10,2,9,1,5,3,4,8,0,11,7,12,6],"radio_events":[9843.799999952316,17050,19563.19999998808,22914.69999998808,26078.899999976158,36154.59999996424,39626.89999997616,70368.59999996424,73220.19999998808,81932.69999998808,109366.19999998808,113926.59999996424,120968.29999995232],"key_events":[],"mouse_events":[9843.799999952316,17050,19563.19999998808,22914.69999998808,26078.899999976158,30263.19999998808,36154.59999996424,39626.89999997616,70368.59999996424,73220.19999998808,81932.69999998808,109366.19999998808,113926.59999996424,120968.29999995232,122499.19999998808],"straightlining":0.8461538461538461,"zigzagging":0.16666666666666666,"honeypot":0,"survey":"bisbas","trial_type":"survey-template","trial_index":3,"time_elapsed":315693,"internal_node_id":"0.0-3.0","task_version":"prescreen-v0.3","browser_interactions":0,"infrequency":0},{"responses":{"Q01":"2","Q02":"2","Q03":"3"},"rt":25281.69999998808,"radio_events":[8939.400000035763,17400.30000001192,23815.80000001192],"key_events":[],"mouse_events":[8939.400000035763,17400.30000001192,23815.80000001192,25280.69999998808],"survey":"map","page":1,"trial_type":"survey-map","trial_index":4,"time_elapsed":340978,"internal_node_id":"0.0-4.0","task_version":"prescreen-v0.3","browser_interactions":0},{"responses":{"Q04":"2","Q05":"2","Q06":"3"},"rt":27433.099999964237,"radio_events":[12348.099999964237,19816.69999998808,25969.799999952316],"key_events":[],"mouse_events":[12348.099999964237,19816.69999998808,24775.099999964237,25969.799999952316,27430.69999998808],"survey":"map","page":2,"trial_type":"survey-map","trial_index":5,"time_elapsed":368414,"internal_node_id":"0.0-5.0","task_version":"prescreen-v0.3","browser_interactions":0},{"responses":{"Q07":"2","Q08":"2","Q09":"1"},"rt":52359.200000047684,"radio_events":[16010.200000047684,22756.80000001192,49779],"key_events":[],"mouse_events":[16010.200000047684,22756.80000001192,49779,52357.5],"survey":"map","page":3,"trial_type":"survey-map","trial_index":6,"time_elapsed":420777,"internal_node_id":"0.0-6.0","task_version":"prescreen-v0.3","browser_interactions":0},{"responses":{"Q10":"2","Q11":"1","Q12":"3","Q13":"2","Q16":"0","Q14":"1","Q15":"1"},"rt":51984.5,"radio_events":[8337.300000011921,11493.900000035763,16987.69999998808,24027.100000023842,28374.19999998808,38456.10000002384,49616.90000003576],"key_events":[],"mouse_events":[8337.300000011921,11493.900000035763,16987.69999998808,24027.100000023842,28374.19999998808,38456.10000002384,49616.90000003576,51980.69999998808],"survey":"map","page":4,"trial_type":"survey-map","trial_index":7,"time_elapsed":472764,"internal_node_id":"0.0-7.0","task_version":"prescreen-v0.3","browser_interactions":0,"infrequency":0},{"view_history":[{"page_index":0,"viewing_time":4796.5},{"page_index":1,"viewing_time":6846.899999976158}],"rt":11644.099999964237,"trial_type":"instructions","trial_index":8,"time_elapsed":484410,"internal_node_id":"0.0-8.0","task_version":"prescreen-v0.3"},{"responses":{"01":"No","02":"No","03":"No","04":"No","05":"No","06":"No"},"rt":39889.10000002384,"item_order":[0,1,2,3,4,5],"radio_events":[14318.900000035763,20926.80000001192,26300.30000001192,29097.900000035763,31792.700000047684,33949.700000047684,38488],"checkbox_events":[],"key_events":[],"mouse_events":[0.20000004768371582,14318.900000035763,20926.80000001192,26300.30000001192,29097.900000035763,31792.700000047684,33949.700000047684,38488,39883.30000001192],"honeypot":0,"survey":"mace","page":1,"trial_type":"survey-mace","trial_index":9,"time_elapsed":524310,"internal_node_id":"0.0-9.0","task_version":"prescreen-v0.3","browser_interactions":0},{"responses":{"01":"No","02":"No","03":"Yes","03_ages_5":"5","03_ages_6":"6","03_ages_7":"7","04":"Yes","04_ages_5":"5","04_ages_6":"6","05":"No","06":"No","07":"No","08":"No"},"rt":49895.19999998808,"item_order":[0,1,2,3,4,5,6,7],"radio_events":[4047.300000011921,11733.5,16734.69999998808,32265.30000001192,39873.69999998808,43992.19999998808,45301.10000002384,48217.5],"checkbox_events":[26510.399999976158,27767.19999998808,28866.30000001192,34145.39999997616,34444.89999997616],"key_events":[],"mouse_events":[4047.300000011921,11733.5,16734.69999998808,26510.399999976158,27767.19999998808,28866.30000001192,32265.30000001192,34145.39999997616,34444.89999997616,39873.69999998808,42229.19999998808,43992.19999998808,45301.10000002384,48217.5,49889.60000002384],"honeypot":0,"survey":"mace","page":2,"trial_type":"survey-mace","trial_index":10,"time_elapsed":574207,"internal_node_id":"0.0-10.0","task_version":"prescreen-v0.3","browser_interactions":2},{"responses":{"01":"No","02":"No","03":"No","04":"No"},"rt":16542.69999998808,"item_order":[0,1,2,3],"radio_events":[9335,12087.300000011921,14762.199999988079,15916.900000035763],"checkbox_events":[],"key_events":[],"mouse_events":[9335,12087.300000011921,14762.199999988079,15916.900000035763,16537.19999998808],"honeypot":0,"survey":"mace","page":3,"trial_type":"survey-mace","trial_index":11,"time_elapsed":590754,"internal_node_id":"0.0-11.0","task_version":"prescreen-v0.3","browser_interactions":0},{"responses":{"01":"No","02":"No"},"rt":9252.699999988079,"item_order":[0,1],"radio_events":[4489.599999964237,8118.199999988079],"checkbox_events":[],"key_events":[],"mouse_events":[4489.599999964237,8118.199999988079,9249.199999988079],"honeypot":0,"survey":"mace","page":4,"trial_type":"survey-mace","trial_index":12,"time_elapsed":600009,"internal_node_id":"0.0-12.0","task_version":"prescreen-v0.3","browser_interactions":0},{"responses":{"01":"No","02":"No","03":"No","04":"No","05":"No"},"rt":30413.600000023842,"item_order":[0,1,2,3,4],"radio_events":[20162.400000035763,22065.69999998808,23830.400000035763,26400.600000023842,28623.80000001192],"checkbox_events":[],"key_events":[],"mouse_events":[20162.400000035763,22065.69999998808,23830.400000035763,26400.600000023842,28623.80000001192,30407],"honeypot":0,"survey":"mace","page":5,"trial_type":"survey-mace","trial_index":13,"time_elapsed":630428,"internal_node_id":"0.0-13.0","task_version":"prescreen-v0.3","browser_interactions":0},{"responses":{"01":"No","02":"No","03":"No","04":"No","05":"No"},"rt":23116.69999998808,"item_order":[0,1,2,3,4],"radio_events":[10691.300000011921,12075.899999976158,15233.399999976158,17136,22264.19999998808],"checkbox_events":[],"key_events":[],"mouse_events":[10691.300000011921,12075.899999976158,15233.399999976158,17136,22264.19999998808,23110.5],"honeypot":0,"survey":"mace","page":6,"trial_type":"survey-mace","trial_index":14,"time_elapsed":653548,"internal_node_id":"0.0-14.0","task_version":"prescreen-v0.3","browser_interactions":0},{"responses":{"01":"No","02":"No","03":"No","04":"Yes","04_ages_12":"12","04_ages_13":"13","04_ages_14":"14","04_ages_15":"15","05":"No","06":"No","07":"No"},"rt":31954,"item_order":[0,1,2,3,4,5,6],"radio_events":[3081.699999988079,5653.5,7986.899999976158,10730,26698.099999964237,28465.099999964237,30248.599999964237],"checkbox_events":[15639.300000011921,16297,16923.399999976158,20042.30000001192],"key_events":[],"mouse_events":[3081.699999988079,5653.5,7986.899999976158,10730,15639.300000011921,16297,16923.399999976158,20042.30000001192,26698.099999964237,28465.099999964237,30248.599999964237,31948.5],"honeypot":0,"survey":"mace","page":7,"trial_type":"survey-mace","trial_index":15,"time_elapsed":685506,"internal_node_id":"0.0-15.0","task_version":"prescreen-v0.3","browser_interactions":0},{"responses":{"01":"No","02":"No","03":"No","04":"No"},"rt":17426,"item_order":[0,1,2,3],"radio_events":[9276.199999988079,11024.100000023842,14517.5,16904.19999998808],"checkbox_events":[],"key_events":[],"mouse_events":[9276.199999988079,11024.100000023842,14517.5,16904.19999998808,17420.600000023842],"honeypot":0,"survey":"mace","page":8,"trial_type":"survey-mace","trial_index":16,"time_elapsed":702936,"internal_node_id":"0.0-16.0","task_version":"prescreen-v0.3","browser_interactions":0},{"responses":{"01":"Yes","01_ages_1":"1","01_ages_2":"2","01_ages_3":"3","01_ages_4":"4","01_ages_5":"5","01_ages_6":"6","01_ages_7":"7","01_ages_8":"8","01_ages_9":"9","01_ages_10":"10","01_ages_11":"11","01_ages_12":"12","01_ages_13":"13","01_ages_14":"14","01_ages_15":"15","01_ages_16":"16","01_ages_17":"17","01_ages_18":"18","02":"Yes","02_ages_1":"1","02_ages_2":"2","02_ages_3":"3","02_ages_4":"4","02_ages_5":"5","02_ages_6":"6","02_ages_7":"7","02_ages_8":"8","02_ages_9":"9","02_ages_10":"10","02_ages_11":"11","02_ages_12":"12","02_ages_13":"13","02_ages_14":"14","02_ages_15":"15","02_ages_16":"16","02_ages_17":"17","02_ages_18":"18","03":"Yes","03_ages_1":"1","03_ages_2":"2","03_ages_3":"3","03_ages_4":"4","03_ages_5":"5","03_ages_6":"6","03_ages_7":"7","03_ages_8":"8","03_ages_9":"9","03_ages_10":"10","03_ages_11":"11","03_ages_12":"12","03_ages_13":"13","03_ages_14":"14","03_ages_15":"15","03_ages_16":"16","03_ages_17":"17","03_ages_18":"18","04":"Yes","04_ages_1":"1","04_ages_2":"2","04_ages_3":"3","04_ages_4":"4","04_ages_5":"5","04_ages_6":"6","04_ages_7":"7","04_ages_8":"8","04_ages_9":"9","04_ages_10":"10","04_ages_11":"11","04_ages_12":"12","04_ages_13":"13","04_ages_14":"14","04_ages_15":"15","04_ages_16":"16","04_ages_17":"17","04_ages_18":"18"},"rt":131126.90000003576,"item_order":[0,1,2,3],"radio_events":[9327.300000011921,36435.60000002384,62480.30000001192,77857.60000002384],"checkbox_events":[13488.300000011921,13984.900000035763,15331.100000023842,15936.800000011921,16508.100000023842,17014.5,18022,18555.600000023842,19477.200000047684,19917.200000047684,20337.600000023842,21453.30000001192,26796.80000001192,27403.80000001192,27893.5,28368.700000047684,28966.100000023842,30193.30000001192,41155.60000002384,41797.5,42333.30000001192,42820.5,43338.60000002384,43825.10000002384,44302.40000003576,44826.40000003576,45320.40000003576,47566.40000003576,48210.30000001192,48983,50638.10000002384,51371.80000001192,52015.30000001192,52739.40000003576,53647.40000003576,54653.60000002384,64459.80000001192,64980.40000003576,65448.700000047684,66162.80000001192,66656,67139.10000002384,68024.40000003576,68371.90000003576,69029.30000001192,69613.5,70094.70000004768,70561.70000004768,71113.30000001192,72075.40000003576,73216.5,74028.90000003576,75008,75653.5,80433.5,80879.10000002384,81426.70000004768,83605.80000001192,85315.60000002384,86447.70000004768,87220.30000001192,88360,89452.10000002384,90201.60000002384,90861.10000002384,91594.60000002384,92676.10000002384,93107.40000003576,93705.40000003576,94364.80000001192,95655,96510.20000004768],"key_events":[],"mouse_events":[9327.300000011921,13488.300000011921,13984.900000035763,14352,15331.100000023842,15936.800000011921,16508.100000023842,17014.5,18022,18555.600000023842,19477.200000047684,19917.200000047684,20337.600000023842,20794.600000023842,21453.30000001192,26796.80000001192,27403.80000001192,27893.5,28368.700000047684,28966.100000023842,30193.30000001192,36435.60000002384,39610.10000002384,41155.60000002384,41797.5,42333.30000001192,42820.5,43338.60000002384,43825.10000002384,44302.40000003576,44826.40000003576,45320.40000003576,46197.30000001192,47566.40000003576,48210.30000001192,48983,49774.80000001192,50638.10000002384,51371.80000001192,52015.30000001192,52739.40000003576,53647.40000003576,54653.60000002384,62480.30000001192,64459.80000001192,64980.40000003576,65448.700000047684,66162.80000001192,66656,67139.10000002384,68024.40000003576,68371.90000003576,69029.30000001192,69613.5,70094.70000004768,70561.70000004768,71113.30000001192,72075.40000003576,72578.80000001192,73216.5,74028.90000003576,74563.5,75008,75653.5,77857.60000002384,80433.5,80879.10000002384,81426.70000004768,81944.80000001192,83097.5,83605.80000001192,84299.40000003576,85315.60000002384,86447.70000004768,87220.30000001192,88360,89452.10000002384,90201.60000002384,90861.10000002384,91594.60000002384,92676.10000002384,93107.40000003576,93705.40000003576,94364.80000001192,95423.5,95655,96510.20000004768,122556.20000004768,131122.30000001192],"honeypot":0,"survey":"mace","page":9,"trial_type":"survey-mace","trial_index":17,"time_elapsed":834065,"internal_node_id":"0.0-17.0","task_version":"prescreen-v0.3","browser_interactions":0},{"responses":{"01":"No","02":"No","03":"No","04":"No","05":"No","06":"Yes","06_ages_17":"17","07":"No","08":"No"},"rt":30409.400000035763,"item_order":[0,1,2,3,4,5,6,7],"radio_events":[9353.800000011921,10396.100000023842,12384.600000023842,13326.300000011921,16135.300000011921,18305.400000035763,26926.700000047684,28628.600000023842],"checkbox_events":[20207],"key_events":[],"mouse_events":[9353.800000011921,10396.100000023842,12384.600000023842,13326.300000011921,16135.300000011921,18305.400000035763,20207,26926.700000047684,28628.600000023842,30403.30000001192],"honeypot":0,"survey":"mace","page":10,"trial_type":"survey-mace","trial_index":18,"time_elapsed":864480,"internal_node_id":"0.0-18.0","task_version":"prescreen-v0.3","browser_interactions":2,"instructed":0},{"rt":9667.400000035763,"trial_type":"mental-health-alert","trial_index":19,"time_elapsed":874150,"internal_node_id":"0.0-19.0","task_version":"prescreen-v0.3","interactions":"[{\"event\":\"blur\",\"trial\":10,\"time\":546638},{\"event\":\"focus\",\"trial\":10,\"time\":550778},{\"event\":\"blur\",\"trial\":18,\"time\":836175},{\"event\":\"focus\",\"trial\":18,\"time\":843342}]"}]