[{"view_history":[{"page_index":0,"viewing_time":5618.9000000059605},{"page_index":1,"viewing_time":4454.0999999940395},{"page_index":2,"viewing_time":3767.9000000059605},{"page_index":3,"viewing_time":1192}],"rt":15034.5,"trial_type":"instructions","trial_index":0,"time_elapsed":15051,"internal_node_id":"0.0-0.0","task_version":"prescreen-v0.3"},{"rt":23226.90000000596,"responses":{"age":"24","gender-categorical":"Female","gender-free-response":"","ethnicity":"Not Hispanic or Latino","race":["Asian"],"education":"High school"},"trial_type":"survey-demo","trial_index":1,"time_elapsed":38297,"internal_node_id":"0.0-1.0","task_version":"prescreen-v0.3"},{"responses":{"Q05":"3","Q09":"2","Q02":"0","Q07":"0","Q06":"1","Q10":"2","Q18":"1","Q19":"1","Q13":"2","Q03":"0","Q11":"1","Q08":"2","Q17":"1","Q04":"2","Q12":"2","Q14":"2","Q01":"1","Q21":"3","Q16":"2","Q15":"2","Q20":"0"},"rt":145236.3999999985,"item_order":[4,8,1,6,5,9,17,18,12,2,10,7,16,3,11,13,0,20,15,14,19],"radio_events":[12240.89999999851,18248.29999999702,23953.29999999702,32081.79999999702,40202.79999999702,41165.79999999702,48563.69999999553,69144.79999999702,77726.69999999553,82594.09999999404,85102.29999999702,89291.69999999553,98742.19999999553,102964.09999999404,108149.5,113306.79999999702,119154.89999999851,121719.09999999404,126356.09999999404,131674.8999999985,138283,141991.5,142886.8999999985],"key_events":[],"mouse_events":[12240.89999999851,18248.29999999702,23953.29999999702,32081.79999999702,40202.79999999702,41165.79999999702,48563.69999999553,69144.79999999702,77726.69999999553,82594.09999999404,85102.29999999702,89291.69999999553,97694.69999999553,98742.19999999553,102964.09999999404,108149.5,113306.79999999702,119154.89999999851,121719.09999999404,126356.09999999404,131674.8999999985,138283,141991.5,142886.8999999985,145231.09999999404],"straightlining":0.42857142857142855,"zigzagging":0.55,"honeypot":0,"survey":"sns","trial_type":"survey-template","trial_index":2,"time_elapsed":183545,"internal_node_id":"0.0-2.0","task_version":"prescreen-v0.3","browser_interactions":0,"infrequency":0},{"responses":{"Q01":"3","Q11":"2","Q07":"3","Q05":"3","Q13":"0","Q03":"2","Q04":"3","Q06":"3","Q12":"2","Q09":"2","Q02":"3","Q10":"2","Q08":"3"},"rt":53704.10000000149,"item_order":[0,10,6,4,12,2,3,5,11,8,1,9,7],"radio_events":[3525.6999999955297,9269.69999999553,12432.79999999702,14925.5,18028.29999999702,21078.79999999702,22551.79999999702,27091,30743.39999999851,33725.79999999702,38995.69999999553,41584.39999999851,45248.79999999702,49218,53014.89999999851],"key_events":[],"mouse_events":[3525.6999999955297,9269.69999999553,12432.79999999702,14925.5,18028.29999999702,21078.79999999702,22551.79999999702,27091,30743.39999999851,33725.79999999702,38995.69999999553,41584.39999999851,45248.79999999702,49218,53014.89999999851,53701.29999999702],"straightlining":0.5384615384615384,"zigzagging":0.6666666666666666,"honeypot":0,"survey":"bisbas","trial_type":"survey-template","trial_index":3,"time_elapsed":237258,"internal_node_id":"0.0-3.0","task_version":"prescreen-v0.3","browser_interactions":0,"infrequency":0},{"responses":{"Q01":"2","Q02":"2","Q03":"2"},"rt":21425.10000000149,"radio_events":[9294,15032.89999999851,20749.10000000149],"key_events":[],"mouse_events":[9294,15032.89999999851,20749.10000000149,21423.60000000149],"survey":"map","page":1,"trial_type":"survey-map","trial_index":4,"time_elapsed":258693,"internal_node_id":"0.0-4.0","task_version":"prescreen-v0.3","browser_interactions":0},{"responses":{"Q04":"2","Q05":"2","Q06":"2"},"rt":18203.59999999404,"radio_events":[5247.89999999851,10919.79999999702,15299.19999999553],"key_events":[],"mouse_events":[5247.89999999851,10919.79999999702,15299.19999999553,18201.5],"survey":"map","page":2,"trial_type":"survey-map","trial_index":5,"time_elapsed":276905,"internal_node_id":"0.0-5.0","task_version":"prescreen-v0.3","browser_interactions":0},{"responses":{"Q07":"3","Q08":"0","Q09":"2"},"rt":19493,"radio_events":[7032.30000000447,14831.70000000298,18440],"key_events":[],"mouse_events":[7032.30000000447,14831.70000000298,18440,19491.5],"survey":"map","page":3,"trial_type":"survey-map","trial_index":6,"time_elapsed":296406,"internal_node_id":"0.0-6.0","task_version":"prescreen-v0.3","browser_interactions":0},{"responses":{"Q10":"3","Q11":"2","Q12":"1","Q13":"1","Q16":"0","Q14":"2","Q15":"2"},"rt":44577.40000000596,"radio_events":[5010.10000000149,10380.60000000149,19160,25951,28829.40000000596,34826.80000000447,39452.70000000298,43302.10000000149],"key_events":[],"mouse_events":[5010.10000000149,10380.60000000149,19160,25951,28829.40000000596,34826.80000000447,39452.70000000298,43302.10000000149,44574.60000000149],"survey":"map","page":4,"trial_type":"survey-map","trial_index":7,"time_elapsed":340994,"internal_node_id":"0.0-7.0","task_version":"prescreen-v0.3","browser_interactions":0,"infrequency":0},{"view_history":[{"page_index":0,"viewing_time":3293.89999999851},{"page_index":1,"viewing_time":5733.30000000447}],"rt":9028.10000000149,"trial_type":"instructions","trial_index":8,"time_elapsed":350031,"internal_node_id":"0.0-8.0","task_version":"prescreen-v0.3"},{"responses":{"01":"No","02":"No","03":"No","04":"No","05":"No","06":"No"},"rt":26456.89999999851,"item_order":[0,1,2,3,4,5],"radio_events":[11544.5,16138.60000000149,19454.80000000447,23047,23705.30000000447,25683.70000000298],"checkbox_events":[],"key_events":[],"mouse_events":[0.3999999985098839,11544.5,16138.60000000149,19454.80000000447,21237.10000000149,23047,23705.30000000447,25683.70000000298,26447.10000000149],"honeypot":0,"survey":"mace","page":1,"trial_type":"survey-mace","trial_index":9,"time_elapsed":376502,"internal_node_id":"0.0-9.0","task_version":"prescreen-v0.3","browser_interactions":0},{"responses":{"01":"No","02":"No","03":"Yes","03_ages_7":"7","03_ages_8":"8","04":"No","05":"Yes","05_ages_7":"7","05_ages_8":"8","06":"No","07":"No","08":"No"},"rt":49901.59999999404,"item_order":[0,1,2,3,4,5,6,7],"radio_events":[3715.2999999970198,5020,6525.29999999702,7504.69999999553,11313.89999999851,29249.09999999404,42360.89999999851,44230.69999999553,45454.39999999851],"checkbox_events":[16284.69999999553,21217.59999999404,30244.5,31657.39999999851,34077.89999999851,34687.59999999404,35225.19999999553,35963.5,36401,36986.89999999851,39217.79999999702,39892.19999999553],"key_events":[],"mouse_events":[3715.2999999970198,5020,6525.29999999702,7504.69999999553,11313.89999999851,16284.69999999553,21217.59999999404,29249.09999999404,30244.5,31657.39999999851,34077.89999999851,34687.59999999404,35225.19999999553,35963.5,36401,36986.89999999851,39217.79999999702,39892.19999999553,42360.89999999851,44230.69999999553,45454.39999999851,49896.79999999702],"honeypot":0,"survey":"mace","page":2,"trial_type":"survey-mace","trial_index":10,"time_elapsed":426416,"internal_node_id":"0.0-10.0","task_version":"prescreen-v0.3","browser_interactions":0},{"responses":{"01":"No","02":"No","03":"No","04":"No"},"rt":8021.0999999940395,"item_order":[0,1,2,3],"radio_events":[3933.6999999955297,4937.0999999940395,6358.19999999553,7144.89999999851],"checkbox_events":[],"key_events":[],"mouse_events":[3933.6999999955297,4937.0999999940395,6358.19999999553,7144.89999999851,8016.19999999553],"honeypot":0,"survey":"mace","page":3,"trial_type":"survey-mace","trial_index":11,"time_elapsed":434445,"internal_node_id":"0.0-11.0","task_version":"prescreen-v0.3","browser_interactions":0},{"responses":{"01":"No","02":"No"},"rt":5039.60000000149,"item_order":[0,1],"radio_events":[3073.7999999970198,4378.60000000149],"checkbox_events":[],"key_events":[],"mouse_events":[3073.7999999970198,4378.60000000149,5037],"honeypot":0,"survey":"mace","page":4,"trial_type":"survey-mace","trial_index":12,"time_elapsed":439495,"internal_node_id":"0.0-12.0","task_version":"prescreen-v0.3","browser_interactions":0},{"responses":{"01":"No","02":"No","03":"No","04":"No","05":"No"},"rt":19078.5,"item_order":[0,1,2,3,4],"radio_events":[8097.20000000298,10055.39999999851,12613,16474.5,17618.5],"checkbox_events":[],"key_events":[],"mouse_events":[8097.20000000298,10055.39999999851,12613,16474.5,17618.5,19072.10000000149],"honeypot":0,"survey":"mace","page":5,"trial_type":"survey-mace","trial_index":13,"time_elapsed":458588,"internal_node_id":"0.0-13.0","task_version":"prescreen-v0.3","browser_interactions":0},{"responses":{"01":"Yes","01_ages_14":"14","01_ages_18":"18","02":"Yes","02_ages_13":"13","02_ages_14":"14","02_ages_15":"15","02_ages_16":"16","02_ages_17":"17","02_ages_18":"18","03":"No","04":"No","05":"No"},"rt":51609.5,"item_order":[0,1,2,3,4],"radio_events":[2012.7999999970198,11787.59999999404,28642.69999999553,45188.59999999404,48010.29999999702,50896.09999999404],"checkbox_events":[14991.09999999404,19308.59999999404,22532.19999999553,23190.79999999702,34237.79999999702,34695.69999999553,35136.89999999851,35562.39999999851,36553.79999999702,37003.09999999404],"key_events":[],"mouse_events":[2012.7999999970198,11787.59999999404,14991.09999999404,19308.59999999404,22532.19999999553,23190.79999999702,28642.69999999553,34237.79999999702,34695.69999999553,35136.89999999851,35562.39999999851,36015.69999999553,36553.79999999702,37003.09999999404,45188.59999999404,48010.29999999702,50896.09999999404,51603.09999999404],"honeypot":0,"survey":"mace","page":6,"trial_type":"survey-mace","trial_index":14,"time_elapsed":510208,"internal_node_id":"0.0-14.0","task_version":"prescreen-v0.3","browser_interactions":0},{"responses":{"01":"No","02":"No","03":"No","04":"No","05":"No","06":"No","07":"No"},"rt":11499.60000000149,"item_order":[0,1,2,3,4,5,6],"radio_events":[4400.39999999851,5500.29999999702,6873.39999999851,7913.20000000298,8660.10000000149,10145.39999999851,10948.5],"checkbox_events":[],"key_events":[],"mouse_events":[4400.39999999851,5500.29999999702,6873.39999999851,7913.20000000298,8660.10000000149,10145.39999999851,10948.5,11490.79999999702],"honeypot":0,"survey":"mace","page":7,"trial_type":"survey-mace","trial_index":15,"time_elapsed":521721,"internal_node_id":"0.0-15.0","task_version":"prescreen-v0.3","browser_interactions":0},{"responses":{"01":"Yes","01_ages_7":"7","02":"Yes","02_ages_7":"7","03":"Yes","03_ages_10":"10","03_ages_11":"11","03_ages_12":"12","03_ages_13":"13","03_ages_14":"14","03_ages_15":"15","03_ages_16":"16","03_ages_17":"17","03_ages_18":"18","04":"No"},"rt":36875.20000000298,"item_order":[0,1,2,3],"radio_events":[9959.29999999702,16980.89999999851,23648.20000000298,36079.89999999851],"checkbox_events":[11524.5,18666.60000000149,26470.20000000298,26935.89999999851,27907.29999999702,28433.20000000298,29211.89999999851,29846,30785.20000000298,31227,32134.10000000149],"key_events":[],"mouse_events":[9959.29999999702,11524.5,16980.89999999851,18666.60000000149,23648.20000000298,26470.20000000298,26935.89999999851,27473.60000000149,27907.29999999702,28433.20000000298,29211.89999999851,29846,30311.70000000298,30785.20000000298,31227,31708.60000000149,32134.10000000149,36079.89999999851,36870.60000000149],"honeypot":0,"survey":"mace","page":8,"trial_type":"survey-mace","trial_index":16,"time_elapsed":558608,"internal_node_id":"0.0-16.0","task_version":"prescreen-v0.3","browser_interactions":0},{"responses":{"01":"Yes","01_ages_1":"1","01_ages_2":"2","01_ages_3":"3","01_ages_4":"4","01_ages_5":"5","01_ages_6":"6","01_ages_7":"7","01_ages_8":"8","01_ages_9":"9","01_ages_10":"10","01_ages_11":"11","01_ages_12":"12","01_ages_13":"13","01_ages_14":"14","01_ages_15":"15","01_ages_16":"16","01_ages_17":"17","01_ages_18":"18","02":"Yes","02_ages_1":"1","02_ages_2":"2","02_ages_3":"3","02_ages_4":"4","02_ages_5":"5","02_ages_6":"6","02_ages_7":"7","02_ages_8":"8","02_ages_9":"9","02_ages_10":"10","02_ages_11":"11","02_ages_12":"12","02_ages_13":"13","02_ages_14":"14","02_ages_15":"15","02_ages_16":"16","02_ages_17":"17","02_ages_18":"18","03":"Yes","03_ages_1":"1","03_ages_2":"2","03_ages_3":"3","03_ages_4":"4","03_ages_5":"5","03_ages_6":"6","03_ages_7":"7","03_ages_8":"8","03_ages_9":"9","03_ages_10":"10","03_ages_11":"11","03_ages_12":"12","03_ages_13":"13","03_ages_14":"14","03_ages_15":"15","03_ages_16":"16","03_ages_17":"17","03_ages_18":"18","04":"Yes","04_ages_1":"1","04_ages_2":"2","04_ages_3":"3","04_ages_4":"4","04_ages_5":"5","04_ages_6":"6","04_ages_7":"7","04_ages_8":"8","04_ages_9":"9","04_ages_10":"10","04_ages_11":"11","04_ages_12":"12","04_ages_13":"13","04_ages_14":"14","04_ages_15":"15","04_ages_16":"16","04_ages_17":"17","04_ages_18":"18"},"rt":68346.69999999553,"item_order":[0,1,2,3],"radio_events":[2848.1999999955297,16248,31325.59999999404,48691.69999999553],"checkbox_events":[4538.39999999851,5027.69999999553,5621.5,6055.19999999553,6488.5,6922.19999999553,7355.5,7801.0999999940395,8226.89999999851,9214.69999999553,9776.59999999404,10491.19999999553,11205.89999999851,11832,12366.09999999404,12847.89999999851,13297.59999999404,13747.29999999702,17589.59999999404,18264.09999999404,18826.29999999702,19364.39999999851,19974.59999999404,20500.69999999553,21600.79999999702,22235.39999999851,22789.29999999702,23319.59999999404,23921.59999999404,24945.59999999404,25580.09999999404,26085.89999999851,26623.89999999851,27153.79999999702,27716.09999999404,28230,32297.39999999851,32779,34541.79999999702,35063.89999999851,35577.79999999702,36493.39999999851,36943,38666.19999999553,39525.19999999553,40392.89999999851,40962.59999999404,41476.79999999702,41974.39999999851,42488.5,42962.39999999851,43436.29999999702,43925.69999999553,44544.39999999851,51024.69999999553,51538.5,52068.29999999702,52518.09999999404,52959.69999999553,53426.19999999553,54253.5,54790.69999999553,56791.29999999702,57207.59999999404,57649.39999999851,58798.69999999553,59247.59999999404,60572.29999999702,61007.09999999404,61455.59999999404,61937.39999999851,62435.29999999702,62901.09999999404,63439.09999999404,63953,64394.79999999702,64852.19999999553,65374.19999999553,65840.09999999404,66297.79999999702,66803.79999999702,67285.79999999702],"key_events":[],"mouse_events":[2848.1999999955297,4538.39999999851,5027.69999999553,5621.5,6055.19999999553,6488.5,6922.19999999553,7355.5,7801.0999999940395,8226.89999999851,8676.39999999851,9214.69999999553,9776.59999999404,10491.19999999553,11205.89999999851,11832,12366.09999999404,12847.89999999851,13297.59999999404,13747.29999999702,16248,17589.59999999404,18264.09999999404,18826.29999999702,19364.39999999851,19974.59999999404,20500.69999999553,20998.39999999851,21600.79999999702,22235.39999999851,22789.29999999702,23319.59999999404,23921.59999999404,24531.89999999851,24945.59999999404,25580.09999999404,26085.89999999851,26623.89999999851,27153.79999999702,27716.09999999404,28230,31325.59999999404,32297.39999999851,32779,33265,34541.79999999702,35063.89999999851,35577.79999999702,36091.79999999702,36493.39999999851,36943,37429,37862.5,38666.19999999553,39525.19999999553,40392.89999999851,40962.59999999404,41476.79999999702,41974.39999999851,42488.5,42962.39999999851,43436.29999999702,43925.69999999553,44544.39999999851,48691.69999999553,51024.69999999553,51538.5,52068.29999999702,52518.09999999404,52959.69999999553,53426.19999999553,54253.5,54790.69999999553,55304.59999999404,56244.89999999851,56791.29999999702,57207.59999999404,57649.39999999851,58798.69999999553,59247.59999999404,60572.29999999702,61007.09999999404,61455.59999999404,61937.39999999851,62435.29999999702,62901.09999999404,63439.09999999404,63953,64394.79999999702,64852.19999999553,65374.19999999553,65840.09999999404,66297.79999999702,66803.79999999702,67285.79999999702,68342],"honeypot":0,"survey":"mace","page":9,"trial_type":"survey-mace","trial_index":17,"time_elapsed":626965,"internal_node_id":"0.0-17.0","task_version":"prescreen-v0.3","browser_interactions":0},{"responses":{"01":"No","02":"No","03":"No","04":"Yes","04_ages_9":"9","04_ages_10":"10","04_ages_11":"11","04_ages_12":"12","04_ages_13":"13","04_ages_14":"14","04_ages_15":"15","04_ages_16":"16","04_ages_17":"17","04_ages_18":"18","05":"No","06":"Yes","06_ages_17":"17","07":"Yes","07_ages_1":"1","07_ages_2":"2","07_ages_3":"3","07_ages_4":"4","07_ages_5":"5","07_ages_6":"6","07_ages_7":"7","07_ages_8":"8","07_ages_9":"9","07_ages_10":"10","07_ages_11":"11","07_ages_12":"12","07_ages_13":"13","07_ages_14":"14","07_ages_15":"15","07_ages_16":"16","07_ages_17":"17","07_ages_18":"18","08":"Yes","08_ages_9":"9","08_ages_10":"10","08_ages_11":"11","08_ages_12":"12","08_ages_13":"13","08_ages_14":"14","08_ages_15":"15","08_ages_16":"16","08_ages_17":"17","08_ages_18":"18"},"rt":54473.39999999851,"item_order":[0,1,2,3,4,5,6,7],"radio_events":[3098.39999999851,4213.10000000149,8097,10822.70000000298,22430.79999999702,25245.29999999702,33605,46450],"checkbox_events":[14011.29999999702,14477.10000000149,15015.39999999851,15457.29999999702,15954.89999999851,16428.39999999851,16926.20000000298,17432.29999999702,17858.10000000149,18299.60000000149,27309.39999999851,35251.89999999851,35668.70000000298,36921.79999999702,37379.20000000298,37852.89999999851,38294.79999999702,38816.79999999702,39282.60000000149,39756.39999999851,40221.89999999851,40712.20000000298,41177.89999999851,41643.70000000298,42085.20000000298,42567.5,43041,43514.70000000298,43980.70000000298,49589.5,50103.39999999851,50585.10000000149,51115.20000000298,51533.5,52022.70000000298,52512.20000000298,52978.10000000149,53507.89999999851,53941.29999999702],"key_events":[],"mouse_events":[2295.39999999851,3098.39999999851,4213.10000000149,8097,10822.70000000298,14011.29999999702,14477.10000000149,15015.39999999851,15457.29999999702,15954.89999999851,16428.39999999851,16926.20000000298,17432.29999999702,17858.10000000149,18299.60000000149,22430.79999999702,25245.29999999702,27309.39999999851,33605,35251.89999999851,35668.70000000298,36231.10000000149,36921.79999999702,37379.20000000298,37852.89999999851,38294.79999999702,38816.79999999702,39282.60000000149,39756.39999999851,40221.89999999851,40712.20000000298,41177.89999999851,41643.70000000298,42085.20000000298,42567.5,43041,43514.70000000298,43980.70000000298,46450,49589.5,50103.39999999851,50585.10000000149,51115.20000000298,51533.5,52022.70000000298,52512.20000000298,52978.10000000149,53507.89999999851,53941.29999999702,54463.79999999702],"honeypot":0,"survey":"mace","page":10,"trial_type":"survey-mace","trial_index":18,"time_elapsed":681510,"internal_node_id":"0.0-18.0","task_version":"prescreen-v0.3","browser_interactions":0,"instructed":0},{"rt":7302.70000000298,"trial_type":"mental-health-alert","trial_index":19,"time_elapsed":688819,"internal_node_id":"0.0-19.0","task_version":"prescreen-v0.3","interactions":"[]"}]