[{"view_history":[{"page_index":0,"viewing_time":3863.300000011921},{"page_index":1,"viewing_time":8698.599999964237},{"page_index":2,"viewing_time":3226.600000023842},{"page_index":3,"viewing_time":1540}],"rt":17330.19999998808,"trial_type":"instructions","trial_index":0,"time_elapsed":17345,"internal_node_id":"0.0-0.0","task_version":"prescreen-v0.3"},{"rt":16919.69999998808,"responses":{"age":"22","gender-categorical":"Female","gender-free-response":"","ethnicity":"Not Hispanic or Latino","race":["White"],"education":"Some college"},"trial_type":"survey-demo","trial_index":1,"time_elapsed":34274,"internal_node_id":"0.0-1.0","task_version":"prescreen-v0.3"},{"responses":{"Q13":"2","Q19":"1","Q04":"2","Q11":"3","Q17":"2","Q09":"2","Q01":"1","Q06":"0","Q02":"1","Q08":"1","Q16":"2","Q07":"0","Q20":"2","Q05":"0","Q18":"1","Q12":"0","Q15":"2","Q10":"1","Q21":"2","Q14":"2","Q03":"1"},"rt":108114.79999995232,"item_order":[12,18,3,10,16,8,0,5,1,7,15,6,19,4,17,11,14,9,20,13,2],"radio_events":[15693.5,22235.69999998808,25888.5,29068.799999952316,30603.299999952316,32857.799999952316,34999.799999952316,41403.09999996424,48530.59999996424,52436.69999998808,57992.09999996424,61497.19999998808,65620.09999996424,71061.19999998808,77136.09999996424,89686.59999996424,96096.09999996424,98785.79999995232,101554.79999995232,104481.79999995232,106974.89999997616],"key_events":[],"mouse_events":[15693.5,22235.69999998808,25888.5,29068.799999952316,30603.299999952316,32857.799999952316,34999.799999952316,41403.09999996424,48530.59999996424,52436.69999998808,57992.09999996424,61497.19999998808,65620.09999996424,71061.19999998808,77136.09999996424,89686.59999996424,96096.09999996424,98785.79999995232,101554.79999995232,104481.79999995232,106974.89999997616,108113],"straightlining":0.42857142857142855,"zigzagging":0.65,"honeypot":0,"survey":"sns","trial_type":"survey-template","trial_index":2,"time_elapsed":142406,"internal_node_id":"0.0-2.0","task_version":"prescreen-v0.3","browser_interactions":0,"infrequency":0.5},{"responses":{"Q05":"2","Q11":"2","Q12":"1","Q10":"1","Q01":"3","Q04":"3","Q13":"0","Q06":"3","Q09":"1","Q02":"2","Q07":"2","Q03":"3","Q08":"2"},"rt":81261.19999998808,"item_order":[4,10,11,9,0,3,12,5,8,1,6,2,7],"radio_events":[12968.699999988079,21781.69999998808,28801.5,33669,36783.30000001192,39805,42471.39999997616,52088.89999997616,53708.60000002384,57201.60000002384,59425.39999997616,61064.60000002384,67814.30000001192,76772.80000001192],"key_events":[],"mouse_events":[12968.699999988079,21781.69999998808,28801.5,33669,35150.39999997616,36783.30000001192,39805,42471.39999997616,52088.89999997616,53708.60000002384,57201.60000002384,59425.39999997616,61064.60000002384,67814.30000001192,76772.80000001192,80252.30000001192,81259.19999998808],"straightlining":0.38461538461538464,"zigzagging":0.5,"honeypot":0,"survey":"bisbas","trial_type":"survey-template","trial_index":3,"time_elapsed":223674,"internal_node_id":"0.0-3.0","task_version":"prescreen-v0.3","browser_interactions":2,"infrequency":0},{"responses":{"Q01":"3","Q02":"2","Q03":"2"},"rt":20459.900000035763,"radio_events":[9319.5,13686.100000023842,14970.199999988079,19462.30000001192],"key_events":[],"mouse_events":[9319.5,13686.100000023842,14970.199999988079,19462.30000001192,20458.600000023842],"survey":"map","page":1,"trial_type":"survey-map","trial_index":4,"time_elapsed":244143,"internal_node_id":"0.0-4.0","task_version":"prescreen-v0.3","browser_interactions":0},{"responses":{"Q04":"3","Q05":"4","Q06":"3"},"rt":40164,"radio_events":[12604.400000035763,16214,18647.69999998808,39253.30000001192],"key_events":[],"mouse_events":[12604.400000035763,16214,18647.69999998808,39253.30000001192,40163],"survey":"map","page":2,"trial_type":"survey-map","trial_index":5,"time_elapsed":284317,"internal_node_id":"0.0-5.0","task_version":"prescreen-v0.3","browser_interactions":0},{"responses":{"Q07":"4","Q08":"4","Q09":"3"},"rt":25342.399999976158,"radio_events":[4660.899999976158,14912.899999976158,24512.19999998808],"key_events":[],"mouse_events":[4660.899999976158,14912.899999976158,24512.19999998808,25341.19999998808],"survey":"map","page":3,"trial_type":"survey-map","trial_index":6,"time_elapsed":309669,"internal_node_id":"0.0-6.0","task_version":"prescreen-v0.3","browser_interactions":0},{"responses":{"Q10":"2","Q11":"1","Q12":"1","Q13":"2","Q16":"0","Q14":"3","Q15":"2"},"rt":52768.90000003576,"radio_events":[5238.400000035763,8409.5,12021.600000023842,14176.5,19457.400000035763,43870.30000001192,51720],"key_events":[],"mouse_events":[5238.400000035763,8409.5,12021.600000023842,14176.5,19457.400000035763,43870.30000001192,51720,52766.5],"survey":"map","page":4,"trial_type":"survey-map","trial_index":7,"time_elapsed":362449,"internal_node_id":"0.0-7.0","task_version":"prescreen-v0.3","browser_interactions":0,"infrequency":0},{"view_history":[{"page_index":0,"viewing_time":2379.599999964237},{"page_index":1,"viewing_time":13695.300000011921}],"rt":16076.399999976158,"trial_type":"instructions","trial_index":8,"time_elapsed":378534,"internal_node_id":"0.0-8.0","task_version":"prescreen-v0.3"},{"responses":{"01":"No","02":"No","03":"No","04":"No","05":"No","06":"No"},"rt":23621.19999998808,"item_order":[0,1,2,3,4,5],"radio_events":[10221.699999988079,14723.5,15689.699999988079,17564,19861.899999976158,22427.30000001192],"checkbox_events":[],"key_events":[],"mouse_events":[0.19999998807907104,10221.699999988079,14723.5,15689.699999988079,17564,19861.899999976158,22427.30000001192,23616.5],"honeypot":0,"survey":"mace","page":1,"trial_type":"survey-mace","trial_index":9,"time_elapsed":402167,"internal_node_id":"0.0-9.0","task_version":"prescreen-v0.3","browser_interactions":0},{"responses":{"01":"No","02":"No","03":"Yes","03_ages_2":"2","03_ages_3":"3","03_ages_4":"4","03_ages_5":"5","04":"No","05":"No","06":"No","07":"No","08":"No"},"rt":29754.099999964237,"item_order":[0,1,2,3,4,5,6,7],"radio_events":[3056.099999964237,6562.799999952316,8185.599999964237,22694.5,24128.19999998808,25765.299999952316,26753.19999998808,28908.799999952316],"checkbox_events":[14326.399999976158,15728.799999952316,17186.19999998808,17953.19999998808],"key_events":[],"mouse_events":[3056.099999964237,6562.799999952316,8185.599999964237,14326.399999976158,15728.799999952316,17186.19999998808,17953.19999998808,22694.5,24128.19999998808,25765.299999952316,26753.19999998808,28059.799999952316,28908.799999952316,29746.5],"honeypot":0,"survey":"mace","page":2,"trial_type":"survey-mace","trial_index":10,"time_elapsed":431930,"internal_node_id":"0.0-10.0","task_version":"prescreen-v0.3","browser_interactions":0},{"responses":{"01":"No","02":"No","03":"No","04":"No"},"rt":10728.300000011921,"item_order":[0,1,2,3],"radio_events":[6407,7547.400000035763,8780.600000023842,9845.600000023842],"checkbox_events":[],"key_events":[],"mouse_events":[6407,7547.400000035763,8780.600000023842,9845.600000023842,10726.800000011921],"honeypot":0,"survey":"mace","page":3,"trial_type":"survey-mace","trial_index":11,"time_elapsed":442667,"internal_node_id":"0.0-11.0","task_version":"prescreen-v0.3","browser_interactions":0},{"responses":{"01":"No","02":"No"},"rt":5103.100000023842,"item_order":[0,1],"radio_events":[2427,4305],"checkbox_events":[],"key_events":[],"mouse_events":[2427,4305,5100.600000023842],"honeypot":0,"survey":"mace","page":4,"trial_type":"survey-mace","trial_index":12,"time_elapsed":447775,"internal_node_id":"0.0-12.0","task_version":"prescreen-v0.3","browser_interactions":0},{"responses":{"01":"No","02":"No","03":"No","04":"No","05":"No"},"rt":27236.69999998808,"item_order":[0,1,2,3,4],"radio_events":[12183.900000035763,15410.900000035763,20262.100000023842,24487.400000035763,26363.80000001192],"checkbox_events":[],"key_events":[],"mouse_events":[12183.900000035763,15410.900000035763,20262.100000023842,24487.400000035763,25554.69999998808,26363.80000001192,27232],"honeypot":0,"survey":"mace","page":5,"trial_type":"survey-mace","trial_index":13,"time_elapsed":475025,"internal_node_id":"0.0-13.0","task_version":"prescreen-v0.3","browser_interactions":0},{"responses":{"01":"Yes","01_ages_9":"9","01_ages_10":"10","01_ages_11":"11","01_ages_12":"12","01_ages_13":"13","02":"Yes","02_ages_10":"10","02_ages_11":"11","02_ages_12":"12","02_ages_13":"13","02_ages_14":"14","03":"Yes","03_ages_13":"13","03_ages_14":"14","03_ages_15":"15","03_ages_16":"16","03_ages_17":"17","03_ages_18":"18","04":"Yes","04_ages_14":"14","04_ages_15":"15","04_ages_16":"16","04_ages_17":"17","04_ages_18":"18","05":"No"},"rt":63281.19999998808,"item_order":[0,1,2,3,4],"radio_events":[6730,25200.5,42134.89999997616,53549.19999998808,62469.69999998808],"checkbox_events":[11945.399999976158,15900.799999952316,16671.899999976158,17528.5,21336.399999976158,26508.69999998808,27303.69999998808,28651.899999976158,29471,30371.19999998808,33111.09999996424,37555.89999997616,43375.5,44484,45183.89999997616,46003.5,47886.59999996424,49685.19999998808,56673.299999952316,57359.5,58066.69999998808,58755.69999998808,59482.19999998808],"key_events":[],"mouse_events":[6730,11945.399999976158,15900.799999952316,16671.899999976158,17528.5,21336.399999976158,25200.5,26508.69999998808,27303.69999998808,28651.899999976158,29471,30371.19999998808,33111.09999996424,37555.89999997616,41094.59999996424,42134.89999997616,43375.5,44484,45183.89999997616,46003.5,47009.19999998808,47886.59999996424,49685.19999998808,52269,53549.19999998808,56673.299999952316,57359.5,58066.69999998808,58755.69999998808,59482.19999998808,62469.69999998808,63275.39999997616],"honeypot":0,"survey":"mace","page":6,"trial_type":"survey-mace","trial_index":14,"time_elapsed":538318,"internal_node_id":"0.0-14.0","task_version":"prescreen-v0.3","browser_interactions":0},{"responses":{"01":"No","02":"No","03":"No","04":"No","05":"No","06":"No","07":"No"},"rt":11997.300000011921,"item_order":[0,1,2,3,4,5,6],"radio_events":[3594.199999988079,5325.600000023842,6607.699999988079,8224.300000011921,9236.699999988079,10366.899999976158,11225.100000023842],"checkbox_events":[],"key_events":[],"mouse_events":[3594.199999988079,5325.600000023842,6607.699999988079,8224.300000011921,9236.699999988079,10366.899999976158,11225.100000023842,11989.899999976158],"honeypot":0,"survey":"mace","page":7,"trial_type":"survey-mace","trial_index":15,"time_elapsed":550328,"internal_node_id":"0.0-15.0","task_version":"prescreen-v0.3","browser_interactions":0},{"responses":{"01":"No","02":"No","03":"No","04":"No"},"rt":18536.80000001192,"item_order":[0,1,2,3],"radio_events":[7476.400000035763,10877.300000011921,16573.200000047684,17761.30000001192],"checkbox_events":[],"key_events":[],"mouse_events":[7476.400000035763,10877.300000011921,16573.200000047684,17761.30000001192,18532.30000001192],"honeypot":0,"survey":"mace","page":8,"trial_type":"survey-mace","trial_index":16,"time_elapsed":568877,"internal_node_id":"0.0-16.0","task_version":"prescreen-v0.3","browser_interactions":0},{"responses":{"01":"Yes","01_ages_1":"1","01_ages_2":"2","01_ages_3":"3","01_ages_4":"4","01_ages_5":"5","01_ages_6":"6","01_ages_7":"7","01_ages_8":"8","01_ages_9":"9","01_ages_10":"10","01_ages_11":"11","01_ages_12":"12","01_ages_13":"13","01_ages_14":"14","01_ages_15":"15","01_ages_16":"16","01_ages_17":"17","01_ages_18":"18","02":"Yes","02_ages_4":"4","02_ages_5":"5","02_ages_6":"6","02_ages_7":"7","02_ages_8":"8","02_ages_9":"9","02_ages_10":"10","02_ages_11":"11","02_ages_12":"12","02_ages_13":"13","02_ages_14":"14","02_ages_15":"15","02_ages_16":"16","02_ages_17":"17","02_ages_18":"18","03":"Yes","03_ages_1":"1","03_ages_2":"2","03_ages_3":"3","03_ages_4":"4","03_ages_5":"5","03_ages_6":"6","03_ages_7":"7","03_ages_8":"8","03_ages_9":"9","03_ages_10":"10","03_ages_11":"11","03_ages_12":"12","03_ages_13":"13","03_ages_14":"14","03_ages_15":"15","03_ages_16":"16","03_ages_17":"17","03_ages_18":"18","04":"Yes","04_ages_1":"1","04_ages_2":"2","04_ages_3":"3","04_ages_4":"4","04_ages_5":"5","04_ages_6":"6","04_ages_7":"7","04_ages_8":"8","04_ages_9":"9","04_ages_10":"10","04_ages_11":"11","04_ages_12":"12","04_ages_13":"13","04_ages_14":"14","04_ages_15":"15","04_ages_16":"16","04_ages_17":"17","04_ages_18":"18"},"rt":81203.69999998808,"item_order":[0,1,2,3],"radio_events":[4915,20932,47448.10000002384,63416.80000001192],"checkbox_events":[6935.699999988079,7326.399999976158,7788.300000011921,8232.899999976158,8696.300000011921,9221,9813.300000011921,10790.5,11398,12359.699999988079,13020.199999988079,13462.300000011921,14031.399999976158,14853,15363.199999988079,15827.399999976158,16386.100000023842,16972.80000001192,22508.399999976158,23011.399999976158,24064.30000001192,26153,27518.80000001192,28881.100000023842,29442.19999998808,30294.399999976158,30896.19999998808,31408.30000001192,31847.899999976158,32344.899999976158,33110.89999997616,34549.69999998808,35112.30000001192,35865.39999997616,37248.60000002384,37844.5,38363,38956.10000002384,39520.10000002384,40099.5,48740.30000001192,49244,49737.89999997616,50201.89999997616,50743.60000002384,52274.89999997616,52872.19999998808,53896.69999998808,54459.30000001192,55234,56059.80000001192,56742.69999998808,57623.80000001192,58252.30000001192,58947,59540,60219.19999998808,60828.30000001192,65665.80000001192,66363.39999997616,66902.39999997616,67401,67964.39999997616,68542.69999998808,69019.5,70330.89999997616,71032.69999998808,72511.69999998808,73289.60000002384,73793.30000001192,74203.39999997616,74779.80000001192,75338.69999998808,76056.5,76583.30000001192,77079.10000002384,77555.89999997616,78086.39999997616,79433.60000002384],"key_events":[],"mouse_events":[4915,6935.699999988079,7326.399999976158,7788.300000011921,8232.899999976158,8696.300000011921,9221,9813.300000011921,10261.800000011921,10790.5,11398,12359.699999988079,13020.199999988079,13462.300000011921,14031.399999976158,14853,15363.199999988079,15827.399999976158,16386.100000023842,16972.80000001192,20932,22508.399999976158,23011.399999976158,23541.5,24064.30000001192,24656.899999976158,26153,27518.80000001192,28881.100000023842,29442.19999998808,30294.399999976158,30896.19999998808,31408.30000001192,31847.899999976158,32344.899999976158,33110.89999997616,33572.60000002384,34549.69999998808,35112.30000001192,35865.39999997616,37248.60000002384,37844.5,38363,38956.10000002384,39520.10000002384,40099.5,42475.89999997616,43392.69999998808,46450.5,47448.10000002384,48740.30000001192,49244,49737.89999997616,50201.89999997616,50743.60000002384,51298.60000002384,52274.89999997616,52872.19999998808,53366.80000001192,53896.69999998808,54459.30000001192,55234,56059.80000001192,56742.69999998808,57623.80000001192,58252.30000001192,58947,59540,60219.19999998808,60828.30000001192,63416.80000001192,65665.80000001192,66363.39999997616,66902.39999997616,67401,67964.39999997616,68542.69999998808,69019.5,70330.89999997616,71032.69999998808,72511.69999998808,73289.60000002384,73793.30000001192,74203.39999997616,74779.80000001192,75338.69999998808,76056.5,76583.30000001192,77079.10000002384,77555.89999997616,78086.39999997616,79433.60000002384,81199.39999997616],"honeypot":0,"survey":"mace","page":9,"trial_type":"survey-mace","trial_index":17,"time_elapsed":650093,"internal_node_id":"0.0-17.0","task_version":"prescreen-v0.3","browser_interactions":0},{"responses":{"01":"No","02":"No","03":"No","04":"Yes","04_ages_7":"7","04_ages_8":"8","04_ages_9":"9","04_ages_10":"10","04_ages_11":"11","04_ages_12":"12","04_ages_13":"13","05":"No","06":"Yes","06_ages_17":"17","07":"Yes","07_ages_1":"1","07_ages_2":"2","07_ages_3":"3","07_ages_4":"4","07_ages_5":"5","07_ages_6":"6","07_ages_7":"7","07_ages_8":"8","07_ages_9":"9","07_ages_10":"10","07_ages_11":"11","07_ages_12":"12","07_ages_13":"13","07_ages_14":"14","07_ages_15":"15","07_ages_16":"16","07_ages_17":"17","07_ages_18":"18","08":"Yes","08_ages_1":"1","08_ages_2":"2","08_ages_3":"3","08_ages_4":"4","08_ages_5":"5","08_ages_6":"6","08_ages_7":"7","08_ages_8":"8","08_ages_9":"9","08_ages_10":"10","08_ages_11":"11","08_ages_12":"12","08_ages_13":"13","08_ages_14":"14","08_ages_15":"15","08_ages_16":"16","08_ages_17":"17","08_ages_18":"18"},"rt":75685.30000001192,"item_order":[0,1,2,3,4,5,6,7],"radio_events":[8823.399999976158,9662.399999976158,16878.899999976158,32359.899999976158,36029.10000002384,37788.30000001192,44116.39999997616,62217.10000002384],"checkbox_events":[19472.30000001192,20409.899999976158,21270.80000001192,22161.69999998808,22847.399999976158,23647.69999998808,24667.899999976158,26774.100000023842,27782.19999998808,39378.80000001192,46988.5,47592.89999997616,48574.80000001192,49283.89999997616,49813.10000002384,50396.30000001192,51083.89999997616,51683.89999997616,52710.69999998808,53527.10000002384,54081.5,54624,55149.80000001192,55694.39999997616,56508.30000001192,57343.89999997616,58321.5,59240.89999997616,63396.80000001192,63895.80000001192,64463.39999997616,64989.60000002384,65483,65996.89999997616,66579.60000002384,67580.10000002384,68078.19999998808,68630.30000001192,69178.89999997616,69772.39999997616,70755.80000001192,71328.5,71940.5,72576.60000002384,73182.30000001192,73721.39999997616],"key_events":[],"mouse_events":[8823.399999976158,9662.399999976158,16878.899999976158,19472.30000001192,20409.899999976158,21270.80000001192,22161.69999998808,22847.399999976158,23647.69999998808,24667.899999976158,26774.100000023842,27782.19999998808,32359.899999976158,36029.10000002384,37788.30000001192,39378.80000001192,42681.60000002384,44116.39999997616,45346.60000002384,46988.5,47592.89999997616,48574.80000001192,49283.89999997616,49813.10000002384,50396.30000001192,51083.89999997616,51683.89999997616,52710.69999998808,53527.10000002384,54081.5,54624,55149.80000001192,55694.39999997616,56508.30000001192,57343.89999997616,58321.5,58820.10000002384,59240.89999997616,62217.10000002384,63396.80000001192,63895.80000001192,64463.39999997616,64989.60000002384,65483,65996.89999997616,66579.60000002384,67580.10000002384,68078.19999998808,68630.30000001192,69178.89999997616,69772.39999997616,70755.80000001192,71328.5,71940.5,72576.60000002384,73182.30000001192,73721.39999997616,75678.89999997616],"honeypot":0,"survey":"mace","page":10,"trial_type":"survey-mace","trial_index":18,"time_elapsed":725795,"internal_node_id":"0.0-18.0","task_version":"prescreen-v0.3","browser_interactions":0,"instructed":0},{"rt":6930.699999988079,"trial_type":"mental-health-alert","trial_index":19,"time_elapsed":732734,"internal_node_id":"0.0-19.0","task_version":"prescreen-v0.3","interactions":"[{\"event\":\"blur\",\"trial\":3,\"time\":221611},{\"event\":\"focus\",\"trial\":3,\"time\":221931}]"}]