[{"view_history":[{"page_index":0,"viewing_time":15084.399999976158},{"page_index":1,"viewing_time":1298.3999999761581},{"page_index":2,"viewing_time":3778.2000000476837},{"page_index":3,"viewing_time":1269.0999999046326}],"rt":21431,"trial_type":"instructions","trial_index":0,"time_elapsed":21484,"internal_node_id":"0.0-0.0","task_version":"prescreen-v0.3"},{"rt":14760.700000047684,"responses":{"age":"37","gender-categorical":"Female","gender-free-response":"","ethnicity":"Not Hispanic or Latino","race":["White"],"education":"Master degree or higher"},"trial_type":"survey-demo","trial_index":1,"time_elapsed":36258,"internal_node_id":"0.0-1.0","task_version":"prescreen-v0.3"},{"responses":{"Q10":"0","Q17":"0","Q12":"1","Q21":"3","Q07":"1","Q04":"0","Q16":"0","Q19":"0","Q15":"1","Q06":"1","Q03":"0","Q05":"1","Q14":"0","Q01":"1","Q11":"1","Q02":"1","Q20":"1","Q18":"1","Q08":"1","Q09":"1","Q13":"1"},"rt":120443.80000007153,"item_order":[9,16,11,20,6,3,15,18,14,5,2,4,13,0,10,1,19,17,7,8,12],"radio_events":[7619.800000071526,11783.800000071526,16624.5,20093.899999976158,22861.300000071526,31196.200000047684,38496.300000071526,46700.800000071526,47524.200000047684,56207.89999997616,62727.10000002384,64226.200000047684,67473.70000004768,69389,79110.80000007153,87249.30000007153,94785.10000002384,95648.39999997616,98328,99518.5,105327.20000004768,106915.39999997616,111005.39999997616,113249.10000002384,117529.5,119287.70000004768],"key_events":[],"mouse_events":[6519.200000047684,7619.800000071526,10663.399999976158,11783.800000071526,15561.700000047684,16624.5,20093.899999976158,22861.300000071526,31196.200000047684,38496.300000071526,42484.300000071526,43307.39999997616,46700.800000071526,47524.200000047684,56207.89999997616,61565.89999997616,62727.10000002384,64226.200000047684,67473.70000004768,69389,78356.30000007153,79110.80000007153,87249.30000007153,92869.5,93971.80000007153,94785.10000002384,95648.39999997616,98328,99518.5,105327.20000004768,106915.39999997616,110251,111005.39999997616,113249.10000002384,117529.5,119287.70000004768,120441.10000002384],"straightlining":0.6190476190476191,"zigzagging":0.35,"honeypot":0,"survey":"sns","trial_type":"survey-template","trial_index":2,"time_elapsed":156719,"internal_node_id":"0.0-2.0","task_version":"prescreen-v0.3","browser_interactions":0,"infrequency":0},{"responses":{"Q09":"2","Q10":"3","Q08":"3","Q03":"2","Q04":"3","Q12":"2","Q13":"0","Q06":"3","Q02":"2","Q07":"3","Q11":"3","Q01":"2","Q05":"3"},"rt":618099.1000000238,"item_order":[8,9,7,2,3,11,12,5,1,6,10,0,4],"radio_events":[8651.5,12068.299999952316,18969.899999976158,22801.600000023842,26166.899999976158,28161.899999976158,31736.200000047684,34894.5,41457.89999997616,43195.5,48557.60000002384,611867.5,614241.7000000477,617381],"key_events":[],"mouse_events":[8651.5,12068.299999952316,18969.899999976158,22801.600000023842,26166.899999976158,28161.899999976158,31736.200000047684,34894.5,40504,41457.89999997616,43195.5,48557.60000002384,611867.5,613287.7000000477,614241.7000000477,616546.5,617381,618097.7000000477],"straightlining":0.5384615384615384,"zigzagging":0.75,"honeypot":0,"survey":"bisbas","trial_type":"survey-template","trial_index":3,"time_elapsed":772277,"internal_node_id":"0.0-3.0","task_version":"prescreen-v0.3","browser_interactions":0,"infrequency":0},{"responses":{"Q01":"3","Q02":"3","Q03":"3"},"rt":20784.5,"radio_events":[8224.099999904633,14001.799999952316,19620.199999928474],"key_events":[],"mouse_events":[6672.799999952316,8224.099999904633,14001.799999952316,19620.199999928474,20783.5],"survey":"map","page":1,"trial_type":"survey-map","trial_index":4,"time_elapsed":793067,"internal_node_id":"0.0-4.0","task_version":"prescreen-v0.3","browser_interactions":0},{"responses":{"Q04":"3","Q05":"4","Q06":"3"},"rt":14870.899999976158,"radio_events":[5021.700000047684,10225,14092.100000023842],"key_events":[],"mouse_events":[5021.700000047684,9458.200000047684,10225,14092.100000023842,14869.799999952316],"survey":"map","page":2,"trial_type":"survey-map","trial_index":5,"time_elapsed":807948,"internal_node_id":"0.0-5.0","task_version":"prescreen-v0.3","browser_interactions":0},{"responses":{"Q07":"4","Q08":"2","Q09":"3"},"rt":16932.199999928474,"radio_events":[5512.699999928474,9670.199999928474,12990.399999976158,16014.699999928474],"key_events":[],"mouse_events":[5512.699999928474,9670.199999928474,12145.699999928474,12990.399999976158,16014.699999928474,16931.299999952316],"survey":"map","page":3,"trial_type":"survey-map","trial_index":6,"time_elapsed":824883,"internal_node_id":"0.0-6.0","task_version":"prescreen-v0.3","browser_interactions":0},{"responses":{"Q10":"3","Q11":"3","Q12":"2","Q13":"2","Q16":"0","Q14":"4","Q15":"3"},"rt":36347.09999990463,"radio_events":[7029.399999976158,10592.899999976158,16800.399999976158,21827.199999928474,26953.299999952316,31866.699999928474,35331.59999990463],"key_events":[],"mouse_events":[7029.399999976158,10592.899999976158,16800.399999976158,21827.199999928474,26953.299999952316,31866.699999928474,35331.59999990463,36345.299999952316],"survey":"map","page":4,"trial_type":"survey-map","trial_index":7,"time_elapsed":861234,"internal_node_id":"0.0-7.0","task_version":"prescreen-v0.3","browser_interactions":0,"infrequency":0},{"view_history":[{"page_index":0,"viewing_time":2146.100000023842},{"page_index":1,"viewing_time":3779.8000000715256}],"rt":5926.5,"trial_type":"instructions","trial_index":8,"time_elapsed":867164,"internal_node_id":"0.0-8.0","task_version":"prescreen-v0.3"},{"responses":{"01":"No","02":"No","03":"No","04":"No","05":"No","06":"No"},"rt":21743,"item_order":[0,1,2,3,4,5],"radio_events":[8949.5,13246.599999904633,16920.599999904633,17934.199999928474,19329,21039.5],"checkbox_events":[],"key_events":[],"mouse_events":[0.09999990463256836,8949.5,13246.599999904633,16920.599999904633,17934.199999928474,19329,20363.199999928474,21039.5,21738],"honeypot":0,"survey":"mace","page":1,"trial_type":"survey-mace","trial_index":9,"time_elapsed":888923,"internal_node_id":"0.0-9.0","task_version":"prescreen-v0.3","browser_interactions":0},{"responses":{"01":"No","02":"No","03":"No","04":"No","05":"No","06":"No","07":"No","08":"No"},"rt":19420.200000047684,"item_order":[0,1,2,3,4,5,6,7],"radio_events":[1875.2000000476837,3437.8000000715256,8744,10128,12158.100000023842,13869.899999976158,16767.200000047684,18290.100000023842],"checkbox_events":[],"key_events":[],"mouse_events":[1875.2000000476837,3437.8000000715256,8744,10128,12158.100000023842,13869.899999976158,15850.700000047684,16767.200000047684,18290.100000023842,19414.700000047684],"honeypot":0,"survey":"mace","page":2,"trial_type":"survey-mace","trial_index":10,"time_elapsed":908349,"internal_node_id":"0.0-10.0","task_version":"prescreen-v0.3","browser_interactions":0},{"responses":{"01":"No","02":"No","03":"No","04":"No"},"rt":6952.899999976158,"item_order":[0,1,2,3],"radio_events":[2348.6999999284744,3404,4817.699999928474,6221.399999976158],"checkbox_events":[],"key_events":[],"mouse_events":[2348.6999999284744,3404,4817.699999928474,6221.399999976158,6948.299999952316],"honeypot":0,"survey":"mace","page":3,"trial_type":"survey-mace","trial_index":11,"time_elapsed":915306,"internal_node_id":"0.0-11.0","task_version":"prescreen-v0.3","browser_interactions":0},{"responses":{"01":"No","02":"No"},"rt":5131.300000071526,"item_order":[0,1],"radio_events":[1725.3999999761581,3995.8000000715256],"checkbox_events":[],"key_events":[],"mouse_events":[1725.3999999761581,3995.8000000715256,4692.399999976158,5130.200000047684],"honeypot":0,"survey":"mace","page":4,"trial_type":"survey-mace","trial_index":12,"time_elapsed":920440,"internal_node_id":"0.0-12.0","task_version":"prescreen-v0.3","browser_interactions":0},{"responses":{"01":"No","02":"No","03":"No","04":"No","05":"No"},"rt":12058.599999904633,"item_order":[0,1,2,3,4],"radio_events":[5052.5,7053.399999976158,8587.899999976158,10062.799999952316,11375.299999952316],"checkbox_events":[],"key_events":[],"mouse_events":[5052.5,7053.399999976158,8587.899999976158,10062.799999952316,11375.299999952316,12054.5],"honeypot":0,"survey":"mace","page":5,"trial_type":"survey-mace","trial_index":13,"time_elapsed":932503,"internal_node_id":"0.0-13.0","task_version":"prescreen-v0.3","browser_interactions":0},{"responses":{"01":"No","02":"Yes","02_ages_13":"13","02_ages_14":"14","02_ages_15":"15","02_ages_16":"16","02_ages_17":"17","03":"No","04":"No","05":"No"},"rt":33402.199999928474,"item_order":[0,1,2,3,4],"radio_events":[3695.2999999523163,13825.100000023842,28015.100000023842,30657.100000023842,32581.199999928474],"checkbox_events":[19950.399999976158,20740.899999976158,21437.199999928474,22982.600000023842,23810],"key_events":[],"mouse_events":[3695.2999999523163,13825.100000023842,19950.399999976158,20740.899999976158,21437.199999928474,22982.600000023842,23810,28015.100000023842,30657.100000023842,31843.399999976158,32581.199999928474,33399],"honeypot":0,"survey":"mace","page":6,"trial_type":"survey-mace","trial_index":14,"time_elapsed":965909,"internal_node_id":"0.0-14.0","task_version":"prescreen-v0.3","browser_interactions":0},{"responses":{"01":"No","02":"No","03":"No","04":"No","05":"No","06":"No","07":"No"},"rt":15985.200000047684,"item_order":[0,1,2,3,4,5,6],"radio_events":[3473.100000023842,5832.800000071526,7049.899999976158,9471,10758.100000023842,12271.899999976158,14044.899999976158],"checkbox_events":[],"key_events":[],"mouse_events":[3473.100000023842,5832.800000071526,7049.899999976158,8334.100000023842,9471,10758.100000023842,12271.899999976158,14044.899999976158,15978.800000071526],"honeypot":0,"survey":"mace","page":7,"trial_type":"survey-mace","trial_index":15,"time_elapsed":981901,"internal_node_id":"0.0-15.0","task_version":"prescreen-v0.3","browser_interactions":0},{"responses":{"01":"Yes","01_ages_1":"1","01_ages_2":"2","01_ages_11":"11","01_ages_12":"12","01_ages_13":"13","01_ages_14":"14","01_ages_15":"15","01_ages_16":"16","01_ages_17":"17","02":"Yes","02_ages_4":"4","02_ages_5":"5","02_ages_12":"12","02_ages_13":"13","02_ages_14":"14","02_ages_15":"15","02_ages_16":"16","02_ages_17":"17","03":"No","04":"No"},"rt":108219.79999995232,"item_order":[0,1,2,3],"radio_events":[32504.099999904633,59688,81280,103888.19999992847,106679.5],"checkbox_events":[37179.09999990463,46659.299999952316,49570.799999952316,50170.39999997616,52032.39999997616,52740.299999952316,53409.39999997616,54276,55331.09999990463,61183.5,61862.39999997616,62532.09999990463,63208.199999928474,63778,64416.699999928474,65603.29999995232,70048.39999997616,73479.39999997616,74078.89999997616],"key_events":[],"mouse_events":[32504.099999904633,37179.09999990463,46659.299999952316,49570.799999952316,50170.39999997616,52032.39999997616,52740.299999952316,53409.39999997616,54276,54862.799999952316,55331.09999990463,59688,61183.5,61862.39999997616,62532.09999990463,63208.199999928474,63778,64416.699999928474,65603.29999995232,70048.39999997616,73479.39999997616,74078.89999997616,81280,102831.69999992847,103888.19999992847,106679.5,108217],"honeypot":0,"survey":"mace","page":8,"trial_type":"survey-mace","trial_index":16,"time_elapsed":1090125,"internal_node_id":"0.0-16.0","task_version":"prescreen-v0.3","browser_interactions":0},{"responses":{"01":"Yes","01_ages_1":"1","01_ages_2":"2","01_ages_3":"3","01_ages_4":"4","01_ages_5":"5","01_ages_6":"6","01_ages_7":"7","01_ages_8":"8","01_ages_9":"9","01_ages_10":"10","01_ages_11":"11","01_ages_12":"12","01_ages_13":"13","01_ages_14":"14","01_ages_15":"15","01_ages_16":"16","01_ages_17":"17","01_ages_18":"18","02":"Yes","02_ages_6":"6","02_ages_7":"7","02_ages_8":"8","02_ages_9":"9","02_ages_10":"10","02_ages_11":"11","03":"Yes","03_ages_1":"1","03_ages_2":"2","03_ages_3":"3","03_ages_4":"4","03_ages_5":"5","03_ages_6":"6","03_ages_7":"7","03_ages_8":"8","03_ages_9":"9","03_ages_10":"10","03_ages_11":"11","03_ages_12":"12","03_ages_13":"13","03_ages_14":"14","03_ages_15":"15","03_ages_16":"16","03_ages_17":"17","03_ages_18":"18","04":"Yes","04_ages_1":"1","04_ages_2":"2","04_ages_3":"3","04_ages_4":"4","04_ages_5":"5","04_ages_6":"6","04_ages_7":"7","04_ages_8":"8","04_ages_9":"9","04_ages_10":"10","04_ages_11":"11","04_ages_12":"12","04_ages_13":"13","04_ages_14":"14","04_ages_15":"15","04_ages_16":"16","04_ages_17":"17","04_ages_18":"18"},"rt":75644.10000002384,"item_order":[0,1,2,3],"radio_events":[2741.899999976158,25237.200000047684,44821.89999997616,61791.60000002384],"checkbox_events":[5315.700000047684,5823.200000047684,6463.399999976158,7231.399999976158,7797.800000071526,8387.5,9005.200000047684,9615.5,10094.600000023842,10951.200000047684,11618.100000023842,12317.100000023842,13555.200000047684,14054,14600.5,15450.100000023842,16178.899999976158,16825.800000071526,33331,34576.89999997616,35666.200000047684,36344.800000071526,37063.300000071526,37951.800000071526,38829.10000002384,39446.10000002384,46737.200000047684,47175.89999997616,47624.39999997616,48152.89999997616,48692.300000071526,49110.200000047684,49549.39999997616,50656.800000071526,51415.5,52203.39999997616,52941.39999997616,53410,54028.300000071526,54627.89999997616,55145.60000002384,56323.39999997616,56861.89999997616,57570.300000071526,62889.39999997616,63378.700000047684,63977.89999997616,64536.60000002384,65015.60000002384,65514.60000002384,67250.70000004768,67899.30000007153,68437.89999997616,68986.60000002384,69675.10000002384,70163.80000007153,70693,71311.39999997616,72598.89999997616,73127.5,73856,74474.10000002384],"key_events":[],"mouse_events":[2741.899999976158,5315.700000047684,5823.200000047684,6463.399999976158,7231.399999976158,7797.800000071526,8387.5,9005.200000047684,9615.5,10094.600000023842,10951.200000047684,11618.100000023842,12317.100000023842,13104.200000047684,13555.200000047684,14054,14600.5,15450.100000023842,16178.899999976158,16825.800000071526,23760.899999976158,25237.200000047684,33331,34576.89999997616,35666.200000047684,36344.800000071526,37063.300000071526,37951.800000071526,38829.10000002384,39446.10000002384,44821.89999997616,46737.200000047684,47175.89999997616,47624.39999997616,48152.89999997616,48692.300000071526,49110.200000047684,49549.39999997616,50137.89999997616,50656.800000071526,51415.5,52203.39999997616,52941.39999997616,53410,54028.300000071526,54627.89999997616,55145.60000002384,55864,56323.39999997616,56861.89999997616,57570.300000071526,61791.60000002384,62889.39999997616,63378.700000047684,63977.89999997616,64536.60000002384,65015.60000002384,65514.60000002384,66472.60000002384,67250.70000004768,67899.30000007153,68437.89999997616,68986.60000002384,69675.10000002384,70163.80000007153,70693,71311.39999997616,72040.30000007153,72598.89999997616,73127.5,73856,74474.10000002384,75641.89999997616],"honeypot":0,"survey":"mace","page":9,"trial_type":"survey-mace","trial_index":17,"time_elapsed":1165774,"internal_node_id":"0.0-17.0","task_version":"prescreen-v0.3","browser_interactions":0},{"responses":{"01":"No","02":"No","03":"Yes","03_ages_14":"14","03_ages_15":"15","03_ages_16":"16","03_ages_17":"17","03_ages_18":"18","04":"No","05":"Yes","05_ages_11":"11","05_ages_12":"12","05_ages_13":"13","05_ages_14":"14","05_ages_15":"15","05_ages_16":"16","05_ages_17":"17","06":"Yes","06_ages_17":"17","07":"Yes","07_ages_1":"1","07_ages_2":"2","07_ages_3":"3","07_ages_4":"4","07_ages_5":"5","07_ages_6":"6","07_ages_7":"7","07_ages_8":"8","07_ages_9":"9","07_ages_10":"10","07_ages_11":"11","07_ages_12":"12","07_ages_13":"13","07_ages_14":"14","07_ages_15":"15","07_ages_16":"16","07_ages_17":"17","07_ages_18":"18","08":"Yes","08_ages_3":"3","08_ages_4":"4","08_ages_5":"5","08_ages_6":"6","08_ages_7":"7","08_ages_8":"8","08_ages_9":"9","08_ages_10":"10","08_ages_11":"11","08_ages_17":"17","08_ages_18":"18"},"rt":76483.39999997616,"item_order":[0,1,2,3,4,5,6,7],"radio_events":[5650,6567.399999976158,9021.199999928474,21028.299999952316,25775.100000023842,36508.199999928474,41266.699999928474,61495.89999997616],"checkbox_events":[12373.199999928474,12842,13370.799999952316,13889.199999928474,14448.399999976158,29496.399999976158,30164.600000023842,30882.899999976158,31431.899999976158,32468.600000023842,33506,34154.5,38373.799999952316,43332.299999952316,44140,44769,45307.60000002384,45796.39999997616,46355.39999997616,46964.199999928474,47522.39999997616,48101.199999928474,48788.89999997616,50025.60000002384,50903.60000002384,51531.89999997616,52349.299999952316,53096.799999952316,54551.799999952316,54990.89999997616,55909,62921.799999952316,63500.5,68076,68664.5,69302,69850.39999997616,70549.10000002384,71117.89999997616,71746.60000002384,72544.69999992847,74123.10000002384],"key_events":[],"mouse_events":[5650,6567.399999976158,9021.199999928474,12373.199999928474,12842,13370.799999952316,13889.199999928474,14448.399999976158,21028.299999952316,25775.100000023842,29496.399999976158,30164.600000023842,30882.899999976158,31431.899999976158,32030.199999928474,32468.600000023842,32957.39999997616,33506,34154.5,36508.199999928474,38373.799999952316,41266.699999928474,43332.299999952316,44140,44769,45307.60000002384,45796.39999997616,46355.39999997616,46964.199999928474,47522.39999997616,48101.199999928474,48788.89999997616,49418.10000002384,50025.60000002384,50494.39999997616,50903.60000002384,51531.89999997616,52349.299999952316,53096.799999952316,53894.39999997616,54551.799999952316,54990.89999997616,55909,58084.10000002384,61495.89999997616,62921.799999952316,63500.5,68076,68664.5,69302,69850.39999997616,70549.10000002384,71117.89999997616,71746.60000002384,72544.69999992847,74123.10000002384,76476.60000002384],"honeypot":0,"survey":"mace","page":10,"trial_type":"survey-mace","trial_index":18,"time_elapsed":1242264,"internal_node_id":"0.0-18.0","task_version":"prescreen-v0.3","browser_interactions":0,"instructed":0},{"rt":4868,"trial_type":"mental-health-alert","trial_index":19,"time_elapsed":1247141,"internal_node_id":"0.0-19.0","task_version":"prescreen-v0.3","interactions":"[]"}]