[{"view_history":[{"page_index":0,"viewing_time":2718.4000000953674},{"page_index":1,"viewing_time":1694.6999999284744},{"page_index":2,"viewing_time":2156.100000023842},{"page_index":1,"viewing_time":1951.8999999761581},{"page_index":2,"viewing_time":4651.399999976158},{"page_index":3,"viewing_time":1339.5}],"rt":14512.700000047684,"trial_type":"instructions","trial_index":0,"time_elapsed":14552,"internal_node_id":"0.0-0.0","task_version":"prescreen-v0.3"},{"rt":12075.300000071526,"responses":{"age":"26","gender-categorical":"Female","gender-free-response":"","ethnicity":"Hispanic or Latino","race":["American Indian/Alaska Native","White"],"education":"Master degree or higher"},"trial_type":"survey-demo","trial_index":1,"time_elapsed":26631,"internal_node_id":"0.0-1.0","task_version":"prescreen-v0.3"},{"responses":{"Q08":"2","Q19":"1","Q17":"1","Q15":"2","Q13":"1","Q06":"1","Q14":"2","Q09":"2","Q11":"2","Q10":"2","Q12":"1","Q20":"1","Q07":"1","Q03":"1","Q02":"1","Q21":"2","Q18":"1","Q04":"2","Q16":"2","Q05":"2","Q01":"1"},"rt":78459.80000007153,"item_order":[7,18,16,14,12,5,13,8,10,9,11,19,6,2,1,20,17,3,15,4,0],"radio_events":[9353.100000023842,13425.200000047684,15439,21712,25118.300000071526,28879.300000071526,33315.800000071526,37713.5,38871.800000071526,41011.800000071526,44747.5,47137.300000071526,51532.5,53287.200000047684,56239.5,59025.800000071526,64472.300000071526,67558.70000004768,69925.60000002384,74033.60000002384,76090.39999997616,77504.70000004768],"key_events":[],"mouse_events":[9353.100000023842,13425.200000047684,15439,21712,25118.300000071526,28879.300000071526,33315.800000071526,37713.5,38871.800000071526,41011.800000071526,44747.5,47137.300000071526,51532.5,53287.200000047684,56239.5,59025.800000071526,64472.300000071526,67558.70000004768,69925.60000002384,74033.60000002384,76090.39999997616,77504.70000004768,78458.10000002384],"straightlining":0.5238095238095238,"zigzagging":0.45,"honeypot":0,"survey":"sns","trial_type":"survey-template","trial_index":2,"time_elapsed":105098,"internal_node_id":"0.0-2.0","task_version":"prescreen-v0.3","browser_interactions":0,"infrequency":0.5},{"responses":{"Q07":"2","Q05":"2","Q03":"2","Q13":"0","Q01":"2","Q10":"1","Q02":"2","Q04":"3","Q09":"2","Q06":"2","Q08":"2","Q11":"1","Q12":"1"},"rt":62085.199999928474,"item_order":[6,4,2,12,0,9,1,3,8,5,7,10,11],"radio_events":[3163.5,5236.599999904633,8344.5,13426.199999928474,15551,19182.099999904633,20641.799999952316,25492.199999928474,35951.59999990463,40513.799999952316,43487.799999952316,54550.799999952316,60858.799999952316],"key_events":[],"mouse_events":[413.7999999523163,3163.5,5236.599999904633,8344.5,11989.299999952316,13426.199999928474,15551,19182.099999904633,20641.799999952316,25492.199999928474,35951.59999990463,40513.799999952316,43487.799999952316,54550.799999952316,60858.799999952316,62084.5],"straightlining":0.6153846153846154,"zigzagging":0.4166666666666667,"honeypot":0,"survey":"bisbas","trial_type":"survey-template","trial_index":3,"time_elapsed":167186,"internal_node_id":"0.0-3.0","task_version":"prescreen-v0.3","browser_interactions":0,"infrequency":0},{"responses":{"Q01":"2","Q02":"2","Q03":"3"},"rt":17560.100000023842,"radio_events":[6546,10041.600000023842,16720.200000047684],"key_events":[],"mouse_events":[6546,10041.600000023842,16720.200000047684,17559.600000023842],"survey":"map","page":1,"trial_type":"survey-map","trial_index":4,"time_elapsed":184749,"internal_node_id":"0.0-4.0","task_version":"prescreen-v0.3","browser_interactions":0},{"responses":{"Q04":"2","Q05":"2","Q06":"2"},"rt":16543.700000047684,"radio_events":[4754.700000047684,12298.600000023842,15673],"key_events":[],"mouse_events":[4754.700000047684,12298.600000023842,15673,16543.300000071526],"survey":"map","page":2,"trial_type":"survey-map","trial_index":5,"time_elapsed":201294,"internal_node_id":"0.0-5.0","task_version":"prescreen-v0.3","browser_interactions":0},{"responses":{"Q07":"2","Q08":"4","Q09":"3"},"rt":39348.200000047684,"radio_events":[5491,8591.700000047684,9886,37396.300000071526,38674.300000071526],"key_events":[],"mouse_events":[5491,8591.700000047684,9886,37396.300000071526,38674.300000071526,39347.800000071526],"survey":"map","page":3,"trial_type":"survey-map","trial_index":6,"time_elapsed":240644,"internal_node_id":"0.0-6.0","task_version":"prescreen-v0.3","browser_interactions":2},{"responses":{"Q10":"2","Q11":"1","Q12":"1","Q13":"1","Q16":"0","Q14":"2","Q15":"2"},"rt":29918.599999904633,"radio_events":[5137.099999904633,8360.5,15549.699999928474,18847.899999976158,22751.699999928474,25969.199999928474,28971.899999976158],"key_events":[],"mouse_events":[5137.099999904633,8360.5,15549.699999928474,18847.899999976158,22751.699999928474,25969.199999928474,28971.899999976158,29917.799999952316],"survey":"map","page":4,"trial_type":"survey-map","trial_index":7,"time_elapsed":270565,"internal_node_id":"0.0-7.0","task_version":"prescreen-v0.3","browser_interactions":0,"infrequency":0},{"view_history":[{"page_index":0,"viewing_time":3790.100000023842},{"page_index":1,"viewing_time":2998.2999999523163}],"rt":6788.700000047684,"trial_type":"instructions","trial_index":8,"time_elapsed":277354,"internal_node_id":"0.0-8.0","task_version":"prescreen-v0.3"},{"responses":{"01":"No","02":"Yes","02_ages_7":"7","02_ages_8":"8","02_ages_9":"9","02_ages_10":"10","02_ages_11":"11","02_ages_12":"12","02_ages_13":"13","02_ages_14":"14","02_ages_15":"15","02_ages_16":"16","02_ages_17":"17","02_ages_18":"18","03":"No","04":"No","05":"No","06":"No"},"rt":49478.200000047684,"item_order":[0,1,2,3,4,5],"radio_events":[6530.700000047684,11149,37961.10000002384,41163.60000002384,43033.700000047684,44956.700000047684],"checkbox_events":[21848.300000071526,23634.300000071526,24278.100000023842,25550.100000023842,26390.5,28312.300000071526,30446.900000095367,31036.800000071526,31990.900000095367,32921.90000009537,33747,35175.800000071526],"key_events":[],"mouse_events":[0.10000002384185791,6530.700000047684,11149,21848.300000071526,23634.300000071526,24278.100000023842,24891.200000047684,25550.100000023842,26390.5,28312.300000071526,30446.900000095367,31036.800000071526,31990.900000095367,32921.90000009537,33747,35175.800000071526,37961.10000002384,41163.60000002384,43033.700000047684,44956.700000047684,49476.40000009537],"honeypot":0,"survey":"mace","page":1,"trial_type":"survey-mace","trial_index":9,"time_elapsed":326842,"internal_node_id":"0.0-9.0","task_version":"prescreen-v0.3","browser_interactions":0},{"responses":{"01":"No","02":"No","03":"Yes","03_ages_4":"4","03_ages_5":"5","03_ages_6":"6","04":"No","05":"Yes","05_ages_4":"4","05_ages_5":"5","05_ages_6":"6","06":"Yes","06_ages_16":"16","06_ages_17":"17","06_ages_18":"18","07":"No","08":"No"},"rt":41817.10000002384,"item_order":[0,1,2,3,4,5,6,7],"radio_events":[2161,3379.600000023842,7103.399999976158,12872.399999976158,14757.899999976158,23229,37045.60000002384,39520.5],"checkbox_events":[8784.5,9382.5,10056.5,16893.299999952316,17423.799999952316,18059.899999976158,31025.600000023842,31790.600000023842,33684.10000002384],"key_events":[],"mouse_events":[2161,3379.600000023842,7103.399999976158,8784.5,9382.5,10056.5,12872.399999976158,14757.899999976158,16893.299999952316,17423.799999952316,18059.899999976158,23229,31025.600000023842,31790.600000023842,33684.10000002384,37045.60000002384,39520.5,41815],"honeypot":0,"survey":"mace","page":2,"trial_type":"survey-mace","trial_index":10,"time_elapsed":368663,"internal_node_id":"0.0-10.0","task_version":"prescreen-v0.3","browser_interactions":0},{"responses":{"01":"Yes","01_ages_13":"13","01_ages_14":"14","01_ages_15":"15","01_ages_16":"16","01_ages_17":"17","01_ages_18":"18","02":"No","03":"No","04":"No"},"rt":30379.799999952316,"item_order":[0,1,2,3],"radio_events":[7377.399999976158,26463.100000023842,28417.299999952316,29607.200000047684],"checkbox_events":[13529.5,14280.600000023842,15826.100000023842,16417.100000023842,17621.799999952316,18371.700000047684,19220.100000023842,19962.100000023842],"key_events":[],"mouse_events":[7377.399999976158,13529.5,14280.600000023842,15826.100000023842,16417.100000023842,17053.399999976158,17621.799999952316,18371.700000047684,19220.100000023842,19962.100000023842,26463.100000023842,28417.299999952316,29607.200000047684,30378.600000023842],"honeypot":0,"survey":"mace","page":3,"trial_type":"survey-mace","trial_index":11,"time_elapsed":399045,"internal_node_id":"0.0-11.0","task_version":"prescreen-v0.3","browser_interactions":0},{"responses":{"01":"No","02":"No"},"rt":5701,"item_order":[0,1],"radio_events":[2602.7000000476837,4064.3000000715256],"checkbox_events":[],"key_events":[],"mouse_events":[2602.7000000476837,4064.3000000715256,5700.399999976158],"honeypot":0,"survey":"mace","page":4,"trial_type":"survey-mace","trial_index":12,"time_elapsed":404748,"internal_node_id":"0.0-12.0","task_version":"prescreen-v0.3","browser_interactions":0},{"responses":{"01":"No","02":"No","03":"No","04":"Yes","04_ages_15":"15","04_ages_16":"16","04_ages_17":"17","04_ages_18":"18","05":"No"},"rt":26805,"item_order":[0,1,2,3,4],"radio_events":[3745.2000000476837,6585.299999952316,7827.799999952316,11700.100000023842,18153.700000047684,25940.299999952316],"checkbox_events":[19638.899999976158,20669.5,21964.399999976158,22668.600000023842],"key_events":[],"mouse_events":[3745.2000000476837,6585.299999952316,7827.799999952316,11700.100000023842,18153.700000047684,19638.899999976158,20669.5,21222.100000023842,21964.399999976158,22668.600000023842,25940.299999952316,26803.200000047684],"honeypot":0,"survey":"mace","page":5,"trial_type":"survey-mace","trial_index":13,"time_elapsed":431555,"internal_node_id":"0.0-13.0","task_version":"prescreen-v0.3","browser_interactions":0},{"responses":{"01":"No","02":"Yes","02_ages_13":"13","02_ages_14":"14","02_ages_15":"15","02_ages_16":"16","02_ages_17":"17","02_ages_18":"18","03":"Yes","03_ages_13":"13","03_ages_14":"14","03_ages_15":"15","03_ages_16":"16","03_ages_17":"17","04":"Yes","04_ages_12":"12","04_ages_13":"13","04_ages_14":"14","04_ages_15":"15","04_ages_16":"16","04_ages_17":"17","05":"No"},"rt":48942.59999990463,"item_order":[0,1,2,3,4],"radio_events":[6590.199999928474,8719,29027.799999952316,38535.39999997616,48153.59999990463],"checkbox_events":[13361.5,14285.199999928474,17085.099999904633,17690.599999904633,18333.699999928474,20853.699999928474,24274.599999904633,26228.099999904633,31426.299999952316,31979,33289.09999990463,33947.59999990463,35037.89999997616,41216.09999990463,42215.699999928474,42837.199999928474,43443.199999928474,44041.09999990463,44851.39999997616],"key_events":[],"mouse_events":[6590.199999928474,8719,12854.199999928474,13361.5,14285.199999928474,17085.099999904633,17690.599999904633,18333.699999928474,20853.699999928474,24274.599999904633,26228.099999904633,29027.799999952316,31426.299999952316,31979,32744.299999952316,33289.09999990463,33947.59999990463,35037.89999997616,38535.39999997616,40102.699999928474,41216.09999990463,42215.699999928474,42837.199999928474,43443.199999928474,44041.09999990463,44851.39999997616,48153.59999990463,48941.09999990463],"honeypot":0,"survey":"mace","page":6,"trial_type":"survey-mace","trial_index":14,"time_elapsed":480500,"internal_node_id":"0.0-14.0","task_version":"prescreen-v0.3","browser_interactions":0},{"responses":{"01":"No","02":"No","03":"No","04":"No","05":"No","06":"No","07":"No"},"rt":13865,"item_order":[0,1,2,3,4,5,6],"radio_events":[3834.9000000953674,5864.100000023842,7129,8840.600000023842,10014.400000095367,11764.300000071526,13196.5],"checkbox_events":[],"key_events":[],"mouse_events":[3834.9000000953674,5864.100000023842,7129,8840.600000023842,10014.400000095367,11764.300000071526,13196.5,13863.100000023842],"honeypot":0,"survey":"mace","page":7,"trial_type":"survey-mace","trial_index":15,"time_elapsed":494369,"internal_node_id":"0.0-15.0","task_version":"prescreen-v0.3","browser_interactions":0},{"responses":{"01":"No","02":"Yes","02_ages_4":"4","02_ages_5":"5","02_ages_6":"6","02_ages_7":"7","02_ages_8":"8","02_ages_9":"9","02_ages_10":"10","02_ages_11":"11","02_ages_12":"12","02_ages_13":"13","02_ages_14":"14","02_ages_15":"15","02_ages_16":"16","02_ages_17":"17","02_ages_18":"18","03":"Yes","03_ages_6":"6","03_ages_7":"7","03_ages_8":"8","03_ages_9":"9","03_ages_10":"10","03_ages_11":"11","03_ages_12":"12","03_ages_13":"13","03_ages_14":"14","03_ages_15":"15","03_ages_16":"16","03_ages_17":"17","03_ages_18":"18","04":"Yes","04_ages_4":"4","04_ages_5":"5","04_ages_6":"6","04_ages_7":"7","04_ages_8":"8","04_ages_9":"9","04_ages_10":"10","04_ages_11":"11","04_ages_12":"12","04_ages_13":"13","04_ages_14":"14","04_ages_15":"15","04_ages_16":"16","04_ages_17":"17","04_ages_18":"18"},"rt":64998.90000009537,"item_order":[0,1,2,3],"radio_events":[13198.800000071526,29893.600000023842,43903.60000002384,62652.40000009537],"checkbox_events":[18355.200000047684,19006.200000047684,19649.900000095367,20369.5,20982.900000095367,21596.100000023842,22300.300000071526,22921.100000023842,23527,24140.200000047684,24806.300000071526,25465.300000071526,26077.900000095367,26713.700000047684,27342,32679.400000095367,33223.800000071526,33776.700000047684,34458.200000047684,35472,36017.10000002384,36637.800000071526,38014.800000071526,38673.200000047684,39293.40000009537,39921.60000002384,40512.200000047684,41351.90000009537,45530.90000009537,46303.5,46992.300000071526,47552.5,48188.5,48832.40000009537,49422.200000047684,50103.5,50807.5,51503.300000071526,52214.90000009537,53569.10000002384,54212.300000071526,54817.5,55453.800000071526],"key_events":[],"mouse_events":[8600.600000023842,13198.800000071526,18355.200000047684,19006.200000047684,19649.900000095367,20369.5,20982.900000095367,21596.100000023842,22300.300000071526,22921.100000023842,23527,24140.200000047684,24806.300000071526,25465.300000071526,26077.900000095367,26713.700000047684,27342,29893.600000023842,32679.400000095367,33223.800000071526,33776.700000047684,34458.200000047684,35472,36017.10000002384,36637.800000071526,37424.800000071526,38014.800000071526,38673.200000047684,39293.40000009537,39921.60000002384,40512.200000047684,41351.90000009537,43903.60000002384,45530.90000009537,46303.5,46992.300000071526,47552.5,48188.5,48832.40000009537,49422.200000047684,50103.5,50807.5,51503.300000071526,52214.90000009537,52918.700000047684,53569.10000002384,54212.300000071526,54817.5,55453.800000071526,56324.60000002384,62652.40000009537,64997.700000047684],"honeypot":0,"survey":"mace","page":8,"trial_type":"survey-mace","trial_index":16,"time_elapsed":559370,"internal_node_id":"0.0-16.0","task_version":"prescreen-v0.3","browser_interactions":0},{"responses":{"01":"Yes","01_ages_1":"1","01_ages_2":"2","01_ages_3":"3","01_ages_4":"4","01_ages_5":"5","01_ages_6":"6","01_ages_7":"7","01_ages_8":"8","01_ages_9":"9","01_ages_10":"10","01_ages_11":"11","01_ages_12":"12","01_ages_13":"13","01_ages_14":"14","01_ages_15":"15","01_ages_16":"16","01_ages_17":"17","01_ages_18":"18","02":"Yes","02_ages_1":"1","02_ages_2":"2","02_ages_3":"3","02_ages_4":"4","02_ages_5":"5","02_ages_6":"6","02_ages_7":"7","02_ages_8":"8","02_ages_9":"9","02_ages_10":"10","02_ages_11":"11","02_ages_12":"12","02_ages_13":"13","02_ages_14":"14","02_ages_15":"15","02_ages_16":"16","02_ages_17":"17","02_ages_18":"18","03":"Yes","03_ages_1":"1","03_ages_2":"2","03_ages_3":"3","03_ages_4":"4","03_ages_5":"5","03_ages_6":"6","03_ages_7":"7","03_ages_8":"8","03_ages_9":"9","03_ages_10":"10","03_ages_11":"11","03_ages_12":"12","03_ages_13":"13","03_ages_14":"14","03_ages_15":"15","03_ages_16":"16","03_ages_17":"17","03_ages_18":"18","04":"Yes","04_ages_1":"1","04_ages_2":"2","04_ages_3":"3","04_ages_4":"4","04_ages_5":"5","04_ages_6":"6","04_ages_7":"7","04_ages_8":"8","04_ages_9":"9","04_ages_10":"10","04_ages_11":"11","04_ages_12":"12","04_ages_13":"13","04_ages_14":"14","04_ages_15":"15","04_ages_16":"16","04_ages_17":"17","04_ages_18":"18"},"rt":74278.30000007153,"item_order":[0,1,2,3],"radio_events":[3151.3000000715256,21187.200000047684,43689.300000071526,59682.60000002384],"checkbox_events":[8227.700000047684,8795,9302.100000023842,10097.600000023842,10612.100000023842,11157,11686.800000071526,12209.399999976158,12708.300000071526,13139.800000071526,14977.600000023842,15696.899999976158,16384.300000071526,16966.5,18146.300000071526,22799,24342.5,24895.300000071526,25546.600000023842,26348.399999976158,26840.200000047684,27461.399999976158,30389.899999976158,30950.200000047684,31654.399999976158,32131.399999976158,32744.600000023842,33320.10000002384,34614.800000071526,35196.89999997616,35855.39999997616,36430.700000047684,37043.39999997616,38859.800000071526,39427.200000047684,40033,44915.5,45392.60000002384,46414.89999997616,46870.10000002384,47330.5,48216.5,48913.10000002384,49480.700000047684,50101.700000047684,50639.39999997616,51274.5,51887.5,52984.700000047684,53733.700000047684,54301.5,54861.700000047684,55391.700000047684,55936.60000002384,62976.300000071526,63453.10000002384,63945.10000002384,64581.39999997616,65444.300000071526,67488.70000004768,67996.30000007153,68472.80000007153,69033.20000004768,69577.60000002384,70077.20000004768,70553.70000004768,71038.10000002384,71492.5,72029.60000002384,72514.30000007153,73073.80000007153,73618.5],"key_events":[],"mouse_events":[3151.3000000715256,8227.700000047684,8795,9302.100000023842,10097.600000023842,10612.100000023842,11157,11686.800000071526,12209.399999976158,12708.300000071526,13139.800000071526,13729.700000047684,14977.600000023842,15696.899999976158,16384.300000071526,16966.5,17563.700000047684,18146.300000071526,21187.200000047684,22799,24342.5,24895.300000071526,25546.600000023842,26348.399999976158,26840.200000047684,27461.399999976158,29702.700000047684,30389.899999976158,30950.200000047684,31654.399999976158,32131.399999976158,32744.600000023842,33320.10000002384,33933.200000047684,34614.800000071526,35196.89999997616,35855.39999997616,36430.700000047684,37043.39999997616,37626.200000047684,38042.5,38859.800000071526,39427.200000047684,40033,43689.300000071526,44915.5,45392.60000002384,45983.60000002384,46414.89999997616,46870.10000002384,47330.5,48216.5,48913.10000002384,49480.700000047684,50101.700000047684,50639.39999997616,51274.5,51887.5,52477.89999997616,52984.700000047684,53733.700000047684,54301.5,54861.700000047684,55391.700000047684,55936.60000002384,59682.60000002384,61842.39999997616,62567.200000047684,62976.300000071526,63453.10000002384,63945.10000002384,64581.39999997616,65444.300000071526,67488.70000004768,67996.30000007153,68472.80000007153,69033.20000004768,69577.60000002384,70077.20000004768,70553.70000004768,71038.10000002384,71492.5,72029.60000002384,72514.30000007153,73073.80000007153,73618.5,74277.20000004768],"honeypot":0,"survey":"mace","page":9,"trial_type":"survey-mace","trial_index":17,"time_elapsed":633651,"internal_node_id":"0.0-17.0","task_version":"prescreen-v0.3","browser_interactions":0},{"responses":{"01":"No","02":"No","03":"No","04":"No","05":"Yes","05_ages_6":"6","05_ages_7":"7","05_ages_8":"8","05_ages_9":"9","05_ages_10":"10","05_ages_11":"11","05_ages_12":"12","05_ages_13":"13","05_ages_14":"14","05_ages_15":"15","05_ages_16":"16","06":"Yes","06_ages_17":"17","07":"Yes","07_ages_1":"1","07_ages_2":"2","07_ages_3":"3","07_ages_4":"4","07_ages_5":"5","07_ages_6":"6","07_ages_7":"7","07_ages_8":"8","07_ages_9":"9","07_ages_10":"10","07_ages_11":"11","07_ages_12":"12","07_ages_13":"13","07_ages_14":"14","07_ages_15":"15","07_ages_16":"16","07_ages_17":"17","07_ages_18":"18","08":"Yes","08_ages_1":"1","08_ages_2":"2","08_ages_3":"3","08_ages_4":"4","08_ages_5":"5","08_ages_6":"6","08_ages_7":"7","08_ages_8":"8","08_ages_9":"9","08_ages_10":"10","08_ages_11":"11","08_ages_12":"12","08_ages_13":"13","08_ages_14":"14","08_ages_15":"15","08_ages_16":"16","08_ages_17":"17","08_ages_18":"18"},"rt":67768.80000007153,"item_order":[0,1,2,3,4,5,6,7],"radio_events":[3287.9000000953674,7972.900000095367,10426.100000023842,12213.700000047684,14945.300000071526,30312.800000071526,35813.300000071526,40966.60000002384],"checkbox_events":[17301.200000047684,17899.300000071526,19776.700000047684,20443.100000023842,21079,21646.700000047684,22123.5,23388.200000047684,24712.800000071526,25295.400000095367,25893.300000071526,31863.600000023842,43372.10000002384,44771.800000071526,46088.90000009537,46611.200000047684,47731.200000047684,48275.700000047684,48949.10000002384,49471.300000071526,49955.40000009537,51173.60000002384,51748.90000009537,52240.800000071526,52770.800000071526,53308,53906.700000047684,54398.40000009537,54878.800000071526,55377.200000047684,56041.700000047684,56601.700000047684,57216.10000002384,57791.5,58648,59837.10000002384,60930.5,61349.300000071526,61730,62119.800000071526,62529.10000002384,62919.300000071526,63318.800000071526,64108.5,64480.10000002384,64842,65212.90000009537,65536.20000004768],"key_events":[],"mouse_events":[3287.9000000953674,4407,7972.900000095367,10426.100000023842,12213.700000047684,14945.300000071526,17301.200000047684,17899.300000071526,19776.700000047684,20443.100000023842,21079,21646.700000047684,22123.5,22684,23388.200000047684,24008.5,24712.800000071526,25295.400000095367,25893.300000071526,30312.800000071526,31863.600000023842,35813.300000071526,40966.60000002384,43372.10000002384,44227,44771.800000071526,46088.90000009537,46611.200000047684,47731.200000047684,48275.700000047684,48949.10000002384,49471.300000071526,49955.40000009537,50492.90000009537,51173.60000002384,51748.90000009537,52240.800000071526,52770.800000071526,53308,53906.700000047684,54398.40000009537,54878.800000071526,55377.200000047684,56041.700000047684,56601.700000047684,57216.10000002384,57791.5,58648,59155.10000002384,59837.10000002384,60930.5,61349.300000071526,61730,62119.800000071526,62529.10000002384,62919.300000071526,63318.800000071526,64108.5,64480.10000002384,64842,65212.90000009537,65536.20000004768,67766.70000004768],"honeypot":0,"survey":"mace","page":10,"trial_type":"survey-mace","trial_index":18,"time_elapsed":701423,"internal_node_id":"0.0-18.0","task_version":"prescreen-v0.3","browser_interactions":0,"instructed":0},{"rt":4687.299999952316,"trial_type":"mental-health-alert","trial_index":19,"time_elapsed":706112,"internal_node_id":"0.0-19.0","task_version":"prescreen-v0.3","interactions":"[{\"event\":\"blur\",\"trial\":6,\"time\":214248},{\"event\":\"focus\",\"trial\":6,\"time\":232695}]"}]