[{"view_history":[{"page_index":0,"viewing_time":1798},{"page_index":1,"viewing_time":2859},{"page_index":2,"viewing_time":2228},{"page_index":3,"viewing_time":786}],"rt":7671,"trial_type":"instructions","trial_index":0,"time_elapsed":7673,"internal_node_id":"0.0-0.0","task_version":"prescreen-v0.3"},{"rt":20329,"responses":{"age":"24","gender-categorical":"Rather not say","gender-free-response":"","ethnicity":"Rather not say","race":["Rather not say"],"education":"Rather not say","siblings":"1"},"trial_type":"survey-demo","trial_index":1,"time_elapsed":28006,"internal_node_id":"0.0-1.0","task_version":"prescreen-v0.3"},{"responses":{"Q13":"1","Q06":"2","Q14":"2","Q20":"0","Q19":"1","Q12":"1","Q04":"3","Q18":"1","Q05":"2","Q02":"2","Q21":"3","Q10":"0","Q07":"2","Q01":"2","Q15":"2","Q17":"2","Q09":"1","Q16":"1","Q11":"1","Q03":"1","Q08":"1"},"rt":82478,"item_order":[12,5,13,19,18,11,3,17,4,1,20,9,6,0,14,16,8,15,10,2,7],"radio_events":[2475,7560,13081,13835,18446,23770,28625,32802,37612,42356,45834,48431,49145,55827,57239,62042,63788,66194,68610,70594,75286,78136,79771,82065],"key_events":[],"mouse_events":[2475,7560,11136,13081,13835,17749,18446,23382,23770,28625,32802,37612,42356,45834,48431,48883,49145,55449,55827,57239,61440,62042,63788,66194,68610,70594,75286,78136,79025,79508,79771,81286,82065,82478],"straightlining":0.42857142857142855,"zigzagging":0.3,"honeypot":0,"survey":"sns","trial_type":"survey-template","trial_index":2,"time_elapsed":110488,"internal_node_id":"0.0-2.0","task_version":"prescreen-v0.3","browser_interactions":0,"infrequency":0},{"responses":{"Q12":"2","Q11":"2","Q02":"1","Q09":"2","Q03":"1","Q13":"0","Q04":"3","Q07":"3","Q06":"3","Q05":"3","Q10":"2","Q08":"2","Q01":"3"},"rt":40361,"item_order":[11,10,1,8,2,12,3,6,5,4,9,7,0],"radio_events":[7416,10170,10638,13259,14770,19547,23263,25414,26981,29666,31007,34225,36027,38977,40116],"key_events":[],"mouse_events":[7416,9280,9825,10170,10638,13259,14770,19547,20289,23263,25414,26385,26981,29666,31007,34225,36027,38977,40116,40361],"straightlining":0.38461538461538464,"zigzagging":0.5833333333333334,"honeypot":0,"survey":"bisbas","trial_type":"survey-template","trial_index":3,"time_elapsed":150852,"internal_node_id":"0.0-3.0","task_version":"prescreen-v0.3","browser_interactions":0,"infrequency":0},{"responses":{"Q01":"2","Q02":"1","Q03":"2"},"rt":17043,"radio_events":[5541,7102,10938,15960],"key_events":[],"mouse_events":[5541,7102,10938,15960,17043],"survey":"map","page":1,"trial_type":"survey-map","trial_index":4,"time_elapsed":167897,"internal_node_id":"0.0-4.0","task_version":"prescreen-v0.3","browser_interactions":0},{"responses":{"Q04":"3","Q05":"3","Q06":"3"},"rt":8777,"radio_events":[4709,6688,8219],"key_events":[],"mouse_events":[4709,6688,8219,8777],"survey":"map","page":2,"trial_type":"survey-map","trial_index":5,"time_elapsed":176675,"internal_node_id":"0.0-5.0","task_version":"prescreen-v0.3","browser_interactions":0},{"responses":{"Q07":"2","Q08":"2","Q09":"2"},"rt":16405,"radio_events":[4095,7899,11686,12039,15169,15961],"key_events":[],"mouse_events":[4095,7899,11367,11686,12039,15169,15961,16405],"survey":"map","page":3,"trial_type":"survey-map","trial_index":6,"time_elapsed":193083,"internal_node_id":"0.0-6.0","task_version":"prescreen-v0.3","browser_interactions":0},{"responses":{"Q10":"1","Q11":"1","Q12":"2","Q13":"2","Q16":"0","Q14":"2","Q15":"2"},"rt":34229,"radio_events":[3553,5538,9986,24632,25293,28015,29845],"key_events":[],"mouse_events":[3553,5538,9986,22723,23831,24363,24632,25293,28015,29845,34229],"survey":"map","page":4,"trial_type":"survey-map","trial_index":7,"time_elapsed":227315,"internal_node_id":"0.0-7.0","task_version":"prescreen-v0.3","browser_interactions":0,"infrequency":0},{"view_history":[{"page_index":0,"viewing_time":1720},{"page_index":1,"viewing_time":3154}],"rt":4874,"trial_type":"instructions","trial_index":8,"time_elapsed":232189,"internal_node_id":"0.0-8.0","task_version":"prescreen-v0.3"},{"responses":{"01":"Yes","01_ages_4":"4","01_ages_5":"5","01_ages_6":"6","01_ages_7":"7","01_ages_8":"8","01_ages_9":"9","01_ages_10":"10","01_ages_11":"11","01_ages_12":"12","01_ages_13":"13","01_ages_14":"14","02":"Yes","02_ages_4":"4","02_ages_5":"5","02_ages_6":"6","02_ages_7":"7","02_ages_8":"8","02_ages_9":"9","02_ages_10":"10","02_ages_11":"11","02_ages_12":"12","02_ages_13":"13","02_ages_14":"14","03":"No","04":"Yes","04_ages_4":"4","04_ages_5":"5","04_ages_6":"6","04_ages_7":"7","04_ages_8":"8","04_ages_9":"9","04_ages_10":"10","04_ages_11":"11","04_ages_12":"12","04_ages_13":"13","04_ages_14":"14","05":"No","06":"Yes","06_ages_4":"4","06_ages_5":"5","06_ages_6":"6","06_ages_7":"7","06_ages_8":"8","06_ages_9":"9","06_ages_10":"10","06_ages_11":"11","06_ages_12":"12","06_ages_13":"13","06_ages_14":"14"},"rt":88044,"item_order":[0,1,2,3,4,5],"radio_events":[12157,26941,57610,60143,67276,70551],"checkbox_events":[17096,17726,18058,18309,18601,18854,19272,19707,20335,20595,20910,21208,21487,21814,22116,22401,22697,23352,28354,28650,30165,30677,31047,31632,32020,32396,48721,49429,50003,50345,51159,51515,52330,52573,52913,53282,61257,61609,61853,62190,62487,62771,63034,63315,63600,63868,64184,64435,64995,65679,71407,71645,71926,72187,73164,73409,73762,74030,74943,75353,75678,76028,76377,76857,78295,79140,79367,79775,80160,80804,81031,81277,82150,82772,83102,85056,85296,85540],"key_events":[],"mouse_events":[0,12157,16816,17096,17726,18058,18309,18601,18854,19272,19707,20032,20335,20595,20910,21208,21487,21814,22116,22401,22697,22966,23352,26941,28354,28650,28987,29475,29819,30165,30677,31047,31632,32020,32396,32883,48721,49053,49429,49771,50003,50345,51159,51515,52330,52573,52913,53282,57368,57610,60143,61257,61609,61853,62190,62487,62771,63034,63315,63600,63868,64184,64435,64995,65372,65679,66955,67276,70551,71407,71645,71926,72187,72528,72790,73164,73409,73762,74030,74288,74601,74943,75353,75678,76028,76377,76857,77852,78295,79140,79367,79775,80160,80804,81031,81277,82150,82772,83102,85056,85296,85540,88044],"honeypot":0,"survey":"mace","page":1,"trial_type":"survey-mace","trial_index":9,"time_elapsed":320239,"internal_node_id":"0.0-9.0","task_version":"prescreen-v0.3","browser_interactions":0},{"responses":{"01":"No","02":"No","03":"Yes","03_ages_4":"4","03_ages_5":"5","03_ages_6":"6","03_ages_7":"7","03_ages_8":"8","03_ages_9":"9","03_ages_10":"10","04":"No","05":"Yes","05_ages_4":"4","05_ages_5":"5","05_ages_6":"6","05_ages_7":"7","05_ages_8":"8","05_ages_9":"9","05_ages_10":"10","06":"No","07":"No","08":"No"},"rt":43388,"item_order":[0,1,2,3,4,5,6,7],"radio_events":[5076,7086,8451,19601,23413,37379,38695,39341],"checkbox_events":[10193,10455,10809,11509,11864,12473,13672,14734,17602,24867,25107,27212,27698,28117,28479,28917],"key_events":[],"mouse_events":[5076,7086,8451,10193,10455,10809,11121,11509,11864,12473,13672,14734,17602,19601,23413,24531,24867,25107,26848,27212,27698,28117,28479,28917,37379,38695,39341,43388],"honeypot":0,"survey":"mace","page":2,"trial_type":"survey-mace","trial_index":10,"time_elapsed":363633,"internal_node_id":"0.0-10.0","task_version":"prescreen-v0.3","browser_interactions":0},{"responses":{"01":"No","02":"No","03":"No","04":"No"},"rt":8182,"item_order":[0,1,2,3],"radio_events":[2309,5465,6577,7825],"checkbox_events":[],"key_events":[],"mouse_events":[2309,5069,5465,6577,7136,7825,8182],"honeypot":0,"survey":"mace","page":3,"trial_type":"survey-mace","trial_index":11,"time_elapsed":371820,"internal_node_id":"0.0-11.0","task_version":"prescreen-v0.3","browser_interactions":0},{"responses":{"01":"No","02":"No"},"rt":9290,"item_order":[0,1],"radio_events":[2095,5921],"checkbox_events":[],"key_events":[],"mouse_events":[2095,5921,9290],"honeypot":0,"survey":"mace","page":4,"trial_type":"survey-mace","trial_index":12,"time_elapsed":381111,"internal_node_id":"0.0-12.0","task_version":"prescreen-v0.3","browser_interactions":0},{"responses":{"01":"No","02":"No","03":"No","04":"No","05":"No"},"rt":19234,"item_order":[0,1,2,3,4],"radio_events":[4670,5817,10239,10920,14725],"checkbox_events":[],"key_events":[],"mouse_events":[4670,5817,9159,10239,10920,14725,19234],"honeypot":0,"survey":"mace","page":5,"trial_type":"survey-mace","trial_index":13,"time_elapsed":400348,"internal_node_id":"0.0-13.0","task_version":"prescreen-v0.3","browser_interactions":0},{"responses":{"01":"No","02":"No","03":"No","04":"No","05":"No"},"rt":13896,"item_order":[0,1,2,3,4],"radio_events":[7498,8489,9237,10271,12429],"checkbox_events":[],"key_events":[],"mouse_events":[7498,8489,9237,10271,12429,13896],"honeypot":0,"survey":"mace","page":6,"trial_type":"survey-mace","trial_index":14,"time_elapsed":414249,"internal_node_id":"0.0-14.0","task_version":"prescreen-v0.3","browser_interactions":0},{"responses":{"01":"No","02":"No","03":"No","04":"No","05":"No","06":"No","07":"No"},"rt":9128,"item_order":[0,1,2,3,4,5,6],"radio_events":[2267,2892,3715,4657,5284,5970,7838],"checkbox_events":[],"key_events":[],"mouse_events":[2267,2892,3715,4657,5284,5970,6691,7838,9128],"honeypot":0,"survey":"mace","page":7,"trial_type":"survey-mace","trial_index":15,"time_elapsed":423380,"internal_node_id":"0.0-15.0","task_version":"prescreen-v0.3","browser_interactions":0},{"responses":{"01":"No","02":"No","03":"Yes","03_ages_5":"5","03_ages_6":"6","03_ages_7":"7","03_ages_8":"8","03_ages_9":"9","03_ages_10":"10","03_ages_11":"11","03_ages_12":"12","03_ages_13":"13","03_ages_14":"14","04":"No"},"rt":54612,"item_order":[0,1,2,3],"radio_events":[30646,32651,37455,54137],"checkbox_events":[40349,40576,41259,41511,42101,42458,42752,43144,43471,44165],"key_events":[],"mouse_events":[30646,31899,32651,37455,39897,40349,40576,40912,41259,41511,42101,42458,42752,43144,43471,44165,54137,54612],"honeypot":0,"survey":"mace","page":8,"trial_type":"survey-mace","trial_index":16,"time_elapsed":477995,"internal_node_id":"0.0-16.0","task_version":"prescreen-v0.3","browser_interactions":0},{"responses":{"01":"Yes","01_ages_1":"1","01_ages_2":"2","01_ages_3":"3","01_ages_4":"4","01_ages_5":"5","01_ages_6":"6","01_ages_7":"7","01_ages_8":"8","01_ages_9":"9","01_ages_10":"10","01_ages_11":"11","01_ages_12":"12","01_ages_13":"13","01_ages_14":"14","01_ages_15":"15","01_ages_16":"16","01_ages_17":"17","01_ages_18":"18","02":"Yes","02_ages_1":"1","02_ages_2":"2","02_ages_3":"3","02_ages_4":"4","02_ages_5":"5","02_ages_6":"6","02_ages_7":"7","02_ages_8":"8","02_ages_9":"9","02_ages_10":"10","02_ages_11":"11","02_ages_12":"12","02_ages_13":"13","02_ages_14":"14","02_ages_15":"15","02_ages_16":"16","02_ages_17":"17","02_ages_18":"18","03":"Yes","03_ages_1":"1","03_ages_2":"2","03_ages_3":"3","03_ages_4":"4","03_ages_5":"5","03_ages_6":"6","03_ages_7":"7","03_ages_8":"8","03_ages_9":"9","03_ages_10":"10","03_ages_11":"11","03_ages_12":"12","03_ages_13":"13","03_ages_14":"14","03_ages_15":"15","03_ages_16":"16","03_ages_17":"17","03_ages_18":"18","04":"Yes","04_ages_1":"1","04_ages_2":"2","04_ages_3":"3","04_ages_4":"4","04_ages_5":"5","04_ages_6":"6","04_ages_7":"7","04_ages_8":"8","04_ages_9":"9","04_ages_10":"10","04_ages_11":"11","04_ages_12":"12","04_ages_13":"13","04_ages_14":"14","04_ages_15":"15","04_ages_16":"16","04_ages_17":"17","04_ages_18":"18"},"rt":42522,"item_order":[0,1,2,3],"radio_events":[4395,14805,23580,34266],"checkbox_events":[6201,6648,6923,7197,7485,7764,8061,8826,9076,9626,9864,10235,10651,10997,11624,11972,12273,12596,15519,15746,16031,16275,16543,16820,17079,17630,17850,18576,18800,19133,19392,19983,20531,20871,21131,21409,25712,26203,27005,27327,27608,27867,28560,28785,29102,29372,29737,30004,30324,30616,30941,31226,31632,31947,35286,35582,35955,36219,36525,36814,37828,38098,38601,38829,39659,39920,40514,40807,41126,41438,41741,42103],"key_events":[],"mouse_events":[4395,6201,6648,6923,7197,7485,7764,8061,8358,8826,9076,9369,9626,9864,10235,10651,10997,11624,11972,12273,12596,14805,15519,15746,16031,16275,16543,16820,17079,17325,17630,17850,18102,18576,18800,19133,19392,19983,20531,20871,21131,21409,23356,23580,25712,25926,26203,26482,27005,27327,27608,27867,28186,28560,28785,29102,29372,29737,30004,30324,30616,30941,31226,31632,31947,33486,34266,35286,35582,35955,36219,36525,36814,37117,37596,37828,38098,38368,38601,38829,39659,39920,40514,40807,41126,41438,41741,42103,42522],"honeypot":0,"survey":"mace","page":9,"trial_type":"survey-mace","trial_index":17,"time_elapsed":520520,"internal_node_id":"0.0-17.0","task_version":"prescreen-v0.3","browser_interactions":0},{"responses":{"01":"No","02":"No","03":"Yes","03_ages_5":"5","03_ages_6":"6","03_ages_7":"7","03_ages_8":"8","03_ages_9":"9","03_ages_10":"10","03_ages_11":"11","03_ages_12":"12","03_ages_13":"13","03_ages_14":"14","04":"Yes","04_ages_5":"5","04_ages_6":"6","04_ages_7":"7","04_ages_8":"8","04_ages_9":"9","04_ages_10":"10","04_ages_11":"11","04_ages_12":"12","04_ages_13":"13","04_ages_14":"14","05":"Yes","05_ages_5":"5","05_ages_6":"6","05_ages_7":"7","05_ages_8":"8","05_ages_9":"9","05_ages_10":"10","05_ages_11":"11","05_ages_12":"12","05_ages_13":"13","05_ages_14":"14","05_ages_15":"15","05_ages_16":"16","05_ages_17":"17","05_ages_18":"18","06":"Yes","06_ages_17":"17","07":"Yes","07_ages_1":"1","07_ages_2":"2","07_ages_3":"3","07_ages_4":"4","07_ages_5":"5","07_ages_6":"6","07_ages_7":"7","07_ages_8":"8","07_ages_9":"9","07_ages_10":"10","07_ages_11":"11","07_ages_12":"12","07_ages_13":"13","07_ages_14":"14","07_ages_15":"15","07_ages_16":"16","07_ages_17":"17","07_ages_18":"18","08":"Yes","08_ages_1":"1","08_ages_2":"2","08_ages_3":"3","08_ages_4":"4","08_ages_5":"5","08_ages_6":"6","08_ages_7":"7","08_ages_8":"8","08_ages_9":"9","08_ages_10":"10","08_ages_11":"11","08_ages_12":"12","08_ages_13":"13","08_ages_14":"14","08_ages_15":"15","08_ages_16":"16","08_ages_17":"17","08_ages_18":"18"},"rt":57689,"item_order":[0,1,2,3,4,5,6,7],"radio_events":[1647,4455,6735,14162,24679,35510,39132,49765],"checkbox_events":[8571,9135,9373,9786,10300,10581,10938,11210,11491,12187,15158,15413,16214,17064,17337,17881,18110,18458,18735,19114,19412,19764,27519,27841,28461,30322,30550,30817,31123,31699,32459,32752,33106,33386,33636,33914,36914,41573,41830,42139,42643,42985,43272,43809,44067,44613,44851,45130,45613,46021,46457,47031,47275,47622,47916,50803,51423,51818,52117,52379,52654,53222,53551,53828,54092,54457,54830,55152,55465,55815,56152,56638,57384],"key_events":[],"mouse_events":[1647,4455,6735,8571,9135,9373,9786,10300,10581,10938,11210,11491,12187,14162,15158,15413,16214,16589,17064,17337,17620,17881,18110,18458,18735,19114,19412,19764,24679,27519,27841,28461,28815,29356,29965,30322,30550,30817,31123,31699,32034,32459,32752,33106,33386,33636,33914,35510,36914,39132,40591,41217,41573,41830,42139,42406,42643,42985,43272,43558,43809,44067,44357,44613,44851,45130,45613,46021,46457,46705,47031,47275,47622,47916,49359,49765,50803,51078,51423,51818,52117,52379,52654,52954,53222,53551,53828,54092,54457,54830,55152,55465,55815,56152,56638,57384,57689],"honeypot":0,"survey":"mace","page":10,"trial_type":"survey-mace","trial_index":18,"time_elapsed":578217,"internal_node_id":"0.0-18.0","task_version":"prescreen-v0.3","browser_interactions":0,"instructed":0},{"rt":3406,"trial_type":"mental-health-alert","trial_index":19,"time_elapsed":581625,"internal_node_id":"0.0-19.0","task_version":"prescreen-v0.3","interactions":"[{\"event\":\"focus\",\"trial\":0,\"time\":0},{\"event\":\"blur\",\"trial\":1,\"time\":13424},{\"event\":\"focus\",\"trial\":1,\"time\":17710}]"}]