[{"view_history":[{"page_index":0,"viewing_time":5440.899999976158},{"page_index":1,"viewing_time":8239.800000071526},{"page_index":2,"viewing_time":17610.899999976158},{"page_index":3,"viewing_time":2035.2999999523163}],"rt":33328.5,"trial_type":"instructions","trial_index":0,"time_elapsed":33344,"internal_node_id":"0.0-0.0","task_version":"prescreen-v0.3"},{"rt":20101.199999928474,"responses":{"age":"20","gender-categorical":"Male","gender-free-response":"","ethnicity":"Not Hispanic or Latino","race":["White"],"education":"High school"},"trial_type":"survey-demo","trial_index":1,"time_elapsed":53450,"internal_node_id":"0.0-1.0","task_version":"prescreen-v0.3"},{"responses":{"Q09":"2","Q10":"2","Q21":"3","Q01":"2","Q11":"1","Q20":"1","Q13":"2","Q03":"1","Q19":"1","Q08":"1","Q17":"0","Q15":"2","Q06":"1","Q05":"1","Q04":"1","Q16":"2","Q12":"1","Q14":"2","Q18":"0","Q07":"2","Q02":"1"},"rt":214482.19999992847,"item_order":[8,9,20,0,10,19,12,2,18,7,16,14,5,4,3,15,11,13,17,6,1],"radio_events":[25088.599999904633,31035.299999952316,43499.299999952316,44660.699999928474,48828.699999928474,53747.199999928474,58619.09999990463,69668.19999992847,88216.79999995232,92295.29999995232,99150.59999990463,100594.5,110579.09999990463,117696.19999992847,126224.89999997616,152448.29999995232,167224.89999997616,175016.39999997616,181864,187600.59999990463,201336.09999990463,213425],"key_events":[],"mouse_events":[25088.599999904633,31035.299999952316,41056.09999990463,43499.299999952316,44660.699999928474,47008.59999990463,48828.699999928474,53747.199999928474,58619.09999990463,69668.19999992847,88216.79999995232,92295.29999995232,99150.59999990463,100594.5,102863.39999997616,109410.5,110579.09999990463,117696.19999992847,125489,126224.89999997616,151840.5,152448.29999995232,165120.59999990463,167224.89999997616,175016.39999997616,181128.5,181864,187600.59999990463,200624.5,201336.09999990463,210448.89999997616,211472.09999990463,212056.5,212648,213425,214480.19999992847],"straightlining":0.47619047619047616,"zigzagging":0.55,"honeypot":0,"survey":"sns","trial_type":"survey-template","trial_index":2,"time_elapsed":267939,"internal_node_id":"0.0-2.0","task_version":"prescreen-v0.3","browser_interactions":0,"infrequency":0},{"responses":{"Q12":"3","Q03":"2","Q05":"2","Q07":"2","Q01":"3","Q09":"3","Q06":"3","Q11":"2","Q08":"2","Q13":"0","Q10":"2","Q02":"3","Q04":"2"},"rt":93546.10000002384,"item_order":[11,2,4,6,0,8,5,10,7,12,9,1,3],"radio_events":[20160.300000071526,24329.100000023842,36472.700000047684,38736.700000047684,43064.90000009537,46520.800000071526,48736.90000009537,61640.60000002384,72481.40000009537,77504.90000009537,83592.40000009537,89689,92136.40000009537],"key_events":[],"mouse_events":[17760.5,18296.700000047684,19321.300000071526,20160.300000071526,23993.400000095367,24329.100000023842,36472.700000047684,38736.700000047684,43064.90000009537,46520.800000071526,48736.90000009537,60944.90000009537,61640.60000002384,72481.40000009537,77504.90000009537,83592.40000009537,89689,92136.40000009537,93545],"straightlining":0.5384615384615384,"zigzagging":0.4166666666666667,"honeypot":0,"survey":"bisbas","trial_type":"survey-template","trial_index":3,"time_elapsed":361490,"internal_node_id":"0.0-3.0","task_version":"prescreen-v0.3","browser_interactions":0,"infrequency":0},{"responses":{"Q01":"3","Q02":"2","Q03":"3"},"rt":35569.699999928474,"radio_events":[20928.5,26505.399999976158,34568.89999997616],"key_events":[],"mouse_events":[20280.899999976158,20928.5,26505.399999976158,34057.60000002384,34568.89999997616,35569.10000002384],"survey":"map","page":1,"trial_type":"survey-map","trial_index":4,"time_elapsed":397065,"internal_node_id":"0.0-4.0","task_version":"prescreen-v0.3","browser_interactions":0},{"responses":{"Q04":"3","Q05":"3","Q06":"3"},"rt":53899.799999952316,"radio_events":[32411.600000023842,47723.39999997616,52450.89999997616],"key_events":[],"mouse_events":[31043.600000023842,31987.299999952316,32411.600000023842,46611.5,47436.200000047684,47723.39999997616,52450.89999997616,53899.10000002384],"survey":"map","page":2,"trial_type":"survey-map","trial_index":5,"time_elapsed":450969,"internal_node_id":"0.0-5.0","task_version":"prescreen-v0.3","browser_interactions":0},{"responses":{"Q07":"4","Q08":"1","Q09":"3"},"rt":22452.399999976158,"radio_events":[11571.799999952316,19636.100000023842,21867.600000023842],"key_events":[],"mouse_events":[10051.399999976158,11060.100000023842,11571.799999952316,17203.600000023842,17988.200000047684,19636.100000023842,21452.299999952316,21867.600000023842,22451.899999976158],"survey":"map","page":3,"trial_type":"survey-map","trial_index":6,"time_elapsed":473426,"internal_node_id":"0.0-6.0","task_version":"prescreen-v0.3","browser_interactions":0},{"responses":{"Q10":"3","Q11":"2","Q12":"1","Q13":"1","Q16":"0","Q14":"3","Q15":"3"},"rt":94196,"radio_events":[24523.300000071526,32955.5,53083.39999997616,78779.30000007153,86011.30000007153,91011.30000007153,93595.10000002384],"key_events":[],"mouse_events":[24058.700000047684,24523.300000071526,30603.600000023842,32011.100000023842,32955.5,51898.89999997616,52403.200000047684,53083.39999997616,78155.60000002384,78779.30000007153,86011.30000007153,91011.30000007153,93595.10000002384,94195.20000004768],"survey":"map","page":4,"trial_type":"survey-map","trial_index":7,"time_elapsed":567625,"internal_node_id":"0.0-7.0","task_version":"prescreen-v0.3","browser_interactions":0,"infrequency":0},{"view_history":[{"page_index":0,"viewing_time":2220.100000023842},{"page_index":1,"viewing_time":28543.200000047684}],"rt":30763.899999976158,"trial_type":"instructions","trial_index":8,"time_elapsed":598393,"internal_node_id":"0.0-8.0","task_version":"prescreen-v0.3"},{"responses":{"01":"No","02":"Yes","02_ages_10":"10","02_ages_11":"11","02_ages_12":"12","02_ages_13":"13","02_ages_14":"14","02_ages_15":"15","02_ages_16":"16","03":"Yes","03_ages_10":"10","03_ages_11":"11","03_ages_12":"12","03_ages_13":"13","03_ages_14":"14","03_ages_15":"15","03_ages_16":"16","04":"No","05":"No","06":"No"},"rt":74341.89999997616,"item_order":[0,1,2,3,4,5],"radio_events":[16740,20124.5,54548,64339.89999997616,66836,73419.89999997616],"checkbox_events":[27939.799999952316,28411.899999976158,28795.5,37788.5,41108,41612.299999952316,42483.5,57011.89999997616,57459.89999997616,57931.5,58395.199999928474,58843.89999997616,59548.39999997616,61188.299999952316],"key_events":[],"mouse_events":[0,16740,20124.5,27939.799999952316,28411.899999976158,28795.5,37788.5,39219.799999952316,39547.59999990463,39971.199999928474,41108,41612.299999952316,42483.5,54548,57011.89999997616,57459.89999997616,57931.5,58395.199999928474,58843.89999997616,59548.39999997616,61188.299999952316,63891.5,64339.89999997616,66836,73419.89999997616,74339.89999997616],"honeypot":0,"survey":"mace","page":1,"trial_type":"survey-mace","trial_index":9,"time_elapsed":672740,"internal_node_id":"0.0-9.0","task_version":"prescreen-v0.3","browser_interactions":0},{"responses":{"01":"No","02":"No","03":"Yes","03_ages_5":"5","03_ages_6":"6","03_ages_7":"7","03_ages_8":"8","03_ages_9":"9","03_ages_10":"10","03_ages_11":"11","03_ages_12":"12","04":"No","05":"Yes","05_ages_5":"5","05_ages_6":"6","05_ages_7":"7","05_ages_8":"8","05_ages_9":"9","05_ages_10":"10","06":"No","07":"No","08":"No"},"rt":78386.89999997616,"item_order":[0,1,2,3,4,5,6,7],"radio_events":[38416.299999952316,44799.89999997616,46488.60000002384,57040.299999952316,62136.299999952316,73000.69999992847,75192.19999992847,76880.39999997616],"checkbox_events":[47600,47976.39999997616,48456.199999928474,49080.89999997616,49752.299999952316,50200.60000002384,51008.199999928474,51624.10000002384,64712.199999928474,65072.299999952316,65504.799999952316,66721.29999995232,67168.29999995232,68320.5],"key_events":[],"mouse_events":[38416.299999952316,44799.89999997616,46488.60000002384,47600,47976.39999997616,48456.199999928474,49080.89999997616,49752.299999952316,50200.60000002384,51008.199999928474,51624.10000002384,57040.299999952316,62136.299999952316,64712.199999928474,65072.299999952316,65504.799999952316,65928.69999992847,66721.29999995232,67168.29999995232,67639.79999995232,68320.5,72039.79999995232,72560.5,73000.69999992847,75192.19999992847,76880.39999997616,78384.39999997616],"honeypot":0,"survey":"mace","page":2,"trial_type":"survey-mace","trial_index":10,"time_elapsed":751133,"internal_node_id":"0.0-10.0","task_version":"prescreen-v0.3","browser_interactions":0},{"responses":{"01":"No","02":"No","03":"No","04":"No"},"rt":36569,"item_order":[0,1,2,3],"radio_events":[30847.5,32350.700000047684,35135.700000047684,35791.300000071526],"checkbox_events":[],"key_events":[],"mouse_events":[27599,30847.5,32350.700000047684,33591.60000002384,34655.40000009537,35135.700000047684,35791.300000071526,36278.90000009537,36567.5],"honeypot":0,"survey":"mace","page":3,"trial_type":"survey-mace","trial_index":11,"time_elapsed":787707,"internal_node_id":"0.0-11.0","task_version":"prescreen-v0.3","browser_interactions":0},{"responses":{"01":"No","02":"No"},"rt":18162.399999976158,"item_order":[0,1],"radio_events":[12625.399999976158,17265.399999976158],"checkbox_events":[],"key_events":[],"mouse_events":[10001.600000023842,12625.399999976158,14785.600000023842,16641.700000047684,17265.399999976158,18161.5],"honeypot":0,"survey":"mace","page":4,"trial_type":"survey-mace","trial_index":12,"time_elapsed":805874,"internal_node_id":"0.0-12.0","task_version":"prescreen-v0.3","browser_interactions":0},{"responses":{"01":"No","02":"No","03":"No","04":"No","05":"No"},"rt":49692,"item_order":[0,1,2,3,4],"radio_events":[31434.199999928474,37418.299999952316,41882.199999928474,46946.299999952316,49018.199999928474],"checkbox_events":[],"key_events":[],"mouse_events":[31434.199999928474,37418.299999952316,41882.199999928474,46946.299999952316,49018.199999928474,49690.299999952316],"honeypot":0,"survey":"mace","page":5,"trial_type":"survey-mace","trial_index":13,"time_elapsed":855571,"internal_node_id":"0.0-13.0","task_version":"prescreen-v0.3","browser_interactions":0},{"responses":{"01":"Yes","01_ages_7":"7","01_ages_8":"8","01_ages_9":"9","01_ages_10":"10","01_ages_11":"11","01_ages_12":"12","01_ages_13":"13","01_ages_14":"14","01_ages_15":"15","02":"Yes","02_ages_5":"5","02_ages_6":"6","02_ages_7":"7","02_ages_8":"8","02_ages_9":"9","02_ages_10":"10","02_ages_11":"11","02_ages_12":"12","02_ages_13":"13","02_ages_14":"14","02_ages_15":"15","02_ages_16":"16","02_ages_17":"17","02_ages_18":"18","03":"Yes","03_ages_6":"6","03_ages_7":"7","03_ages_8":"8","03_ages_9":"9","03_ages_10":"10","03_ages_11":"11","03_ages_12":"12","03_ages_13":"13","03_ages_14":"14","03_ages_15":"15","03_ages_16":"16","03_ages_17":"17","03_ages_18":"18","04":"Yes","04_ages_8":"8","04_ages_9":"9","04_ages_10":"10","04_ages_11":"11","04_ages_12":"12","04_ages_13":"13","04_ages_14":"14","05":"No"},"rt":85043.09999990463,"item_order":[0,1,2,3,4],"radio_events":[19952.199999928474,36329,57768.59999990463,72569.09999990463,84433.09999990463],"checkbox_events":[24545.799999952316,25920.5,26400.799999952316,26896.599999904633,28408.899999976158,28784.799999952316,29169.199999928474,29521.5,30033,39369,40080.799999952316,40914.09999990463,41945,42313.59999990463,42760.799999952316,43857.09999990463,45537.39999997616,46057,46872.699999928474,47529.199999928474,48177.39999997616,53624.799999952316,54305.199999928474,59936.799999952316,60736.799999952316,61704.59999990463,62080.89999997616,62504.89999997616,62913.09999990463,63288.59999990463,64352.59999990463,65106,66209.19999992847,66848.69999992847,67634.5,68168.39999997616,75448.79999995232,76313.5,76752.29999995232,77465.09999990463,77817.5,78936.5,79592.79999995232],"key_events":[],"mouse_events":[19952.199999928474,24545.799999952316,25009.799999952316,25920.5,26400.799999952316,26896.599999904633,28408.899999976158,28784.799999952316,29169.199999928474,29521.5,30033,36329,38473.699999928474,39369,40080.799999952316,40914.09999990463,41256.5,41945,42313.59999990463,42760.799999952316,43296.5,43857.09999990463,44897.199999928474,45537.39999997616,46057,46872.699999928474,47529.199999928474,48177.39999997616,53624.799999952316,54305.199999928474,57768.59999990463,59936.799999952316,60736.799999952316,61121,61704.59999990463,62080.89999997616,62504.89999997616,62913.09999990463,63288.59999990463,63649.09999990463,63968.59999990463,64352.59999990463,64720.59999990463,65106,66209.19999992847,66848.69999992847,67634.5,68168.39999997616,72569.09999990463,75448.79999995232,75800.29999995232,76313.5,76752.29999995232,77465.09999990463,77817.5,78265,78936.5,79288.5,79592.79999995232,83825.09999990463,84433.09999990463,85041.19999992847],"honeypot":0,"survey":"mace","page":6,"trial_type":"survey-mace","trial_index":14,"time_elapsed":940620,"internal_node_id":"0.0-14.0","task_version":"prescreen-v0.3","browser_interactions":0},{"responses":{"01":"No","02":"No","03":"Yes","03_ages_7":"7","03_ages_8":"8","03_ages_9":"9","03_ages_10":"10","03_ages_11":"11","03_ages_12":"12","03_ages_13":"13","03_ages_14":"14","04":"No","05":"No","06":"No","07":"No"},"rt":79090.29999995232,"item_order":[0,1,2,3,4,5,6],"radio_events":[41224.299999952316,43831.199999928474,56191.199999928474,65679.29999995232,69295.60000002384,74720,77695.19999992847],"checkbox_events":[57863.5,58191.60000002384,59127.39999997616,59471.60000002384,60327.39999997616,60807.10000002384,61351.39999997616,62103.199999928474],"key_events":[],"mouse_events":[41224.299999952316,43831.199999928474,56191.199999928474,57863.5,58191.60000002384,58591,59127.39999997616,59471.60000002384,59975.10000002384,60327.39999997616,60807.10000002384,61351.39999997616,62103.199999928474,65679.29999995232,69295.60000002384,74720,77695.19999992847,79088],"honeypot":0,"survey":"mace","page":7,"trial_type":"survey-mace","trial_index":15,"time_elapsed":1019717,"internal_node_id":"0.0-15.0","task_version":"prescreen-v0.3","browser_interactions":0},{"responses":{"01":"No","02":"Yes","02_ages_8":"8","02_ages_9":"9","02_ages_10":"10","02_ages_11":"11","02_ages_12":"12","03":"Yes","03_ages_5":"5","03_ages_6":"6","03_ages_7":"7","03_ages_8":"8","03_ages_9":"9","03_ages_10":"10","03_ages_11":"11","03_ages_12":"12","03_ages_13":"13","03_ages_14":"14","03_ages_15":"15","03_ages_16":"16","03_ages_17":"17","03_ages_18":"18","04":"No"},"rt":82080.70000004768,"item_order":[0,1,2,3],"radio_events":[43823.39999997616,52534.60000002384,63415.200000047684,81471.5],"checkbox_events":[55654.89999997616,56055.10000002384,56775,58518.800000071526,59431.800000071526,64999.200000047684,65847.5,66158.70000004768,66847.39999997616,67670.89999997616,68647.5,69990.80000007153,71263.20000004768,71775.30000007153,72263,72695.10000002384,73231.10000002384,73943.20000004768,74535],"key_events":[],"mouse_events":[43823.39999997616,52534.60000002384,55654.89999997616,56055.10000002384,56502.800000071526,56775,57567.10000002384,58087.700000047684,58518.800000071526,59431.800000071526,63415.200000047684,64999.200000047684,65847.5,66158.70000004768,66599.70000004768,66847.39999997616,67670.89999997616,68647.5,69487.80000007153,69990.80000007153,70526.80000007153,71263.20000004768,71775.30000007153,72263,72695.10000002384,73231.10000002384,73943.20000004768,74535,81471.5,82079.10000002384],"honeypot":0,"survey":"mace","page":8,"trial_type":"survey-mace","trial_index":16,"time_elapsed":1101803,"internal_node_id":"0.0-16.0","task_version":"prescreen-v0.3","browser_interactions":0},{"responses":{"01":"Yes","01_ages_1":"1","01_ages_2":"2","01_ages_3":"3","01_ages_4":"4","01_ages_5":"5","01_ages_6":"6","01_ages_7":"7","01_ages_8":"8","01_ages_9":"9","01_ages_10":"10","01_ages_11":"11","01_ages_12":"12","01_ages_13":"13","01_ages_14":"14","02":"Yes","02_ages_1":"1","02_ages_2":"2","02_ages_3":"3","02_ages_4":"4","02_ages_5":"5","02_ages_6":"6","02_ages_7":"7","02_ages_8":"8","02_ages_9":"9","02_ages_10":"10","02_ages_11":"11","02_ages_12":"12","02_ages_13":"13","02_ages_14":"14","03":"Yes","03_ages_1":"1","03_ages_2":"2","03_ages_3":"3","03_ages_4":"4","03_ages_5":"5","03_ages_6":"6","03_ages_7":"7","03_ages_8":"8","03_ages_9":"9","03_ages_10":"10","03_ages_11":"11","03_ages_12":"12","03_ages_13":"13","03_ages_14":"14","03_ages_15":"15","03_ages_16":"16","03_ages_17":"17","03_ages_18":"18","04":"Yes","04_ages_1":"1","04_ages_2":"2","04_ages_3":"3","04_ages_4":"4","04_ages_5":"5","04_ages_6":"6","04_ages_7":"7","04_ages_8":"8","04_ages_9":"9","04_ages_10":"10","04_ages_11":"11","04_ages_12":"12","04_ages_13":"13","04_ages_14":"14","04_ages_15":"15","04_ages_16":"16","04_ages_17":"17","04_ages_18":"18"},"rt":163892.40000009537,"item_order":[0,1,2,3],"radio_events":[21627.300000071526,44321.800000071526,44593.200000047684,61226.5,99412.90000009537],"checkbox_events":[26037.600000023842,26349,26835.700000047684,27722.900000095367,28457.800000071526,30228.100000023842,31337,32374.300000071526,33299.200000047684,36324.40000009537,46190,47191.300000071526,47996.10000002384,49589.800000071526,50352.90000009537,51919.700000047684,52525.5,53231.300000071526,62727.60000002384,63321,64049.60000002384,64599.200000047684,65194,65932.10000002384,66510.80000007153,67752.90000009537,101106.60000002384,102453.40000009537,103364.20000004768,103936,107526.5,108832.70000004768,109523.90000009537,110427.20000004768,111233.20000004768,113016.70000004768,114993.40000009537,115853.30000007153,116756,117645.20000004768,118407.90000009537,119825.90000009537,121597,122252.20000004768,123149.5,123755.90000009537,129166,130049.40000009537,130875,131461.20000004768,132138.90000009537,134314.90000009537,139372.40000009537,140570,141530.90000009537,142559,143802,145014.60000002384,150748.5,151766.30000007153,152667.70000004768,154636.5,155105.20000004768,156313.5,158625.20000004768,160200.30000007153,161393.90000009537,162892.70000004768],"key_events":[],"mouse_events":[21627.300000071526,26037.600000023842,26349,26835.700000047684,27722.900000095367,28457.800000071526,29340.100000023842,30228.100000023842,31337,32374.300000071526,33299.200000047684,36324.40000009537,44321.800000071526,44593.200000047684,46190,47191.300000071526,47996.10000002384,48772.60000002384,49589.800000071526,50352.90000009537,51264.300000071526,51919.700000047684,52525.5,53231.300000071526,61226.5,62727.60000002384,63321,64049.60000002384,64599.200000047684,65194,65932.10000002384,66510.80000007153,67067.60000002384,67752.90000009537,74538.10000002384,99412.90000009537,101106.60000002384,102453.40000009537,103364.20000004768,103936,106356.60000002384,107526.5,108832.70000004768,109523.90000009537,110427.20000004768,111233.20000004768,112164.10000002384,113016.70000004768,114993.40000009537,115853.30000007153,116756,117645.20000004768,118407.90000009537,119825.90000009537,121597,122252.20000004768,123149.5,123755.90000009537,129166,130049.40000009537,130875,131461.20000004768,132138.90000009537,132837.20000004768,134314.90000009537,139372.40000009537,140570,141530.90000009537,142559,143802,145014.60000002384,150748.5,151766.30000007153,152667.70000004768,154636.5,155105.20000004768,156313.5,158625.20000004768,160200.30000007153,161393.90000009537,162892.70000004768,163889.40000009537],"honeypot":0,"survey":"mace","page":9,"trial_type":"survey-mace","trial_index":17,"time_elapsed":1265702,"internal_node_id":"0.0-17.0","task_version":"prescreen-v0.3","browser_interactions":0},{"responses":{"01":"No","02":"No","03":"No","04":"No","05":"No","06":"Yes","06_ages_17":"17","07":"Yes","07_ages_1":"1","07_ages_2":"2","07_ages_3":"3","07_ages_4":"4","07_ages_5":"5","07_ages_6":"6","07_ages_7":"7","07_ages_8":"8","07_ages_9":"9","07_ages_10":"10","07_ages_11":"11","07_ages_12":"12","07_ages_13":"13","07_ages_14":"14","07_ages_15":"15","07_ages_16":"16","07_ages_17":"17","07_ages_18":"18","08":"Yes","08_ages_1":"1","08_ages_2":"2","08_ages_3":"3","08_ages_4":"4","08_ages_5":"5","08_ages_6":"6","08_ages_7":"7","08_ages_8":"8","08_ages_9":"9","08_ages_10":"10","08_ages_11":"11","08_ages_12":"12","08_ages_13":"13","08_ages_14":"14","08_ages_15":"15","08_ages_16":"16","08_ages_17":"17","08_ages_18":"18"},"rt":148622.20000004768,"item_order":[0,1,2,3,4,5,6,7],"radio_events":[17286.200000047684,17715.100000023842,19388.5,31141.600000023842,34670.10000002384,56793.39999997616,59035.5,67646.20000004768,111116.70000004768],"checkbox_events":[62220.200000047684,77364.39999997616,78391,83063.70000004768,84105.30000007153,85329.5,86428.20000004768,87509,88691.89999997616,89905,91151.60000002384,92646.70000004768,93892.60000002384,95371.80000007153,96952.5,98098.60000002384,99447.89999997616,101664.5,102925.80000007153,115971.89999997616,116982.80000007153,119012.70000004768,119446.80000007153,120122.60000002384,121115.5,122519.30000007153,123556.5,125548.30000007153,126018.10000002384,128193.89999997616,130398.70000004768,132038.30000007153,133179.39999997616,134640,136373.80000007153,138047.30000007153,139072.70000004768,140091.30000007153,141442.70000004768,143681.80000007153,144771.70000004768],"key_events":[],"mouse_events":[17286.200000047684,17715.100000023842,19388.5,29855.399999976158,31141.600000023842,34670.10000002384,56793.39999997616,59035.5,62220.200000047684,67646.20000004768,75651.89999997616,76942.30000007153,77364.39999997616,78391,81218.30000007153,83063.70000004768,84105.30000007153,85329.5,86428.20000004768,87509,88691.89999997616,89905,91151.60000002384,92646.70000004768,93892.60000002384,95371.80000007153,96952.5,98098.60000002384,99447.89999997616,100529.70000004768,101664.5,102925.80000007153,105309.89999997616,105740.60000002384,111116.70000004768,114052.10000002384,115971.89999997616,116982.80000007153,119012.70000004768,119446.80000007153,120122.60000002384,121115.5,122519.30000007153,123556.5,125548.30000007153,126018.10000002384,128193.89999997616,129437.39999997616,130398.70000004768,132038.30000007153,133179.39999997616,134640,136373.80000007153,138047.30000007153,139072.70000004768,140091.30000007153,141442.70000004768,143116.80000007153,143681.80000007153,144771.70000004768,148618.89999997616],"honeypot":0,"survey":"mace","page":10,"trial_type":"survey-mace","trial_index":18,"time_elapsed":1414333,"internal_node_id":"0.0-18.0","task_version":"prescreen-v0.3","browser_interactions":0,"instructed":0},{"rt":5629.799999952316,"trial_type":"mental-health-alert","trial_index":19,"time_elapsed":1419968,"internal_node_id":"0.0-19.0","task_version":"prescreen-v0.3","interactions":"[]"}]