[{"view_history":[{"page_index":0,"viewing_time":1625},{"page_index":1,"viewing_time":6503},{"page_index":2,"viewing_time":2470},{"page_index":3,"viewing_time":903}],"rt":11502,"trial_type":"instructions","trial_index":0,"time_elapsed":11512,"internal_node_id":"0.0-0.0","task_version":"prescreen-v0.3"},{"rt":20931,"responses":{"age":"21","gender-categorical":"Male","gender-free-response":"","ethnicity":"Not Hispanic or Latino","race":["White"],"education":"Some college","siblings":"3"},"trial_type":"survey-demo","trial_index":1,"time_elapsed":32469,"internal_node_id":"0.0-1.0","task_version":"prescreen-v0.3"},{"responses":{"Q13":"2","Q12":"3","Q19":"2","Q11":"2","Q02":"2","Q04":"3","Q07":"0","Q01":"2","Q09":"2","Q15":"3","Q20":"2","Q10":"2","Q03":"3","Q08":"1","Q05":"2","Q21":"2","Q17":"3","Q18":"3","Q14":"3","Q06":"2","Q16":"3"},"rt":95514,"item_order":[12,11,18,10,1,3,6,0,8,14,19,9,2,7,4,20,16,17,13,5,15],"radio_events":[4078,8919,12614,14848,22985,26880,31959,35950,40093,41643,46260,49597,50378,53067,56754,60736,66810,71521,75791,78949,82135,85319,89133,92315,94244],"key_events":[],"mouse_events":[4078,8919,12614,14848,22985,26016,26880,31959,35950,38132,40093,41643,46260,48797,49597,50378,53067,56754,60736,66810,71521,75078,75791,78949,81559,82135,84918,85319,89133,92315,94244,95514],"straightlining":0.5238095238095238,"zigzagging":0.55,"honeypot":0,"survey":"sns","trial_type":"survey-template","trial_index":2,"time_elapsed":127992,"internal_node_id":"0.0-2.0","task_version":"prescreen-v0.3","browser_interactions":0,"infrequency":0.5},{"responses":{"Q09":"0","Q07":"1","Q08":"2","Q10":"1","Q03":"3","Q04":"3","Q12":"0","Q13":"0","Q11":"1","Q02":"3","Q05":"2","Q01":"3","Q06":"2"},"rt":68841,"item_order":[8,6,7,9,2,3,11,12,10,1,4,0,5],"radio_events":[5796,9119,12536,32004,33702,37695,40965,43722,48658,54706,59136,62698,63402,65175,67648],"key_events":[],"mouse_events":[5796,9119,12536,32004,33702,37695,40508,40965,43722,47279,48658,54706,59136,62698,63402,65175,67648,68841],"straightlining":0.3076923076923077,"zigzagging":0.6666666666666666,"honeypot":0,"survey":"bisbas","trial_type":"survey-template","trial_index":3,"time_elapsed":196843,"internal_node_id":"0.0-3.0","task_version":"prescreen-v0.3","browser_interactions":0,"infrequency":0},{"responses":{"Q01":"2","Q02":"2","Q03":"1"},"rt":37500,"radio_events":[8019,13470,19429,33346,36666],"key_events":[],"mouse_events":[8019,13470,18044,19429,33346,35453,36057,36666,37500],"survey":"map","page":1,"trial_type":"survey-map","trial_index":4,"time_elapsed":234349,"internal_node_id":"0.0-4.0","task_version":"prescreen-v0.3","browser_interactions":0},{"responses":{"Q04":"3","Q05":"2","Q06":"2"},"rt":24031,"radio_events":[17336,20847,23080],"key_events":[],"mouse_events":[17336,20847,23080,24030],"survey":"map","page":2,"trial_type":"survey-map","trial_index":5,"time_elapsed":258388,"internal_node_id":"0.0-5.0","task_version":"prescreen-v0.3","browser_interactions":0},{"responses":{"Q07":"3","Q08":"0","Q09":"2"},"rt":17422,"radio_events":[7038,10932,16299],"key_events":[],"mouse_events":[7038,10932,15820,16299,17422],"survey":"map","page":3,"trial_type":"survey-map","trial_index":6,"time_elapsed":275815,"internal_node_id":"0.0-6.0","task_version":"prescreen-v0.3","browser_interactions":0},{"responses":{"Q10":"1","Q11":"1","Q12":"2","Q13":"3","Q16":"0","Q14":"2","Q15":"1"},"rt":36564,"radio_events":[3422,4343,7654,14029,20138,26473,32016,35407],"key_events":[],"mouse_events":[3422,4343,7654,14029,20138,26473,32016,35407,36564],"survey":"map","page":4,"trial_type":"survey-map","trial_index":7,"time_elapsed":312386,"internal_node_id":"0.0-7.0","task_version":"prescreen-v0.3","browser_interactions":0,"infrequency":0},{"view_history":[{"page_index":0,"viewing_time":1756},{"page_index":1,"viewing_time":3071}],"rt":4828,"trial_type":"instructions","trial_index":8,"time_elapsed":317217,"internal_node_id":"0.0-8.0","task_version":"prescreen-v0.3"},{"responses":{"01":"Yes","01_ages_8":"8","01_ages_9":"9","01_ages_10":"10","01_ages_11":"11","01_ages_12":"12","01_ages_13":"13","01_ages_14":"14","01_ages_15":"15","02":"Yes","02_ages_8":"8","02_ages_9":"9","02_ages_10":"10","02_ages_11":"11","02_ages_12":"12","02_ages_13":"13","02_ages_14":"14","02_ages_15":"15","03":"Yes","03_ages_10":"10","03_ages_11":"11","03_ages_12":"12","03_ages_13":"13","04":"No","05":"No","06":"Yes","06_ages_10":"10","06_ages_11":"11","06_ages_12":"12","06_ages_13":"13"},"rt":97210,"item_order":[0,1,2,3,4,5],"radio_events":[4636,55444,64497,77917,87974,90645],"checkbox_events":[13348,14234,18684,19329,20521,21074,22050,22955,44817,52865,56639,57320,57913,58577,59041,59941,60375,61470,68150,68965,69475,70644,71381,74918,92790,93810,94290,94753],"key_events":[],"mouse_events":[0,4636,13348,14234,18684,19329,20521,21074,21530,22050,22515,22955,44817,52865,55444,56639,57320,57913,58577,59041,59537,59941,60375,61470,64497,68150,68965,69475,70644,71381,74918,77917,87974,90645,92790,93273,93810,94290,94753,97210],"honeypot":0,"survey":"mace","page":1,"trial_type":"survey-mace","trial_index":9,"time_elapsed":414450,"internal_node_id":"0.0-9.0","task_version":"prescreen-v0.3","browser_interactions":0},{"responses":{"01":"Yes","01_ages_11":"11","01_ages_12":"12","02":"No","03":"No","03_ages_11":"11","03_ages_12":"12","04":"No","05":"No","06":"No","07":"No","08":"No"},"rt":38454,"item_order":[0,1,2,3,4,5,6,7],"radio_events":[3396,8755,11658,16424,17793,19517,20542,21519,34874],"checkbox_events":[4660,5121,14038,14463],"key_events":[],"mouse_events":[3396,4660,5121,8755,11658,13574,14038,14463,16424,17793,19517,20542,21519,34874,38454],"honeypot":0,"survey":"mace","page":2,"trial_type":"survey-mace","trial_index":10,"time_elapsed":452923,"internal_node_id":"0.0-10.0","task_version":"prescreen-v0.3","browser_interactions":0},{"responses":{"01":"No","02":"No","03":"No","04":"No"},"rt":12781,"item_order":[0,1,2,3],"radio_events":[6088,8475,10352,11633],"checkbox_events":[],"key_events":[],"mouse_events":[4908,6088,6913,8475,9459,10352,11023,11633,12780],"honeypot":0,"survey":"mace","page":3,"trial_type":"survey-mace","trial_index":11,"time_elapsed":465714,"internal_node_id":"0.0-11.0","task_version":"prescreen-v0.3","browser_interactions":0},{"responses":{"01":"No","02":"No"},"rt":4383,"item_order":[0,1],"radio_events":[2147,3499],"checkbox_events":[],"key_events":[],"mouse_events":[2147,3499,4383],"honeypot":0,"survey":"mace","page":4,"trial_type":"survey-mace","trial_index":12,"time_elapsed":470106,"internal_node_id":"0.0-12.0","task_version":"prescreen-v0.3","browser_interactions":0},{"responses":{"01":"Yes","01_ages_11":"11","01_ages_12":"12","01_ages_14":"14","02":"No","03":"No","04":"No","05":"No"},"rt":37458,"item_order":[0,1,2,3,4],"radio_events":[11184,26234,30088,34198,35748],"checkbox_events":[16499,17972,22043],"key_events":[],"mouse_events":[11184,16499,17972,22043,26234,30088,34198,35748,37457],"honeypot":0,"survey":"mace","page":5,"trial_type":"survey-mace","trial_index":13,"time_elapsed":507578,"internal_node_id":"0.0-13.0","task_version":"prescreen-v0.3","browser_interactions":0},{"responses":{"01":"No","02":"No","03":"No","04":"No","05":"No"},"rt":20430,"item_order":[0,1,2,3,4],"radio_events":[11533,12745,15778,17544,19560],"checkbox_events":[],"key_events":[],"mouse_events":[11533,12745,13898,15123,15778,16359,17544,19048,19560,20430],"honeypot":0,"survey":"mace","page":6,"trial_type":"survey-mace","trial_index":14,"time_elapsed":528021,"internal_node_id":"0.0-14.0","task_version":"prescreen-v0.3","browser_interactions":0},{"responses":{"01":"No","02":"No","03":"No","04":"No","05":"No","06":"No","07":"No"},"rt":11801,"item_order":[0,1,2,3,4,5,6],"radio_events":[2847,4024,5132,6948,8800,10049,11218],"checkbox_events":[],"key_events":[],"mouse_events":[2847,4024,5132,6948,8020,8800,10049,11218,11801],"honeypot":0,"survey":"mace","page":7,"trial_type":"survey-mace","trial_index":15,"time_elapsed":539837,"internal_node_id":"0.0-15.0","task_version":"prescreen-v0.3","browser_interactions":0},{"responses":{"01":"Yes","01_ages_10":"10","01_ages_11":"11","01_ages_12":"12","01_ages_13":"13","01_ages_14":"14","01_ages_15":"15","01_ages_16":"16","02":"Yes","02_ages_6":"6","02_ages_7":"7","02_ages_8":"8","02_ages_9":"9","02_ages_10":"10","02_ages_11":"11","02_ages_12":"12","02_ages_13":"13","02_ages_14":"14","02_ages_15":"15","02_ages_16":"16","02_ages_17":"17","02_ages_18":"18","03":"No","04":"Yes","04_ages_6":"6","04_ages_7":"7","04_ages_8":"8","04_ages_9":"9","04_ages_10":"10","04_ages_11":"11","04_ages_12":"12","04_ages_13":"13","04_ages_14":"14","04_ages_15":"15","04_ages_16":"16"},"rt":58403,"item_order":[0,1,2,3],"radio_events":[6412,21568,35595,36600,41190,56484],"checkbox_events":[11106,11650,12177,12702,13630,14094,14958,16143,16611,17419,18427,25126,25935,26422,26950,27398,27838,28279,28791,29271,29772,30276,30772,31220,43284,43954,44979,45731,46311,46872,47344,47833,48369,50002,50489],"key_events":[],"mouse_events":[6412,11106,11650,12177,12702,13239,13630,14094,14534,14958,16143,16611,17419,18427,21568,25126,25558,25935,26422,26950,27398,27838,28279,28791,29271,29772,30276,30772,31220,35595,36600,41190,43284,43954,44979,45731,46311,46872,47344,47833,48369,50002,50489,56484,58403],"honeypot":0,"survey":"mace","page":8,"trial_type":"survey-mace","trial_index":16,"time_elapsed":598253,"internal_node_id":"0.0-16.0","task_version":"prescreen-v0.3","browser_interactions":0},{"responses":{"01":"Yes","01_ages_1":"1","01_ages_2":"2","01_ages_3":"3","01_ages_4":"4","01_ages_5":"5","01_ages_6":"6","01_ages_7":"7","01_ages_8":"8","01_ages_9":"9","01_ages_10":"10","01_ages_11":"11","01_ages_12":"12","01_ages_13":"13","01_ages_14":"14","01_ages_15":"15","01_ages_16":"16","01_ages_17":"17","01_ages_18":"18","02":"Yes","02_ages_1":"1","02_ages_2":"2","02_ages_3":"3","02_ages_4":"4","02_ages_5":"5","02_ages_6":"6","02_ages_7":"7","02_ages_8":"8","02_ages_9":"9","02_ages_10":"10","02_ages_11":"11","02_ages_12":"12","02_ages_13":"13","02_ages_14":"14","02_ages_15":"15","02_ages_16":"16","02_ages_17":"17","02_ages_18":"18","03":"Yes","03_ages_1":"1","03_ages_2":"2","03_ages_3":"3","03_ages_4":"4","03_ages_5":"5","03_ages_6":"6","03_ages_7":"7","03_ages_8":"8","03_ages_9":"9","03_ages_10":"10","03_ages_11":"11","03_ages_12":"12","03_ages_13":"13","03_ages_14":"14","03_ages_15":"15","03_ages_16":"16","03_ages_17":"17","03_ages_18":"18","04":"Yes","04_ages_1":"1","04_ages_2":"2","04_ages_3":"3","04_ages_4":"4","04_ages_5":"5","04_ages_6":"6","04_ages_7":"7","04_ages_8":"8","04_ages_9":"9","04_ages_10":"10","04_ages_11":"11","04_ages_12":"12","04_ages_13":"13","04_ages_14":"14","04_ages_15":"15","04_ages_16":"16","04_ages_17":"17","04_ages_18":"18"},"rt":60198,"item_order":[0,1,2,3],"radio_events":[4146,19414,33610,47338],"checkbox_events":[5828,6675,7283,7759,8183,8591,9007,9424,9823,10215,10640,11087,11520,11960,12401,12864,13361,13842,20312,20726,21140,21547,21979,22420,22836,23220,23637,24061,24477,24958,25414,26771,27187,27715,28156,29060,36304,36895,37312,37744,38512,38929,39328,39737,40241,40697,41142,41590,42543,42911,43296,43712,44168,44608,48562,48985,49449,49874,50282,52171,52596,53107,53884,54365,54813,55261,56069,56565,57030,57519,58007,58431],"key_events":[],"mouse_events":[4146,5828,6251,6675,7283,7759,8183,8591,9007,9424,9823,10215,10640,11087,11520,11960,12401,12864,13361,13842,19414,20312,20726,21140,21547,21979,22420,22836,23220,23637,24061,24477,24958,25414,25837,26355,26771,27187,27715,28156,28620,29060,33610,34931,35315,35923,36304,36895,37312,37744,38160,38512,38929,39328,39737,40241,40697,41142,41590,42142,42543,42911,43296,43712,44168,44608,47338,48562,48985,49449,49874,50282,50674,51259,51676,52171,52596,53107,53548,53884,54365,54813,55261,55701,56069,56565,57030,57519,58007,58431,60198],"honeypot":0,"survey":"mace","page":9,"trial_type":"survey-mace","trial_index":17,"time_elapsed":658464,"internal_node_id":"0.0-17.0","task_version":"prescreen-v0.3","browser_interactions":0},{"responses":{"01":"No","02":"No","03":"No","04":"Yes","04_ages_6":"6","04_ages_7":"7","04_ages_8":"8","04_ages_9":"9","04_ages_10":"10","04_ages_11":"11","04_ages_12":"12","05":"No","06":"Yes","06_ages_17":"17","07":"No","08":"No"},"rt":28390,"item_order":[0,1,2,3,4,5,6,7],"radio_events":[2374,3431,5967,8177,21092,22709,25975,27647],"checkbox_events":[11123,11851,12764,13793,14345,14945,17490,23613],"key_events":[],"mouse_events":[2374,3431,5967,8177,11123,11851,12764,13793,14345,14945,17490,21092,22709,23613,25975,27647,28390],"honeypot":0,"survey":"mace","page":10,"trial_type":"survey-mace","trial_index":18,"time_elapsed":686873,"internal_node_id":"0.0-18.0","task_version":"prescreen-v0.3","browser_interactions":0,"instructed":0},{"rt":4344,"trial_type":"mental-health-alert","trial_index":19,"time_elapsed":691220,"internal_node_id":"0.0-19.0","task_version":"prescreen-v0.3","interactions":"[{\"event\":\"focus\",\"trial\":0,\"time\":3}]"}]