[{"view_history":[{"page_index":0,"viewing_time":1840},{"page_index":1,"viewing_time":1744.199999999255},{"page_index":2,"viewing_time":2506.0999999996275},{"page_index":3,"viewing_time":867.6000000014901}],"rt":6958.4000000003725,"trial_type":"instructions","trial_index":0,"time_elapsed":6963,"internal_node_id":"0.0-0.0","task_version":"prescreen-v0.3"},{"rt":13816.099999999627,"responses":{"age":"21","gender-categorical":"Male","gender-free-response":"","ethnicity":"Not Hispanic or Latino","race":["Asian"],"education":"Associate degree","siblings":"1"},"trial_type":"survey-demo","trial_index":1,"time_elapsed":20782,"internal_node_id":"0.0-1.0","task_version":"prescreen-v0.3"},{"responses":{"Q15":"1","Q02":"0","Q19":"1","Q21":"3","Q01":"1","Q17":"1","Q07":"1","Q12":"1","Q03":"0","Q06":"0","Q05":"0","Q14":"0","Q11":"0","Q04":"0","Q13":"0","Q08":"1","Q16":"0","Q10":"0","Q09":"0","Q18":"0","Q20":"0"},"rt":54507.800000000745,"item_order":[14,1,18,20,0,16,6,11,2,5,4,13,10,3,12,7,15,9,8,17,19],"radio_events":[6000.9000000003725,7853.0999999996275,9380.599999999627,12110.900000000373,15082.700000001118,16826.900000000373,18884.800000000745,22951,26383,28139,28828.900000000373,30533.200000001118,33501.09999999963,35897.20000000112,37215.09999999963,39614.70000000112,42007.20000000112,43812.90000000037,47142.90000000037,48956.90000000037,50204.800000000745,52174.800000000745,52977.09999999963],"key_events":[6000.9000000003725,7853.0999999996275,8746.800000000745,9380.599999999627,12110.900000000373,14751.099999999627,15082.700000001118,16826.900000000373,18884.800000000745,22563,22951,26383,27742.900000000373,28139,28828.900000000373,30533.200000001118,33501.09999999963,35897.20000000112,37215.09999999963,39277.09999999963,39614.70000000112,42007.20000000112,43812.90000000037,47142.90000000037,48956.90000000037,50204.800000000745,52174.800000000745,52977.09999999963,54506.800000000745],"mouse_events":[],"straightlining":0.6190476190476191,"zigzagging":0.25,"honeypot":0,"survey":"sns","trial_type":"survey-template","trial_index":2,"time_elapsed":75295,"internal_node_id":"0.0-2.0","task_version":"prescreen-v0.3","browser_interactions":2,"infrequency":0},{"responses":{"Q06":"2","Q03":"2","Q11":"3","Q07":"3","Q12":"2","Q02":"1","Q13":"0","Q09":"2","Q01":"1","Q10":"2","Q08":"3","Q05":"2","Q04":"1"},"rt":52002.79999999888,"item_order":[5,2,10,6,11,1,12,8,0,9,7,4,3],"radio_events":[4308.299999998882,6926.5,9340.099999999627,11593.89999999851,14892.099999999627,16872.799999998882,18968.099999999627,32280.199999999255,34476.29999999888,36190.29999999888,38386.199999999255,47568.199999999255,51502.29999999888],"key_events":[4308.299999998882,6926.5,9340.099999999627,11238.299999998882,11593.89999999851,14394.39999999851,14892.099999999627,16872.799999998882,18968.099999999627,32280.199999999255,34476.29999999888,36190.29999999888,38386.199999999255,47568.199999999255,50788.29999999888,51502.29999999888,52002.09999999963],"mouse_events":[],"straightlining":0.46153846153846156,"zigzagging":0.75,"honeypot":0,"survey":"bisbas","trial_type":"survey-template","trial_index":3,"time_elapsed":127302,"internal_node_id":"0.0-3.0","task_version":"prescreen-v0.3","browser_interactions":8,"infrequency":0},{"responses":{"Q01":"2","Q02":"2","Q03":"2"},"rt":9569.900000000373,"radio_events":[3813.0999999996275,6157.299999998882,8984.900000000373],"key_events":[3813.0999999996275,6157.299999998882,8984.900000000373,9569.400000000373],"mouse_events":[],"survey":"map","page":1,"trial_type":"survey-map","trial_index":4,"time_elapsed":136877,"internal_node_id":"0.0-4.0","task_version":"prescreen-v0.3","browser_interactions":0},{"responses":{"Q04":"2","Q05":"1","Q06":"2"},"rt":7810.5,"radio_events":[2564.0999999996275,3966.300000000745,5136.199999999255,7339.800000000745],"key_events":[2564.0999999996275,3966.300000000745,4814.199999999255,5136.199999999255,7339.800000000745,7810.199999999255],"mouse_events":[],"survey":"map","page":2,"trial_type":"survey-map","trial_index":5,"time_elapsed":144690,"internal_node_id":"0.0-5.0","task_version":"prescreen-v0.3","browser_interactions":0},{"responses":{"Q07":"3","Q08":"3","Q09":"2"},"rt":8640.799999998882,"radio_events":[3481.199999999255,5238.89999999851,7133],"key_events":[3092.5999999996275,3481.199999999255,5238.89999999851,7133,8640.39999999851],"mouse_events":[],"survey":"map","page":3,"trial_type":"survey-map","trial_index":6,"time_elapsed":153333,"internal_node_id":"0.0-6.0","task_version":"prescreen-v0.3","browser_interactions":0},{"responses":{"Q10":"2","Q11":"3","Q12":"1","Q13":"1","Q16":"0","Q14":"2","Q15":"2"},"rt":22719.200000001118,"radio_events":[3408.2000000011176,5218.5,6316.5,8888.200000001118,12274.5,15598.300000000745,21366.900000000373,21850.5],"key_events":[3408.2000000011176,5218.5,6316.5,8888.200000001118,12274.5,14784.5,15246.400000000373,15598.300000000745,19054.599999999627,19414.400000000373,21044.099999999627,21366.900000000373,21850.5,22718.5],"mouse_events":[],"survey":"map","page":4,"trial_type":"survey-map","trial_index":7,"time_elapsed":176057,"internal_node_id":"0.0-7.0","task_version":"prescreen-v0.3","browser_interactions":0,"infrequency":0},{"view_history":[{"page_index":0,"viewing_time":1807.699999999255},{"page_index":1,"viewing_time":2282}],"rt":4090.2999999988824,"trial_type":"instructions","trial_index":8,"time_elapsed":180150,"internal_node_id":"0.0-8.0","task_version":"prescreen-v0.3"},{"responses":{"01":"No","02":"No","03":"No","04":"No","05":"No","06":"No"},"rt":13709.900000000373,"item_order":[0,1,2,3,4,5],"radio_events":[5330.800000000745,6894.5,9864.599999999627,11238.300000000745,12192.300000000745,13293.900000000373],"checkbox_events":[],"key_events":[0.09999999962747097,5330.800000000745,6894.5,9864.599999999627,11238.300000000745,12192.300000000745,13079.900000000373,13293.900000000373,13708.400000000373],"mouse_events":[],"honeypot":0,"survey":"mace","page":1,"trial_type":"survey-mace","trial_index":9,"time_elapsed":193864,"internal_node_id":"0.0-9.0","task_version":"prescreen-v0.3","browser_interactions":0},{"responses":{"01":"No","02":"No","03":"No","04":"No","05":"No","06":"No","07":"No","08":"No"},"rt":12741.599999999627,"item_order":[0,1,2,3,4,5,6,7],"radio_events":[1573.7999999988824,3565.5,5837.39999999851,6399.5,7501.5999999996275,9987.699999999255,11857.39999999851,12213.39999999851],"checkbox_events":[],"key_events":[1573.7999999988824,3565.5,4275.39999999851,5837.39999999851,6399.5,7501.5999999996275,9987.699999999255,11011.799999998882,11513.5,11857.39999999851,12213.39999999851,12739.599999999627],"mouse_events":[],"honeypot":0,"survey":"mace","page":2,"trial_type":"survey-mace","trial_index":10,"time_elapsed":206610,"internal_node_id":"0.0-10.0","task_version":"prescreen-v0.3","browser_interactions":0},{"responses":{"01":"No","02":"No","03":"No","04":"No"},"rt":6134.299999998882,"item_order":[0,1,2,3],"radio_events":[2219.2999999988824,4587.4000000003725,5215.4000000003725,5637.299999998882],"checkbox_events":[],"key_events":[2219.2999999988824,4335.0999999996275,4587.4000000003725,4973,5215.4000000003725,5637.299999998882,6133.299999998882],"mouse_events":[],"honeypot":0,"survey":"mace","page":3,"trial_type":"survey-mace","trial_index":11,"time_elapsed":212749,"internal_node_id":"0.0-11.0","task_version":"prescreen-v0.3","browser_interactions":0},{"responses":{"01":"No","02":"No"},"rt":3333.89999999851,"item_order":[0,1],"radio_events":[1603,2958.89999999851],"checkbox_events":[],"key_events":[1603,2958.89999999851,3333],"mouse_events":[],"honeypot":0,"survey":"mace","page":4,"trial_type":"survey-mace","trial_index":12,"time_elapsed":216087,"internal_node_id":"0.0-12.0","task_version":"prescreen-v0.3","browser_interactions":0},{"responses":{"01":"No","02":"No","03":"No","04":"No","05":"No"},"rt":8761.299999998882,"item_order":[0,1,2,3,4],"radio_events":[3123.2999999988824,4771.699999999255,5159.4000000003725,6061.199999999255,6725.5999999996275],"checkbox_events":[],"key_events":[2825.5,3123.2999999988824,4771.699999999255,5159.4000000003725,5611.5,6061.199999999255,6725.5999999996275,8760],"mouse_events":[],"honeypot":0,"survey":"mace","page":5,"trial_type":"survey-mace","trial_index":13,"time_elapsed":224852,"internal_node_id":"0.0-13.0","task_version":"prescreen-v0.3","browser_interactions":0},{"responses":{"01":"No","02":"No","03":"No","04":"No","05":"No"},"rt":14499.5,"item_order":[0,1,2,3,4],"radio_events":[5179.89999999851,8419.599999999627,9890,10828,11260.099999999627],"checkbox_events":[],"key_events":[5179.89999999851,8419.599999999627,9890,10305.799999998882,10828,11260.099999999627,14498.099999999627],"mouse_events":[],"honeypot":0,"survey":"mace","page":6,"trial_type":"survey-mace","trial_index":14,"time_elapsed":239356,"internal_node_id":"0.0-14.0","task_version":"prescreen-v0.3","browser_interactions":2},{"responses":{"01":"No","02":"No","03":"No","04":"No","05":"No","06":"No","07":"No"},"rt":8747.89999999851,"item_order":[0,1,2,3,4,5,6],"radio_events":[1632,2827.7999999988824,4491.699999999255,5582.0999999996275,7275.799999998882,7721.5999999996275,8159.89999999851],"checkbox_events":[],"key_events":[1632,2827.7999999988824,4010,4491.699999999255,5582.0999999996275,7275.799999998882,7721.5999999996275,8159.89999999851,8745.799999998882],"mouse_events":[],"honeypot":0,"survey":"mace","page":7,"trial_type":"survey-mace","trial_index":15,"time_elapsed":248108,"internal_node_id":"0.0-15.0","task_version":"prescreen-v0.3","browser_interactions":0},{"responses":{"01":"No","02":"No","03":"No","04":"No"},"rt":10157.400000000373,"item_order":[0,1,2,3],"radio_events":[3674.5,6470.300000000745,6892.300000000745,8138.199999999255],"checkbox_events":[],"key_events":[3674.5,6470.300000000745,6892.300000000745,8138.199999999255,10156.199999999255],"mouse_events":[],"honeypot":0,"survey":"mace","page":8,"trial_type":"survey-mace","trial_index":16,"time_elapsed":258270,"internal_node_id":"0.0-16.0","task_version":"prescreen-v0.3","browser_interactions":0},{"responses":{"01":"Yes","01_ages_1":"1","01_ages_2":"2","01_ages_3":"3","01_ages_4":"4","01_ages_5":"5","01_ages_6":"6","01_ages_7":"7","01_ages_8":"8","01_ages_9":"9","01_ages_10":"10","01_ages_11":"11","01_ages_12":"12","01_ages_13":"13","01_ages_14":"14","01_ages_15":"15","01_ages_16":"16","01_ages_17":"17","01_ages_18":"18","02":"Yes","02_ages_1":"1","02_ages_2":"2","02_ages_3":"3","02_ages_4":"4","02_ages_5":"5","02_ages_6":"6","02_ages_7":"7","02_ages_8":"8","02_ages_9":"9","02_ages_10":"10","02_ages_11":"11","02_ages_12":"12","02_ages_13":"13","02_ages_14":"14","02_ages_15":"15","02_ages_16":"16","02_ages_17":"17","02_ages_18":"18","03":"Yes","03_ages_1":"1","03_ages_2":"2","03_ages_3":"3","03_ages_4":"4","03_ages_5":"5","03_ages_6":"6","03_ages_7":"7","03_ages_8":"8","03_ages_9":"9","03_ages_10":"10","03_ages_11":"11","03_ages_12":"12","03_ages_13":"13","03_ages_14":"14","03_ages_15":"15","03_ages_16":"16","03_ages_17":"17","03_ages_18":"18","04":"No"},"rt":46596.09999999963,"item_order":[0,1,2,3],"radio_events":[2039,19506.699999999255,29817.099999999627,40750.90000000037,44196.699999999255],"checkbox_events":[9239.099999999627,9772.699999999255,10088.800000000745,10406.599999999627,11144.800000000745,11660.599999999627,12294.800000000745,12678.699999999255,13040.800000000745,14138.900000000373,14444.900000000373,14865,15378.699999999255,15734.699999999255,16132.699999999255,16526.699999999255,16842.800000000745,17478.800000000745,20598.800000000745,20904.800000000745,21298.5,21634.900000000373,21992.800000000745,22337.400000000373,22706.800000000745,23216.900000000373,23624.699999999255,24008.800000000745,24412.800000000745,25289,25578.800000000745,25984.900000000373,26378.699999999255,26732.699999999255,27107.099999999627,27928.400000000373,31202.599999999627,31528.699999999255,31883.099999999627,32196.699999999255,32578.5,32962.800000000745,33290.59999999963,33660.5,34054.699999999255,34778.59999999963,35114.699999999255,35508.699999999255,35916.59999999963,36271,36614.59999999963,36994.699999999255,37438.59999999963,37984.699999999255],"key_events":[2039,9239.099999999627,9504.699999999255,9772.699999999255,10088.800000000745,10406.599999999627,10762.699999999255,11144.800000000745,11660.599999999627,12016.800000000745,12294.800000000745,12678.699999999255,13040.800000000745,13406.300000000745,14138.900000000373,14444.900000000373,14865,15378.699999999255,15734.699999999255,16132.699999999255,16526.699999999255,16842.800000000745,17234.400000000373,17478.800000000745,19218.800000000745,19506.699999999255,20598.800000000745,20904.800000000745,21298.5,21634.900000000373,21992.800000000745,22337.400000000373,22706.800000000745,23216.900000000373,23624.699999999255,24008.800000000745,24412.800000000745,24824.400000000373,25289,25578.800000000745,25984.900000000373,26378.699999999255,26732.699999999255,27107.099999999627,27504.699999999255,27928.400000000373,29817.099999999627,30732.699999999255,31202.599999999627,31528.699999999255,31883.099999999627,32196.699999999255,32578.5,32962.800000000745,33290.59999999963,33660.5,34054.699999999255,34778.59999999963,35114.699999999255,35508.699999999255,35916.59999999963,36271,36614.59999999963,36994.699999999255,37438.59999999963,37984.699999999255,40750.90000000037,44196.699999999255,46595],"mouse_events":[],"honeypot":0,"survey":"mace","page":9,"trial_type":"survey-mace","trial_index":17,"time_elapsed":304870,"internal_node_id":"0.0-17.0","task_version":"prescreen-v0.3","browser_interactions":0},{"responses":{"01":"No","02":"No","03":"No","04":"No","05":"No","06":"Yes","06_ages_17":"17","07":"Yes","07_ages_1":"1","07_ages_2":"2","07_ages_3":"3","07_ages_4":"4","07_ages_5":"5","07_ages_6":"6","07_ages_7":"7","07_ages_8":"8","07_ages_9":"9","07_ages_10":"10","07_ages_11":"11","07_ages_12":"12","07_ages_13":"13","07_ages_14":"14","07_ages_15":"15","07_ages_16":"16","07_ages_17":"17","07_ages_18":"18","08":"Yes","08_ages_18":"18"},"rt":30001.800000000745,"item_order":[0,1,2,3,4,5,6,7],"radio_events":[2682.0999999996275,3817.800000000745,4874,6380.0999999996275,8405.699999999255,10657.800000000745,14667.5,27943.800000000745],"checkbox_events":[11697.800000000745,19296,19636.099999999627,20333.699999999255,21162,21609.800000000745,22078,22535.699999999255,22905.800000000745,24063.900000000373,24437.800000000745,24859.599999999627,25236,25625.800000000745,25964.199999999255,26291.800000000745,26594.400000000373,26935.5,27263.5,29481.800000000745],"key_events":[2682.0999999996275,3509.5999999996275,3817.800000000745,4874,6380.0999999996275,8405.699999999255,10657.800000000745,11697.800000000745,14667.5,19296,19636.099999999627,20000,20333.699999999255,20829.599999999627,21162,21609.800000000745,22078,22535.699999999255,22905.800000000745,23293.599999999627,23759.699999999255,24063.900000000373,24437.800000000745,24859.599999999627,25236,25625.800000000745,25964.199999999255,26291.800000000745,26594.400000000373,26935.5,27263.5,27943.800000000745,29481.800000000745,29999.599999999627],"mouse_events":[],"honeypot":0,"survey":"mace","page":10,"trial_type":"survey-mace","trial_index":18,"time_elapsed":334876,"internal_node_id":"0.0-18.0","task_version":"prescreen-v0.3","browser_interactions":0,"instructed":0},{"rt":260532,"trial_type":"mental-health-alert","trial_index":19,"time_elapsed":595412,"internal_node_id":"0.0-19.0","task_version":"prescreen-v0.3","interactions":"[{\"event\":\"blur\",\"trial\":2,\"time\":22985},{\"event\":\"focus\",\"trial\":2,\"time\":23574},{\"event\":\"blur\",\"trial\":3,\"time\":97531},{\"event\":\"focus\",\"trial\":3,\"time\":98523},{\"event\":\"blur\",\"trial\":3,\"time\":101824},{\"event\":\"focus\",\"trial\":3,\"time\":102389},{\"event\":\"blur\",\"trial\":3,\"time\":118320},{\"event\":\"focus\",\"trial\":3,\"time\":118922},{\"event\":\"blur\",\"trial\":3,\"time\":119588},{\"event\":\"focus\",\"trial\":3,\"time\":120374},{\"event\":\"blur\",\"trial\":14,\"time\":225911},{\"event\":\"focus\",\"trial\":14,\"time\":226636},{\"event\":\"blur\",\"trial\":19,\"time\":340271},{\"event\":\"focus\",\"trial\":19,\"time\":340864},{\"event\":\"blur\",\"trial\":19,\"time\":341373},{\"event\":\"focus\",\"trial\":19,\"time\":362120},{\"event\":\"blur\",\"trial\":19,\"time\":363648},{\"event\":\"focus\",\"trial\":19,\"time\":364212},{\"event\":\"blur\",\"trial\":19,\"time\":365719},{\"event\":\"focus\",\"trial\":19,\"time\":400391},{\"event\":\"blur\",\"trial\":19,\"time\":401904},{\"event\":\"focus\",\"trial\":19,\"time\":402508},{\"event\":\"blur\",\"trial\":19,\"time\":403168},{\"event\":\"focus\",\"trial\":19,\"time\":403973},{\"event\":\"blur\",\"trial\":19,\"time\":591272},{\"event\":\"focus\",\"trial\":19,\"time\":592244},{\"event\":\"blur\",\"trial\":19,\"time\":592793},{\"event\":\"focus\",\"trial\":19,\"time\":594207}]"}]