[{"view_history":[{"page_index":0,"viewing_time":3320.5},{"page_index":1,"viewing_time":14255.700000047684},{"page_index":2,"viewing_time":3976.100000023842},{"page_index":3,"viewing_time":6352}],"rt":27904.900000095367,"trial_type":"instructions","trial_index":0,"time_elapsed":27921,"internal_node_id":"0.0-0.0","task_version":"prescreen-v0.3"},{"rt":16684.800000071526,"responses":{"age":"45","gender-categorical":"Male","gender-free-response":"","ethnicity":"Not Hispanic or Latino","race":["Asian"],"education":"Bachelor degree","siblings":"02"},"trial_type":"survey-demo","trial_index":1,"time_elapsed":44609,"internal_node_id":"0.0-1.0","task_version":"prescreen-v0.3"},{"responses":{"Q16":"0","Q06":"2","Q05":"2","Q19":"1","Q21":"2","Q10":"1","Q03":"1","Q11":"1","Q20":"1","Q07":"1","Q01":"1","Q04":"1","Q14":"1","Q15":"1","Q18":"1","Q12":"1","Q02":"1","Q08":"1","Q17":"1","Q13":"1","Q09":"1"},"rt":94323.5,"item_order":[15,5,4,18,20,9,2,10,19,6,0,3,13,14,17,11,1,7,16,12,8],"radio_events":[19538.299999952316,30898.100000023842,31626.100000023842,35266.10000002384,37426.10000002384,41938.10000002384,43666.10000002384,46530.10000002384,48386,55306.10000002384,57218.10000002384,60578,64018.10000002384,72170,75714.10000002384,79146.10000002384,82113.89999997616,83689.89999997616,88170,88706,92490.10000002384],"key_events":[],"mouse_events":[19538.299999952316,24866.100000023842,30218.100000023842,30898.100000023842,31626.100000023842,35266.10000002384,37426.10000002384,40762.10000002384,41938.10000002384,43666.10000002384,46530.10000002384,48386,54538.199999928474,55306.10000002384,57218.10000002384,60578,64018.10000002384,72170,75714.10000002384,79146.10000002384,82113.89999997616,83689.89999997616,85282.19999992847,88170,88706,92490.10000002384,94322.10000002384],"straightlining":0.8095238095238095,"zigzagging":0.15,"honeypot":0,"survey":"sns","trial_type":"survey-template","trial_index":2,"time_elapsed":138938,"internal_node_id":"0.0-2.0","task_version":"prescreen-v0.3","browser_interactions":4,"infrequency":0.5},{"responses":{"Q09":"2","Q01":"2","Q13":"0","Q12":"1","Q08":"2","Q04":"2","Q03":"2","Q02":"2","Q11":"2","Q07":"2","Q06":"2","Q05":"2","Q10":"2"},"rt":59586.200000047684,"item_order":[8,0,12,11,7,3,2,1,10,6,5,4,9],"radio_events":[20657.900000095367,27425.400000095367,29817.5,32729.400000095367,35913.5,38433.40000009537,42305.300000071526,45265.40000009537,50673.40000009537,52177.300000071526,53817.300000071526,56297.40000009537,58577.300000071526],"key_events":[],"mouse_events":[20657.900000095367,27425.400000095367,29265.400000095367,29817.5,32729.400000095367,35913.5,38433.40000009537,41305.40000009537,42305.300000071526,45265.40000009537,50673.40000009537,52177.300000071526,53817.300000071526,56297.40000009537,58577.300000071526,59585.40000009537],"straightlining":0.8461538461538461,"zigzagging":0.16666666666666666,"honeypot":0,"survey":"bisbas","trial_type":"survey-template","trial_index":3,"time_elapsed":198529,"internal_node_id":"0.0-3.0","task_version":"prescreen-v0.3","browser_interactions":2,"infrequency":0},{"responses":{"Q01":"3","Q02":"2","Q03":"3"},"rt":15778.800000071526,"radio_events":[4506.400000095367,7970.300000071526,10122.300000071526,15026.300000071526],"key_events":[],"mouse_events":[4506.400000095367,7970.300000071526,9002.300000071526,10122.300000071526,15026.300000071526,15778.300000071526],"survey":"map","page":1,"trial_type":"survey-map","trial_index":4,"time_elapsed":214314,"internal_node_id":"0.0-4.0","task_version":"prescreen-v0.3","browser_interactions":0},{"responses":{"Q04":"1","Q05":"2","Q06":"3"},"rt":11627.899999976158,"radio_events":[5155.5,7587.399999976158,11107.399999976158],"key_events":[],"mouse_events":[5155.5,7587.399999976158,10571.399999976158,11107.399999976158,11627.399999976158],"survey":"map","page":2,"trial_type":"survey-map","trial_index":5,"time_elapsed":225945,"internal_node_id":"0.0-5.0","task_version":"prescreen-v0.3","browser_interactions":0},{"responses":{"Q07":"3","Q08":"3","Q09":"2"},"rt":13820.5,"radio_events":[4524.200000047684,8748.100000023842,13052.100000023842],"key_events":[],"mouse_events":[4524.200000047684,8748.100000023842,13052.100000023842,13820.200000047684],"survey":"map","page":3,"trial_type":"survey-map","trial_index":6,"time_elapsed":239769,"internal_node_id":"0.0-6.0","task_version":"prescreen-v0.3","browser_interactions":0},{"responses":{"Q10":"2","Q11":"1","Q12":"2","Q13":"2","Q16":"0","Q14":"2","Q15":"2"},"rt":172748.69999992847,"radio_events":[8732,148340,150036.09999990463,154699.89999997616,159596,162668,165204,169787.89999997616,171980],"key_events":[],"mouse_events":[8732,148340,150036.09999990463,154699.89999997616,159052,159596,162668,165204,169787.89999997616,171980,172748.09999990463],"survey":"map","page":4,"trial_type":"survey-map","trial_index":7,"time_elapsed":412523,"internal_node_id":"0.0-7.0","task_version":"prescreen-v0.3","browser_interactions":0,"infrequency":0},{"view_history":[{"page_index":0,"viewing_time":2715.7999999523163},{"page_index":1,"viewing_time":3607.9000000953674}],"rt":6324.200000047684,"trial_type":"instructions","trial_index":8,"time_elapsed":418850,"internal_node_id":"0.0-8.0","task_version":"prescreen-v0.3"},{"responses":{"01":"Yes","01_ages_12":"12","01_ages_13":"13","01_ages_14":"14","01_ages_15":"15","01_ages_16":"16","02":"Yes","02_ages_12":"12","02_ages_13":"13","02_ages_14":"14","02_ages_15":"15","02_ages_16":"16","03":"Yes","03_ages_12":"12","03_ages_13":"13","03_ages_14":"14","03_ages_15":"15","04":"No","05":"No","06":"No"},"rt":674685.9000000954,"item_order":[0,1,2,3,4,5],"radio_events":[4963.5,17971.5,663851.6000000238,669699.7000000477,671132.3000000715,674227.6000000238],"checkbox_events":[11051.700000047684,11571.5,11979.600000023842,12395.600000023842,13331.5,653155.4000000954,653692,654020,654379.6000000238,654947.6000000238,665211.8000000715,665947.6000000238,666795.6000000238,667539.6000000238],"key_events":[],"mouse_events":[0,4451.600000023842,4963.5,11051.700000047684,11571.5,11979.600000023842,12395.600000023842,13331.5,17971.5,653155.4000000954,653692,654020,654379.6000000238,654947.6000000238,663851.6000000238,665211.8000000715,665491.6000000238,665947.6000000238,666795.6000000238,667539.6000000238,669699.7000000477,671132.3000000715,674227.6000000238,674684],"honeypot":0,"survey":"mace","page":1,"trial_type":"survey-mace","trial_index":9,"time_elapsed":1093545,"internal_node_id":"0.0-9.0","task_version":"prescreen-v0.3","browser_interactions":2},{"responses":{"01":"No","02":"No","03":"Yes","03_ages_8":"8","03_ages_9":"9","03_ages_10":"10","03_ages_11":"11","03_ages_12":"12","04":"No","05":"Yes","05_ages_8":"8","05_ages_9":"9","05_ages_10":"10","05_ages_11":"11","05_ages_12":"12","06":"No","07":"No","08":"No"},"rt":24963.399999976158,"item_order":[0,1,2,3,4,5,6,7],"radio_events":[2264.6999999284744,4240.699999928474,5976.799999952316,14632.699999928474,16752.699999928474,22344.699999928474,23448.599999904633,24320.599999904633],"checkbox_events":[9760.699999928474,10304.699999928474,10657,11376.699999928474,11840.699999928474,17696.699999928474,17968.699999928474,19296.699999928474,19984.599999904633,20840.699999928474],"key_events":[],"mouse_events":[2264.6999999284744,4240.699999928474,5976.799999952316,9760.699999928474,10304.699999928474,10657,11376.699999928474,11840.699999928474,14632.699999928474,16752.699999928474,17696.699999928474,17968.699999928474,18320.699999928474,19296.699999928474,19984.599999904633,20440.799999952316,20840.699999928474,22344.699999928474,23448.599999904633,24320.599999904633,24961],"honeypot":0,"survey":"mace","page":2,"trial_type":"survey-mace","trial_index":10,"time_elapsed":1118514,"internal_node_id":"0.0-10.0","task_version":"prescreen-v0.3","browser_interactions":0},{"responses":{"01":"No","02":"No","03":"No","04":"No"},"rt":10658.100000023842,"item_order":[0,1,2,3],"radio_events":[3136.899999976158,7424.799999952316,8840.799999952316,10040.699999928474],"checkbox_events":[],"key_events":[],"mouse_events":[3136.899999976158,7424.799999952316,8840.799999952316,9672.600000023842,10040.699999928474,10656.799999952316],"honeypot":0,"survey":"mace","page":3,"trial_type":"survey-mace","trial_index":11,"time_elapsed":1129177,"internal_node_id":"0.0-11.0","task_version":"prescreen-v0.3","browser_interactions":0},{"responses":{"01":"No","02":"No"},"rt":5091.399999976158,"item_order":[0,1],"radio_events":[2154.7999999523163,4610.599999904633],"checkbox_events":[],"key_events":[],"mouse_events":[2154.7999999523163,3875,4610.599999904633,5090.699999928474],"honeypot":0,"survey":"mace","page":4,"trial_type":"survey-mace","trial_index":12,"time_elapsed":1134272,"internal_node_id":"0.0-12.0","task_version":"prescreen-v0.3","browser_interactions":0},{"responses":{"01":"No","02":"No","03":"No","04":"No","05":"No"},"rt":12556.600000023842,"item_order":[0,1,2,3,4],"radio_events":[5755.100000023842,8514.899999976158,10299,11139,12035],"checkbox_events":[],"key_events":[],"mouse_events":[5755.100000023842,8514.899999976158,10299,11139,12035,12555],"honeypot":0,"survey":"mace","page":5,"trial_type":"survey-mace","trial_index":13,"time_elapsed":1146833,"internal_node_id":"0.0-13.0","task_version":"prescreen-v0.3","browser_interactions":0},{"responses":{"01":"Yes","01_ages_12":"12","01_ages_13":"13","01_ages_14":"14","01_ages_15":"15","01_ages_16":"16","02":"Yes","02_ages_12":"12","02_ages_13":"13","02_ages_14":"14","02_ages_15":"15","02_ages_16":"16","03":"No","04":"No","05":"No"},"rt":22387.700000047684,"item_order":[0,1,2,3,4],"radio_events":[6769.899999976158,12409.899999976158,17801.899999976158,19385.899999976158,21689.700000047684],"checkbox_events":[8474.100000023842,8978.100000023842,9554,10057.899999976158,10690,13226.200000047684,13761.899999976158,14074.200000047684,14641.799999952316,15073.899999976158],"key_events":[],"mouse_events":[5905.799999952316,6769.899999976158,8474.100000023842,8978.100000023842,9554,10057.899999976158,10690,12409.899999976158,13226.200000047684,13761.899999976158,14074.200000047684,14641.799999952316,15073.899999976158,17801.899999976158,19385.899999976158,21689.700000047684,22386.100000023842],"honeypot":0,"survey":"mace","page":6,"trial_type":"survey-mace","trial_index":14,"time_elapsed":1169225,"internal_node_id":"0.0-14.0","task_version":"prescreen-v0.3","browser_interactions":0},{"responses":{"01":"No","02":"Yes","02_ages_15":"15","02_ages_16":"16","03":"No","04":"No","05":"No","06":"No","07":"No"},"rt":23675.800000071526,"item_order":[0,1,2,3,4,5,6],"radio_events":[9097.600000023842,12329.5,17673.399999976158,18545.5,20377.399999976158,22209.5,23241.5],"checkbox_events":[13609.5,14081.5],"key_events":[],"mouse_events":[9097.600000023842,12329.5,13609.5,14081.5,17673.399999976158,18545.5,19913.600000023842,20377.399999976158,22209.5,23241.5,23673.600000023842],"honeypot":0,"survey":"mace","page":7,"trial_type":"survey-mace","trial_index":15,"time_elapsed":1192906,"internal_node_id":"0.0-15.0","task_version":"prescreen-v0.3","browser_interactions":0},{"responses":{"01":"No","02":"No","03":"No","04":"No"},"rt":13010.700000047684,"item_order":[0,1,2,3],"radio_events":[7161.5,9401.399999976158,11609.399999976158,12529.299999952316],"checkbox_events":[],"key_events":[],"mouse_events":[7161.5,9401.399999976158,10537.299999952316,11609.399999976158,12529.299999952316,13009.299999952316],"honeypot":0,"survey":"mace","page":8,"trial_type":"survey-mace","trial_index":16,"time_elapsed":1205921,"internal_node_id":"0.0-16.0","task_version":"prescreen-v0.3","browser_interactions":0},{"responses":{"01":"Yes","01_ages_1":"1","01_ages_2":"2","01_ages_3":"3","01_ages_4":"4","01_ages_5":"5","01_ages_6":"6","01_ages_7":"7","01_ages_8":"8","01_ages_9":"9","01_ages_10":"10","01_ages_11":"11","01_ages_12":"12","01_ages_13":"13","01_ages_14":"14","01_ages_15":"15","01_ages_16":"16","01_ages_17":"17","01_ages_18":"18","02":"Yes","02_ages_1":"1","02_ages_2":"2","02_ages_3":"3","02_ages_4":"4","02_ages_5":"5","02_ages_6":"6","02_ages_7":"7","02_ages_8":"8","02_ages_9":"9","02_ages_10":"10","02_ages_11":"11","02_ages_12":"12","02_ages_13":"13","02_ages_14":"14","02_ages_15":"15","02_ages_16":"16","02_ages_17":"17","02_ages_18":"18","03":"Yes","03_ages_1":"1","03_ages_2":"2","03_ages_3":"3","03_ages_4":"4","03_ages_5":"5","03_ages_6":"6","03_ages_7":"7","03_ages_8":"8","03_ages_9":"9","03_ages_10":"10","03_ages_11":"11","03_ages_12":"12","03_ages_13":"13","03_ages_14":"14","03_ages_15":"15","03_ages_16":"16","03_ages_17":"17","03_ages_18":"18","04":"Yes","04_ages_1":"1","04_ages_2":"2","04_ages_3":"3","04_ages_4":"4","04_ages_5":"5","04_ages_6":"6","04_ages_7":"7","04_ages_8":"8","04_ages_9":"9","04_ages_10":"10","04_ages_11":"11","04_ages_12":"12","04_ages_13":"13","04_ages_14":"14","04_ages_15":"15","04_ages_16":"16","04_ages_17":"17","04_ages_18":"18"},"rt":57003.700000047684,"item_order":[0,1,2,3],"radio_events":[6290.299999952316,19642.399999976158,29530.5,40242.299999952316],"checkbox_events":[9410.399999976158,11218.299999952316,12090.399999976158,12626.399999976158,13098.399999976158,13594.399999976158,14794.399999976158,15266.399999976158,16050.299999952316,16466.399999976158,16914.399999976158,17442.399999976158,17874.399999976158,18818.299999952316,20514.799999952316,20794.399999976158,21138.5,21498.399999976158,22010.700000047684,22354.399999976158,22722.399999976158,23178.799999952316,24114.299999952316,24466.399999976158,25586.5,25922.399999976158,26298.799999952316,26994.399999976158,30410.399999976158,30802.700000047684,31211.399999976158,31554.5,31898.5,32906.60000002384,33346.799999952316,33722.5,34218.5,34746.799999952316,35682.39999997616,36058.60000002384,36586.299999952316,37106.39999997616,41706.39999997616,42394.799999952316,42890.39999997616,43290.60000002384,43818.299999952316,44322.299999952316,44770.299999952316,45162.39999997616,45562.39999997616,45994.39999997616,46410.39999997616,46866.39999997616,47218.299999952316,47602.39999997616,48210.39999997616,48634.799999952316,49050.700000047684,49554.299999952316,50826.799999952316,51514.39999997616,51882.299999952316,52394.299999952316,53066.799999952316,53450.39999997616,53874.299999952316,54306.39999997616,54906.5,55282.5,55770.5,56106.39999997616],"key_events":[],"mouse_events":[6290.299999952316,9410.399999976158,11218.299999952316,12090.399999976158,12626.399999976158,13098.399999976158,13594.399999976158,14242.200000047684,14794.399999976158,15266.399999976158,16050.299999952316,16466.399999976158,16914.399999976158,17442.399999976158,17874.399999976158,18818.299999952316,19642.399999976158,20514.799999952316,20794.399999976158,21138.5,21498.399999976158,22010.700000047684,22354.399999976158,22722.399999976158,23178.799999952316,23594.399999976158,24114.299999952316,24466.399999976158,24818.399999976158,25586.5,25922.399999976158,26298.799999952316,26994.399999976158,29530.5,30410.399999976158,30802.700000047684,31211.399999976158,31554.5,31898.5,32250.799999952316,32906.60000002384,33346.799999952316,33722.5,34218.5,34746.799999952316,35066.39999997616,35682.39999997616,36058.60000002384,36586.299999952316,37106.39999997616,39514.299999952316,40242.299999952316,41706.39999997616,42058.39999997616,42394.799999952316,42890.39999997616,43290.60000002384,43818.299999952316,44322.299999952316,44770.299999952316,45162.39999997616,45562.39999997616,45994.39999997616,46410.39999997616,46866.39999997616,47218.299999952316,47602.39999997616,48210.39999997616,48634.799999952316,49050.700000047684,49554.299999952316,50826.799999952316,51162.299999952316,51514.39999997616,51882.299999952316,52394.299999952316,53066.799999952316,53450.39999997616,53874.299999952316,54306.39999997616,54906.5,55282.5,55770.5,56106.39999997616,57002.5],"honeypot":0,"survey":"mace","page":9,"trial_type":"survey-mace","trial_index":17,"time_elapsed":1262929,"internal_node_id":"0.0-17.0","task_version":"prescreen-v0.3","browser_interactions":0},{"responses":{"01":"No","02":"No","03":"No","04":"No","05":"No","06":"Yes","06_ages_17":"17","07":"Yes","07_ages_1":"1","07_ages_2":"2","07_ages_3":"3","07_ages_4":"4","07_ages_5":"5","07_ages_6":"6","07_ages_7":"7","07_ages_8":"8","07_ages_9":"9","07_ages_10":"10","07_ages_11":"11","07_ages_12":"12","07_ages_13":"13","07_ages_14":"14","07_ages_15":"15","07_ages_16":"16","07_ages_17":"17","07_ages_18":"18","08":"Yes","08_ages_1":"1","08_ages_2":"2","08_ages_3":"3","08_ages_4":"4","08_ages_5":"5","08_ages_6":"6","08_ages_7":"7","08_ages_8":"8","08_ages_9":"9","08_ages_10":"10","08_ages_11":"11","08_ages_12":"12","08_ages_13":"13","08_ages_14":"14","08_ages_15":"15","08_ages_16":"16","08_ages_17":"17","08_ages_18":"18"},"rt":39716.60000002384,"item_order":[0,1,2,3,4,5,6,7],"radio_events":[2730,3482.100000023842,5746.100000023842,9602,12562,15082,17698,30298],"checkbox_events":[15986,20217.800000071526,20578,20906,21338.100000023842,21858,22329.899999976158,24234.200000047684,24674,25858,26169.899999976158,26522,26881.899999976158,27378,27729.800000071526,28098,28562,28985.899999976158,29410,31281.899999976158,31650,32002,32322,32682,33346,33953.89999997616,34681.89999997616,35201.89999997616,35746,36234.10000002384,36665.89999997616,37058,37497.89999997616,37913.89999997616,38370.200000047684,38737.89999997616,39130],"key_events":[],"mouse_events":[2730,3482.100000023842,5746.100000023842,9602,12562,15082,15986,17698,20217.800000071526,20578,20906,21338.100000023842,21858,22329.899999976158,22802.100000023842,24234.200000047684,24674,25858,26169.899999976158,26522,26881.899999976158,27378,27729.800000071526,28098,28562,28985.899999976158,29410,30298,31281.899999976158,31650,32002,32322,32682,33010,33346,33953.89999997616,34330.10000002384,34681.89999997616,35201.89999997616,35746,36234.10000002384,36665.89999997616,37058,37497.89999997616,37913.89999997616,38370.200000047684,38737.89999997616,39130,39714.10000002384],"honeypot":0,"survey":"mace","page":10,"trial_type":"survey-mace","trial_index":18,"time_elapsed":1302651,"internal_node_id":"0.0-18.0","task_version":"prescreen-v0.3","browser_interactions":0,"instructed":0},{"rt":2385.399999976158,"trial_type":"mental-health-alert","trial_index":19,"time_elapsed":1305040,"internal_node_id":"0.0-19.0","task_version":"prescreen-v0.3","interactions":"[{\"event\":\"blur\",\"trial\":0,\"time\":8168},{\"event\":\"focus\",\"trial\":0,\"time\":17508},{\"event\":\"blur\",\"trial\":2,\"time\":46001},{\"event\":\"focus\",\"trial\":2,\"time\":51689},{\"event\":\"blur\",\"trial\":2,\"time\":53020},{\"event\":\"focus\",\"trial\":2,\"time\":53931},{\"event\":\"blur\",\"trial\":3,\"time\":140044},{\"event\":\"focus\",\"trial\":3,\"time\":159506},{\"event\":\"blur\",\"trial\":9,\"time\":515801},{\"event\":\"focus\",\"trial\":9,\"time\":1071918}]"}]