[{"view_history":[{"page_index":0,"viewing_time":18828},{"page_index":1,"viewing_time":5819},{"page_index":2,"viewing_time":44451},{"page_index":3,"viewing_time":3365}],"rt":72464,"trial_type":"instructions","trial_index":0,"time_elapsed":72469,"internal_node_id":"0.0-0.0","task_version":"prescreen-v0.3"},{"rt":20164,"responses":{"age":"39","gender-categorical":"Male","gender-free-response":"","ethnicity":"Not Hispanic or Latino","race":["Asian"],"education":"Rather not say","siblings":"0"},"trial_type":"survey-demo","trial_index":1,"time_elapsed":92654,"internal_node_id":"0.0-1.0","task_version":"prescreen-v0.3"},{"responses":{"Q19":"1","Q14":"1","Q21":"3","Q13":"1","Q06":"2","Q02":"1","Q18":"2","Q11":"2","Q20":"1","Q04":"2","Q08":"2","Q15":"2","Q03":"2","Q07":"1","Q09":"3","Q10":"2","Q17":"1","Q12":"2","Q16":"2","Q01":"2","Q05":"3"},"rt":412046,"item_order":[18,13,20,12,5,1,17,10,19,3,7,14,2,6,8,9,16,11,15,0,4],"radio_events":[199895,201436,236767,239084,245436,254761,259045,261662,266080,270998,274132,278461,282261,282474,289900,295638,303425,306631,308312,309988,315811,373141,376313,380184,381074,383902,387892,389521,392341,397920,399274,410774],"key_events":[],"mouse_events":[199130,199505,199895,201436,235610,236767,239084,243315,244505,244907,245436,254761,255769,257905,258547,259045,261662,265116,266080,267723,270998,272774,273082,274132,278461,282261,282474,289900,292591,294994,295638,298816,299602,303425,304379,306631,308312,309988,315811,373141,376313,379371,380184,381074,383902,384622,387892,388636,389521,392341,395222,396731,397920,399274,410774,412046],"straightlining":0.5238095238095238,"zigzagging":0.5,"honeypot":0,"survey":"sns","trial_type":"survey-template","trial_index":2,"time_elapsed":504708,"internal_node_id":"0.0-2.0","task_version":"prescreen-v0.3","browser_interactions":12,"infrequency":0},{"responses":{"Q11":"2","Q08":"2","Q02":"2","Q01":"1","Q05":"3","Q13":"0","Q07":"2","Q06":"2","Q10":"2","Q12":"1","Q09":"1","Q03":"2","Q04":"2"},"rt":78774,"item_order":[10,7,1,0,4,12,6,5,9,11,8,2,3],"radio_events":[6252,8181,9559,13153,13999,18982,24837,29713,34836,52188,56647,57262,64078,67761,72481,77257],"key_events":[],"mouse_events":[6252,8181,9559,13153,13999,18982,20372,24837,27402,28257,28469,29142,29713,34836,47929,52188,53255,54268,55592,56647,57262,62879,63448,64078,64686,65384,66590,67761,71410,72481,77257,78774],"straightlining":0.6153846153846154,"zigzagging":0.3333333333333333,"honeypot":0,"survey":"bisbas","trial_type":"survey-template","trial_index":3,"time_elapsed":583487,"internal_node_id":"0.0-3.0","task_version":"prescreen-v0.3","browser_interactions":4,"infrequency":0},{"responses":{"Q01":"2","Q02":"2","Q03":"1"},"rt":43607,"radio_events":[31657,35882,42213],"key_events":[],"mouse_events":[205,31657,35882,41138,42213,43607],"survey":"map","page":1,"trial_type":"survey-map","trial_index":4,"time_elapsed":627099,"internal_node_id":"0.0-4.0","task_version":"prescreen-v0.3","browser_interactions":4},{"responses":{"Q04":"3","Q05":"2","Q06":"3"},"rt":15565,"radio_events":[6298,7505,7719,9519,11669],"key_events":[],"mouse_events":[956,3724,5831,6298,7505,7719,8481,8697,9519,10981,11669,15564],"survey":"map","page":2,"trial_type":"survey-map","trial_index":5,"time_elapsed":642667,"internal_node_id":"0.0-5.0","task_version":"prescreen-v0.3","browser_interactions":0},{"responses":{"Q07":"2","Q08":"3","Q09":"2"},"rt":17618,"radio_events":[7694,9313,11206],"key_events":[],"mouse_events":[7694,8622,9313,11206,17618],"survey":"map","page":3,"trial_type":"survey-map","trial_index":6,"time_elapsed":660289,"internal_node_id":"0.0-6.0","task_version":"prescreen-v0.3","browser_interactions":0},{"responses":{"Q10":"2","Q11":"2","Q12":"1","Q13":"2","Q16":"2","Q14":"1","Q15":"3"},"rt":263259,"radio_events":[6597,11502,14592,25621,106157,107652,167025,168444,261353],"key_events":[],"mouse_events":[6597,7962,8693,11502,14592,23228,24737,25621,104307,105015,106157,107652,165192,166020,166575,167025,167760,168083,168444,258729,259339,259842,261353,263259],"survey":"map","page":4,"trial_type":"survey-map","trial_index":7,"time_elapsed":923559,"internal_node_id":"0.0-7.0","task_version":"prescreen-v0.3","browser_interactions":14,"infrequency":1},{"view_history":[{"page_index":0,"viewing_time":2018},{"page_index":1,"viewing_time":4400}],"rt":6418,"trial_type":"instructions","trial_index":8,"time_elapsed":929978,"internal_node_id":"0.0-8.0","task_version":"prescreen-v0.3"},{"responses":{"01":"No","02":"No","03":"No","04":"No","05":"No","06":"No"},"rt":29817,"item_order":[0,1,2,3,4,5],"radio_events":[5408,8598,13838,15483,17805,21994],"checkbox_events":[],"key_events":[],"mouse_events":[1,5408,8598,11074,13838,15483,17805,20236,20939,21994,29817],"honeypot":0,"survey":"mace","page":1,"trial_type":"survey-mace","trial_index":9,"time_elapsed":959799,"internal_node_id":"0.0-9.0","task_version":"prescreen-v0.3","browser_interactions":2},{"responses":{"01":"No","02":"No","03":"No","04":"No","05":"No","06":"No","07":"No","08":"No"},"rt":23539,"item_order":[0,1,2,3,4,5,6,7],"radio_events":[10799,12033,14541,15031,16927,17503,18896,19979],"checkbox_events":[],"key_events":[],"mouse_events":[9888,10799,12033,13283,14541,15031,15992,16927,17503,18406,18896,19674,19979,20889,23538],"honeypot":0,"survey":"mace","page":2,"trial_type":"survey-mace","trial_index":10,"time_elapsed":983400,"internal_node_id":"0.0-10.0","task_version":"prescreen-v0.3","browser_interactions":0},{"responses":{"01":"No","02":"No","03":"No","04":"No"},"rt":11386,"item_order":[0,1,2,3],"radio_events":[4221,5001,8151,8936],"checkbox_events":[],"key_events":[],"mouse_events":[4221,5001,5989,8151,8936,10442,11385],"honeypot":0,"survey":"mace","page":3,"trial_type":"survey-mace","trial_index":11,"time_elapsed":994882,"internal_node_id":"0.0-11.0","task_version":"prescreen-v0.3","browser_interactions":0},{"responses":{"01":"No","02":"No"},"rt":16435,"item_order":[0,1],"radio_events":[3009,4231],"checkbox_events":[],"key_events":[],"mouse_events":[3009,4231,16435],"honeypot":0,"survey":"mace","page":4,"trial_type":"survey-mace","trial_index":12,"time_elapsed":1011326,"internal_node_id":"0.0-12.0","task_version":"prescreen-v0.3","browser_interactions":0},{"responses":{"01":"No","02":"No","03":"No","04":"No","05":"No"},"rt":23539,"item_order":[0,1,2,3,4],"radio_events":[2198,3504,9874,11829,12910],"checkbox_events":[],"key_events":[],"mouse_events":[2198,2852,3504,9874,10628,11829,12910,22756,23539],"honeypot":0,"survey":"mace","page":5,"trial_type":"survey-mace","trial_index":13,"time_elapsed":1034871,"internal_node_id":"0.0-13.0","task_version":"prescreen-v0.3","browser_interactions":0},{"responses":{"01":"No","02":"No","03":"Yes","03_ages_12":"12","04":"No","05":"No"},"rt":38656,"item_order":[0,1,2,3,4],"radio_events":[15399,17461,19486,23410,28709,35206],"checkbox_events":[32821],"key_events":[],"mouse_events":[14865,15399,17461,19486,22163,23410,24037,28709,32821,34883,35206,38656],"honeypot":0,"survey":"mace","page":6,"trial_type":"survey-mace","trial_index":14,"time_elapsed":1073533,"internal_node_id":"0.0-14.0","task_version":"prescreen-v0.3","browser_interactions":4},{"responses":{"01":"No","02":"No","03":"No","04":"No","05":"No","06":"No","07":"No"},"rt":11602,"item_order":[0,1,2,3,4,5,6],"radio_events":[2121,3108,5583,6710,7524,8657,10377],"checkbox_events":[],"key_events":[],"mouse_events":[1498,2121,3108,5583,6710,7524,8657,9541,10377,11601],"honeypot":0,"survey":"mace","page":7,"trial_type":"survey-mace","trial_index":15,"time_elapsed":1085144,"internal_node_id":"0.0-15.0","task_version":"prescreen-v0.3","browser_interactions":0},{"responses":{"01":"No","02":"No","03":"No","04":"Yes","04_ages_10":"10"},"rt":40816,"item_order":[0,1,2,3],"radio_events":[2538,13587,14848,16684,27536],"checkbox_events":[31939],"key_events":[],"mouse_events":[1686,2538,3394,13587,14848,15815,16684,27536,31939,40816],"honeypot":0,"survey":"mace","page":8,"trial_type":"survey-mace","trial_index":16,"time_elapsed":1125968,"internal_node_id":"0.0-16.0","task_version":"prescreen-v0.3","browser_interactions":0},{"responses":{"01":"Yes","01_ages_9":"9","02":"Yes","02_ages_15":"15","03":"Yes","03_ages_12":"12","04":"Yes","04_ages_10":"10"},"rt":42794,"item_order":[0,1,2,3],"radio_events":[7723,17848,24036,38956],"checkbox_events":[14083,21350,28164,42099],"key_events":[],"mouse_events":[7723,14083,17848,21350,23398,24036,28164,34423,38956,42099,42794],"honeypot":0,"survey":"mace","page":9,"trial_type":"survey-mace","trial_index":17,"time_elapsed":1168774,"internal_node_id":"0.0-17.0","task_version":"prescreen-v0.3","browser_interactions":0},{"responses":{"01":"No","02":"No","03":"No","04":"No","05":"No","06":"Yes","06_ages_17":"17","07":"Yes","07_ages_8":"8","07_ages_9":"9","07_ages_10":"10","07_ages_11":"11","07_ages_12":"12","07_ages_13":"13","07_ages_14":"14","07_ages_15":"15","07_ages_16":"16","07_ages_17":"17","07_ages_18":"18","08":"Yes","08_ages_7":"7","08_ages_8":"8","08_ages_9":"9","08_ages_10":"10","08_ages_11":"11","08_ages_12":"12","08_ages_13":"13","08_ages_14":"14","08_ages_15":"15"},"rt":63982,"item_order":[0,1,2,3,4,5,6,7],"radio_events":[6622,7532,8713,9921,11210,13209,15733,16670,20766,23621],"checkbox_events":[14670,27975,28951,29643,30368,32406,33251,35050,36035,36837,37606,38273,41079,41626,41965,42340,43472,44292,44622,45184,45819,46962,47173,48412,49133],"key_events":[],"mouse_events":[266,6622,7532,8713,9921,11210,13209,14670,15733,16670,20766,23621,27975,28951,29643,30368,32406,33251,34285,35050,36035,36837,37606,38273,41079,41626,41965,42340,43143,43472,44292,44622,45184,45819,46962,47173,47791,48412,49133,63982],"honeypot":0,"survey":"mace","page":10,"trial_type":"survey-mace","trial_index":18,"time_elapsed":1232774,"internal_node_id":"0.0-18.0","task_version":"prescreen-v0.3","browser_interactions":0,"instructed":0},{"rt":2104,"trial_type":"mental-health-alert","trial_index":19,"time_elapsed":1234881,"internal_node_id":"0.0-19.0","task_version":"prescreen-v0.3","interactions":"[{\"event\":\"focus\",\"trial\":0,\"time\":1},{\"event\":\"blur\",\"trial\":2,\"time\":112697},{\"event\":\"focus\",\"trial\":2,\"time\":276879},{\"event\":\"blur\",\"trial\":2,\"time\":276976},{\"event\":\"focus\",\"trial\":2,\"time\":291717},{\"event\":\"blur\",\"trial\":2,\"time\":315145},{\"event\":\"focus\",\"trial\":2,\"time\":315326},{\"event\":\"blur\",\"trial\":2,\"time\":315389},{\"event\":\"focus\",\"trial\":2,\"time\":328180},{\"event\":\"blur\",\"trial\":2,\"time\":432585},{\"event\":\"focus\",\"trial\":2,\"time\":450954},{\"event\":\"blur\",\"trial\":2,\"time\":451034},{\"event\":\"focus\",\"trial\":2,\"time\":465701},{\"event\":\"blur\",\"trial\":3,\"time\":542783},{\"event\":\"focus\",\"trial\":3,\"time\":550428},{\"event\":\"blur\",\"trial\":3,\"time\":550503},{\"event\":\"focus\",\"trial\":3,\"time\":552476},{\"event\":\"blur\",\"trial\":4,\"time\":592105},{\"event\":\"focus\",\"trial\":4,\"time\":609501},{\"event\":\"blur\",\"trial\":4,\"time\":609544},{\"event\":\"focus\",\"trial\":4,\"time\":614949},{\"event\":\"blur\",\"trial\":7,\"time\":681483},{\"event\":\"focus\",\"trial\":7,\"time\":681716},{\"event\":\"blur\",\"trial\":7,\"time\":681837},{\"event\":\"focus\",\"trial\":7,\"time\":683376},{\"event\":\"blur\",\"trial\":7,\"time\":747992},{\"event\":\"focus\",\"trial\":7,\"time\":764401},{\"event\":\"blur\",\"trial\":7,\"time\":822738},{\"event\":\"focus\",\"trial\":7,\"time\":822911},{\"event\":\"blur\",\"trial\":7,\"time\":822932},{\"event\":\"focus\",\"trial\":7,\"time\":825387},{\"event\":\"blur\",\"trial\":7,\"time\":855422},{\"event\":\"focus\",\"trial\":7,\"time\":917632},{\"event\":\"blur\",\"trial\":7,\"time\":917660},{\"event\":\"focus\",\"trial\":7,\"time\":918951},{\"event\":\"blur\",\"trial\":9,\"time\":931428},{\"event\":\"focus\",\"trial\":9,\"time\":932277},{\"event\":\"blur\",\"trial\":14,\"time\":1045803},{\"event\":\"focus\",\"trial\":14,\"time\":1048140},{\"event\":\"blur\",\"trial\":14,\"time\":1048187},{\"event\":\"focus\",\"trial\":14,\"time\":1049663}]"}]