[{"view_history":[{"page_index":0,"viewing_time":6296.600000023842},{"page_index":1,"viewing_time":4799.199999928474},{"page_index":2,"viewing_time":4978.100000023842},{"page_index":3,"viewing_time":1541.2000000476837}],"rt":17617.5,"trial_type":"instructions","trial_index":0,"time_elapsed":17642,"internal_node_id":"0.0-0.0","task_version":"prescreen-v0.3"},{"rt":14516.300000071526,"responses":{"age":"43","gender-categorical":"Female","gender-free-response":"","ethnicity":"Not Hispanic or Latino","race":["White"],"education":"Master degree or higher"},"trial_type":"survey-demo","trial_index":1,"time_elapsed":32178,"internal_node_id":"0.0-1.0","task_version":"prescreen-v0.3"},{"responses":{"Q10":"1","Q01":"1","Q07":"1","Q20":"0","Q06":"1","Q13":"1","Q17":"2","Q18":"0","Q03":"0","Q08":"1","Q05":"0","Q19":"0","Q09":"2","Q04":"2","Q02":"0","Q12":"0","Q14":"1","Q21":"3","Q16":"0","Q15":"2","Q11":"1"},"rt":177214.39999997616,"item_order":[9,0,6,19,5,12,16,17,2,7,4,18,8,3,1,11,13,20,15,14,10],"radio_events":[8693.200000047684,15411.399999976158,36268.89999997616,43283.60000002384,51901.700000047684,56631.300000071526,65018.300000071526,72498.60000002384,77347.20000004768,83999.89999997616,91569.20000004768,99288,105190.60000002384,111816.89999997616,125641,135316.5,140466.39999997616,146399.30000007153,158026.10000002384,171314.89999997616,175974.30000007153],"key_events":[],"mouse_events":[8693.200000047684,15411.399999976158,36268.89999997616,43283.60000002384,51901.700000047684,56631.300000071526,65018.300000071526,72498.60000002384,77347.20000004768,83999.89999997616,91569.20000004768,99288,105190.60000002384,111816.89999997616,125641,135316.5,140466.39999997616,146399.30000007153,158026.10000002384,171314.89999997616,175974.30000007153,177207.39999997616],"straightlining":0.38095238095238093,"zigzagging":0.4,"honeypot":0,"survey":"sns","trial_type":"survey-template","trial_index":2,"time_elapsed":209416,"internal_node_id":"0.0-2.0","task_version":"prescreen-v0.3","browser_interactions":2,"infrequency":0},{"responses":{"Q08":"2","Q06":"3","Q10":"2","Q03":"1","Q12":"1","Q11":"2","Q04":"2","Q01":"0","Q02":"0","Q05":"3","Q09":"2","Q13":"0","Q07":"3"},"rt":99079.70000004768,"item_order":[7,5,9,2,11,10,3,0,1,4,8,12,6],"radio_events":[18471.899999976158,22552.600000023842,26326.5,31949.5,38496.800000071526,44879.60000002384,66088.39999997616,70150.60000002384,81826.5,85639.5,88875.20000004768,92345.10000002384,98197.80000007153],"key_events":[],"mouse_events":[18471.899999976158,22552.600000023842,26326.5,31949.5,38496.800000071526,44879.60000002384,66088.39999997616,70150.60000002384,81826.5,85639.5,88875.20000004768,92345.10000002384,98197.80000007153,99074.70000004768],"straightlining":0.38461538461538464,"zigzagging":0.5833333333333334,"honeypot":0,"survey":"bisbas","trial_type":"survey-template","trial_index":3,"time_elapsed":308513,"internal_node_id":"0.0-3.0","task_version":"prescreen-v0.3","browser_interactions":0,"infrequency":0},{"responses":{"Q01":"3","Q02":"3","Q03":"3"},"rt":32318.699999928474,"radio_events":[12553.299999952316,22790.899999976158,30729.099999904633],"key_events":[],"mouse_events":[12553.299999952316,22790.899999976158,30729.099999904633,32316.199999928474],"survey":"map","page":1,"trial_type":"survey-map","trial_index":4,"time_elapsed":340845,"internal_node_id":"0.0-4.0","task_version":"prescreen-v0.3","browser_interactions":0},{"responses":{"Q04":"4","Q05":"3","Q06":"4"},"rt":23800.200000047684,"radio_events":[7521.100000023842,17304.300000071526,22811.800000071526],"key_events":[],"mouse_events":[7521.100000023842,17304.300000071526,22811.800000071526,23798.200000047684],"survey":"map","page":2,"trial_type":"survey-map","trial_index":5,"time_elapsed":364655,"internal_node_id":"0.0-5.0","task_version":"prescreen-v0.3","browser_interactions":0},{"responses":{"Q07":"4","Q08":"0","Q09":"3"},"rt":28833.200000047684,"radio_events":[9174.700000047684,24128.300000071526,27647.399999976158],"key_events":[],"mouse_events":[9174.700000047684,24128.300000071526,27647.399999976158,28831.399999976158],"survey":"map","page":3,"trial_type":"survey-map","trial_index":6,"time_elapsed":393497,"internal_node_id":"0.0-6.0","task_version":"prescreen-v0.3","browser_interactions":0},{"responses":{"Q10":"2","Q11":"2","Q12":"4","Q13":"4","Q16":"0","Q14":"3","Q15":"2"},"rt":60482.5,"radio_events":[9911.599999904633,15046,23831.399999976158,31357.599999904633,38537,44948.5,51283.699999928474,58581.799999952316],"key_events":[],"mouse_events":[9911.599999904633,15046,23831.399999976158,31357.599999904633,38537,44948.5,51283.699999928474,58581.799999952316,60478.299999952316],"survey":"map","page":4,"trial_type":"survey-map","trial_index":7,"time_elapsed":453992,"internal_node_id":"0.0-7.0","task_version":"prescreen-v0.3","browser_interactions":0,"infrequency":0},{"view_history":[{"page_index":0,"viewing_time":4353.100000023842},{"page_index":1,"viewing_time":4055.100000023842}],"rt":8411.300000071526,"trial_type":"instructions","trial_index":8,"time_elapsed":462408,"internal_node_id":"0.0-8.0","task_version":"prescreen-v0.3"},{"responses":{"01":"Yes","01_ages_4":"4","01_ages_5":"5","01_ages_6":"6","01_ages_7":"7","01_ages_8":"8","01_ages_9":"9","01_ages_10":"10","01_ages_11":"11","01_ages_12":"12","01_ages_13":"13","01_ages_14":"14","01_ages_15":"15","01_ages_16":"16","02":"Yes","02_ages_4":"4","02_ages_5":"5","02_ages_6":"6","02_ages_7":"7","02_ages_8":"8","02_ages_9":"9","02_ages_10":"10","02_ages_11":"11","02_ages_12":"12","02_ages_13":"13","02_ages_14":"14","02_ages_15":"15","02_ages_16":"16","03":"Yes","03_ages_4":"4","03_ages_5":"5","03_ages_6":"6","03_ages_7":"7","03_ages_8":"8","03_ages_9":"9","03_ages_10":"10","03_ages_11":"11","03_ages_12":"12","03_ages_13":"13","03_ages_14":"14","03_ages_15":"15","03_ages_16":"16","04":"No","05":"No","06":"No"},"rt":62097.59999990463,"item_order":[0,1,2,3,4,5],"radio_events":[12295.5,33305.199999928474,43228.699999928474,54990.39999997616,56973.5,60846.199999928474],"checkbox_events":[20448.699999928474,21794.899999976158,22062.399999976158,22549.699999928474,22907.299999952316,23336,23805.5,26344.799999952316,26582,26857.5,27156.899999976158,27483.099999904633,28024.599999904633,34894.09999990463,35175.89999997616,35663.5,36037.699999928474,36466.39999997616,36824.799999952316,37196.39999997616,37594.699999928474,37990.799999952316,38351.299999952316,38688.39999997616,39093.299999952316,39558.09999990463,45176.699999928474,45439.39999997616,45906.699999928474,46240.89999997616,46630.199999928474,46987.89999997616,47334.89999997616,47687.299999952316,48014.89999997616,48372.699999928474,48843.39999997616,49330.799999952316,49723.699999928474],"key_events":[],"mouse_events":[2.5999999046325684,12295.5,20448.699999928474,21794.899999976158,22062.399999976158,22549.699999928474,22907.299999952316,23336,23805.5,26344.799999952316,26582,26857.5,27156.899999976158,27483.099999904633,28024.599999904633,33305.199999928474,34894.09999990463,35175.89999997616,35663.5,36037.699999928474,36466.39999997616,36824.799999952316,37196.39999997616,37594.699999928474,37990.799999952316,38351.299999952316,38688.39999997616,39093.299999952316,39558.09999990463,43228.699999928474,45176.699999928474,45439.39999997616,45906.699999928474,46240.89999997616,46630.199999928474,46987.89999997616,47334.89999997616,47687.299999952316,48014.89999997616,48372.699999928474,48843.39999997616,49330.799999952316,49723.699999928474,54990.39999997616,56973.5,60846.199999928474,62088],"honeypot":0,"survey":"mace","page":1,"trial_type":"survey-mace","trial_index":9,"time_elapsed":524530,"internal_node_id":"0.0-9.0","task_version":"prescreen-v0.3","browser_interactions":0},{"responses":{"01":"No","02":"No","03":"Yes","03_ages_6":"6","03_ages_7":"7","03_ages_8":"8","04":"No","05":"Yes","05_ages_9":"9","06":"No","07":"No","08":"No"},"rt":49856.5,"item_order":[0,1,2,3,4,5,6,7],"radio_events":[6252.100000023842,8479.100000023842,13994.300000071526,27079.100000023842,29346,44570.10000002384,46930.89999997616,48742.89999997616],"checkbox_events":[22817.899999976158,23019.899999976158,23215.300000071526,32053.600000023842,37823.800000071526,38934.700000047684],"key_events":[],"mouse_events":[6252.100000023842,8479.100000023842,13994.300000071526,22817.899999976158,23019.899999976158,23215.300000071526,27079.100000023842,29346,32053.600000023842,37823.800000071526,38934.700000047684,44570.10000002384,46930.89999997616,48742.89999997616,49844.300000071526],"honeypot":0,"survey":"mace","page":2,"trial_type":"survey-mace","trial_index":10,"time_elapsed":574408,"internal_node_id":"0.0-10.0","task_version":"prescreen-v0.3","browser_interactions":0},{"responses":{"01":"Yes","01_ages_12":"12","02":"No","03":"No","04":"No"},"rt":29267.600000023842,"item_order":[0,1,2,3],"radio_events":[13720.799999952316,25427.399999976158,27833.299999952316,28221.899999976158],"checkbox_events":[20179.600000023842],"key_events":[],"mouse_events":[13720.799999952316,20179.600000023842,25427.399999976158,27833.299999952316,28221.899999976158,29261.200000047684],"honeypot":0,"survey":"mace","page":3,"trial_type":"survey-mace","trial_index":11,"time_elapsed":603689,"internal_node_id":"0.0-11.0","task_version":"prescreen-v0.3","browser_interactions":0},{"responses":{"01":"No","02":"No"},"rt":7633.099999904633,"item_order":[0,1],"radio_events":[2864.899999976158,4179.899999976158],"checkbox_events":[],"key_events":[],"mouse_events":[2864.899999976158,4179.899999976158,7627.899999976158],"honeypot":0,"survey":"mace","page":4,"trial_type":"survey-mace","trial_index":12,"time_elapsed":611333,"internal_node_id":"0.0-12.0","task_version":"prescreen-v0.3","browser_interactions":0},{"responses":{"01":"Yes","01_ages_4":"4","01_ages_5":"5","01_ages_6":"6","01_ages_7":"7","01_ages_8":"8","01_ages_9":"9","01_ages_10":"10","01_ages_11":"11","01_ages_12":"12","01_ages_13":"13","01_ages_14":"14","01_ages_15":"15","01_ages_16":"16","02":"No","03":"No","04":"No","05":"No"},"rt":31815.300000071526,"item_order":[0,1,2,3,4],"radio_events":[10490.700000047684,20961.899999976158,24869.899999976158,27909.5,30652.300000071526],"checkbox_events":[12564.600000023842,12789.700000047684,13273.300000071526,13562.899999976158,13933.5,14209.899999976158,14566.600000023842,14885.5,15219.100000023842,15643.800000071526,15995.300000071526,16328.700000047684,16622.200000047684],"key_events":[],"mouse_events":[10490.700000047684,12564.600000023842,12789.700000047684,13273.300000071526,13562.899999976158,13933.5,14209.899999976158,14566.600000023842,14885.5,15219.100000023842,15643.800000071526,15995.300000071526,16328.700000047684,16622.200000047684,20961.899999976158,24869.899999976158,27909.5,30652.300000071526,31807.600000023842],"honeypot":0,"survey":"mace","page":5,"trial_type":"survey-mace","trial_index":13,"time_elapsed":643163,"internal_node_id":"0.0-13.0","task_version":"prescreen-v0.3","browser_interactions":0},{"responses":{"01":"Yes","01_ages_6":"6","01_ages_7":"7","01_ages_8":"8","01_ages_9":"9","01_ages_10":"10","01_ages_11":"11","01_ages_12":"12","01_ages_13":"13","01_ages_14":"14","01_ages_15":"15","02":"Yes","02_ages_6":"6","02_ages_7":"7","02_ages_8":"8","02_ages_9":"9","02_ages_10":"10","02_ages_11":"11","02_ages_12":"12","02_ages_13":"13","02_ages_14":"14","02_ages_15":"15","03":"Yes","03_ages_10":"10","03_ages_11":"11","03_ages_12":"12","03_ages_13":"13","03_ages_14":"14","03_ages_15":"15","04":"Yes","04_ages_11":"11","04_ages_12":"12","04_ages_13":"13","04_ages_14":"14","04_ages_15":"15","05":"No"},"rt":53361.10000002384,"item_order":[0,1,2,3,4],"radio_events":[9389.399999976158,20265.200000047684,29673.200000047684,37627,52316.39999997616],"checkbox_events":[12173.299999952316,12406.799999952316,12701.899999976158,13010.600000023842,13384.5,13821.100000023842,14170.899999976158,14485.600000023842,17099.399999976158,17392.399999976158,21563.399999976158,21783.899999976158,22024.299999952316,22284.399999976158,22562.5,22894.399999976158,23232.399999976158,23568.399999976158,23919.799999952316,24273.5,33546.39999997616,33825.10000002384,34125.700000047684,34408.799999952316,34692.60000002384,35358.39999997616,43660.60000002384,43905.299999952316,44159.10000002384,48355,48664.39999997616],"key_events":[],"mouse_events":[9389.399999976158,12173.299999952316,12406.799999952316,12701.899999976158,13010.600000023842,13384.5,13821.100000023842,14170.899999976158,14485.600000023842,17099.399999976158,17392.399999976158,20265.200000047684,21563.399999976158,21783.899999976158,22024.299999952316,22284.399999976158,22562.5,22894.399999976158,23232.399999976158,23568.399999976158,23919.799999952316,24273.5,29673.200000047684,33546.39999997616,33825.10000002384,34125.700000047684,34408.799999952316,34692.60000002384,35358.39999997616,37627,43660.60000002384,43905.299999952316,44159.10000002384,48355,48664.39999997616,52316.39999997616,53352.60000002384],"honeypot":0,"survey":"mace","page":6,"trial_type":"survey-mace","trial_index":14,"time_elapsed":696541,"internal_node_id":"0.0-14.0","task_version":"prescreen-v0.3","browser_interactions":0},{"responses":{"01":"No","02":"No","03":"No","04":"No","05":"No","06":"No","07":"No"},"rt":17781,"item_order":[0,1,2,3,4,5,6],"radio_events":[3829.600000023842,6734.399999976158,10319.699999928474,11774.799999952316,14154.600000023842,15642.5,16863.199999928474],"checkbox_events":[],"key_events":[],"mouse_events":[3829.600000023842,6734.399999976158,10319.699999928474,11774.799999952316,14154.600000023842,15642.5,16863.199999928474,17769.699999928474],"honeypot":0,"survey":"mace","page":7,"trial_type":"survey-mace","trial_index":15,"time_elapsed":714341,"internal_node_id":"0.0-15.0","task_version":"prescreen-v0.3","browser_interactions":0},{"responses":{"01":"No","02":"Yes","02_ages_4":"4","02_ages_5":"5","02_ages_6":"6","02_ages_7":"7","02_ages_8":"8","02_ages_9":"9","02_ages_10":"10","02_ages_11":"11","02_ages_12":"12","02_ages_13":"13","02_ages_14":"14","02_ages_15":"15","02_ages_16":"16","02_ages_17":"17","02_ages_18":"18","03":"Yes","03_ages_4":"4","03_ages_5":"5","03_ages_6":"6","03_ages_7":"7","03_ages_8":"8","03_ages_9":"9","03_ages_10":"10","03_ages_11":"11","03_ages_12":"12","03_ages_13":"13","03_ages_14":"14","03_ages_15":"15","03_ages_16":"16","03_ages_17":"17","03_ages_18":"18","04":"Yes","04_ages_4":"4","04_ages_5":"5","04_ages_6":"6","04_ages_7":"7","04_ages_8":"8","04_ages_9":"9","04_ages_10":"10","04_ages_11":"11","04_ages_12":"12","04_ages_13":"13","04_ages_14":"14","04_ages_15":"15","04_ages_16":"16","04_ages_17":"17","04_ages_18":"18"},"rt":68280.60000002384,"item_order":[0,1,2,3],"radio_events":[15141.200000047684,25024.800000071526,46831.40000009537,58409.800000071526],"checkbox_events":[34335.5,34562.700000047684,34787.10000002384,35485.5,35728.40000009537,36353.200000047684,36587.10000002384,36866.700000047684,37190.90000009537,37489.200000047684,37772,38104.300000071526,38479.700000047684,38940.60000002384,39614,42539.300000071526,42820.10000002384,47845.800000071526,48084.90000009537,48597.800000071526,48856,49214.40000009537,49481.40000009537,49788.200000047684,50088.5,50438.10000002384,50744.90000009537,51135.5,51513.10000002384,51908.700000047684,52293.700000047684,52720.10000002384,60205.10000002384,60424,60678,61173.300000071526,61450.700000047684,61880.40000009537,62477.10000002384,62709.700000047684,63155.700000047684,63558.5,63933.90000009537,64243.800000071526,64609.90000009537,64997,65349.300000071526,65798.70000004768,66157.90000009537,66540.10000002384,67703],"key_events":[],"mouse_events":[15141.200000047684,25024.800000071526,34335.5,34562.700000047684,34787.10000002384,35485.5,35728.40000009537,36353.200000047684,36587.10000002384,36866.700000047684,37190.90000009537,37489.200000047684,37772,38104.300000071526,38479.700000047684,38940.60000002384,39614,42539.300000071526,42820.10000002384,46831.40000009537,47845.800000071526,48084.90000009537,48597.800000071526,48856,49214.40000009537,49481.40000009537,49788.200000047684,50088.5,50438.10000002384,50744.90000009537,51135.5,51513.10000002384,51908.700000047684,52293.700000047684,52720.10000002384,58409.800000071526,60205.10000002384,60424,60678,61173.300000071526,61450.700000047684,61880.40000009537,62477.10000002384,62709.700000047684,63155.700000047684,63558.5,63933.90000009537,64243.800000071526,64609.90000009537,64997,65349.300000071526,65798.70000004768,66157.90000009537,66540.10000002384,66992.70000004768,67703,68273.5],"honeypot":0,"survey":"mace","page":8,"trial_type":"survey-mace","trial_index":16,"time_elapsed":782636,"internal_node_id":"0.0-16.0","task_version":"prescreen-v0.3","browser_interactions":0},{"responses":{"01":"Yes","01_ages_1":"1","01_ages_2":"2","01_ages_3":"3","01_ages_4":"4","01_ages_5":"5","01_ages_6":"6","01_ages_7":"7","01_ages_8":"8","01_ages_9":"9","01_ages_10":"10","01_ages_11":"11","01_ages_12":"12","01_ages_13":"13","01_ages_14":"14","01_ages_15":"15","01_ages_16":"16","01_ages_17":"17","01_ages_18":"18","02":"No","03":"Yes","03_ages_1":"1","03_ages_2":"2","03_ages_3":"3","03_ages_4":"4","03_ages_5":"5","03_ages_6":"6","03_ages_7":"7","03_ages_8":"8","03_ages_9":"9","03_ages_10":"10","03_ages_11":"11","03_ages_12":"12","03_ages_13":"13","03_ages_14":"14","03_ages_15":"15","03_ages_16":"16","03_ages_17":"17","03_ages_18":"18","04":"Yes","04_ages_1":"1","04_ages_2":"2","04_ages_3":"3","04_ages_4":"4","04_ages_5":"5","04_ages_6":"6","04_ages_7":"7","04_ages_8":"8","04_ages_9":"9","04_ages_10":"10","04_ages_11":"11","04_ages_12":"12","04_ages_13":"13","04_ages_14":"14","04_ages_15":"15","04_ages_16":"16","04_ages_17":"17","04_ages_18":"18"},"rt":51844.89999997616,"item_order":[0,1,2,3],"radio_events":[3985.2000000476837,24977.200000047684,28799.799999952316,42218],"checkbox_events":[7414.5,7662,7882.600000023842,8354.200000047684,8773.700000047684,9073.200000047684,9380.399999976158,11043.700000047684,11426.899999976158,12028.200000047684,12407.700000047684,12785.899999976158,13179.5,13564.700000047684,13912.700000047684,14341.600000023842,14761.399999976158,15140.399999976158,30428.700000047684,30690.799999952316,31118.5,31442.600000023842,31838.299999952316,32199.100000023842,32563.100000023842,32956.10000002384,33322.799999952316,33700.299999952316,34117.200000047684,34548.89999997616,34967.200000047684,35403.39999997616,35829.299999952316,36290.299999952316,36702.39999997616,37165.60000002384,44277.89999997616,44790.39999997616,45291.200000047684,45683.60000002384,46070.200000047684,46454.299999952316,46811.39999997616,47180.799999952316,47559.200000047684,47934.60000002384,48335.89999997616,48720.5,49135.799999952316,49536.89999997616,49957.299999952316,50384.799999952316,50779.200000047684,51200.89999997616],"key_events":[],"mouse_events":[3985.2000000476837,7414.5,7662,7882.600000023842,8354.200000047684,8773.700000047684,9073.200000047684,9380.399999976158,11043.700000047684,11426.899999976158,12028.200000047684,12407.700000047684,12785.899999976158,13179.5,13564.700000047684,13912.700000047684,14341.600000023842,14761.399999976158,15140.399999976158,24977.200000047684,28799.799999952316,30428.700000047684,30690.799999952316,31118.5,31442.600000023842,31838.299999952316,32199.100000023842,32563.100000023842,32956.10000002384,33322.799999952316,33700.299999952316,34117.200000047684,34548.89999997616,34967.200000047684,35403.39999997616,35829.299999952316,36290.299999952316,36702.39999997616,37165.60000002384,42218,44028.10000002384,44277.89999997616,44790.39999997616,45291.200000047684,45683.60000002384,46070.200000047684,46454.299999952316,46811.39999997616,47180.799999952316,47559.200000047684,47934.60000002384,48335.89999997616,48720.5,49135.799999952316,49536.89999997616,49957.299999952316,50384.799999952316,50779.200000047684,51200.89999997616,51838.200000047684],"honeypot":0,"survey":"mace","page":9,"trial_type":"survey-mace","trial_index":17,"time_elapsed":834496,"internal_node_id":"0.0-17.0","task_version":"prescreen-v0.3","browser_interactions":0},{"responses":{"01":"No","02":"No","03":"No","04":"No","05":"No","06":"Yes","06_ages_17":"17","07":"No","08":"No"},"rt":34803.10000002384,"item_order":[0,1,2,3,4,5,6,7],"radio_events":[5134,6855.700000047684,9442.399999976158,12589.700000047684,17836.200000047684,22593.899999976158,29302.800000071526,33838.5],"checkbox_events":[23825.600000023842],"key_events":[],"mouse_events":[5134,6855.700000047684,9442.399999976158,12589.700000047684,17836.200000047684,22593.899999976158,23825.600000023842,29302.800000071526,33838.5,34790.300000071526],"honeypot":0,"survey":"mace","page":10,"trial_type":"survey-mace","trial_index":18,"time_elapsed":869319,"internal_node_id":"0.0-18.0","task_version":"prescreen-v0.3","browser_interactions":0,"instructed":0},{"rt":11827,"trial_type":"mental-health-alert","trial_index":19,"time_elapsed":881155,"internal_node_id":"0.0-19.0","task_version":"prescreen-v0.3","interactions":"[{\"event\":\"blur\",\"trial\":2,\"time\":180176},{\"event\":\"focus\",\"trial\":2,\"time\":180413}]"}]