[{"view_history":[{"page_index":0,"viewing_time":4232.5},{"page_index":1,"viewing_time":7802.699999928474},{"page_index":2,"viewing_time":4671.100000023842},{"page_index":3,"viewing_time":791}],"rt":17498.100000023842,"trial_type":"instructions","trial_index":0,"time_elapsed":17645,"internal_node_id":"0.0-0.0","task_version":"prescreen-v0.3"},{"rt":12924.100000023842,"responses":{"age":"22","gender-categorical":"Female","gender-free-response":"","ethnicity":"Not Hispanic or Latino","race":["White"],"education":"Bachelor degree"},"trial_type":"survey-demo","trial_index":1,"time_elapsed":30855,"internal_node_id":"0.0-1.0","task_version":"prescreen-v0.3"},{"responses":{"Q17":"1","Q08":"3","Q10":"2","Q04":"2","Q16":"2","Q11":"1","Q18":"1","Q06":"1","Q01":"2","Q07":"1","Q09":"2","Q14":"1","Q05":"0","Q03":"1","Q20":"0","Q21":"3","Q02":"2","Q12":"1","Q13":"1","Q15":"2","Q19":"1"},"rt":89918.79999995232,"item_order":[16,7,9,3,15,10,17,5,0,6,8,13,4,2,19,20,1,11,12,14,18],"radio_events":[3988.899999976158,6814.100000023842,9971.100000023842,15022.600000023842,18418.600000023842,22230.299999952316,29840.199999928474,31593.100000023842,35268.699999928474,38404.89999997616,48359.5,52309,53230.199999928474,55602.89999997616,58614.10000002384,63010.89999997616,68023.79999995232,69480.89999997616,74114.5,78247.60000002384,87511.79999995232],"key_events":[],"mouse_events":[3988.899999976158,6814.100000023842,9971.100000023842,15022.600000023842,18418.600000023842,20335,22230.299999952316,29840.199999928474,31593.100000023842,35268.699999928474,38404.89999997616,45574.10000002384,48359.5,48893.299999952316,49373.199999928474,50958.699999928474,52309,53230.199999928474,55602.89999997616,58614.10000002384,63010.89999997616,66463.10000002384,68023.79999995232,69480.89999997616,73346.5,74114.5,78247.60000002384,81056.19999992847,87511.79999995232,89916.19999992847],"straightlining":0.47619047619047616,"zigzagging":0.7,"honeypot":0,"survey":"sns","trial_type":"survey-template","trial_index":2,"time_elapsed":120781,"internal_node_id":"0.0-2.0","task_version":"prescreen-v0.3","browser_interactions":0,"infrequency":0},{"responses":{"Q09":"1","Q10":"1","Q07":"2","Q03":"0","Q08":"1","Q11":"1","Q04":"3","Q06":"2","Q13":"0","Q01":"2","Q02":"1","Q12":"1","Q05":"3"},"rt":82595,"item_order":[8,9,6,2,7,10,3,5,12,0,1,11,4],"radio_events":[14168.899999976158,17341.600000023842,20128,27660.399999976158,37442.200000047684,43214.200000047684,51228.200000047684,52764.200000047684,57008,59668.200000047684,63834.10000002384,66092.10000002384,80894.20000004768],"key_events":[],"mouse_events":[14168.899999976158,17007.899999976158,17341.600000023842,18476.100000023842,20128,23337.899999976158,27660.399999976158,37442.200000047684,42508.39999997616,43214.200000047684,51228.200000047684,52764.200000047684,57008,59668.200000047684,62515.800000071526,63834.10000002384,66092.10000002384,66448.20000004768,66822,80894.20000004768,82594],"straightlining":0.46153846153846156,"zigzagging":0.3333333333333333,"honeypot":0,"survey":"bisbas","trial_type":"survey-template","trial_index":3,"time_elapsed":203379,"internal_node_id":"0.0-3.0","task_version":"prescreen-v0.3","browser_interactions":2,"infrequency":0},{"responses":{"Q01":"3","Q02":"2","Q03":"2"},"rt":17164.800000071526,"radio_events":[5666.300000071526,12238.100000023842,16560.100000023842],"key_events":[],"mouse_events":[5666.300000071526,12238.100000023842,16560.100000023842,17164.200000047684],"survey":"map","page":1,"trial_type":"survey-map","trial_index":4,"time_elapsed":220546,"internal_node_id":"0.0-4.0","task_version":"prescreen-v0.3","browser_interactions":0},{"responses":{"Q04":"2","Q05":"2","Q06":"1"},"rt":62048.10000002384,"radio_events":[51657.700000047684,57733.60000002384,59269.700000047684,61341.60000002384],"key_events":[],"mouse_events":[51657.700000047684,57733.60000002384,58914.200000047684,59269.700000047684,61341.60000002384,62047.60000002384],"survey":"map","page":2,"trial_type":"survey-map","trial_index":5,"time_elapsed":282597,"internal_node_id":"0.0-5.0","task_version":"prescreen-v0.3","browser_interactions":0},{"responses":{"Q07":"3","Q08":"3","Q09":"2"},"rt":21830,"radio_events":[12419.5,18711.600000023842,21061.600000023842],"key_events":[],"mouse_events":[11619.5,12419.5,18711.600000023842,21061.600000023842,21829.5],"survey":"map","page":3,"trial_type":"survey-map","trial_index":6,"time_elapsed":304429,"internal_node_id":"0.0-6.0","task_version":"prescreen-v0.3","browser_interactions":0},{"responses":{"Q10":"1","Q11":"1","Q12":"0","Q13":"2","Q16":"0","Q14":"2","Q15":"2"},"rt":49762.40000009537,"radio_events":[8347.700000047684,13647.5,15533.600000023842,17681.600000023842,21058,25107.700000047684,48767.700000047684],"key_events":[],"mouse_events":[8347.700000047684,12297.700000047684,13647.5,15533.600000023842,17681.600000023842,21058,25107.700000047684,47349.60000002384,48015.700000047684,48767.700000047684,49761.5],"survey":"map","page":4,"trial_type":"survey-map","trial_index":7,"time_elapsed":354193,"internal_node_id":"0.0-7.0","task_version":"prescreen-v0.3","browser_interactions":0,"infrequency":0},{"view_history":[{"page_index":0,"viewing_time":3581.899999976158},{"page_index":1,"viewing_time":2553.6999999284744}],"rt":6136.099999904633,"trial_type":"instructions","trial_index":8,"time_elapsed":360330,"internal_node_id":"0.0-8.0","task_version":"prescreen-v0.3"},{"responses":{"01":"Yes","01_ages_8":"8","01_ages_9":"9","01_ages_10":"10","01_ages_11":"11","01_ages_12":"12","01_ages_13":"13","01_ages_14":"14","02":"Yes","02_ages_12":"12","02_ages_13":"13","02_ages_14":"14","02_ages_15":"15","02_ages_16":"16","02_ages_17":"17","02_ages_18":"18","03":"No","04":"No","05":"No","06":"No"},"rt":47215.60000002384,"item_order":[0,1,2,3,4,5],"radio_events":[2827.399999976158,17133.200000047684,26831.200000047684,42115.10000002384,43497.10000002384,46281.10000002384],"checkbox_events":[7901.399999976158,8933.399999976158,10072.899999976158,10577.100000023842,11059,11509.200000047684,12361.100000023842,20926.800000071526,21563.200000047684,22230.899999976158,22735,23432.899999976158,23867.200000047684,24487],"key_events":[],"mouse_events":[0.10000002384185791,2827.399999976158,7901.399999976158,8933.399999976158,9545.100000023842,10072.899999976158,10577.100000023842,11059,11509.200000047684,12361.100000023842,17133.200000047684,20926.800000071526,21563.200000047684,22230.899999976158,22735,23432.899999976158,23867.200000047684,24487,26831.200000047684,42115.10000002384,43497.10000002384,46281.10000002384,47213.39999997616],"honeypot":0,"survey":"mace","page":1,"trial_type":"survey-mace","trial_index":9,"time_elapsed":407551,"internal_node_id":"0.0-9.0","task_version":"prescreen-v0.3","browser_interactions":0},{"responses":{"01":"No","02":"No","03":"No","04":"No","05":"No","06":"No","07":"No","08":"No"},"rt":29037.299999952316,"item_order":[0,1,2,3,4,5,6,7],"radio_events":[10222.100000023842,14776.5,15698.100000023842,18538.100000023842,20671.799999952316,21415.899999976158,25783.799999952316,27893.899999976158],"checkbox_events":[],"key_events":[],"mouse_events":[9531.799999952316,10222.100000023842,14776.5,15698.100000023842,17559.700000047684,18538.100000023842,19228.100000023842,20020,20671.799999952316,21415.899999976158,25783.799999952316,27893.899999976158,29034.299999952316],"honeypot":0,"survey":"mace","page":2,"trial_type":"survey-mace","trial_index":10,"time_elapsed":436593,"internal_node_id":"0.0-10.0","task_version":"prescreen-v0.3","browser_interactions":0},{"responses":{"01":"No","02":"No","03":"No","04":"No"},"rt":133073,"item_order":[0,1,2,3],"radio_events":[128757.29999995232,130147.29999995232,131465.19999992847,132380.89999997616],"checkbox_events":[],"key_events":[],"mouse_events":[128757.29999995232,130147.29999995232,131465.19999992847,132380.89999997616,133071.29999995232],"honeypot":0,"survey":"mace","page":3,"trial_type":"survey-mace","trial_index":11,"time_elapsed":569668,"internal_node_id":"0.0-11.0","task_version":"prescreen-v0.3","browser_interactions":0},{"responses":{"01":"No","02":"No"},"rt":12036.799999952316,"item_order":[0,1],"radio_events":[7775.700000047684,10570],"checkbox_events":[],"key_events":[],"mouse_events":[7775.700000047684,8552,10570,12035.899999976158],"honeypot":0,"survey":"mace","page":4,"trial_type":"survey-mace","trial_index":12,"time_elapsed":581707,"internal_node_id":"0.0-12.0","task_version":"prescreen-v0.3","browser_interactions":0},{"responses":{"01":"No","02":"No","03":"No","04":"No","05":"No"},"rt":89931.19999992847,"item_order":[0,1,2,3,4],"radio_events":[82730.89999997616,84242.79999995232,86422.79999995232,88198.79999995232,89448.69999992847],"checkbox_events":[],"key_events":[],"mouse_events":[81496.79999995232,82730.89999997616,84242.79999995232,86422.79999995232,88198.79999995232,89123.10000002384,89448.69999992847,89929.29999995232],"honeypot":0,"survey":"mace","page":5,"trial_type":"survey-mace","trial_index":13,"time_elapsed":671641,"internal_node_id":"0.0-13.0","task_version":"prescreen-v0.3","browser_interactions":0},{"responses":{"01":"Yes","01_ages_9":"9","01_ages_10":"10","01_ages_11":"11","01_ages_12":"12","01_ages_13":"13","01_ages_14":"14","01_ages_15":"15","01_ages_16":"16","02":"Yes","02_ages_12":"12","02_ages_13":"13","02_ages_14":"14","02_ages_15":"15","02_ages_16":"16","02_ages_17":"17","02_ages_18":"18","03":"Yes","03_ages_9":"9","03_ages_10":"10","03_ages_11":"11","03_ages_12":"12","03_ages_13":"13","03_ages_14":"14","03_ages_15":"15","03_ages_16":"16","03_ages_17":"17","03_ages_18":"18","04":"Yes","04_ages_13":"13","04_ages_14":"14","04_ages_15":"15","04_ages_16":"16","04_ages_17":"17","04_ages_18":"18","05":"No"},"rt":96914.79999995232,"item_order":[0,1,2,3,4],"radio_events":[51794.799999952316,71358.59999990463,77448.69999992847,88828.59999990463,96176.69999992847],"checkbox_events":[53176.699999928474,53890.59999990463,54572.699999928474,55520.89999997616,56227.09999990463,56946.59999990463,57420.699999928474,58242.699999928474,72530.59999990463,73088.69999992847,73988.89999997616,74368.69999992847,74802.69999992847,75182.69999992847,75718.69999992847,80186.69999992847,80830.79999995232,81552.79999995232,82335,82730.29999995232,84019,84554.69999992847,85508.69999992847,85958.5,86772.69999992847,89884.79999995232,90388.39999997616,90830.59999990463,91894.5,93180.59999990463,93646.69999992847],"key_events":[],"mouse_events":[51794.799999952316,53176.699999928474,53572.699999928474,53890.59999990463,54572.699999928474,55520.89999997616,56227.09999990463,56946.59999990463,57420.699999928474,58242.699999928474,70846.59999990463,71358.59999990463,72530.59999990463,73088.69999992847,73988.89999997616,74368.69999992847,74802.69999992847,75182.69999992847,75718.69999992847,77448.69999992847,79092.79999995232,79876.5,80186.69999992847,80830.79999995232,81552.79999995232,82335,82730.29999995232,83158.59999990463,84019,84554.69999992847,85508.69999992847,85958.5,86772.69999992847,88828.59999990463,89884.79999995232,90388.39999997616,90830.59999990463,91272.69999992847,91894.5,92313,93180.59999990463,93646.69999992847,96176.69999992847,96913],"honeypot":0,"survey":"mace","page":6,"trial_type":"survey-mace","trial_index":14,"time_elapsed":768558,"internal_node_id":"0.0-14.0","task_version":"prescreen-v0.3","browser_interactions":0},{"responses":{"01":"No","02":"No","03":"No","04":"No","05":"No","06":"No","07":"No"},"rt":14497.600000023842,"item_order":[0,1,2,3,4,5,6],"radio_events":[4581,7335,8715.200000047684,9846.899999976158,12088.799999952316,13058.799999952316,14052.799999952316],"checkbox_events":[],"key_events":[],"mouse_events":[4581,7335,8715.200000047684,9846.899999976158,12088.799999952316,13058.799999952316,13563.200000047684,14052.799999952316,14495],"honeypot":0,"survey":"mace","page":7,"trial_type":"survey-mace","trial_index":15,"time_elapsed":783060,"internal_node_id":"0.0-15.0","task_version":"prescreen-v0.3","browser_interactions":0},{"responses":{"01":"No","02":"Yes","02_ages_6":"6","02_ages_7":"7","02_ages_8":"8","02_ages_9":"9","02_ages_10":"10","02_ages_11":"11","02_ages_12":"12","02_ages_13":"13","03":"No","04":"No"},"rt":43224,"item_order":[0,1,2,3],"radio_events":[22460.600000023842,26618.399999976158,39590.39999997616,42546.200000047684],"checkbox_events":[28642.399999976158,29946.5,30412.200000047684,31816.5,32532.399999976158,33166.5,33586.5,34392.39999997616],"key_events":[],"mouse_events":[22460.600000023842,26618.399999976158,28642.399999976158,29946.5,30412.200000047684,31018.399999976158,31816.5,32532.399999976158,33166.5,33586.5,34392.39999997616,39590.39999997616,42026.39999997616,42546.200000047684,43222.39999997616],"honeypot":0,"survey":"mace","page":8,"trial_type":"survey-mace","trial_index":16,"time_elapsed":826286,"internal_node_id":"0.0-16.0","task_version":"prescreen-v0.3","browser_interactions":0},{"responses":{"01":"Yes","01_ages_1":"1","01_ages_2":"2","01_ages_3":"3","01_ages_4":"4","01_ages_5":"5","01_ages_6":"6","01_ages_7":"7","01_ages_8":"8","01_ages_9":"9","01_ages_10":"10","01_ages_11":"11","01_ages_12":"12","01_ages_13":"13","01_ages_14":"14","01_ages_15":"15","01_ages_16":"16","01_ages_17":"17","01_ages_18":"18","02":"Yes","02_ages_5":"5","02_ages_6":"6","02_ages_7":"7","02_ages_8":"8","02_ages_9":"9","02_ages_10":"10","02_ages_11":"11","02_ages_12":"12","02_ages_13":"13","02_ages_14":"14","02_ages_15":"15","02_ages_16":"16","02_ages_17":"17","02_ages_18":"18","03":"Yes","03_ages_5":"5","03_ages_6":"6","03_ages_7":"7","03_ages_8":"8","03_ages_9":"9","03_ages_10":"10","03_ages_11":"11","03_ages_12":"12","03_ages_13":"13","03_ages_14":"14","03_ages_15":"15","03_ages_16":"16","03_ages_17":"17","03_ages_18":"18","04":"Yes","04_ages_5":"5","04_ages_6":"6","04_ages_7":"7","04_ages_8":"8","04_ages_9":"9","04_ages_10":"10","04_ages_11":"11","04_ages_12":"12","04_ages_13":"13","04_ages_14":"14","04_ages_15":"15","04_ages_16":"16","04_ages_17":"17","04_ages_18":"18"},"rt":107025.60000002384,"item_order":[0,1,2,3],"radio_events":[2602.100000023842,54326,76973.90000009537,95345.90000009537],"checkbox_events":[4261.800000071526,4968.100000023842,5612.100000023842,6078,6900,7775.900000095367,8460.100000023842,9374,9918.100000023842,10678,11182,11896,12432.100000023842,13331.900000095367,13936.100000023842,14688.100000023842,15876,16458,60835.90000009537,61324,61835.700000047684,62140,62899.90000009537,63535.800000071526,64010.10000002384,64985.90000009537,65444,65894,66352.20000004768,67028,67739.90000009537,68378,68795.90000009537,69720,80590.30000007153,81638,82708,83786,84284,85370,86200.40000009537,87394,88021.80000007153,88587.90000009537,89465.90000009537,90209.90000009537,90799.80000007153,91482,99102,99614,100233.80000007153,100809.90000009537,101514.30000007153,102228.30000007153,102817.90000009537,103453.70000004768,104090.10000002384,104665.90000009537,105114,105550,106124.5,106527.70000004768],"key_events":[],"mouse_events":[2602.100000023842,4261.800000071526,4968.100000023842,5612.100000023842,6078,6442,6900,7775.900000095367,8460.100000023842,9374,9918.100000023842,10678,11182,11896,12432.100000023842,12982.100000023842,13331.900000095367,13936.100000023842,14688.100000023842,15876,16458,54326,56607.800000071526,59717.800000071526,60835.90000009537,61324,61835.700000047684,62140,62899.90000009537,63535.800000071526,64010.10000002384,64985.90000009537,65444,65894,66352.20000004768,67028,67739.90000009537,68378,68795.90000009537,69720,76973.90000009537,80590.30000007153,81016,81638,82708,83786,84284,84950,85370,86200.40000009537,87394,88021.80000007153,88587.90000009537,89123.90000009537,89465.90000009537,90209.90000009537,90799.80000007153,91482,94734.10000002384,95345.90000009537,96998.30000007153,98210.30000007153,99102,99614,100233.80000007153,100809.90000009537,101514.30000007153,102228.30000007153,102817.90000009537,103453.70000004768,104090.10000002384,104665.90000009537,105114,105550,106124.5,106527.70000004768,107024.10000002384],"honeypot":0,"survey":"mace","page":9,"trial_type":"survey-mace","trial_index":17,"time_elapsed":933315,"internal_node_id":"0.0-17.0","task_version":"prescreen-v0.3","browser_interactions":0},{"responses":{"01":"No","02":"No","03":"No","04":"Yes","04_ages_7":"7","04_ages_8":"8","04_ages_9":"9","04_ages_10":"10","04_ages_11":"11","04_ages_12":"12","05":"No","06":"Yes","06_ages_17":"17","07":"Yes","07_ages_9":"9","07_ages_10":"10","07_ages_11":"11","07_ages_12":"12","07_ages_13":"13","07_ages_14":"14","07_ages_15":"15","07_ages_16":"16","07_ages_17":"17","07_ages_18":"18","08":"Yes","08_ages_7":"7","08_ages_8":"8","08_ages_9":"9","08_ages_10":"10","08_ages_11":"11","08_ages_12":"12","08_ages_13":"13","08_ages_14":"14","08_ages_15":"15","08_ages_16":"16","08_ages_17":"17","08_ages_18":"18"},"rt":48540.199999928474,"item_order":[0,1,2,3,4,5,6,7],"radio_events":[4680.899999976158,5697.199999928474,6783.299999952316,9383.199999928474,17389.5,18297.100000023842,23673.199999928474,34107.39999997616],"checkbox_events":[10601.600000023842,11183.299999952316,11911.199999928474,13045.199999928474,13487.600000023842,13991.199999928474,20197.199999928474,26798.899999976158,27335.399999976158,27807.399999976158,28513.399999976158,28995.199999928474,29515.199999928474,29941.199999928474,30367.100000023842,30995.299999952316,32005.100000023842,35899.89999997616,37133.10000002384,37699.10000002384,38141.199999928474,38550.799999952316,39025.199999928474,39475.10000002384,40537,42113.10000002384,42903.199999928474,43625.199999928474,45713.699999928474],"key_events":[],"mouse_events":[3672.899999976158,4680.899999976158,5697.199999928474,6783.299999952316,9383.199999928474,10601.600000023842,11183.299999952316,11911.199999928474,13045.199999928474,13487.600000023842,13991.199999928474,15813.299999952316,16985.299999952316,17389.5,18297.100000023842,20197.199999928474,23673.199999928474,26798.899999976158,27335.399999976158,27807.399999976158,28513.399999976158,28995.199999928474,29515.199999928474,29941.199999928474,30367.100000023842,30995.299999952316,31539.199999928474,32005.100000023842,33711.199999928474,34107.39999997616,35495.39999997616,35899.89999997616,36511.299999952316,37133.10000002384,37699.10000002384,38141.199999928474,38550.799999952316,39025.199999928474,39475.10000002384,40537,42113.10000002384,42539,42903.199999928474,43625.199999928474,44099.199999928474,45713.699999928474,48537.299999952316],"honeypot":0,"survey":"mace","page":10,"trial_type":"survey-mace","trial_index":18,"time_elapsed":981858,"internal_node_id":"0.0-18.0","task_version":"prescreen-v0.3","browser_interactions":0,"instructed":0},{"rt":3606.899999976158,"trial_type":"mental-health-alert","trial_index":19,"time_elapsed":985484,"internal_node_id":"0.0-19.0","task_version":"prescreen-v0.3","interactions":"[{\"event\":\"blur\",\"trial\":3,\"time\":151060},{\"event\":\"focus\",\"trial\":3,\"time\":151350}]"}]