[{"view_history":[{"page_index":0,"viewing_time":16118},{"page_index":1,"viewing_time":14197},{"page_index":2,"viewing_time":13186},{"page_index":3,"viewing_time":4247}],"rt":47749,"trial_type":"instructions","trial_index":0,"time_elapsed":47787,"internal_node_id":"0.0-0.0","task_version":"prescreen-v0.3"},{"rt":53176,"responses":{"age":"76","gender-categorical":"Male","gender-free-response":"","ethnicity":"Not Hispanic or Latino","race":["White"],"education":"Some college","siblings":"0"},"trial_type":"survey-demo","trial_index":1,"time_elapsed":101134,"internal_node_id":"0.0-1.0","task_version":"prescreen-v0.3"},{"responses":{"Q10":"0","Q04":"2","Q02":"0","Q20":"1","Q01":"0","Q06":"1","Q11":"0","Q18":"1","Q08":"1","Q16":"2","Q05":"1","Q15":"2","Q21":"3","Q19":"1","Q17":"1","Q12":"0","Q07":"1","Q09":"1","Q13":"1","Q14":"1","Q03":"1"},"rt":368827,"item_order":[9,3,1,19,0,5,10,17,7,15,4,14,20,18,16,11,6,8,12,13,2],"radio_events":[30410,60198,69133,78990,87151,103025,111608,137440,147003,160689,185642,210966,226144,257188,270871,283013,302390,318084,343344,354411,364758],"key_events":[],"mouse_events":[30410,60198,69133,78990,87151,103025,111608,137440,147003,160689,185642,210966,226144,257188,270871,283013,302390,318084,343344,354411,364758,368827],"straightlining":0.5714285714285714,"zigzagging":0.55,"honeypot":0,"survey":"sns","trial_type":"survey-template","trial_index":2,"time_elapsed":469976,"internal_node_id":"0.0-2.0","task_version":"prescreen-v0.3","browser_interactions":0,"infrequency":0},{"responses":{"Q10":"1","Q11":"2","Q05":"2","Q03":"2","Q12":"1","Q07":"3","Q08":"2","Q06":"2","Q09":"1","Q01":"1","Q13":"0","Q02":"1","Q04":"2"},"rt":189985,"item_order":[9,10,4,2,11,6,7,5,8,0,12,1,3],"radio_events":[25647,48669,58760,72729,81297,92123,117184,127950,138280,147588,160249,176527,188586],"key_events":[],"mouse_events":[25647,48669,58760,72729,81297,92123,117184,127950,138280,147588,160249,176527,188586,189985],"straightlining":0.46153846153846156,"zigzagging":0.5833333333333334,"honeypot":0,"survey":"bisbas","trial_type":"survey-template","trial_index":3,"time_elapsed":659969,"internal_node_id":"0.0-3.0","task_version":"prescreen-v0.3","browser_interactions":0,"infrequency":0},{"responses":{"Q01":"2","Q02":"1","Q03":"2"},"rt":84497,"radio_events":[34216,68161,82907],"key_events":[],"mouse_events":[34216,68161,82907,84497],"survey":"map","page":1,"trial_type":"survey-map","trial_index":4,"time_elapsed":744473,"internal_node_id":"0.0-4.0","task_version":"prescreen-v0.3","browser_interactions":0},{"responses":{"Q04":"2","Q05":"2","Q06":"2"},"rt":71112,"radio_events":[23848,53081,67392],"key_events":[],"mouse_events":[23848,53081,67392,71112],"survey":"map","page":2,"trial_type":"survey-map","trial_index":5,"time_elapsed":815591,"internal_node_id":"0.0-5.0","task_version":"prescreen-v0.3","browser_interactions":0},{"responses":{"Q07":"4","Q08":"4","Q09":"1"},"rt":105725,"radio_events":[32218,86506,103779],"key_events":[],"mouse_events":[32218,86506,103779,105725],"survey":"map","page":3,"trial_type":"survey-map","trial_index":6,"time_elapsed":921321,"internal_node_id":"0.0-6.0","task_version":"prescreen-v0.3","browser_interactions":0},{"responses":{"Q10":"1","Q11":"1","Q12":"0","Q13":"0","Q16":"0","Q14":"2","Q15":"2"},"rt":93142,"radio_events":[14296,24884,35626,53844,65991,76873,83332,91739],"key_events":[],"mouse_events":[14296,24884,35626,53844,65991,76873,83332,91739,93142],"survey":"map","page":4,"trial_type":"survey-map","trial_index":7,"time_elapsed":1014470,"internal_node_id":"0.0-7.0","task_version":"prescreen-v0.3","browser_interactions":0,"infrequency":0},{"view_history":[{"page_index":0,"viewing_time":12786},{"page_index":1,"viewing_time":15722}],"rt":28508,"trial_type":"instructions","trial_index":8,"time_elapsed":1042982,"internal_node_id":"0.0-8.0","task_version":"prescreen-v0.3"},{"responses":{"01":"No","02":"No","03":"No","04":"No","05":"No","06":"No"},"rt":82914,"item_order":[0,1,2,3,4,5],"radio_events":[39466,47834,60767,66442,73262,81332],"checkbox_events":[],"key_events":[],"mouse_events":[0,39466,47834,60767,66442,73262,81332,82913],"honeypot":0,"survey":"mace","page":1,"trial_type":"survey-mace","trial_index":9,"time_elapsed":1125971,"internal_node_id":"0.0-9.0","task_version":"prescreen-v0.3","browser_interactions":0},{"responses":{"01":"No","02":"No","03":"Yes","03_ages_5":"5","04":"No","05":"No","06":"No","07":"No","08":"No"},"rt":123477,"item_order":[0,1,2,3,4,5,6,7],"radio_events":[6038,17549,44915,65614,100551,106449,111505,116864,122392],"checkbox_events":[94863],"key_events":[],"mouse_events":[6038,17549,44915,65614,94863,100551,106449,111505,116864,122392,123477],"honeypot":0,"survey":"mace","page":2,"trial_type":"survey-mace","trial_index":10,"time_elapsed":1249463,"internal_node_id":"0.0-10.0","task_version":"prescreen-v0.3","browser_interactions":0},{"responses":{"01":"No","02":"No","03":"No","04":"No"},"rt":30487,"item_order":[0,1,2,3],"radio_events":[9417,18469,24410,29587],"checkbox_events":[],"key_events":[],"mouse_events":[9417,18469,24410,29587,30487],"honeypot":0,"survey":"mace","page":3,"trial_type":"survey-mace","trial_index":11,"time_elapsed":1279961,"internal_node_id":"0.0-11.0","task_version":"prescreen-v0.3","browser_interactions":0},{"responses":{"01":"No","02":"No"},"rt":26002,"item_order":[0,1],"radio_events":[9197,16489],"checkbox_events":[],"key_events":[],"mouse_events":[9197,16489,26002],"honeypot":0,"survey":"mace","page":4,"trial_type":"survey-mace","trial_index":12,"time_elapsed":1305970,"internal_node_id":"0.0-12.0","task_version":"prescreen-v0.3","browser_interactions":0},{"responses":{"01":"No","02":"No","03":"No","04":"No","05":"No"},"rt":63555,"item_order":[0,1,2,3,4],"radio_events":[30230,39817,49105,54335,62265],"checkbox_events":[],"key_events":[],"mouse_events":[30230,39817,49105,54335,62265,63555],"honeypot":0,"survey":"mace","page":5,"trial_type":"survey-mace","trial_index":13,"time_elapsed":1369538,"internal_node_id":"0.0-13.0","task_version":"prescreen-v0.3","browser_interactions":0},{"responses":{"01":"No","02":"No","03":"No","04":"Yes","04_ages_13":"13","05":"No"},"rt":135837,"item_order":[0,1,2,3,4],"radio_events":[30735,51756,62927,101470,134182],"checkbox_events":[123049],"key_events":[],"mouse_events":[30735,51756,62927,101470,123049,134182,135837],"honeypot":0,"survey":"mace","page":6,"trial_type":"survey-mace","trial_index":14,"time_elapsed":1505386,"internal_node_id":"0.0-14.0","task_version":"prescreen-v0.3","browser_interactions":0},{"responses":{"01":"No","02":"No","03":"Yes","03_ages_12":"12","04":"Yes","04_ages_12":"12","05":"Yes","05_ages_12":"12","06":"No","07":"No"},"rt":178594,"item_order":[0,1,2,3,4,5,6],"radio_events":[14927,22017,42590,79358,105309,112673,175189],"checkbox_events":[65741,81386,86193,88421,106818],"key_events":[],"mouse_events":[14927,22017,42590,65741,79358,81386,86193,88421,105309,106818,112673,175189,178594],"honeypot":0,"survey":"mace","page":7,"trial_type":"survey-mace","trial_index":15,"time_elapsed":1684005,"internal_node_id":"0.0-15.0","task_version":"prescreen-v0.3","browser_interactions":0},{"responses":{"01":"No","02":"No","03":"No","04":"No"},"rt":63955,"item_order":[0,1,2,3],"radio_events":[29385,37900,48746,62361],"checkbox_events":[],"key_events":[],"mouse_events":[29385,37900,48746,62361,63954],"honeypot":0,"survey":"mace","page":8,"trial_type":"survey-mace","trial_index":16,"time_elapsed":1747975,"internal_node_id":"0.0-16.0","task_version":"prescreen-v0.3","browser_interactions":0},{"responses":{"01":"Yes","01_ages_1":"1","01_ages_2":"2","01_ages_3":"3","01_ages_4":"4","01_ages_5":"5","01_ages_6":"6","01_ages_7":"7","01_ages_8":"8","01_ages_9":"9","01_ages_10":"10","01_ages_11":"11","01_ages_12":"12","01_ages_13":"13","01_ages_14":"14","01_ages_15":"15","01_ages_16":"16","01_ages_17":"17","01_ages_18":"18","02":"Yes","02_ages_3":"3","02_ages_4":"4","02_ages_5":"5","02_ages_6":"6","02_ages_7":"7","02_ages_8":"8","02_ages_9":"9","02_ages_10":"10","02_ages_11":"11","02_ages_12":"12","02_ages_13":"13","02_ages_14":"14","02_ages_15":"15","02_ages_16":"16","02_ages_17":"17","02_ages_18":"18","03":"Yes","03_ages_1":"1","03_ages_2":"2","03_ages_3":"3","03_ages_4":"4","03_ages_5":"5","03_ages_6":"6","03_ages_7":"7","03_ages_8":"8","03_ages_9":"9","03_ages_10":"10","03_ages_11":"11","03_ages_12":"12","03_ages_13":"13","03_ages_14":"14","03_ages_15":"15","03_ages_16":"16","03_ages_17":"17","03_ages_18":"18","04":"Yes","04_ages_1":"1","04_ages_2":"2","04_ages_3":"3","04_ages_4":"4","04_ages_5":"5","04_ages_6":"6","04_ages_7":"7","04_ages_8":"8","04_ages_9":"9","04_ages_10":"10","04_ages_11":"11","04_ages_12":"12","04_ages_13":"13","04_ages_14":"14","04_ages_15":"15","04_ages_16":"16"},"rt":221855,"item_order":[0,1,2,3],"radio_events":[35327,80794,133292,201423],"checkbox_events":[46233,46920,47655,48407,50123,51560,52376,53078,53711,54644,55682,56355,56956,57855,58591,59517,60130,61459,103593,104795,105924,106935,107607,108440,109047,109691,110810,111554,113558,114519,115516,116834,118679,119703,135195,135952,136608,137199,138948,139620,140259,141878,142662,143798,144618,145484,146267,147630,148494,148671,149794,153654,169108,169995,203514,204554,205356,206078,207216,208143,208977,210258,211653,212935,213830,215104,216018,217012,218117,219269],"key_events":[],"mouse_events":[35327,46233,46920,47655,48407,49083,50123,50866,51560,52376,53078,53711,54644,55682,56355,56956,57855,58591,59517,60130,61459,80794,103593,104795,105924,106935,107607,108440,109047,109691,110810,111554,112679,113558,114519,115516,116834,117793,118679,119703,133292,135195,135952,136608,137199,138948,139620,140259,141878,142662,143798,144618,145484,146267,147630,148494,148671,149794,153654,169108,169995,201423,203514,204554,205356,206078,207216,208143,208977,209602,210258,211653,212935,213830,215104,216018,217012,218117,219269,221855],"honeypot":0,"survey":"mace","page":9,"trial_type":"survey-mace","trial_index":17,"time_elapsed":1969847,"internal_node_id":"0.0-17.0","task_version":"prescreen-v0.3","browser_interactions":0},{"responses":{"01":"No","02":"No","03":"Yes","03_ages_17":"17","03_ages_18":"18","04":"No","05":"No","06":"Yes","06_ages_17":"17","07":"Yes","07_ages_1":"1","07_ages_2":"2","07_ages_3":"3","07_ages_4":"4","07_ages_5":"5","07_ages_6":"6","07_ages_7":"7","07_ages_8":"8","07_ages_9":"9","07_ages_10":"10","07_ages_11":"11","07_ages_12":"12","07_ages_13":"13","07_ages_14":"14","07_ages_15":"15","07_ages_16":"16","07_ages_17":"17","07_ages_18":"18","08":"Yes","08_ages_1":"1","08_ages_2":"2","08_ages_3":"3","08_ages_4":"4","08_ages_5":"5","08_ages_6":"6","08_ages_7":"7","08_ages_8":"8","08_ages_9":"9","08_ages_10":"10","08_ages_11":"11","08_ages_12":"12","08_ages_13":"13","08_ages_14":"14","08_ages_15":"15","08_ages_16":"16","08_ages_17":"17","08_ages_18":"18"},"rt":141091,"item_order":[0,1,2,3,4,5,6,7],"radio_events":[14614,20383,26328,42181,61255,67531,74005,90675,120586],"checkbox_events":[44501,45529,76730,92958,93584,94450,95139,96275,97094,98087,100777,101737,102789,103742,104574,105313,105953,106914,107680,108486,109180,123134,123778,124450,125186,125874,126630,127662,129513,130361,131193,132126,132861,133477,134452,135224,135929,137389,138573],"key_events":[],"mouse_events":[14614,20383,26328,42181,44501,45529,61255,67531,74005,76730,90675,92958,93584,94450,95139,96275,97094,98087,98806,100777,101737,102789,103742,104574,105313,105953,106914,107680,108486,109180,120586,123134,123778,124450,125186,125874,126630,127662,128406,129513,130361,131193,132126,132861,133477,134452,135224,135929,137389,138573,141091],"honeypot":0,"survey":"mace","page":10,"trial_type":"survey-mace","trial_index":18,"time_elapsed":2110959,"internal_node_id":"0.0-18.0","task_version":"prescreen-v0.3","browser_interactions":0,"instructed":0},{"rt":66654,"trial_type":"mental-health-alert","trial_index":19,"time_elapsed":2177621,"internal_node_id":"0.0-19.0","task_version":"prescreen-v0.3","interactions":"[{\"event\":\"focus\",\"trial\":0,\"time\":2}]"}]