[{"view_history":[{"page_index":0,"viewing_time":1429.9000000953674},{"page_index":1,"viewing_time":1667.7999999523163},{"page_index":2,"viewing_time":1440},{"page_index":3,"viewing_time":745}],"rt":5283.200000047684,"trial_type":"instructions","trial_index":0,"time_elapsed":5302,"internal_node_id":"0.0-0.0","task_version":"prescreen-v0.3"},{"rt":7148.299999952316,"responses":{"age":"31","gender-categorical":"Male","gender-free-response":"","ethnicity":"Not Hispanic or Latino","race":["White"],"education":"Bachelor degree"},"trial_type":"survey-demo","trial_index":1,"time_elapsed":12456,"internal_node_id":"0.0-1.0","task_version":"prescreen-v0.3"},{"responses":{"Q09":"2","Q06":"3","Q07":"3","Q08":"2","Q12":"2","Q21":"3","Q16":"1","Q02":"1","Q19":"1","Q05":"3","Q20":"0","Q17":"3","Q14":"0","Q13":"0","Q03":"3","Q15":"2","Q10":"0","Q04":"0","Q18":"0","Q11":"1","Q01":"2"},"rt":56373.10000002384,"item_order":[8,5,6,7,11,20,15,1,18,4,19,16,13,12,2,14,9,3,17,10,0],"radio_events":[4513.5,8317.600000023842,9077.5,10667.399999976158,15959.700000047684,17010.700000047684,20225.600000023842,23185.600000023842,27021.5,30427.600000023842,31501.200000047684,33559.5,36079.5,37575.60000002384,40221.200000047684,43423.5,45929.299999952316,49263.200000047684,52035.39999997616,53429.10000002384,55793.700000047684],"key_events":[],"mouse_events":[3316.100000023842,4513.5,5671.799999952316,8317.600000023842,9077.5,10667.399999976158,14987.899999976158,15959.700000047684,17010.700000047684,20225.600000023842,23185.600000023842,27021.5,30427.600000023842,31501.200000047684,33559.5,36079.5,37575.60000002384,40221.200000047684,42711.60000002384,43423.5,45929.299999952316,48661.60000002384,49263.200000047684,50343.799999952316,52035.39999997616,52989.700000047684,53429.10000002384,54767.39999997616,55793.700000047684,56371.60000002384],"straightlining":0.2857142857142857,"zigzagging":0.5,"honeypot":0,"survey":"sns","trial_type":"survey-template","trial_index":2,"time_elapsed":68834,"internal_node_id":"0.0-2.0","task_version":"prescreen-v0.3","browser_interactions":0,"infrequency":0},{"responses":{"Q07":"2","Q06":"3","Q13":"0","Q05":"2","Q01":"1","Q09":"2","Q02":"0","Q04":"1","Q11":"2","Q10":"2","Q12":"2","Q08":"2","Q03":"1"},"rt":25922.300000071526,"item_order":[6,5,12,4,0,8,1,3,10,9,11,7,2],"radio_events":[2681.2000000476837,4887.100000023842,6806,8199,10085.200000047684,11135.100000023842,13122.899999976158,17131,18304.899999976158,19173,22517.200000047684,23291.200000047684,25193.399999976158],"key_events":[],"mouse_events":[2681.2000000476837,4887.100000023842,5577.5,6806,8199,9515.200000047684,10085.200000047684,11135.100000023842,13122.899999976158,15417.300000071526,17131,18304.899999976158,19173,20919.899999976158,22517.200000047684,23291.200000047684,24730.800000071526,25193.399999976158,25921.300000071526],"straightlining":0.5384615384615384,"zigzagging":0.5833333333333334,"honeypot":0,"survey":"bisbas","trial_type":"survey-template","trial_index":3,"time_elapsed":94759,"internal_node_id":"0.0-3.0","task_version":"prescreen-v0.3","browser_interactions":0,"infrequency":0},{"responses":{"Q01":"3","Q02":"1","Q03":"2"},"rt":16116.900000095367,"radio_events":[4076.2000000476837,4990.400000095367,7652.5,15380],"key_events":[],"mouse_events":[4076.2000000476837,4990.400000095367,7652.5,14604.400000095367,15380,16116.5],"survey":"map","page":1,"trial_type":"survey-map","trial_index":4,"time_elapsed":110879,"internal_node_id":"0.0-4.0","task_version":"prescreen-v0.3","browser_interactions":0},{"responses":{"Q04":"4","Q05":"3","Q06":"3"},"rt":10001.399999976158,"radio_events":[7370.799999952316,8310.899999976158,9391],"key_events":[],"mouse_events":[7370.799999952316,8310.899999976158,9391,10001],"survey":"map","page":2,"trial_type":"survey-map","trial_index":5,"time_elapsed":120882,"internal_node_id":"0.0-5.0","task_version":"prescreen-v0.3","browser_interactions":0},{"responses":{"Q07":"0","Q08":"4","Q09":"2"},"rt":11966.700000047684,"radio_events":[5547.799999952316,8062.100000023842,9736.100000023842,10512.100000023842],"key_events":[],"mouse_events":[2942.2000000476837,5547.799999952316,8062.100000023842,9736.100000023842,10512.100000023842,11966.299999952316],"survey":"map","page":3,"trial_type":"survey-map","trial_index":6,"time_elapsed":132850,"internal_node_id":"0.0-6.0","task_version":"prescreen-v0.3","browser_interactions":0},{"responses":{"Q10":"0","Q11":"2","Q12":"2","Q13":"3","Q16":"0","Q14":"3","Q15":"3"},"rt":20914.5,"radio_events":[2613.600000023842,4554.600000023842,7489.700000047684,9343.700000047684,13241.700000047684,19278,20201.800000071526],"key_events":[],"mouse_events":[2613.600000023842,4554.600000023842,7489.700000047684,9343.700000047684,13241.700000047684,19278,20201.800000071526,20913.800000071526],"survey":"map","page":4,"trial_type":"survey-map","trial_index":7,"time_elapsed":153767,"internal_node_id":"0.0-7.0","task_version":"prescreen-v0.3","browser_interactions":0,"infrequency":0},{"view_history":[{"page_index":0,"viewing_time":1547.7000000476837},{"page_index":1,"viewing_time":3293.899999976158}],"rt":4841.799999952316,"trial_type":"instructions","trial_index":8,"time_elapsed":158610,"internal_node_id":"0.0-8.0","task_version":"prescreen-v0.3"},{"responses":{"01":"Yes","01_ages_9":"9","01_ages_10":"10","01_ages_11":"11","01_ages_12":"12","01_ages_13":"13","01_ages_14":"14","01_ages_15":"15","01_ages_16":"16","01_ages_17":"17","01_ages_18":"18","02":"Yes","02_ages_8":"8","02_ages_9":"9","02_ages_10":"10","02_ages_11":"11","02_ages_12":"12","02_ages_13":"13","02_ages_14":"14","02_ages_15":"15","02_ages_16":"16","02_ages_17":"17","02_ages_18":"18","03":"No","04":"Yes","04_ages_8":"8","04_ages_9":"9","04_ages_13":"13","04_ages_14":"14","04_ages_15":"15","04_ages_16":"16","04_ages_18":"18","05":"No","06":"Yes","06_ages_12":"12","06_ages_13":"13","06_ages_14":"14","06_ages_15":"15","06_ages_16":"16","06_ages_17":"17","06_ages_18":"18"},"rt":48620.60000002384,"item_order":[0,1,2,3,4,5],"radio_events":[2306.399999976158,18954.300000071526,30398.300000071526,32950.60000002384,35658.39999997616,36337.89999997616],"checkbox_events":[4732.5,5380.100000023842,6938.399999976158,7808.600000023842,8378.300000071526,9858.300000071526,10218,10524.100000023842,11244.300000071526,11784.399999976158,12292.5,12982.600000023842,13286.700000047684,14116,14460.399999976158,14860.100000023842,19768.100000023842,20120,23298.200000047684,24191.200000047684,24464,24746.300000071526,25434.200000047684,25763.800000071526,26624.200000047684,27462,27792.399999976158,28136,28472.300000071526,37896,38248.200000047684,38718,39054,39532.60000002384,39892.300000071526,40229.200000047684,42748.200000047684,43852.200000047684,45284.5,45660.300000071526,46004.39999997616,46356,47132],"key_events":[],"mouse_events":[0.10000002384185791,2306.399999976158,4732.5,5380.100000023842,6938.399999976158,7808.600000023842,8378.300000071526,8755.100000023842,9334.399999976158,9858.300000071526,10218,10524.100000023842,11244.300000071526,11784.399999976158,12292.5,12574.5,12982.600000023842,13286.700000047684,13718.300000071526,14116,14460.399999976158,14860.100000023842,18954.300000071526,19768.100000023842,20120,23298.200000047684,24191.200000047684,24464,24746.300000071526,25434.200000047684,25763.800000071526,26092.700000047684,26624.200000047684,26946.300000071526,27462,27792.399999976158,28136,28472.300000071526,30398.300000071526,32950.60000002384,34256.5,35658.39999997616,36337.89999997616,37896,38248.200000047684,38718,39054,39532.60000002384,39892.300000071526,40229.200000047684,42748.200000047684,43852.200000047684,44736.5,45284.5,45660.300000071526,46004.39999997616,46356,47132,48618.5],"honeypot":0,"survey":"mace","page":1,"trial_type":"survey-mace","trial_index":9,"time_elapsed":207235,"internal_node_id":"0.0-9.0","task_version":"prescreen-v0.3","browser_interactions":0},{"responses":{"01":"Yes","01_ages_14":"14","01_ages_15":"15","01_ages_16":"16","02":"No","03":"Yes","03_ages_6":"6","03_ages_7":"7","03_ages_8":"8","03_ages_9":"9","04":"No","05":"Yes","05_ages_6":"6","05_ages_7":"7","05_ages_8":"8","05_ages_9":"9","06":"No","07":"No","08":"No"},"rt":27061.799999952316,"item_order":[0,1,2,3,4,5,6,7],"radio_events":[2129.899999976158,10755.600000023842,13079.700000047684,17829.799999952316,19256.100000023842,24155.799999952316,25069.5,26245.700000047684],"checkbox_events":[4620.399999976158,5151.799999952316,5496.100000023842,6020.799999952316,7883.700000047684,14041.700000047684,14410,14723.399999976158,15991.899999976158,20271.600000023842,20602.100000023842,21032,21485.5],"key_events":[],"mouse_events":[2129.899999976158,4620.399999976158,5151.799999952316,5496.100000023842,6020.799999952316,7320.100000023842,7883.700000047684,10755.600000023842,12314,13079.700000047684,14041.700000047684,14410,14723.399999976158,15991.899999976158,17829.799999952316,19256.100000023842,19976.600000023842,20271.600000023842,20602.100000023842,21032,21485.5,24155.799999952316,25069.5,25814,26245.700000047684,27059.399999976158],"honeypot":0,"survey":"mace","page":2,"trial_type":"survey-mace","trial_index":10,"time_elapsed":234301,"internal_node_id":"0.0-10.0","task_version":"prescreen-v0.3","browser_interactions":0},{"responses":{"01":"No","02":"No","03":"No","04":"No"},"rt":5522.699999928474,"item_order":[0,1,2,3],"radio_events":[3087.100000023842,3493.100000023842,4000.899999976158,4580.699999928474],"checkbox_events":[],"key_events":[],"mouse_events":[3087.100000023842,3493.100000023842,4000.899999976158,4580.699999928474,5521.299999952316],"honeypot":0,"survey":"mace","page":3,"trial_type":"survey-mace","trial_index":11,"time_elapsed":239826,"internal_node_id":"0.0-11.0","task_version":"prescreen-v0.3","browser_interactions":0},{"responses":{"01":"No","02":"No"},"rt":3533.4000000953674,"item_order":[0,1],"radio_events":[1904.2000000476837,2476.5],"checkbox_events":[],"key_events":[],"mouse_events":[1904.2000000476837,2476.5,3172.3000000715256,3532.5],"honeypot":0,"survey":"mace","page":4,"trial_type":"survey-mace","trial_index":12,"time_elapsed":243361,"internal_node_id":"0.0-12.0","task_version":"prescreen-v0.3","browser_interactions":0},{"responses":{"01":"No","02":"No","03":"No","04":"Yes","04_ages_12":"12","05":"No"},"rt":19294.599999904633,"item_order":[0,1,2,3,4],"radio_events":[7402.399999976158,8342.599999904633,9578.5,12528.199999928474,18634.299999952316],"checkbox_events":[15504.799999952316],"key_events":[],"mouse_events":[7402.399999976158,8342.599999904633,9578.5,11435,12528.199999928474,15504.799999952316,18634.299999952316,19292.899999976158],"honeypot":0,"survey":"mace","page":5,"trial_type":"survey-mace","trial_index":13,"time_elapsed":262659,"internal_node_id":"0.0-13.0","task_version":"prescreen-v0.3","browser_interactions":0},{"responses":{"01":"Yes","01_ages_8":"8","01_ages_9":"9","01_ages_10":"10","01_ages_11":"11","01_ages_12":"12","01_ages_13":"13","01_ages_14":"14","01_ages_15":"15","01_ages_16":"16","01_ages_17":"17","01_ages_18":"18","02":"No","03":"No","04":"No","05":"No"},"rt":23253.100000023842,"item_order":[0,1,2,3,4],"radio_events":[5888.600000023842,16511.5,20151.100000023842,22304.700000047684,22782.799999952316],"checkbox_events":[8425.100000023842,8730.700000047684,9091,9404.600000023842,9756.899999976158,10326.799999952316,11438.700000047684,12411,12746.700000047684,13412.700000047684,13818.600000023842],"key_events":[],"mouse_events":[5888.600000023842,8425.100000023842,8730.700000047684,9091,9404.600000023842,9756.899999976158,10326.799999952316,11438.700000047684,11909,12411,12746.700000047684,13075,13412.700000047684,13818.600000023842,16511.5,20151.100000023842,21450.899999976158,22304.700000047684,22782.799999952316,23250.899999976158],"honeypot":0,"survey":"mace","page":6,"trial_type":"survey-mace","trial_index":14,"time_elapsed":285915,"internal_node_id":"0.0-14.0","task_version":"prescreen-v0.3","browser_interactions":0},{"responses":{"01":"No","02":"No","03":"No","04":"Yes","04_ages_12":"12","04_ages_13":"13","04_ages_14":"14","04_ages_15":"15","04_ages_16":"16","05":"Yes","05_ages_15":"15","05_ages_16":"16","06":"No","07":"No"},"rt":17343.200000047684,"item_order":[0,1,2,3,4,5,6],"radio_events":[3180.899999976158,4378.600000023842,5858.600000023842,6640.200000047684,12894.100000023842,15768.600000023842,16706.5],"checkbox_events":[7470.399999976158,8050,8322.300000071526,8660.399999976158,9020.300000071526,9372.300000071526,9810.399999976158,13686.700000047684,14170.300000071526],"key_events":[],"mouse_events":[3180.899999976158,3876.8000000715256,4378.600000023842,4886.399999976158,5858.600000023842,6640.200000047684,7470.399999976158,8050,8322.300000071526,8660.399999976158,9020.300000071526,9372.300000071526,9810.399999976158,12260.5,12894.100000023842,13686.700000047684,14170.300000071526,15768.600000023842,16370.700000047684,16706.5,17340.899999976158],"honeypot":0,"survey":"mace","page":7,"trial_type":"survey-mace","trial_index":15,"time_elapsed":303262,"internal_node_id":"0.0-15.0","task_version":"prescreen-v0.3","browser_interactions":0},{"responses":{"01":"Yes","01_ages_10":"10","01_ages_11":"11","01_ages_12":"12","01_ages_13":"13","01_ages_14":"14","01_ages_15":"15","01_ages_16":"16","01_ages_17":"17","01_ages_18":"18","02":"Yes","02_ages_12":"12","02_ages_13":"13","02_ages_14":"14","02_ages_15":"15","02_ages_16":"16","03":"Yes","03_ages_6":"6","03_ages_7":"7","03_ages_8":"8","03_ages_9":"9","03_ages_10":"10","03_ages_11":"11","03_ages_12":"12","03_ages_13":"13","03_ages_14":"14","03_ages_15":"15","03_ages_16":"16","03_ages_17":"17","03_ages_18":"18","04":"No"},"rt":30985.599999904633,"item_order":[0,1,2,3],"radio_events":[5255.599999904633,14717.399999976158,20431.699999928474,30545.399999976158],"checkbox_events":[8691.699999928474,9059.599999904633,9559.699999928474,10193.699999928474,10500.699999928474,11266.199999928474,11829.299999952316,12442,13293.5,15445.5,15792,16517.699999928474,16823.299999952316,17247.5,21675.299999952316,21997.599999904633,22349.299999952316,23311.699999928474,23703.599999904633,24182,24743.599999904633,25081.799999952316,25825.5,26381.5,26709.599999904633,27343.199999928474,27789.299999952316,28203.299999952316,28783.899999976158,29119.599999904633,29441.399999976158],"key_events":[],"mouse_events":[5255.599999904633,8691.699999928474,9059.599999904633,9559.699999928474,10193.699999928474,10500.699999928474,10797.699999928474,11266.199999928474,11829.299999952316,12442,13293.5,14717.399999976158,15445.5,15792,16111.699999928474,16517.699999928474,16823.299999952316,17247.5,20071.899999976158,20431.699999928474,21675.299999952316,21997.599999904633,22349.299999952316,23311.699999928474,23703.599999904633,24182,24455.699999928474,24743.599999904633,25081.799999952316,25825.5,26381.5,26709.599999904633,27023.599999904633,27343.199999928474,27789.299999952316,28203.299999952316,28783.899999976158,29119.599999904633,29441.399999976158,30545.399999976158,30984.099999904633],"honeypot":0,"survey":"mace","page":8,"trial_type":"survey-mace","trial_index":16,"time_elapsed":334251,"internal_node_id":"0.0-16.0","task_version":"prescreen-v0.3","browser_interactions":0},{"responses":{"01":"No","02":"No","03":"Yes","03_ages_1":"1","03_ages_2":"2","03_ages_3":"3","03_ages_4":"4","03_ages_5":"5","03_ages_6":"6","03_ages_7":"7","03_ages_8":"8","03_ages_9":"9","03_ages_10":"10","03_ages_11":"11","03_ages_12":"12","03_ages_13":"13","03_ages_14":"14","03_ages_15":"15","04":"Yes","04_ages_1":"1","04_ages_2":"2","04_ages_3":"3","04_ages_4":"4","04_ages_5":"5","04_ages_6":"6","04_ages_7":"7","04_ages_8":"8","04_ages_9":"9","04_ages_10":"10","04_ages_11":"11","04_ages_12":"12","04_ages_13":"13","04_ages_14":"14","04_ages_15":"15","04_ages_16":"16","04_ages_17":"17","04_ages_18":"18"},"rt":36432.89999997616,"item_order":[0,1,2,3],"radio_events":[2327.2999999523163,4167.599999904633,8221.399999976158,25293.699999928474,27242.399999976158],"checkbox_events":[9951.599999904633,13185.399999976158,13545.799999952316,13929.399999976158,14446,15165.899999976158,15447.5,17139.5,18295.799999952316,19273.5,19571.699999928474,19963.399999976158,20347.399999976158,20659.599999904633,21011.699999928474,21419.699999928474,21772.199999928474,22075.399999976158,28243.599999904633,28517.5,29237.599999904633,29582.799999952316,29933.899999976158,30349.599999904633,30984,31679.399999976158,32009.599999904633,32955.39999997616,33291.39999997616,33925.299999952316,34387.39999997616,34717.5,35053.59999990463],"key_events":[12168.199999928474],"mouse_events":[2327.2999999523163,4167.599999904633,8221.399999976158,9951.599999904633,13185.399999976158,13545.799999952316,13929.399999976158,14446,15165.899999976158,15447.5,16379.399999976158,17139.5,17451.599999904633,18295.799999952316,18791.799999952316,19273.5,19571.699999928474,19963.399999976158,20347.399999976158,20659.599999904633,21011.699999928474,21419.699999928474,21772.199999928474,22075.399999976158,25293.699999928474,27242.399999976158,28243.599999904633,28517.5,28854.099999904633,29237.599999904633,29582.799999952316,29933.899999976158,30349.599999904633,30984,31679.399999976158,32009.599999904633,32377.399999976158,32955.39999997616,33291.39999997616,33581.59999990463,33925.299999952316,34387.39999997616,34717.5,35053.59999990463,36431.59999990463],"honeypot":0,"survey":"mace","page":9,"trial_type":"survey-mace","trial_index":17,"time_elapsed":370685,"internal_node_id":"0.0-17.0","task_version":"prescreen-v0.3","browser_interactions":0},{"responses":{"01":"No","02":"No","03":"Yes","03_ages_10":"10","03_ages_11":"11","03_ages_12":"12","03_ages_13":"13","03_ages_14":"14","03_ages_15":"15","03_ages_16":"16","03_ages_17":"17","03_ages_18":"18","04":"Yes","04_ages_11":"11","04_ages_12":"12","04_ages_13":"13","04_ages_14":"14","04_ages_15":"15","05":"Yes","05_ages_8":"8","05_ages_9":"9","05_ages_10":"10","05_ages_11":"11","05_ages_12":"12","06":"Yes","06_ages_17":"17","07":"No","08":"No"},"rt":30561.300000071526,"item_order":[0,1,2,3,4,5,6,7],"radio_events":[1819.3000000715256,2626.2000000476837,4379.700000047684,12770.200000047684,18115.300000071526,25869.5,28585.5,30143.200000047684],"checkbox_events":[5576.300000071526,6375.400000095367,7007.900000095367,7509.800000071526,8167.600000023842,8549.700000047684,9411.300000071526,9889,10225.700000047684,13567.400000095367,13865.5,14169.700000047684,15031.200000047684,15383.600000023842,23202,23492.300000071526,23811.300000071526,24171.600000023842,24821.5,27115.600000023842],"key_events":[],"mouse_events":[1819.3000000715256,2626.2000000476837,4379.700000047684,5576.300000071526,6093.5,6375.400000095367,7007.900000095367,7509.800000071526,8167.600000023842,8549.700000047684,9411.300000071526,9889,10225.700000047684,12222.200000047684,12770.200000047684,13567.400000095367,13865.5,14169.700000047684,14475.700000047684,15031.200000047684,15383.600000023842,18115.300000071526,23202,23492.300000071526,23811.300000071526,24171.600000023842,24524.900000095367,24821.5,25869.5,27115.600000023842,28585.5,29649.800000071526,30143.200000047684,30558.100000023842],"honeypot":0,"survey":"mace","page":10,"trial_type":"survey-mace","trial_index":18,"time_elapsed":401250,"internal_node_id":"0.0-18.0","task_version":"prescreen-v0.3","browser_interactions":0,"instructed":0},{"rt":1559.7000000476837,"trial_type":"mental-health-alert","trial_index":19,"time_elapsed":402812,"internal_node_id":"0.0-19.0","task_version":"prescreen-v0.3","interactions":"[]"}]