[{"view_history":[{"page_index":0,"viewing_time":4910.900000035763},{"page_index":1,"viewing_time":3986.899999976158},{"page_index":2,"viewing_time":16908.600000023842},{"page_index":3,"viewing_time":2037}],"rt":27844.600000023842,"trial_type":"instructions","trial_index":0,"time_elapsed":27851,"internal_node_id":"0.0-0.0","task_version":"prescreen-v0.3"},{"rt":45180.5,"responses":{"age":"70","gender-categorical":"Female","gender-free-response":"","ethnicity":"Not Hispanic or Latino","race":["White"],"education":"Master degree or higher"},"trial_type":"survey-demo","trial_index":1,"time_elapsed":73037,"internal_node_id":"0.0-1.0","task_version":"prescreen-v0.3"},{"responses":{"Q05":"3","Q18":"0","Q04":"0","Q01":"0","Q13":"1","Q03":"0","Q17":"0","Q10":"0","Q08":"1","Q06":"0","Q07":"0","Q21":"3","Q14":"0","Q16":"0","Q12":"0","Q09":"0","Q15":"0","Q20":"0","Q19":"0","Q02":"0","Q11":"0"},"rt":78830.5,"item_order":[4,17,3,0,12,2,16,9,7,5,6,20,13,15,11,8,14,19,18,1,10],"radio_events":[10445.899999976158,15616.799999952316,18143.5,20194.799999952316,24605.19999998808,26554.099999964237,27982.299999952316,30885.299999952316,37175.69999998808,40955.89999997616,45485.19999998808,48466,52558.5,55066.59999996424,62664.5,63179.39999997616,66875.79999995232,69117.19999998808,73115.09999996424,75154,77575.59999996424],"key_events":[],"mouse_events":[10445.899999976158,15616.799999952316,18143.5,20194.799999952316,24605.19999998808,26554.099999964237,27982.299999952316,30885.299999952316,37175.69999998808,40955.89999997616,45485.19999998808,48466,52558.5,55066.59999996424,62664.5,63179.39999997616,66875.79999995232,69117.19999998808,73115.09999996424,75154,77575.59999996424,78828.89999997616],"straightlining":0.8095238095238095,"zigzagging":0.35,"honeypot":0,"survey":"sns","trial_type":"survey-template","trial_index":2,"time_elapsed":151873,"internal_node_id":"0.0-2.0","task_version":"prescreen-v0.3","browser_interactions":0,"infrequency":0},{"responses":{"Q04":"2","Q05":"3","Q08":"2","Q09":"3","Q03":"2","Q12":"2","Q06":"3","Q11":"2","Q01":"1","Q13":"0","Q07":"2","Q02":"2","Q10":"3"},"rt":64765.60000002384,"item_order":[3,4,7,8,2,11,5,10,0,12,6,1,9],"radio_events":[16778.100000023842,21334.80000001192,24490.600000023842,27805.69999998808,32627.600000023842,35955.10000002384,38628.60000002384,41274.30000001192,50347.80000001192,51132.19999998808,53758.10000002384,56016.90000003576,60204.19999998808,63291.5],"key_events":[],"mouse_events":[16778.100000023842,21334.80000001192,24490.600000023842,27805.69999998808,32627.600000023842,35955.10000002384,38628.60000002384,41274.30000001192,50347.80000001192,51132.19999998808,53758.10000002384,56016.90000003576,60204.19999998808,63291.5,64764.80000001192],"straightlining":0.5384615384615384,"zigzagging":0.75,"honeypot":0,"survey":"bisbas","trial_type":"survey-template","trial_index":3,"time_elapsed":216645,"internal_node_id":"0.0-3.0","task_version":"prescreen-v0.3","browser_interactions":0,"infrequency":0},{"responses":{"Q01":"3","Q02":"4","Q03":"4"},"rt":20493.30000001192,"radio_events":[10529,15233.800000011921,19855.30000001192],"key_events":[],"mouse_events":[10529,15233.800000011921,19855.30000001192,20492.19999998808],"survey":"map","page":1,"trial_type":"survey-map","trial_index":4,"time_elapsed":237142,"internal_node_id":"0.0-4.0","task_version":"prescreen-v0.3","browser_interactions":0},{"responses":{"Q04":"3","Q05":"3","Q06":"3"},"rt":22783.80000001192,"radio_events":[13043.900000035763,16839.5,19378.400000035763],"key_events":[],"mouse_events":[13043.900000035763,16839.5,19378.400000035763,22783.400000035763],"survey":"map","page":2,"trial_type":"survey-map","trial_index":5,"time_elapsed":259930,"internal_node_id":"0.0-5.0","task_version":"prescreen-v0.3","browser_interactions":0},{"responses":{"Q07":"4","Q08":"4","Q09":"2"},"rt":13460.699999988079,"radio_events":[6022.5,9267.399999976158,11577.799999952316],"key_events":[],"mouse_events":[6022.5,9267.399999976158,11577.799999952316,13460.099999964237],"survey":"map","page":3,"trial_type":"survey-map","trial_index":6,"time_elapsed":273394,"internal_node_id":"0.0-6.0","task_version":"prescreen-v0.3","browser_interactions":0},{"responses":{"Q10":"3","Q11":"3","Q12":"2","Q13":"1","Q16":"0","Q14":"4","Q15":"4"},"rt":40512.69999998808,"radio_events":[15620.5,17561.299999952316,22293.099999964237,29924.799999952316,33434.59999996424,37415.09999996424,39762.5],"key_events":[],"mouse_events":[15620.5,17561.299999952316,22293.099999964237,29924.799999952316,33434.59999996424,37415.09999996424,39762.5,40512],"survey":"map","page":4,"trial_type":"survey-map","trial_index":7,"time_elapsed":313912,"internal_node_id":"0.0-7.0","task_version":"prescreen-v0.3","browser_interactions":0,"infrequency":0},{"view_history":[{"page_index":0,"viewing_time":2837.899999976158},{"page_index":1,"viewing_time":6585.199999988079}],"rt":9425.5,"trial_type":"instructions","trial_index":8,"time_elapsed":323340,"internal_node_id":"0.0-8.0","task_version":"prescreen-v0.3"},{"responses":{"01":"Yes","01_ages_7":"7","01_ages_8":"8","01_ages_9":"9","01_ages_10":"10","01_ages_11":"11","01_ages_12":"12","01_ages_13":"13","01_ages_14":"14","01_ages_15":"15","02":"Yes","02_ages_5":"5","02_ages_6":"6","02_ages_7":"7","02_ages_8":"8","02_ages_9":"9","02_ages_10":"10","02_ages_11":"11","02_ages_12":"12","02_ages_13":"13","02_ages_14":"14","02_ages_15":"15","02_ages_16":"16","03":"Yes","03_ages_4":"4","03_ages_5":"5","03_ages_6":"6","03_ages_7":"7","03_ages_8":"8","03_ages_9":"9","03_ages_10":"10","03_ages_11":"11","03_ages_12":"12","03_ages_13":"13","03_ages_14":"14","03_ages_15":"15","04":"No","05":"No","06":"Yes","06_ages_4":"4","06_ages_5":"5","06_ages_6":"6","06_ages_7":"7","06_ages_8":"8","06_ages_9":"9","06_ages_10":"10","06_ages_11":"11","06_ages_12":"12","06_ages_13":"13","06_ages_14":"14","06_ages_15":"15"},"rt":154084.69999998808,"item_order":[0,1,2,3,4,5],"radio_events":[15005.300000011921,16636.19999998808,49398,71579.39999997616,139908.69999998808,143295.30000001192],"checkbox_events":[27286.100000023842,27701,28166.5,28604,29034.399999976158,29664.80000001192,30314.399999976158,30787,31184.5,31980.600000023842,33327.30000001192,40153.5,40719.80000001192,41135.19999998808,41564.80000001192,41987.60000002384,42369.5,42853.19999998808,43318.19999998808,43800.30000001192,44305.10000002384,44741.80000001192,45156.89999997616,45623.60000002384,46087.19999998808,64073.39999997616,64437,64866.10000002384,65265.69999998808,65621.60000002384,65984.69999998808,66324.19999998808,66672.5,67107.80000001192,67491.19999998808,67859.39999997616,68769.80000001192,148875.89999997616,149264.60000002384,149636.60000002384,149985,150325.80000001192,150701,151060.60000002384,151398.60000002384,151792.10000002384,152174.80000001192,152586,152913.39999997616],"key_events":[],"mouse_events":[13,15005.300000011921,16636.19999998808,27286.100000023842,27701,28166.5,28604,29034.399999976158,29664.80000001192,30314.399999976158,30787,31184.5,31980.600000023842,33327.30000001192,40153.5,40719.80000001192,41135.19999998808,41564.80000001192,41987.60000002384,42369.5,42853.19999998808,43318.19999998808,43800.30000001192,44305.10000002384,44741.80000001192,45156.89999997616,45623.60000002384,46087.19999998808,49398,64073.39999997616,64437,64866.10000002384,65265.69999998808,65621.60000002384,65984.69999998808,66324.19999998808,66672.5,67107.80000001192,67491.19999998808,67859.39999997616,68769.80000001192,71579.39999997616,139908.69999998808,143295.30000001192,148875.89999997616,149264.60000002384,149636.60000002384,149985,150325.80000001192,150701,151060.60000002384,151398.60000002384,151792.10000002384,152174.80000001192,152586,152913.39999997616,154077.80000001192],"honeypot":0,"survey":"mace","page":1,"trial_type":"survey-mace","trial_index":9,"time_elapsed":477431,"internal_node_id":"0.0-9.0","task_version":"prescreen-v0.3","browser_interactions":0},{"responses":{"01":"Yes","01_ages_5":"5","01_ages_6":"6","01_ages_7":"7","01_ages_8":"8","01_ages_9":"9","01_ages_10":"10","01_ages_11":"11","01_ages_12":"12","01_ages_13":"13","01_ages_14":"14","01_ages_15":"15","02":"No","03":"Yes","03_ages_4":"4","03_ages_5":"5","03_ages_6":"6","03_ages_7":"7","03_ages_8":"8","03_ages_9":"9","03_ages_10":"10","03_ages_11":"11","03_ages_12":"12","03_ages_13":"13","04":"Yes","04_ages_5":"5","04_ages_6":"6","04_ages_7":"7","04_ages_8":"8","04_ages_9":"9","04_ages_10":"10","05":"Yes","05_ages_5":"5","05_ages_6":"6","05_ages_7":"7","05_ages_8":"8","05_ages_9":"9","05_ages_10":"10","05_ages_11":"11","05_ages_12":"12","05_ages_13":"13","06":"No","07":"No","08":"No"},"rt":88011.5,"item_order":[0,1,2,3,4,5,6,7],"radio_events":[32680.30000001192,46474,48782.80000001192,58882.19999998808,68375.40000003576,84093.30000001192,85485.5,87231.80000001192],"checkbox_events":[37955.60000002384,38237.30000001192,38582.10000002384,38963.30000001192,39300.19999998808,39635.10000002384,39986.5,40344.80000001192,40706,41074,43367.10000002384,50382.90000003576,50767.19999998808,51184.69999998808,51561.30000001192,51926,52283,52659.30000001192,53047.80000001192,53413.60000002384,53796.40000003576,62150.80000001192,62624.80000001192,63105.30000001192,63542.60000002384,64824.60000002384,65170.90000003576,78225.69999998808,78815.40000003576,79215.90000003576,79597.10000002384,79941.10000002384,80271.19999998808,80665.69999998808,81037.30000001192,81724.5],"key_events":[],"mouse_events":[32680.30000001192,37955.60000002384,38237.30000001192,38582.10000002384,38963.30000001192,39300.19999998808,39635.10000002384,39986.5,40344.80000001192,40706,41074,43367.10000002384,46474,48782.80000001192,50382.90000003576,50767.19999998808,51184.69999998808,51561.30000001192,51926,52283,52659.30000001192,53047.80000001192,53413.60000002384,53796.40000003576,58882.19999998808,62150.80000001192,62624.80000001192,63105.30000001192,63542.60000002384,64824.60000002384,65170.90000003576,68375.40000003576,78225.69999998808,78815.40000003576,79215.90000003576,79597.10000002384,79941.10000002384,80271.19999998808,80665.69999998808,81037.30000001192,81724.5,84093.30000001192,85485.5,87231.80000001192,88009],"honeypot":0,"survey":"mace","page":2,"trial_type":"survey-mace","trial_index":10,"time_elapsed":565451,"internal_node_id":"0.0-10.0","task_version":"prescreen-v0.3","browser_interactions":0},{"responses":{"01":"Yes","01_ages_5":"5","01_ages_6":"6","01_ages_7":"7","01_ages_8":"8","01_ages_9":"9","01_ages_10":"10","01_ages_11":"11","01_ages_12":"12","01_ages_13":"13","01_ages_14":"14","01_ages_15":"15","02":"No","03":"No","04":"No"},"rt":35626.59999996424,"item_order":[0,1,2,3],"radio_events":[16806,31808.30000001192,33178.09999996424,34478.89999997616],"checkbox_events":[19513.399999976158,23391.19999998808,24727.599999964237,25066.19999998808,25373.69999998808,25744.599999964237,26095.399999976158,26483.5,26812.69999998808,27179.19999998808,27491.69999998808],"key_events":[],"mouse_events":[16806,19513.399999976158,23391.19999998808,24727.599999964237,25066.19999998808,25373.69999998808,25744.599999964237,26095.399999976158,26483.5,26812.69999998808,27179.19999998808,27491.69999998808,31808.30000001192,33178.09999996424,34478.89999997616,35625.09999996424],"honeypot":0,"survey":"mace","page":3,"trial_type":"survey-mace","trial_index":11,"time_elapsed":601082,"internal_node_id":"0.0-11.0","task_version":"prescreen-v0.3","browser_interactions":0},{"responses":{"01":"No","02":"No"},"rt":8847.199999988079,"item_order":[0,1],"radio_events":[6713,8204.399999976158],"checkbox_events":[],"key_events":[],"mouse_events":[6713,8204.399999976158,8846.399999976158],"honeypot":0,"survey":"mace","page":4,"trial_type":"survey-mace","trial_index":12,"time_elapsed":609934,"internal_node_id":"0.0-12.0","task_version":"prescreen-v0.3","browser_interactions":0},{"responses":{"01":"No","02":"No","03":"No","04":"No","05":"No"},"rt":30065.5,"item_order":[0,1,2,3,4],"radio_events":[16841.299999952316,20070.799999952316,22752.599999964237,25756.19999998808,29305.69999998808],"checkbox_events":[],"key_events":[],"mouse_events":[16841.299999952316,20070.799999952316,22752.599999964237,25756.19999998808,29305.69999998808,30060],"honeypot":0,"survey":"mace","page":5,"trial_type":"survey-mace","trial_index":13,"time_elapsed":640005,"internal_node_id":"0.0-13.0","task_version":"prescreen-v0.3","browser_interactions":0},{"responses":{"01":"Yes","01_ages_6":"6","01_ages_7":"7","01_ages_8":"8","01_ages_9":"9","01_ages_10":"10","01_ages_11":"11","01_ages_12":"12","01_ages_13":"13","01_ages_14":"14","02":"Yes","02_ages_6":"6","02_ages_7":"7","02_ages_8":"8","02_ages_9":"9","02_ages_10":"10","02_ages_11":"11","02_ages_12":"12","02_ages_13":"13","02_ages_14":"14","02_ages_15":"15","03":"Yes","03_ages_12":"12","03_ages_13":"13","03_ages_14":"14","03_ages_15":"15","03_ages_16":"16","04":"Yes","04_ages_5":"5","04_ages_6":"6","04_ages_7":"7","04_ages_8":"8","04_ages_9":"9","04_ages_10":"10","04_ages_11":"11","04_ages_12":"12","04_ages_13":"13","04_ages_14":"14","04_ages_15":"15","04_ages_16":"16","05":"Yes","05_ages_6":"6","05_ages_7":"7","05_ages_8":"8","05_ages_9":"9","05_ages_10":"10","05_ages_11":"11","05_ages_12":"12","05_ages_13":"13"},"rt":68141,"item_order":[0,1,2,3,4],"radio_events":[11662.799999952316,14828.599999964237,24750.399999976158,33111.89999997616,41488,49878,59914.19999998808],"checkbox_events":[27818.299999952316,28169.299999952316,28489.399999976158,28891.899999976158,29280.099999964237,29718.099999964237,30096.69999998808,30854.799999952316,31180.19999998808,34270.5,34608,34919.19999998808,35293.799999952316,35632,35991.59999996424,36367.19999998808,36656,37739.19999998808,39083.89999997616,45363.19999998808,45865.39999997616,46347.09999996424,46745.19999998808,47276.59999996424,51103.69999998808,51772.299999952316,52087.19999998808,52402.59999996424,52733.19999998808,53062.09999996424,53428.19999998808,53788.09999996424,54231.39999997616,55194.89999997616,55518.39999997616,55918.799999952316,63082.09999996424,64285.89999997616,64646.19999998808,64974.69999998808,65336.299999952316,65740.89999997616,66211,66670.79999995232],"key_events":[],"mouse_events":[11662.799999952316,14828.599999964237,24750.399999976158,27818.299999952316,28169.299999952316,28489.399999976158,28891.899999976158,29280.099999964237,29718.099999964237,30096.69999998808,30854.799999952316,31180.19999998808,33111.89999997616,34270.5,34608,34919.19999998808,35293.799999952316,35632,35991.59999996424,36367.19999998808,36656,37739.19999998808,39083.89999997616,41488,45363.19999998808,45865.39999997616,46347.09999996424,46745.19999998808,47276.59999996424,49878,51103.69999998808,51772.299999952316,52087.19999998808,52402.59999996424,52733.19999998808,53062.09999996424,53428.19999998808,53788.09999996424,54231.39999997616,55194.89999997616,55518.39999997616,55918.799999952316,59914.19999998808,63082.09999996424,64285.89999997616,64646.19999998808,64974.69999998808,65336.299999952316,65740.89999997616,66211,66670.79999995232,68139.5],"honeypot":0,"survey":"mace","page":6,"trial_type":"survey-mace","trial_index":14,"time_elapsed":708154,"internal_node_id":"0.0-14.0","task_version":"prescreen-v0.3","browser_interactions":0},{"responses":{"01":"No","02":"No","03":"Yes","03_ages_8":"8","03_ages_9":"9","03_ages_10":"10","03_ages_11":"11","03_ages_12":"12","04":"Yes","04_ages_8":"8","04_ages_9":"9","04_ages_10":"10","04_ages_11":"11","04_ages_12":"12","05":"No","06":"No","07":"No"},"rt":155538.10000002384,"item_order":[0,1,2,3,4,5,6],"radio_events":[111669,114104.80000001192,118307.39999997616,120695.89999997616,127364.39999997616,133200.19999998808,153654.10000002384,154874.69999998808],"checkbox_events":[123340.19999998808,123677.80000001192,124019,124431.60000002384,124828.10000002384,129319.60000002384,129602.10000002384,129930.10000002384,130289,130615.30000001192],"key_events":[],"mouse_events":[111669,114104.80000001192,118307.39999997616,120695.89999997616,123340.19999998808,123677.80000001192,124019,124431.60000002384,124828.10000002384,127364.39999997616,129319.60000002384,129602.10000002384,129930.10000002384,130289,130615.30000001192,133200.19999998808,153654.10000002384,154874.69999998808,155535.89999997616],"honeypot":0,"survey":"mace","page":7,"trial_type":"survey-mace","trial_index":15,"time_elapsed":863698,"internal_node_id":"0.0-15.0","task_version":"prescreen-v0.3","browser_interactions":0},{"responses":{"01":"Yes","01_ages_9":"9","01_ages_10":"10","01_ages_11":"11","01_ages_12":"12","01_ages_13":"13","01_ages_14":"14","01_ages_15":"15","01_ages_16":"16","01_ages_17":"17","02":"No","03":"Yes","03_ages_5":"5","03_ages_6":"6","03_ages_7":"7","03_ages_8":"8","03_ages_9":"9","03_ages_10":"10","03_ages_11":"11","03_ages_12":"12","03_ages_13":"13","03_ages_14":"14","03_ages_15":"15","03_ages_16":"16","03_ages_17":"17","03_ages_18":"18","04":"No"},"rt":38513.80000001192,"item_order":[0,1,2,3],"radio_events":[6351.400000035763,20796.30000001192,24974.900000035763,37810.700000047684],"checkbox_events":[10720.100000023842,11527.900000035763,11868.300000011921,12194.800000011921,12574.900000035763,12896.5,13221.900000035763,13855.900000035763,14172.600000023842,27326.400000035763,27780.400000035763,28108.400000035763,28491.100000023842,28816.200000047684,29137.100000023842,29472.900000035763,29824.200000047684,30176,30518,30824.30000001192,31207.5,31553.80000001192,32252],"key_events":[],"mouse_events":[6351.400000035763,10720.100000023842,11527.900000035763,11868.300000011921,12194.800000011921,12574.900000035763,12896.5,13221.900000035763,13855.900000035763,14172.600000023842,20796.30000001192,24974.900000035763,27326.400000035763,27780.400000035763,28108.400000035763,28491.100000023842,28816.200000047684,29137.100000023842,29472.900000035763,29824.200000047684,30176,30518,30824.30000001192,31207.5,31553.80000001192,32252,37810.700000047684,38512.40000003576],"honeypot":0,"survey":"mace","page":8,"trial_type":"survey-mace","trial_index":16,"time_elapsed":902217,"internal_node_id":"0.0-16.0","task_version":"prescreen-v0.3","browser_interactions":0},{"responses":{"01":"Yes","01_ages_4":"4","01_ages_5":"5","01_ages_6":"6","01_ages_7":"7","01_ages_8":"8","01_ages_9":"9","01_ages_10":"10","01_ages_11":"11","01_ages_12":"12","01_ages_13":"13","01_ages_14":"14","01_ages_15":"15","01_ages_16":"16","01_ages_17":"17","01_ages_18":"18","02":"Yes","02_ages_4":"4","02_ages_5":"5","02_ages_6":"6","02_ages_7":"7","02_ages_8":"8","02_ages_9":"9","02_ages_10":"10","02_ages_11":"11","02_ages_12":"12","02_ages_13":"13","02_ages_14":"14","02_ages_15":"15","02_ages_16":"16","02_ages_17":"17","02_ages_18":"18","03":"Yes","03_ages_4":"4","03_ages_5":"5","03_ages_6":"6","03_ages_7":"7","03_ages_8":"8","03_ages_9":"9","03_ages_10":"10","03_ages_11":"11","03_ages_12":"12","03_ages_13":"13","03_ages_14":"14","03_ages_15":"15","03_ages_16":"16","03_ages_17":"17","03_ages_18":"18","04":"Yes","04_ages_1":"1","04_ages_2":"2","04_ages_3":"3","04_ages_4":"4","04_ages_5":"5","04_ages_6":"6","04_ages_7":"7","04_ages_8":"8","04_ages_9":"9","04_ages_10":"10","04_ages_11":"11","04_ages_12":"12","04_ages_13":"13","04_ages_14":"14","04_ages_15":"15","04_ages_16":"16","04_ages_17":"17","04_ages_18":"18"},"rt":53532.10000002384,"item_order":[0,1,2,3],"radio_events":[8548.199999988079,22191.30000001192,33153.10000002384,43778.40000003576],"checkbox_events":[12483.5,13077.300000011921,13457.600000023842,13799.100000023842,14103.5,14426.100000023842,14755.300000011921,15065.5,15368,15707.199999988079,16050.100000023842,16356,16702.400000035763,17020.5,17315.400000035763,23133.80000001192,23444.69999998808,23752.19999998808,24054.100000023842,24378.80000001192,24698.80000001192,25013.19999998808,25327.100000023842,25684.400000035763,26037.400000035763,26353.80000001192,26713.5,27049.600000023842,27409.100000023842,27739.80000001192,34929.30000001192,35437.5,35750.90000003576,36049.90000003576,36360.19999998808,36687.69999998808,37022.19999998808,37374.19999998808,37713,38058.80000001192,38389.69999998808,38733.60000002384,39076,39432.90000003576,39769.30000001192,46825.40000003576,47149.30000001192,47457.69999998808,47766.19999998808,48082,48434.5,48767,49098.30000001192,49461.30000001192,49797.10000002384,50167.5,50518.5,50857,51206.80000001192,51568.90000003576,51918,52304.19999998808,52601.90000003576],"key_events":[],"mouse_events":[8548.199999988079,12483.5,13077.300000011921,13457.600000023842,13799.100000023842,14103.5,14426.100000023842,14755.300000011921,15065.5,15368,15707.199999988079,16050.100000023842,16356,16702.400000035763,17020.5,17315.400000035763,22191.30000001192,23133.80000001192,23444.69999998808,23752.19999998808,24054.100000023842,24378.80000001192,24698.80000001192,25013.19999998808,25327.100000023842,25684.400000035763,26037.400000035763,26353.80000001192,26713.5,27049.600000023842,27409.100000023842,27739.80000001192,33153.10000002384,34929.30000001192,35437.5,35750.90000003576,36049.90000003576,36360.19999998808,36687.69999998808,37022.19999998808,37374.19999998808,37713,38058.80000001192,38389.69999998808,38733.60000002384,39076,39432.90000003576,39769.30000001192,43778.40000003576,46825.40000003576,47149.30000001192,47457.69999998808,47766.19999998808,48082,48434.5,48767,49098.30000001192,49461.30000001192,49797.10000002384,50167.5,50518.5,50857,51206.80000001192,51568.90000003576,51918,52304.19999998808,52601.90000003576,53527.19999998808],"honeypot":0,"survey":"mace","page":9,"trial_type":"survey-mace","trial_index":17,"time_elapsed":955755,"internal_node_id":"0.0-17.0","task_version":"prescreen-v0.3","browser_interactions":0},{"responses":{"01":"No","02":"No","03":"No","04":"Yes","04_ages_9":"9","04_ages_10":"10","04_ages_11":"11","04_ages_12":"12","04_ages_13":"13","04_ages_14":"14","04_ages_15":"15","05":"Yes","05_ages_5":"5","05_ages_6":"6","05_ages_7":"7","05_ages_8":"8","05_ages_9":"9","05_ages_10":"10","05_ages_11":"11","05_ages_12":"12","05_ages_13":"13","05_ages_14":"14","05_ages_15":"15","05_ages_16":"16","05_ages_17":"17","05_ages_18":"18","06":"Yes","06_ages_17":"17","07":"Yes","07_ages_5":"5","07_ages_6":"6","07_ages_7":"7","07_ages_8":"8","07_ages_9":"9","07_ages_10":"10","07_ages_11":"11","07_ages_12":"12","07_ages_13":"13","07_ages_14":"14","07_ages_15":"15","07_ages_16":"16","07_ages_17":"17","07_ages_18":"18","08":"No"},"rt":49946.299999952316,"item_order":[0,1,2,3,4,5,6,7],"radio_events":[5224.599999964237,6502.799999952316,8095.299999952316,10417.399999976158,19920.599999964237,28185.399999976158,36404.299999952316,46731.69999998808,48625.299999952316],"checkbox_events":[14064.199999988079,14382.699999988079,14692.599999964237,15021,15339.099999964237,15673.699999988079,16003.399999976158,21960.599999964237,22249.19999998808,22554.5,22837.099999964237,23131.299999952316,23421.599999964237,23740.399999976158,24034.899999976158,24363.299999952316,24687.69999998808,25020.399999976158,25351.299999952316,25700.099999964237,26011.599999964237,29754.399999976158,37852.09999996424,38196.89999997616,38503.5,38835.19999998808,39144.19999998808,39449.299999952316,39824.5,40164,40506.799999952316,40814.89999997616,41146.799999952316,41495.5,41845.5,42142.299999952316],"key_events":[],"mouse_events":[5224.599999964237,6502.799999952316,8095.299999952316,10417.399999976158,14064.199999988079,14382.699999988079,14692.599999964237,15021,15339.099999964237,15673.699999988079,16003.399999976158,19920.599999964237,21960.599999964237,22249.19999998808,22554.5,22837.099999964237,23131.299999952316,23421.599999964237,23740.399999976158,24034.899999976158,24363.299999952316,24687.69999998808,25020.399999976158,25351.299999952316,25700.099999964237,26011.599999964237,28185.399999976158,29754.399999976158,36404.299999952316,37852.09999996424,38196.89999997616,38503.5,38835.19999998808,39144.19999998808,39449.299999952316,39824.5,40164,40506.799999952316,40814.89999997616,41146.799999952316,41495.5,41845.5,42142.299999952316,46731.69999998808,48625.299999952316,49943.59999996424],"honeypot":0,"survey":"mace","page":10,"trial_type":"survey-mace","trial_index":18,"time_elapsed":1005711,"internal_node_id":"0.0-18.0","task_version":"prescreen-v0.3","browser_interactions":0,"instructed":0},{"rt":10722.300000011921,"trial_type":"mental-health-alert","trial_index":19,"time_elapsed":1016439,"internal_node_id":"0.0-19.0","task_version":"prescreen-v0.3","interactions":"[]"}]