[{"view_history":[{"page_index":0,"viewing_time":3098.100000023842},{"page_index":1,"viewing_time":3047.899999976158},{"page_index":2,"viewing_time":3144.399999976158},{"page_index":3,"viewing_time":1948.4000000953674}],"rt":11239.899999976158,"trial_type":"instructions","trial_index":0,"time_elapsed":11262,"internal_node_id":"0.0-0.0","task_version":"prescreen-v0.3"},{"rt":35890.299999952316,"responses":{"age":"67","gender-categorical":"Male","gender-free-response":"","ethnicity":"Hispanic or Latino","race":["White"],"education":"Bachelor degree"},"trial_type":"survey-demo","trial_index":1,"time_elapsed":47160,"internal_node_id":"0.0-1.0","task_version":"prescreen-v0.3"},{"responses":{"Q14":"0","Q11":"3","Q04":"3","Q15":"2","Q02":"2","Q03":"1","Q20":"1","Q18":"2","Q16":"0","Q09":"2","Q19":"1","Q08":"3","Q01":"3","Q06":"1","Q07":"3","Q12":"2","Q05":"1","Q21":"3","Q17":"1","Q13":"1","Q10":"1"},"rt":169782.10000002384,"item_order":[13,10,3,14,1,2,19,17,15,8,18,7,0,5,6,11,4,20,16,12,9],"radio_events":[16929.899999976158,20830,25034.5,29475.399999976158,33163.60000002384,46921.10000002384,49765.5,57698.299999952316,73736.69999992847,77888.79999995232,84181.69999992847,88106,90446.29999995232,95471.19999992847,102291.89999997616,121042.19999992847,129107.10000002384,133719.69999992847,139484.39999997616,144093,167071.79999995232],"key_events":[],"mouse_events":[16929.899999976158,20830,25034.5,29475.399999976158,33163.60000002384,44860.799999952316,46921.10000002384,49765.5,57698.299999952316,69691.79999995232,73736.69999992847,77888.79999995232,84181.69999992847,88106,90446.29999995232,94659.29999995232,95471.19999992847,102291.89999997616,113721.19999992847,121042.19999992847,125398.79999995232,129107.10000002384,133719.69999992847,139484.39999997616,144093,145645.29999995232,167071.79999995232,168355.79999995232,169780.19999992847],"straightlining":0.38095238095238093,"zigzagging":0.35,"honeypot":0,"survey":"sns","trial_type":"survey-template","trial_index":2,"time_elapsed":216954,"internal_node_id":"0.0-2.0","task_version":"prescreen-v0.3","browser_interactions":0,"infrequency":0},{"responses":{"Q07":"3","Q02":"2","Q12":"1","Q06":"2","Q05":"2","Q03":"3","Q04":"2","Q10":"1","Q01":"2","Q08":"1","Q11":"1","Q09":"0","Q13":"0"},"rt":72481.30000007153,"item_order":[6,1,11,5,4,2,3,9,0,7,10,8,12],"radio_events":[5571.600000023842,13796.400000095367,16205,19197.400000095367,24237.900000095367,27070.200000047684,31646.700000047684,33891.10000002384,40143.800000071526,43176.10000002384,52605.200000047684,56781.800000071526,66319],"key_events":[],"mouse_events":[5571.600000023842,9216.200000047684,13796.400000095367,16205,19197.400000095367,24237.900000095367,27070.200000047684,31646.700000047684,33891.10000002384,40143.800000071526,43176.10000002384,52605.200000047684,56781.800000071526,58038.10000002384,66319,72479.90000009537],"straightlining":0.38461538461538464,"zigzagging":0.75,"honeypot":0,"survey":"bisbas","trial_type":"survey-template","trial_index":3,"time_elapsed":289442,"internal_node_id":"0.0-3.0","task_version":"prescreen-v0.3","browser_interactions":0,"infrequency":0},{"responses":{"Q01":"2","Q02":"2","Q03":"2"},"rt":22145.399999976158,"radio_events":[8523.100000023842,16292.100000023842,21104.5],"key_events":[],"mouse_events":[8523.100000023842,16292.100000023842,19556.399999976158,21104.5,22144.700000047684],"survey":"map","page":1,"trial_type":"survey-map","trial_index":4,"time_elapsed":311596,"internal_node_id":"0.0-4.0","task_version":"prescreen-v0.3","browser_interactions":0},{"responses":{"Q04":"2","Q05":"2","Q06":"2"},"rt":16284.5,"radio_events":[7150.799999952316,11415.399999976158,14587.799999952316],"key_events":[],"mouse_events":[7150.799999952316,11415.399999976158,14587.799999952316,16284],"survey":"map","page":2,"trial_type":"survey-map","trial_index":5,"time_elapsed":327886,"internal_node_id":"0.0-5.0","task_version":"prescreen-v0.3","browser_interactions":0},{"responses":{"Q07":"0","Q08":"2","Q09":"0"},"rt":16349,"radio_events":[6899.5,11788,15512.5],"key_events":[],"mouse_events":[6899.5,11788,15512.5,16348.399999976158],"survey":"map","page":3,"trial_type":"survey-map","trial_index":6,"time_elapsed":344240,"internal_node_id":"0.0-6.0","task_version":"prescreen-v0.3","browser_interactions":0},{"responses":{"Q10":"1","Q11":"0","Q12":"2","Q13":"2","Q16":"0","Q14":"2","Q15":"1"},"rt":50385,"radio_events":[4186.099999904633,9575,28349,34730,41354.5,45479,48631.39999997616],"key_events":[],"mouse_events":[4186.099999904633,9575,28349,32821.5,34730,41354.5,45479,48631.39999997616,50383.799999952316],"survey":"map","page":4,"trial_type":"survey-map","trial_index":7,"time_elapsed":394632,"internal_node_id":"0.0-7.0","task_version":"prescreen-v0.3","browser_interactions":0,"infrequency":0},{"view_history":[{"page_index":0,"viewing_time":4017.899999976158},{"page_index":1,"viewing_time":18042}],"rt":22060.799999952316,"trial_type":"instructions","trial_index":8,"time_elapsed":416697,"internal_node_id":"0.0-8.0","task_version":"prescreen-v0.3"},{"responses":{"01":"No","02":"No","03":"No","04":"No","05":"No","06":"No"},"rt":24328,"item_order":[0,1,2,3,4,5],"radio_events":[11027.699999928474,13767.299999952316,16615.600000023842,20008,20928.100000023842,23568.699999928474],"checkbox_events":[],"key_events":[],"mouse_events":[0.19999992847442627,11027.699999928474,13767.299999952316,16615.600000023842,18415.799999952316,20008,20928.100000023842,23568.699999928474,24324.899999976158],"honeypot":0,"survey":"mace","page":1,"trial_type":"survey-mace","trial_index":9,"time_elapsed":441034,"internal_node_id":"0.0-9.0","task_version":"prescreen-v0.3","browser_interactions":0},{"responses":{"01":"No","02":"No","03":"Yes","03_ages_3":"3","03_ages_4":"4","04":"Yes","04_ages_3":"3","04_ages_4":"4","05":"Yes","05_ages_3":"3","05_ages_4":"4","06":"No","07":"No","08":"No"},"rt":46860.199999928474,"item_order":[0,1,2,3,4,5,6,7],"radio_events":[3957.7999999523163,6278.299999952316,12251,26276.699999928474,31937.299999952316,38098,41658.5,44098.799999952316],"checkbox_events":[17080.699999928474,19444.399999976158,28500.899999976158,29405,33653.5,34721.699999928474],"key_events":[],"mouse_events":[3957.7999999523163,6278.299999952316,12251,17080.699999928474,19444.399999976158,26276.699999928474,28500.899999976158,29405,31937.299999952316,33653.5,34721.699999928474,38098,41658.5,44098.799999952316,46856.799999952316],"honeypot":0,"survey":"mace","page":2,"trial_type":"survey-mace","trial_index":10,"time_elapsed":487902,"internal_node_id":"0.0-10.0","task_version":"prescreen-v0.3","browser_interactions":0},{"responses":{"01":"No","02":"No","03":"No","04":"No"},"rt":14815.400000095367,"item_order":[0,1,2,3],"radio_events":[8512.600000023842,11141.100000023842,12953.100000023842,14221.100000023842],"checkbox_events":[],"key_events":[],"mouse_events":[8512.600000023842,11141.100000023842,12953.100000023842,14221.100000023842,14813.600000023842],"honeypot":0,"survey":"mace","page":3,"trial_type":"survey-mace","trial_index":11,"time_elapsed":502723,"internal_node_id":"0.0-11.0","task_version":"prescreen-v0.3","browser_interactions":0},{"responses":{"01":"No","02":"No"},"rt":10422.199999928474,"item_order":[0,1],"radio_events":[7313,9793.199999928474],"checkbox_events":[],"key_events":[],"mouse_events":[7313,9793.199999928474,10421.199999928474],"honeypot":0,"survey":"mace","page":4,"trial_type":"survey-mace","trial_index":12,"time_elapsed":513151,"internal_node_id":"0.0-12.0","task_version":"prescreen-v0.3","browser_interactions":0},{"responses":{"01":"No","02":"No","03":"No","04":"No","05":"No"},"rt":29618.899999976158,"item_order":[0,1,2,3,4],"radio_events":[18291.100000023842,20031.5,22655.800000071526,25152.100000023842,28508.5],"checkbox_events":[],"key_events":[],"mouse_events":[18291.100000023842,20031.5,22655.800000071526,25152.100000023842,28508.5,29616.700000047684],"honeypot":0,"survey":"mace","page":5,"trial_type":"survey-mace","trial_index":13,"time_elapsed":542777,"internal_node_id":"0.0-13.0","task_version":"prescreen-v0.3","browser_interactions":0},{"responses":{"01":"No","02":"Yes","02_ages_10":"10","02_ages_11":"11","02_ages_12":"12","03":"No","04":"Yes","04_ages_10":"10","04_ages_11":"11","04_ages_12":"12","05":"Yes","05_ages_10":"10","05_ages_12":"12","05_ages_15":"15","05_ages_16":"16"},"rt":74454.5,"item_order":[0,1,2,3,4],"radio_events":[17253.100000023842,19017.399999976158,31103,35513.5,63422.89999997616],"checkbox_events":[24282,25350.100000023842,25982.100000023842,41288,45080.39999997616,52029.5,65323,68039.20000004768,70787.60000002384,71587.70000004768],"key_events":[],"mouse_events":[17253.100000023842,19017.399999976158,24282,25350.100000023842,25982.100000023842,31103,35513.5,40419.799999952316,41288,42408.200000047684,43808.299999952316,45080.39999997616,50557.10000002384,51429.200000047684,52029.5,60282.299999952316,63422.89999997616,65323,68039.20000004768,70787.60000002384,71587.70000004768,74452.39999997616],"honeypot":0,"survey":"mace","page":6,"trial_type":"survey-mace","trial_index":14,"time_elapsed":617241,"internal_node_id":"0.0-14.0","task_version":"prescreen-v0.3","browser_interactions":0},{"responses":{"01":"No","02":"No","03":"No","04":"No","05":"No","06":"No","07":"No"},"rt":49075.60000002384,"item_order":[0,1,2,3,4,5,6],"radio_events":[4743.100000023842,6895.5,23161.600000023842,33802.700000047684,37135.200000047684,39839.5,47420.299999952316],"checkbox_events":[],"key_events":[],"mouse_events":[4743.100000023842,6895.5,21893.100000023842,23161.600000023842,33802.700000047684,37135.200000047684,39839.5,41784,47420.299999952316,49072.799999952316],"honeypot":0,"survey":"mace","page":7,"trial_type":"survey-mace","trial_index":15,"time_elapsed":666323,"internal_node_id":"0.0-15.0","task_version":"prescreen-v0.3","browser_interactions":0},{"responses":{"01":"No","02":"No","03":"No","04":"No"},"rt":40294,"item_order":[0,1,2,3],"radio_events":[11780.400000095367,20822.400000095367,23609.800000071526,35967.40000009537,39144.10000002384],"checkbox_events":[],"key_events":[],"mouse_events":[11780.400000095367,20822.400000095367,23609.800000071526,35967.40000009537,39144.10000002384,40292],"honeypot":0,"survey":"mace","page":8,"trial_type":"survey-mace","trial_index":16,"time_elapsed":706624,"internal_node_id":"0.0-16.0","task_version":"prescreen-v0.3","browser_interactions":0},{"responses":{"01":"Yes","01_ages_3":"3","01_ages_4":"4","01_ages_5":"5","01_ages_6":"6","01_ages_7":"7","01_ages_8":"8","01_ages_9":"9","01_ages_10":"10","01_ages_11":"11","01_ages_12":"12","01_ages_13":"13","01_ages_14":"14","01_ages_15":"15","01_ages_16":"16","01_ages_17":"17","01_ages_18":"18","02":"Yes","02_ages_3":"3","02_ages_4":"4","02_ages_5":"5","02_ages_6":"6","02_ages_7":"7","02_ages_8":"8","02_ages_9":"9","02_ages_10":"10","02_ages_11":"11","02_ages_12":"12","02_ages_13":"13","02_ages_14":"14","02_ages_15":"15","02_ages_16":"16","02_ages_17":"17","02_ages_18":"18","03":"Yes","03_ages_3":"3","03_ages_4":"4","03_ages_5":"5","03_ages_6":"6","03_ages_7":"7","03_ages_8":"8","03_ages_9":"9","03_ages_10":"10","03_ages_11":"11","03_ages_12":"12","03_ages_13":"13","03_ages_14":"14","03_ages_15":"15","03_ages_16":"16","03_ages_17":"17","03_ages_18":"18","04":"Yes","04_ages_3":"3","04_ages_5":"5","04_ages_6":"6","04_ages_9":"9","04_ages_10":"10","04_ages_12":"12","04_ages_13":"13"},"rt":126349.20000004768,"item_order":[0,1,2,3],"radio_events":[5012.700000047684,47501.89999997616,71208.60000002384,111441.70000004768],"checkbox_events":[10229.200000047684,11217.299999952316,12137.5,12957.799999952316,13797.600000023842,15797.799999952316,16478.100000023842,17050,17574.200000047684,19850.5,20750.600000023842,21394.399999976158,22186.700000047684,23934.899999976158,30195.700000047684,43261.299999952316,50002.10000002384,50658.200000047684,51226.10000002384,52626.5,53094.5,53910.700000047684,54307.10000002384,55442.89999997616,56410.89999997616,57062.799999952316,57891.10000002384,58763.200000047684,59235.10000002384,60171.299999952316,60787.299999952316,61603.5,89451,90875,91615.10000002384,92111.20000004768,93351.39999997616,93991.39999997616,95539.70000004768,96563.79999995232,98412.29999995232,98916.10000002384,100072.20000004768,102652.5,104020.79999995232,104560.79999995232,105292.89999997616,106241,113701.89999997616,114490.29999995232,115633.89999997616,116894.29999995232,117834.29999995232,119662.5,121526.79999995232],"key_events":[],"mouse_events":[3300.2999999523163,5012.700000047684,10229.200000047684,11217.299999952316,12137.5,12957.799999952316,13797.600000023842,14477.700000047684,15301.700000047684,15797.799999952316,16478.100000023842,17050,17574.200000047684,19850.5,20750.600000023842,21394.399999976158,22186.700000047684,23934.899999976158,25231.700000047684,30195.700000047684,39544.799999952316,43261.299999952316,47501.89999997616,50002.10000002384,50658.200000047684,51226.10000002384,51790.39999997616,52626.5,53094.5,53910.700000047684,54307.10000002384,54706.5,55442.89999997616,56410.89999997616,57062.799999952316,57891.10000002384,58763.200000047684,59235.10000002384,60171.299999952316,60787.299999952316,61603.5,71208.60000002384,82549.89999997616,89451,90875,91615.10000002384,92111.20000004768,93351.39999997616,93991.39999997616,95539.70000004768,96563.79999995232,98412.29999995232,98916.10000002384,99440.20000004768,100072.20000004768,101396.5,102652.5,104020.79999995232,104560.79999995232,105292.89999997616,106241,111441.70000004768,113701.89999997616,114490.29999995232,115633.89999997616,116894.29999995232,117834.29999995232,119662.5,121526.79999995232,126347.5],"honeypot":0,"survey":"mace","page":9,"trial_type":"survey-mace","trial_index":17,"time_elapsed":832984,"internal_node_id":"0.0-17.0","task_version":"prescreen-v0.3","browser_interactions":0},{"responses":{"01":"No","02":"No","03":"No","04":"Yes","04_ages_6":"6","04_ages_7":"7","04_ages_8":"8","04_ages_9":"9","04_ages_10":"10","04_ages_11":"11","04_ages_12":"12","04_ages_13":"13","04_ages_14":"14","05":"Yes","05_ages_3":"3","05_ages_4":"4","05_ages_5":"5","05_ages_6":"6","05_ages_7":"7","05_ages_8":"8","05_ages_9":"9","05_ages_10":"10","05_ages_11":"11","05_ages_12":"12","05_ages_13":"13","05_ages_14":"14","05_ages_15":"15","05_ages_16":"16","05_ages_17":"17","05_ages_18":"18","06":"Yes","06_ages_17":"17","07":"Yes","07_ages_6":"6","07_ages_7":"7","07_ages_8":"8","07_ages_9":"9","07_ages_10":"10","07_ages_11":"11","07_ages_12":"12","07_ages_13":"13","07_ages_14":"14","07_ages_15":"15","07_ages_16":"16","07_ages_17":"17","07_ages_18":"18","08":"No"},"rt":103003.60000002384,"item_order":[0,1,2,3,4,5,6,7],"radio_events":[6512.700000047684,7884.400000095367,10033.100000023842,12749.200000047684,38648.40000009537,60686.90000009537,70568.10000002384,100715.90000009537],"checkbox_events":[28695.200000047684,29411.300000071526,30351.300000071526,31043.5,31543.5,32119.700000047684,32591.600000023842,33095.800000071526,34011.90000009537,41988.800000071526,42732.90000009537,43540.90000009537,44061.10000002384,44897.200000047684,45345.200000047684,46149.300000071526,47361.700000047684,47953.5,48641.5,49993.700000047684,50813.90000009537,51849.90000009537,52574,53382.10000002384,54466.300000071526,62867.300000071526,74336.5,75581.10000002384,76068.80000007153,77613.5,78417.30000007153,79133.40000009537,80045.70000004768,82233.60000002384,82769.70000004768,84666.60000002384,85257.90000009537,88386.20000004768,93727],"key_events":[],"mouse_events":[6008.700000047684,6512.700000047684,7884.400000095367,10033.100000023842,12749.200000047684,28695.200000047684,29411.300000071526,30351.300000071526,31043.5,31543.5,32119.700000047684,32591.600000023842,33095.800000071526,34011.90000009537,38648.40000009537,40688.700000047684,41988.800000071526,42732.90000009537,43540.90000009537,44061.10000002384,44897.200000047684,45345.200000047684,46149.300000071526,47361.700000047684,47953.5,48641.5,49993.700000047684,50813.90000009537,51849.90000009537,52574,53382.10000002384,54466.300000071526,60686.90000009537,62867.300000071526,70568.10000002384,74336.5,75581.10000002384,76068.80000007153,76781.10000002384,77613.5,78417.30000007153,79133.40000009537,80045.70000004768,80789.70000004768,82233.60000002384,82769.70000004768,83393.90000009537,83961.80000007153,84666.60000002384,85257.90000009537,88386.20000004768,93246.70000004768,93727,100715.90000009537,103000.40000009537],"honeypot":0,"survey":"mace","page":10,"trial_type":"survey-mace","trial_index":18,"time_elapsed":935997,"internal_node_id":"0.0-18.0","task_version":"prescreen-v0.3","browser_interactions":0,"instructed":0},{"rt":17204.800000071526,"trial_type":"mental-health-alert","trial_index":19,"time_elapsed":953206,"internal_node_id":"0.0-19.0","task_version":"prescreen-v0.3","interactions":"[]"}]