[{"view_history":[{"page_index":0,"viewing_time":2648.5999999940395},{"page_index":1,"viewing_time":7956.5999999940395},{"page_index":2,"viewing_time":7688.4000000059605},{"page_index":3,"viewing_time":1584.9000000059605}],"rt":19879.29999998212,"trial_type":"instructions","trial_index":0,"time_elapsed":19897,"internal_node_id":"0.0-0.0","task_version":"prescreen-v0.3"},{"rt":28856,"responses":{"age":"22","gender-categorical":"Female","gender-free-response":"","ethnicity":"Not Hispanic or Latino","race":["White"],"education":"Some college"},"trial_type":"survey-demo","trial_index":1,"time_elapsed":48761,"internal_node_id":"0.0-1.0","task_version":"prescreen-v0.3"},{"responses":{"Q17":"1","Q08":"2","Q05":"0","Q15":"2","Q19":"1","Q07":"1","Q03":"1","Q18":"1","Q04":"2","Q16":"2","Q01":"2","Q06":"1","Q12":"2","Q11":"2","Q21":"3","Q14":"2","Q02":"1","Q13":"2","Q10":"1","Q09":"2","Q20":"1"},"rt":182234,"item_order":[16,7,4,14,18,6,2,17,3,15,0,5,11,10,20,13,1,12,9,8,19],"radio_events":[7634.9000000059605,11979.09999999404,20461.59999999404,37358.90000000596,53207.20000001788,66519.40000000596,72509.90000000596,85615.40000000596,90477.09999999404,96362.59999999404,99835.70000001788,106081.09999999404,111805.30000001192,124380.09999999404,142307.90000000596,151649.30000001192,159649.90000000596,166181.90000000596,172798.59999999404,175872.5,180338.59999999404],"key_events":[],"mouse_events":[7634.9000000059605,11979.09999999404,20461.59999999404,37358.90000000596,53207.20000001788,66519.40000000596,72509.90000000596,85615.40000000596,90477.09999999404,96362.59999999404,99835.70000001788,106081.09999999404,111805.30000001192,124380.09999999404,142307.90000000596,151649.30000001192,159649.90000000596,166181.90000000596,170801.30000001192,171516,172798.59999999404,175872.5,180338.59999999404,182231.20000001788],"straightlining":0.47619047619047616,"zigzagging":0.6,"honeypot":0,"survey":"sns","trial_type":"survey-template","trial_index":2,"time_elapsed":231008,"internal_node_id":"0.0-2.0","task_version":"prescreen-v0.3","browser_interactions":0,"infrequency":0},{"responses":{"Q10":"1","Q09":"1","Q12":"1","Q05":"2","Q06":"2","Q11":"1","Q04":"2","Q08":"2","Q02":"2","Q03":"2","Q01":"2","Q07":"2","Q13":"0"},"rt":91893.60000002384,"item_order":[9,8,11,4,5,10,3,7,1,2,0,6,12],"radio_events":[8654.300000011921,11809.700000017881,20923.600000023842,24598.5,31106,36826.40000000596,43306.30000001192,64834.70000001788,69676.10000002384,78519.20000001788,81055.80000001192,84509.60000002384,88870.70000001788],"key_events":[],"mouse_events":[8654.300000011921,11809.700000017881,20923.600000023842,24598.5,31106,36826.40000000596,43306.30000001192,64834.70000001788,68945.70000001788,69676.10000002384,78519.20000001788,81055.80000001192,84509.60000002384,88870.70000001788,91891.70000001788],"straightlining":0.6153846153846154,"zigzagging":0.25,"honeypot":0,"survey":"bisbas","trial_type":"survey-template","trial_index":3,"time_elapsed":322909,"internal_node_id":"0.0-3.0","task_version":"prescreen-v0.3","browser_interactions":0,"infrequency":0},{"responses":{"Q01":"3","Q02":"2","Q03":"3"},"rt":33123,"radio_events":[14648.399999976158,23464.59999999404,31939.899999976158],"key_events":[],"mouse_events":[14648.399999976158,23464.59999999404,31939.899999976158,33121.79999998212],"survey":"map","page":1,"trial_type":"survey-map","trial_index":4,"time_elapsed":356037,"internal_node_id":"0.0-4.0","task_version":"prescreen-v0.3","browser_interactions":0},{"responses":{"Q04":"3","Q05":"3","Q06":"3"},"rt":38804.19999998808,"radio_events":[12210.699999988079,20908.29999998212,37633.39999997616],"key_events":[],"mouse_events":[12210.699999988079,20908.29999998212,37633.39999997616,38803.09999999404],"survey":"map","page":2,"trial_type":"survey-map","trial_index":5,"time_elapsed":394845,"internal_node_id":"0.0-5.0","task_version":"prescreen-v0.3","browser_interactions":0},{"responses":{"Q07":"2","Q08":"0","Q09":"3"},"rt":23953.90000000596,"radio_events":[11116.700000017881,14828.700000017881,18187.30000001192,21665.30000001192,23125.80000001192],"key_events":[],"mouse_events":[11116.700000017881,14828.700000017881,18187.30000001192,21665.30000001192,23125.80000001192,23952.80000001192],"survey":"map","page":3,"trial_type":"survey-map","trial_index":6,"time_elapsed":418802,"internal_node_id":"0.0-6.0","task_version":"prescreen-v0.3","browser_interactions":0},{"responses":{"Q10":"1","Q11":"0","Q12":"2","Q13":"2","Q16":"0","Q14":"1","Q15":"1"},"rt":54332.90000000596,"radio_events":[7020.0999999940395,10823.699999988079,16216.800000011921,28976.19999998808,35922.30000001192,48381,52802.5],"key_events":[],"mouse_events":[7020.0999999940395,10823.699999988079,16216.800000011921,28976.19999998808,35922.30000001192,47255.30000001192,48381,52802.5,54331.30000001192],"survey":"map","page":4,"trial_type":"survey-map","trial_index":7,"time_elapsed":473139,"internal_node_id":"0.0-7.0","task_version":"prescreen-v0.3","browser_interactions":0,"infrequency":0},{"view_history":[{"page_index":0,"viewing_time":5788.4000000059605},{"page_index":1,"viewing_time":7778.299999982119}],"rt":13567.90000000596,"trial_type":"instructions","trial_index":8,"time_elapsed":486709,"internal_node_id":"0.0-8.0","task_version":"prescreen-v0.3"},{"responses":{"01":"Yes","01_ages_16":"16","01_ages_17":"17","01_ages_18":"18","02":"Yes","02_ages_16":"16","02_ages_17":"17","02_ages_18":"18","03":"No","04":"No","05":"No","06":"No"},"rt":66285.59999999404,"item_order":[0,1,2,3,4,5],"radio_events":[18738.59999999404,37660.89999997616,52761.79999998212,58267.89999997616,60317.19999998808,65076],"checkbox_events":[25946,26655.79999998212,27551,28241.09999999404,29120.5,43522.79999998212,46144.59999999404,46843],"key_events":[],"mouse_events":[0.19999998807907104,4274.199999988079,18738.59999999404,25946,26655.79999998212,27551,28241.09999999404,29120.5,37660.89999997616,43522.79999998212,46144.59999999404,46843,51346.59999999404,52761.79999998212,55625.5,58267.89999997616,60317.19999998808,65076,66281.89999997616],"honeypot":0,"survey":"mace","page":1,"trial_type":"survey-mace","trial_index":9,"time_elapsed":553005,"internal_node_id":"0.0-9.0","task_version":"prescreen-v0.3","browser_interactions":0},{"responses":{"01":"No","02":"No","03":"No","04":"No","05":"No","06":"No","07":"No","08":"No"},"rt":26673.90000000596,"item_order":[0,1,2,3,4,5,6,7],"radio_events":[3838.800000011921,6150.4000000059605,7836.5,9034.5,16962.40000000596,21025,22364.09999999404,25587.40000000596],"checkbox_events":[],"key_events":[],"mouse_events":[3838.800000011921,6150.4000000059605,7836.5,9034.5,16962.40000000596,21025,22364.09999999404,25587.40000000596,26669.19999998808],"honeypot":0,"survey":"mace","page":2,"trial_type":"survey-mace","trial_index":10,"time_elapsed":579685,"internal_node_id":"0.0-10.0","task_version":"prescreen-v0.3","browser_interactions":0},{"responses":{"01":"No","02":"No","03":"No","04":"No"},"rt":13415.40000000596,"item_order":[0,1,2,3],"radio_events":[4520.4000000059605,7304.199999988079,9115.40000000596,12750.90000000596],"checkbox_events":[],"key_events":[],"mouse_events":[4520.4000000059605,6061.799999982119,7304.199999988079,9115.40000000596,11246,12750.90000000596,13412.199999988079],"honeypot":0,"survey":"mace","page":3,"trial_type":"survey-mace","trial_index":11,"time_elapsed":593106,"internal_node_id":"0.0-11.0","task_version":"prescreen-v0.3","browser_interactions":0},{"responses":{"01":"No","02":"No"},"rt":6921.800000011921,"item_order":[0,1],"radio_events":[3954.9000000059605,6254.5],"checkbox_events":[],"key_events":[],"mouse_events":[3954.9000000059605,6254.5,6920.100000023842],"honeypot":0,"survey":"mace","page":4,"trial_type":"survey-mace","trial_index":12,"time_elapsed":600030,"internal_node_id":"0.0-12.0","task_version":"prescreen-v0.3","browser_interactions":0},{"responses":{"01":"Yes","01_ages_15":"15","01_ages_16":"16","01_ages_17":"17","01_ages_18":"18","02":"No","03":"No","04":"No","05":"No"},"rt":49778.5,"item_order":[0,1,2,3,4],"radio_events":[7890.799999982119,25470.5,38028.5,42037.89999997616,48568.69999998808],"checkbox_events":[11400.899999976158,14011,14624.199999988079,17093.399999976158,18453.19999998808,30307.399999976158],"key_events":[],"mouse_events":[7890.799999982119,11400.899999976158,14011,14624.199999988079,17093.399999976158,18453.19999998808,20542.29999998212,25470.5,30307.399999976158,38028.5,42037.89999997616,48568.69999998808,49775.29999998212],"honeypot":0,"survey":"mace","page":5,"trial_type":"survey-mace","trial_index":13,"time_elapsed":649814,"internal_node_id":"0.0-13.0","task_version":"prescreen-v0.3","browser_interactions":0},{"responses":{"01":"No","02":"No","03":"No","04":"Yes","04_ages_15":"15","04_ages_16":"16","04_ages_17":"17","05":"No"},"rt":46772.70000001788,"item_order":[0,1,2,3,4],"radio_events":[19112.80000001192,23182.90000000596,25663.59999999404,28455.5,43159.20000001788],"checkbox_events":[32453.30000001192,34079,37071.70000001788],"key_events":[],"mouse_events":[19112.80000001192,23182.90000000596,25663.59999999404,28455.5,32453.30000001192,34079,37071.70000001788,43159.20000001788,46769.59999999404],"honeypot":0,"survey":"mace","page":6,"trial_type":"survey-mace","trial_index":14,"time_elapsed":696594,"internal_node_id":"0.0-14.0","task_version":"prescreen-v0.3","browser_interactions":0},{"responses":{"01":"No","02":"No","02_ages_17":"17","02_ages_18":"18","03":"No","04":"No","05":"No","06":"No","07":"No"},"rt":44528.10000002384,"item_order":[0,1,2,3,4,5,6],"radio_events":[6540.300000011921,12066.600000023842,18855.5,22005.80000001192,23893.70000001788,27931.600000023842,29976.100000023842,43563.20000001788],"checkbox_events":[13360.90000000596,14418.200000017881],"key_events":[],"mouse_events":[5221.100000023842,6540.300000011921,12066.600000023842,13360.90000000596,14418.200000017881,18855.5,22005.80000001192,23893.70000001788,27931.600000023842,29976.100000023842,43563.20000001788,44523.10000002384],"honeypot":0,"survey":"mace","page":7,"trial_type":"survey-mace","trial_index":15,"time_elapsed":741128,"internal_node_id":"0.0-15.0","task_version":"prescreen-v0.3","browser_interactions":0},{"responses":{"01":"No","02":"Yes","02_ages_16":"16","02_ages_17":"17","02_ages_18":"18","03":"Yes","03_ages_13":"13","03_ages_14":"14","03_ages_15":"15","03_ages_16":"16","03_ages_17":"17","03_ages_18":"18","04":"No"},"rt":60112.40000000596,"item_order":[0,1,2,3],"radio_events":[16011.40000000596,19731.19999998808,35562.59999999404,58896.19999998808],"checkbox_events":[21546.09999999404,23784.90000000596,24317.09999999404,43972.90000000596,44646.5,45316.09999999404,47631,48373.40000000596,49587.40000000596],"key_events":[],"mouse_events":[16011.40000000596,19731.19999998808,21546.09999999404,22107,22727.40000000596,23784.90000000596,24317.09999999404,35562.59999999404,43972.90000000596,44646.5,45316.09999999404,46542,47631,48373.40000000596,48998.19999998808,49587.40000000596,58896.19999998808,60110.09999999404],"honeypot":0,"survey":"mace","page":8,"trial_type":"survey-mace","trial_index":16,"time_elapsed":801246,"internal_node_id":"0.0-16.0","task_version":"prescreen-v0.3","browser_interactions":0},{"responses":{"01":"Yes","01_ages_1":"1","01_ages_2":"2","01_ages_3":"3","01_ages_4":"4","01_ages_5":"5","01_ages_6":"6","01_ages_7":"7","01_ages_8":"8","01_ages_9":"9","01_ages_10":"10","01_ages_11":"11","01_ages_12":"12","01_ages_13":"13","01_ages_14":"14","01_ages_15":"15","01_ages_16":"16","01_ages_17":"17","01_ages_18":"18","02":"Yes","02_ages_1":"1","02_ages_2":"2","02_ages_3":"3","02_ages_4":"4","02_ages_5":"5","02_ages_6":"6","02_ages_7":"7","02_ages_8":"8","02_ages_9":"9","02_ages_10":"10","02_ages_11":"11","02_ages_12":"12","02_ages_13":"13","02_ages_14":"14","02_ages_15":"15","02_ages_16":"16","02_ages_17":"17","02_ages_18":"18","03":"Yes","03_ages_1":"1","03_ages_2":"2","03_ages_3":"3","03_ages_4":"4","03_ages_5":"5","03_ages_6":"6","03_ages_7":"7","03_ages_8":"8","03_ages_9":"9","03_ages_10":"10","03_ages_11":"11","03_ages_12":"12","03_ages_13":"13","03_ages_14":"14","03_ages_15":"15","03_ages_16":"16","03_ages_17":"17","03_ages_18":"18","04":"Yes","04_ages_1":"1","04_ages_2":"2","04_ages_3":"3","04_ages_4":"4","04_ages_5":"5","04_ages_6":"6","04_ages_7":"7","04_ages_8":"8","04_ages_9":"9","04_ages_10":"10","04_ages_11":"11","04_ages_12":"12","04_ages_13":"13","04_ages_14":"14","04_ages_15":"15","04_ages_16":"16","04_ages_17":"17","04_ages_18":"18"},"rt":112595.5,"item_order":[0,1,2,3],"radio_events":[19779.40000000596,43920.20000001788,66070,94399.20000001788],"checkbox_events":[21804.5,23151.40000000596,23711.90000000596,24260.5,24793.20000001788,25333.20000001788,27665.09999999404,28282.09999999404,29524.5,30419.80000001192,31040.90000000596,31855.70000001788,32932.90000000596,33650.70000001788,34610.40000000596,35675.59999999404,36425.70000001788,37590.40000000596,44944.5,45557.90000000596,46186.90000000596,46776.59999999404,47699.59999999404,48344.59999999404,48949.30000001192,49571.09999999404,50248.5,51006.5,51631.40000000596,52970.59999999404,53889.09999999404,56982.5,57950.5,58628,59628.5,60914.80000001192,70950.40000000596,72185.09999999404,72838,73434.80000001192,74112.59999999404,74826.30000001192,75391.09999999404,76383.09999999404,77794.80000001192,78649.70000001788,80985.59999999404,81710.80000001192,82864.59999999404,83683.5,84586.80000001192,85514.20000001788,86240.59999999404,86990.40000000596,95637.40000000596,96411.70000001788,97218,97896.09999999404,98758.70000001788,99424.30000001192,100319.80000001192,101303.90000000596,102054.09999999404,102868.70000001788,103808.09999999404,104607.09999999404,105324.90000000596,106163.5,107067.20000001788,107861.59999999404,108837.90000000596,109676.30000001192],"key_events":[],"mouse_events":[18500.80000001192,19779.40000000596,21804.5,23151.40000000596,23711.90000000596,24260.5,24793.20000001788,25333.20000001788,26365.70000001788,27665.09999999404,28282.09999999404,29048.20000001788,29524.5,30419.80000001192,31040.90000000596,31855.70000001788,32932.90000000596,33650.70000001788,34610.40000000596,35675.59999999404,36425.70000001788,37590.40000000596,43920.20000001788,44944.5,45557.90000000596,46186.90000000596,46776.59999999404,47699.59999999404,48344.59999999404,48949.30000001192,49571.09999999404,50248.5,51006.5,51631.40000000596,52325.70000001788,52970.59999999404,53889.09999999404,56982.5,57950.5,58628,59628.5,60914.80000001192,66070,70950.40000000596,71596.20000001788,72185.09999999404,72838,73434.80000001192,74112.59999999404,74826.30000001192,75391.09999999404,76383.09999999404,77794.80000001192,78649.70000001788,79500.5,80985.59999999404,81710.80000001192,82864.59999999404,83683.5,84586.80000001192,85514.20000001788,86240.59999999404,86990.40000000596,94399.20000001788,95637.40000000596,96411.70000001788,97218,97896.09999999404,98758.70000001788,99424.30000001192,100319.80000001192,101303.90000000596,102054.09999999404,102868.70000001788,103808.09999999404,104607.09999999404,105324.90000000596,106163.5,107067.20000001788,107861.59999999404,108837.90000000596,109676.30000001192,112592.80000001192],"honeypot":0,"survey":"mace","page":9,"trial_type":"survey-mace","trial_index":17,"time_elapsed":913854,"internal_node_id":"0.0-17.0","task_version":"prescreen-v0.3","browser_interactions":0},{"responses":{"01":"No","02":"No","03":"No","04":"No","05":"No","06":"Yes","06_ages_17":"17","07":"Yes","07_ages_1":"1","07_ages_2":"2","07_ages_3":"3","07_ages_4":"4","07_ages_5":"5","07_ages_6":"6","07_ages_7":"7","07_ages_8":"8","07_ages_9":"9","07_ages_10":"10","07_ages_11":"11","07_ages_12":"12","07_ages_13":"13","07_ages_14":"14","07_ages_15":"15","07_ages_16":"16","07_ages_17":"17","07_ages_18":"18","08":"Yes","08_ages_1":"1","08_ages_2":"2","08_ages_3":"3","08_ages_4":"4","08_ages_5":"5","08_ages_6":"6","08_ages_7":"7","08_ages_8":"8","08_ages_9":"9","08_ages_10":"10","08_ages_11":"11","08_ages_12":"12","08_ages_13":"13","08_ages_14":"14","08_ages_15":"15","08_ages_16":"16","08_ages_17":"17"},"rt":74228.80000001192,"item_order":[0,1,2,3,4,5,6,7],"radio_events":[5626,8607.09999999404,12022.800000011921,14789.800000011921,17386.59999999404,21907.80000001192,30294.59999999404,53068.90000000596],"checkbox_events":[25679.09999999404,35001,35698.19999998808,36625.5,37279.09999999404,38134.5,38763.30000001192,39650.5,40743.80000001192,41945.30000001192,42687.80000001192,43599.40000000596,44482.30000001192,45329.5,46264.80000001192,47047.30000001192,47926.59999999404,48825.90000000596,49511.40000000596,54396.30000001192,55275.40000000596,56162.5,56952.90000000596,57558.19999998808,58804.30000001192,60030,61079.19999998808,62321,63067.30000001192,63753.09999999404,64567.40000000596,65357.90000000596,66261.80000001192,66838.5,67645.19999998808,69371.30000001192],"key_events":[],"mouse_events":[5626,8607.09999999404,10906,12022.800000011921,14789.800000011921,17386.59999999404,20883.19999998808,21907.80000001192,25679.09999999404,30294.59999999404,35001,35698.19999998808,36625.5,37279.09999999404,38134.5,38763.30000001192,39650.5,40743.80000001192,41945.30000001192,42687.80000001192,43599.40000000596,44482.30000001192,45329.5,46264.80000001192,47047.30000001192,47926.59999999404,48825.90000000596,49511.40000000596,53068.90000000596,54396.30000001192,55275.40000000596,56162.5,56952.90000000596,57558.19999998808,58255.5,58804.30000001192,60030,61079.19999998808,62321,63067.30000001192,63753.09999999404,64567.40000000596,65357.90000000596,66261.80000001192,66838.5,67645.19999998808,69371.30000001192,74223.19999998808],"honeypot":0,"survey":"mace","page":10,"trial_type":"survey-mace","trial_index":18,"time_elapsed":988092,"internal_node_id":"0.0-18.0","task_version":"prescreen-v0.3","browser_interactions":0,"instructed":0},{"rt":6491.4000000059605,"trial_type":"mental-health-alert","trial_index":19,"time_elapsed":994586,"internal_node_id":"0.0-19.0","task_version":"prescreen-v0.3","interactions":"[]"}]