[{"view_history":[{"page_index":0,"viewing_time":2387.899999976158},{"page_index":1,"viewing_time":1817.5},{"page_index":2,"viewing_time":2760.300000011921},{"page_index":3,"viewing_time":1298.300000011921}],"rt":8264.599999964237,"trial_type":"instructions","trial_index":0,"time_elapsed":8449,"internal_node_id":"0.0-0.0","task_version":"prescreen-v0.3"},{"rt":22648.299999952316,"responses":{"age":"24","gender-categorical":"Female","gender-free-response":"","ethnicity":"Not Hispanic or Latino","race":["White"],"education":"Bachelor degree"},"trial_type":"survey-demo","trial_index":1,"time_elapsed":31129,"internal_node_id":"0.0-1.0","task_version":"prescreen-v0.3"},{"responses":{"Q18":"2","Q12":"1","Q04":"2","Q19":"2","Q08":"1","Q10":"2","Q06":"2","Q02":"0","Q01":"2","Q09":"2","Q07":"1","Q20":"2","Q03":"1","Q11":"0","Q21":"3","Q16":"2","Q05":"2","Q13":"2","Q15":"2","Q14":"2","Q17":"2"},"rt":93637.80000001192,"item_order":[17,11,3,18,7,9,5,1,0,8,6,19,2,10,20,15,4,12,14,13,16],"radio_events":[6927.400000035763,12395,14877.300000011921,16945.200000047684,21661.400000035763,26875.5,30757.200000047684,39477.60000002384,45532.700000047684,49736.5,52376.5,55732.90000003576,62716.40000003576,66045.5,69653.90000003576,73469.70000004768,77669.60000002384,81126.40000003576,83954.30000001192,85315,89048.40000003576,91315.40000003576,92928.80000001192],"key_events":[],"mouse_events":[6927.400000035763,12395,14877.300000011921,16945.200000047684,21661.400000035763,26875.5,30757.200000047684,39477.60000002384,45532.700000047684,49736.5,52376.5,55732.90000003576,61892.10000002384,62716.40000003576,66045.5,69653.90000003576,73469.70000004768,77669.60000002384,81126.40000003576,83954.30000001192,85315,89048.40000003576,91315.40000003576,92928.80000001192,93636.10000002384],"straightlining":0.6666666666666666,"zigzagging":0.5,"honeypot":0,"survey":"sns","trial_type":"survey-template","trial_index":2,"time_elapsed":124816,"internal_node_id":"0.0-2.0","task_version":"prescreen-v0.3","browser_interactions":0,"infrequency":0},{"responses":{"Q01":"3","Q09":"1","Q05":"2","Q07":"3","Q06":"2","Q03":"3","Q04":"3","Q12":"1","Q02":"2","Q10":"2","Q13":"0","Q11":"1","Q08":"1"},"rt":59175.40000003576,"item_order":[0,8,4,6,5,2,3,11,1,9,12,10,7],"radio_events":[5598.300000011921,12428.600000023842,13943.600000023842,18322.30000001192,20813.700000047684,24124.400000035763,27910.600000023842,32532.80000001192,35021.5,37511.30000001192,50592.30000001192,53510.80000001192,54996.80000001192,55710.700000047684,57960],"key_events":[],"mouse_events":[5598.300000011921,9994.5,12428.600000023842,13943.600000023842,16804.5,17634.100000023842,18322.30000001192,20813.700000047684,24124.400000035763,27218.900000035763,27910.600000023842,32532.80000001192,35021.5,37511.30000001192,50592.30000001192,53510.80000001192,54996.80000001192,55710.700000047684,57960,59151.60000002384],"straightlining":0.3076923076923077,"zigzagging":0.5,"honeypot":0,"survey":"bisbas","trial_type":"survey-template","trial_index":3,"time_elapsed":184040,"internal_node_id":"0.0-3.0","task_version":"prescreen-v0.3","browser_interactions":0,"infrequency":0},{"responses":{"Q01":"2","Q02":"2","Q03":"3"},"rt":10698.100000023842,"radio_events":[3286,6140.200000047684,10011.900000035763],"key_events":[],"mouse_events":[3286,6140.200000047684,10011.900000035763,10696.700000047684],"survey":"map","page":1,"trial_type":"survey-map","trial_index":4,"time_elapsed":194766,"internal_node_id":"0.0-4.0","task_version":"prescreen-v0.3","browser_interactions":0},{"responses":{"Q04":"2","Q05":"2","Q06":"2"},"rt":7978.699999988079,"radio_events":[3333.300000011921,5495,7379.099999964237],"key_events":[],"mouse_events":[3333.300000011921,5495,7379.099999964237,7978],"survey":"map","page":2,"trial_type":"survey-map","trial_index":5,"time_elapsed":202779,"internal_node_id":"0.0-5.0","task_version":"prescreen-v0.3","browser_interactions":0},{"responses":{"Q07":"4","Q08":"3","Q09":"4"},"rt":14639.5,"radio_events":[7654.299999952316,10990.699999988079,13834],"key_events":[],"mouse_events":[6375.5,7654.299999952316,10990.699999988079,13834,14639.199999988079],"survey":"map","page":3,"trial_type":"survey-map","trial_index":6,"time_elapsed":217420,"internal_node_id":"0.0-6.0","task_version":"prescreen-v0.3","browser_interactions":0},{"responses":{"Q10":"1","Q11":"4","Q12":"0","Q13":"2","Q16":"0","Q14":"2","Q15":"2"},"rt":30085,"radio_events":[3676.599999964237,6543.699999988079,9842.799999952316,12811,14998.899999976158,15754,21785.599999964237,27214.69999998808,28301.099999964237],"key_events":[],"mouse_events":[3676.599999964237,6543.699999988079,9842.799999952316,12811,14998.899999976158,15754,21785.599999964237,24888.19999998808,27214.69999998808,28301.099999964237,30080.399999976158],"survey":"map","page":4,"trial_type":"survey-map","trial_index":7,"time_elapsed":247518,"internal_node_id":"0.0-7.0","task_version":"prescreen-v0.3","browser_interactions":0,"infrequency":0},{"view_history":[{"page_index":0,"viewing_time":2388.300000011921},{"page_index":1,"viewing_time":2741.199999988079}],"rt":5130,"trial_type":"instructions","trial_index":8,"time_elapsed":252651,"internal_node_id":"0.0-8.0","task_version":"prescreen-v0.3"},{"responses":{"01":"No","02":"No","03":"No","04":"No","05":"No","06":"No"},"rt":19012.30000001192,"item_order":[0,1,2,3,4,5],"radio_events":[6317.300000011921,9258.300000011921,13543.899999976158,14785.099999964237,16329.899999976158,18192.19999998808],"checkbox_events":[],"key_events":[],"mouse_events":[0.19999998807907104,6317.300000011921,9258.300000011921,13543.899999976158,14785.099999964237,16329.899999976158,18192.19999998808,18991.099999964237],"honeypot":0,"survey":"mace","page":1,"trial_type":"survey-mace","trial_index":9,"time_elapsed":271729,"internal_node_id":"0.0-9.0","task_version":"prescreen-v0.3","browser_interactions":0},{"responses":{"01":"No","02":"No","03":"No","04":"No","05":"No","06":"No","07":"No","08":"No"},"rt":15597,"item_order":[0,1,2,3,4,5,6,7],"radio_events":[6072.599999964237,7576.300000011921,8844.399999976158,9916,11198.199999988079,12988.300000011921,13949.199999988079,14868.099999964237],"checkbox_events":[],"key_events":[],"mouse_events":[6072.599999964237,7576.300000011921,8844.399999976158,9916,11198.199999988079,12988.300000011921,13949.199999988079,14868.099999964237,15512.899999976158],"honeypot":0,"survey":"mace","page":2,"trial_type":"survey-mace","trial_index":10,"time_elapsed":287394,"internal_node_id":"0.0-10.0","task_version":"prescreen-v0.3","browser_interactions":0},{"responses":{"01":"No","02":"No","03":"No","04":"No"},"rt":6068.300000011921,"item_order":[0,1,2,3],"radio_events":[2333.900000035763,3397.100000023842,4426.800000011921,5518.5],"checkbox_events":[],"key_events":[],"mouse_events":[2333.900000035763,3397.100000023842,4426.800000011921,5518.5,6046],"honeypot":0,"survey":"mace","page":3,"trial_type":"survey-mace","trial_index":11,"time_elapsed":293465,"internal_node_id":"0.0-11.0","task_version":"prescreen-v0.3","browser_interactions":0},{"responses":{"01":"No","02":"No"},"rt":3543.199999988079,"item_order":[0,1],"radio_events":[1859.300000011921,2977.5],"checkbox_events":[],"key_events":[],"mouse_events":[1859.300000011921,2977.5,3528.699999988079],"honeypot":0,"survey":"mace","page":4,"trial_type":"survey-mace","trial_index":12,"time_elapsed":297011,"internal_node_id":"0.0-12.0","task_version":"prescreen-v0.3","browser_interactions":0},{"responses":{"01":"No","02":"No","03":"No","04":"No","05":"No"},"rt":14017.200000047684,"item_order":[0,1,2,3,4],"radio_events":[7015.400000035763,8811.400000035763,10558.100000023842,12191.100000023842,13424],"checkbox_events":[],"key_events":[],"mouse_events":[7015.400000035763,8811.400000035763,10558.100000023842,12191.100000023842,13424,14015.700000047684],"honeypot":0,"survey":"mace","page":5,"trial_type":"survey-mace","trial_index":13,"time_elapsed":311036,"internal_node_id":"0.0-13.0","task_version":"prescreen-v0.3","browser_interactions":0},{"responses":{"01":"Yes","01_ages_6":"6","01_ages_7":"7","01_ages_8":"8","01_ages_9":"9","01_ages_10":"10","01_ages_11":"11","01_ages_12":"12","02":"Yes","02_ages_6":"6","02_ages_7":"7","02_ages_8":"8","02_ages_9":"9","02_ages_10":"10","02_ages_11":"11","02_ages_12":"12","03":"No","04":"No","05":"No"},"rt":51905.40000003576,"item_order":[0,1,2,3,4],"radio_events":[8671.600000023842,36647.700000047684,46101.200000047684,48088.80000001192,50629.90000003576],"checkbox_events":[21517.100000023842,23986.30000001192,24501.700000047684,25029.400000035763,25888.100000023842,26430.100000023842,27795.80000001192,28536.700000047684,28963,29675.30000001192,30152.80000001192,30835.400000035763,31589.200000047684,32257.400000035763,32687.400000035763,33126.40000003576,37927.90000003576,38353,38919.5,39395.40000003576,39840.200000047684,41773,42346.10000002384,42966.10000002384],"key_events":[],"mouse_events":[8671.600000023842,20651.30000001192,21517.100000023842,22402.900000035763,23986.30000001192,24501.700000047684,25029.400000035763,25888.100000023842,26430.100000023842,27795.80000001192,28536.700000047684,28963,29675.30000001192,30152.80000001192,30835.400000035763,31589.200000047684,32257.400000035763,32687.400000035763,33126.40000003576,36647.700000047684,37927.90000003576,38353,38919.5,39395.40000003576,39840.200000047684,41253.30000001192,41773,42346.10000002384,42966.10000002384,46101.200000047684,48088.80000001192,50629.90000003576,51903.60000002384],"honeypot":0,"survey":"mace","page":6,"trial_type":"survey-mace","trial_index":14,"time_elapsed":363003,"internal_node_id":"0.0-14.0","task_version":"prescreen-v0.3","browser_interactions":0},{"responses":{"01":"No","02":"No","03":"Yes","03_ages_8":"8","03_ages_9":"9","03_ages_12":"12","03_ages_13":"13","03_ages_14":"14","04":"Yes","04_ages_8":"8","04_ages_9":"9","04_ages_10":"10","04_ages_11":"11","04_ages_12":"12","05":"No","06":"Yes","06_ages_18":"18","07":"Yes","07_ages_18":"18"},"rt":56929.5,"item_order":[0,1,2,3,4,5,6],"radio_events":[25162.599999964237,27866.599999964237,29677.5,36238,43455.299999952316,46365.799999952316,51356.09999996424],"checkbox_events":[30516.099999964237,30912.69999998808,31692.899999976158,32089.599999964237,32816.69999998808,38205.5,38593.89999997616,39676.19999998808,40110.09999996424,40504.19999998808,47708.19999998808,53844.19999998808],"key_events":[],"mouse_events":[25162.599999964237,27866.599999964237,29677.5,30516.099999964237,30912.69999998808,31692.899999976158,32089.599999964237,32816.69999998808,36238,38205.5,38593.89999997616,38989.59999996424,39676.19999998808,40110.09999996424,40504.19999998808,43455.299999952316,46365.799999952316,47708.19999998808,51356.09999996424,53844.19999998808,56911.5],"honeypot":0,"survey":"mace","page":7,"trial_type":"survey-mace","trial_index":15,"time_elapsed":420013,"internal_node_id":"0.0-15.0","task_version":"prescreen-v0.3","browser_interactions":0},{"responses":{"01":"No","02":"Yes","02_ages_18":"18","03":"No","04":"No"},"rt":18714.80000001192,"item_order":[0,1,2,3],"radio_events":[5346.599999964237,11923.300000011921,16076.399999976158,18100.899999976158],"checkbox_events":[12973.099999964237],"key_events":[],"mouse_events":[5346.599999964237,11494,11923.300000011921,12973.099999964237,16076.399999976158,18100.899999976158,18689.19999998808],"honeypot":0,"survey":"mace","page":8,"trial_type":"survey-mace","trial_index":16,"time_elapsed":438729,"internal_node_id":"0.0-16.0","task_version":"prescreen-v0.3","browser_interactions":0},{"responses":{"01":"Yes","01_ages_1":"1","01_ages_2":"2","01_ages_3":"3","01_ages_4":"4","01_ages_5":"5","01_ages_6":"6","01_ages_7":"7","01_ages_8":"8","01_ages_9":"9","01_ages_10":"10","01_ages_11":"11","01_ages_12":"12","01_ages_13":"13","01_ages_14":"14","01_ages_15":"15","01_ages_16":"16","01_ages_17":"17","01_ages_18":"18","02":"Yes","02_ages_1":"1","02_ages_2":"2","02_ages_3":"3","02_ages_4":"4","02_ages_5":"5","02_ages_6":"6","02_ages_7":"7","02_ages_8":"8","02_ages_9":"9","02_ages_10":"10","02_ages_11":"11","02_ages_12":"12","02_ages_13":"13","02_ages_14":"14","02_ages_15":"15","02_ages_16":"16","02_ages_17":"17","02_ages_18":"18","03":"Yes","03_ages_1":"1","03_ages_2":"2","03_ages_3":"3","03_ages_4":"4","03_ages_5":"5","03_ages_6":"6","03_ages_7":"7","03_ages_8":"8","03_ages_9":"9","03_ages_10":"10","03_ages_11":"11","03_ages_12":"12","03_ages_13":"13","03_ages_14":"14","03_ages_15":"15","03_ages_16":"16","03_ages_17":"17","03_ages_18":"18","04":"Yes","04_ages_1":"1","04_ages_2":"2","04_ages_3":"3","04_ages_4":"4","04_ages_5":"5","04_ages_6":"6","04_ages_7":"7","04_ages_8":"8","04_ages_9":"9","04_ages_10":"10","04_ages_11":"11","04_ages_12":"12","04_ages_13":"13","04_ages_14":"14","04_ages_15":"15","04_ages_16":"16","04_ages_17":"17","04_ages_18":"18"},"rt":56749.5,"item_order":[0,1,2,3],"radio_events":[3514.699999988079,19240,31552.19999998808,44940],"checkbox_events":[7402,8084.099999964237,8885,10559.099999964237,11029.199999988079,11497.800000011921,11879.099999964237,12275.5,12708.800000011921,13099.800000011921,13531.599999964237,13944.5,14407.800000011921,14866.599999964237,15300.399999976158,15673.899999976158,16103.699999988079,16516.80000001192,20088.69999998808,20578.599999964237,20910.399999976158,21350.30000001192,21738,22176.099999964237,23055,23484.899999976158,23884.599999964237,24276.80000001192,25149.099999964237,26014.5,26494.5,26899.899999976158,27349.5,27822.30000001192,28266.599999964237,28748.899999976158,32401.5,32879.59999996424,33301.09999996424,33739,34595.89999997616,35041.5,35467.59999996424,35909.19999998808,36356.30000001192,36777,37160.69999998808,37589.69999998808,37986.5,39564.59999996424,39993.09999996424,40445.09999996424,40883.5,41263.5,45821,46215.89999997616,47317.30000001192,47843.89999997616,48241.80000001192,48612.19999998808,49041.39999997616,49480,49894.09999996424,50342.89999997616,51139.39999997616,51534.30000001192,52939.80000001192,53322.09999996424,54017.80000001192,54374.5,54780.5,55678.59999996424],"key_events":[],"mouse_events":[3514.699999988079,7402,8084.099999964237,8885,9408,10559.099999964237,11029.199999988079,11497.800000011921,11879.099999964237,12275.5,12708.800000011921,13099.800000011921,13531.599999964237,13944.5,14407.800000011921,14866.599999964237,15300.399999976158,15673.899999976158,16103.699999988079,16516.80000001192,19240,20088.69999998808,20578.599999964237,20910.399999976158,21350.30000001192,21738,22176.099999964237,22631.69999998808,23055,23484.899999976158,23884.599999964237,24276.80000001192,24698.899999976158,25149.099999964237,25593,26014.5,26494.5,26899.899999976158,27349.5,27822.30000001192,28266.599999964237,28748.899999976158,30836.899999976158,31552.19999998808,32401.5,32879.59999996424,33301.09999996424,33739,34155.59999996424,34595.89999997616,35041.5,35467.59999996424,35909.19999998808,36356.30000001192,36777,37160.69999998808,37589.69999998808,37986.5,38382.80000001192,39120.5,39564.59999996424,39993.09999996424,40445.09999996424,40883.5,41263.5,44940,45821,46215.89999997616,46606,47317.30000001192,47843.89999997616,48241.80000001192,48612.19999998808,49041.39999997616,49480,49894.09999996424,50342.89999997616,50734.69999998808,51139.39999997616,51534.30000001192,52106.80000001192,52522.30000001192,52939.80000001192,53322.09999996424,54017.80000001192,54374.5,54780.5,55210.5,55678.59999996424,56745.19999998808],"honeypot":0,"survey":"mace","page":9,"trial_type":"survey-mace","trial_index":17,"time_elapsed":495483,"internal_node_id":"0.0-17.0","task_version":"prescreen-v0.3","browser_interactions":0},{"responses":{"01":"No","02":"No","03":"No","04":"No","05":"No","06":"Yes","06_ages_17":"17","07":"Yes","07_ages_1":"1","07_ages_2":"2","07_ages_3":"3","07_ages_4":"4","07_ages_5":"5","07_ages_6":"6","07_ages_7":"7","07_ages_8":"8","07_ages_9":"9","07_ages_10":"10","07_ages_11":"11","07_ages_12":"12","07_ages_13":"13","07_ages_14":"14","07_ages_15":"15","07_ages_16":"16","07_ages_17":"17","07_ages_18":"18","08":"Yes","08_ages_1":"1","08_ages_2":"2","08_ages_3":"3","08_ages_4":"4","08_ages_5":"5","08_ages_6":"6","08_ages_7":"7","08_ages_8":"8","08_ages_9":"9","08_ages_10":"10","08_ages_11":"11","08_ages_12":"12","08_ages_13":"13","08_ages_14":"14","08_ages_15":"15","08_ages_16":"16","08_ages_17":"17","08_ages_18":"18"},"rt":42440.30000001192,"item_order":[0,1,2,3,4,5,6,7],"radio_events":[3910.300000011921,5091.5,7301.5,8612.5,10209.100000023842,12999.400000035763,18724.900000035763,30783.400000035763],"checkbox_events":[15023.5,19952.600000023842,20826.30000001192,21211.19999998808,21897.100000023842,22573.100000023842,23012.400000035763,23404.80000001192,23825.600000023842,24241.30000001192,24629.900000035763,25015.900000035763,25589.900000035763,26031.19999998808,26479.69999998808,26932.5,27423.69999998808,27901.30000001192,29577.30000001192,31554.69999998808,32015.400000035763,32467.80000001192,32917.60000002384,33797.90000003576,34219.90000003576,34642.19999998808,35511.69999998808,35970.5,36479.60000002384,37377.40000003576,37826,38643.19999998808,39146.30000001192,39698.80000001192,40304,40780.19999998808,41327.90000003576],"key_events":[],"mouse_events":[3910.300000011921,5091.5,7301.5,8612.5,10209.100000023842,12999.400000035763,15023.5,18724.900000035763,19952.600000023842,20403.5,20826.30000001192,21211.19999998808,21897.100000023842,22573.100000023842,23012.400000035763,23404.80000001192,23825.600000023842,24241.30000001192,24629.900000035763,25015.900000035763,25589.900000035763,26031.19999998808,26479.69999998808,26932.5,27423.69999998808,27901.30000001192,28337.5,29577.30000001192,30783.400000035763,31554.69999998808,32015.400000035763,32467.80000001192,32917.60000002384,33333.60000002384,33797.90000003576,34219.90000003576,34642.19999998808,35089.10000002384,35511.69999998808,35970.5,36479.60000002384,36923.30000001192,37377.40000003576,37826,38643.19999998808,39146.30000001192,39698.80000001192,40304,40780.19999998808,41327.90000003576,42431],"honeypot":0,"survey":"mace","page":10,"trial_type":"survey-mace","trial_index":18,"time_elapsed":537969,"internal_node_id":"0.0-18.0","task_version":"prescreen-v0.3","browser_interactions":0,"instructed":0},{"rt":4657.5,"trial_type":"mental-health-alert","trial_index":19,"time_elapsed":542673,"internal_node_id":"0.0-19.0","task_version":"prescreen-v0.3","interactions":"[]"}]