[{"view_history":[{"page_index":0,"viewing_time":2372.1000000089407},{"page_index":1,"viewing_time":2465.5999999940395},{"page_index":2,"viewing_time":2460.4000000059605},{"page_index":3,"viewing_time":876.8999999910593}],"rt":8176.4000000059605,"trial_type":"instructions","trial_index":0,"time_elapsed":8267,"internal_node_id":"0.0-0.0","task_version":"prescreen-v0.3"},{"rt":10081.29999999702,"responses":{"age":"28","gender-categorical":"Male","gender-free-response":"","ethnicity":"Not Hispanic or Latino","race":["White"],"education":"Bachelor degree","siblings":"2"},"trial_type":"survey-demo","trial_index":1,"time_elapsed":18360,"internal_node_id":"0.0-1.0","task_version":"prescreen-v0.3"},{"responses":{"Q12":"1","Q17":"1","Q14":"1","Q06":"0","Q20":"0","Q10":"0","Q11":"1","Q16":"0","Q18":"0","Q03":"0","Q07":"1","Q02":"0","Q04":"0","Q09":"0","Q19":"0","Q21":"3","Q15":"2","Q08":"2","Q13":"1","Q01":"1","Q05":"3"},"rt":76264.10000000894,"item_order":[11,16,13,5,19,9,10,15,17,2,6,1,3,8,18,20,14,7,12,0,4],"radio_events":[4198.20000000298,6850.800000011921,10889.20000000298,14471.5,16966.80000001192,19418.20000000298,21809.20000000298,25340.20000000298,27764.60000000894,29390.5,31050.10000000894,35757.60000000894,39011,44642.90000000596,46466.60000000894,48254.10000000894,53225.5,55277.90000000596,61170.40000000596,64312.40000000596,66897.40000000596,69157.5,75387.40000000596],"key_events":[],"mouse_events":[3181.1000000089407,3670.4000000059605,4198.20000000298,6850.800000011921,10433.300000011921,10889.20000000298,14471.5,16966.80000001192,19418.20000000298,21157.20000000298,21809.20000000298,24324.5,25340.20000000298,27393.10000000894,27764.60000000894,29390.5,31050.10000000894,35757.60000000894,39011,44642.90000000596,46466.60000000894,48254.10000000894,52881.10000000894,53225.5,55277.90000000596,61170.40000000596,64312.40000000596,66696.60000000894,66897.40000000596,69157.5,75387.40000000596,76261.60000000894],"straightlining":0.47619047619047616,"zigzagging":0.4,"honeypot":0,"survey":"sns","trial_type":"survey-template","trial_index":2,"time_elapsed":94634,"internal_node_id":"0.0-2.0","task_version":"prescreen-v0.3","browser_interactions":0,"infrequency":0},{"responses":{"Q06":"3","Q11":"1","Q13":"0","Q05":"2","Q12":"1","Q02":"1","Q04":"3","Q08":"2","Q09":"1","Q10":"2","Q01":"2","Q03":"3","Q07":"3"},"rt":35210.70000000298,"item_order":[5,10,12,4,11,1,3,7,8,9,0,2,6],"radio_events":[2598.1000000089407,4991.70000000298,5879.70000000298,8893.29999999702,12401.29999999702,14200.20000000298,16126,18816.20000000298,19918.5,23337.5,25789.10000000894,28305.20000000298,29771.5,32947.10000000894,34658.90000000596],"key_events":[],"mouse_events":[2598.1000000089407,4991.70000000298,5527.20000000298,5879.70000000298,8503.40000000596,8893.29999999702,11665.60000000894,12083.10000000894,12401.29999999702,14200.20000000298,16126,18816.20000000298,19918.5,23337.5,25375.79999999702,25789.10000000894,27979.40000000596,28305.20000000298,29771.5,32479,32947.10000000894,34658.90000000596,35208.40000000596],"straightlining":0.3076923076923077,"zigzagging":0.5,"honeypot":0,"survey":"bisbas","trial_type":"survey-template","trial_index":3,"time_elapsed":129849,"internal_node_id":"0.0-3.0","task_version":"prescreen-v0.3","browser_interactions":0,"infrequency":0},{"responses":{"Q01":"3","Q02":"3","Q03":"3"},"rt":13883.59999999404,"radio_events":[3918.0999999940395,9147.20000000298,12818.5],"key_events":[],"mouse_events":[3918.0999999940395,8748.79999999702,9147.20000000298,12818.5,13882.70000000298],"survey":"map","page":1,"trial_type":"survey-map","trial_index":4,"time_elapsed":143738,"internal_node_id":"0.0-4.0","task_version":"prescreen-v0.3","browser_interactions":0},{"responses":{"Q04":"4","Q05":"3","Q06":"4"},"rt":12130.70000000298,"radio_events":[3915.7999999970198,8477.09999999404,11250.09999999404],"key_events":[],"mouse_events":[3372.7000000029802,3915.7999999970198,8477.09999999404,10566.79999999702,11250.09999999404,12128.79999999702],"survey":"map","page":2,"trial_type":"survey-map","trial_index":5,"time_elapsed":155873,"internal_node_id":"0.0-5.0","task_version":"prescreen-v0.3","browser_interactions":0},{"responses":{"Q07":"2","Q08":"4","Q09":"2"},"rt":13526.70000000298,"radio_events":[4840.9000000059605,10309.90000000596,10881.20000000298,12702.20000000298],"key_events":[],"mouse_events":[3757.7999999970198,4114.600000008941,4840.9000000059605,9858.40000000596,10143.70000000298,10309.90000000596,10881.20000000298,12702.20000000298,13526],"survey":"map","page":3,"trial_type":"survey-map","trial_index":6,"time_elapsed":169405,"internal_node_id":"0.0-6.0","task_version":"prescreen-v0.3","browser_interactions":0},{"responses":{"Q10":"2","Q11":"2","Q12":"1","Q13":"2","Q16":"0","Q14":"3","Q15":"3"},"rt":25753.5,"radio_events":[3059.2999999970198,5646.79999999702,11527.09999999404,14823.09999999404,17474.20000000298,20943.20000000298,22024.5,25109.09999999404],"key_events":[],"mouse_events":[3059.2999999970198,5646.79999999702,11046.90000000596,11527.09999999404,14495.20000000298,14823.09999999404,17474.20000000298,20179.20000000298,20555.90000000596,20943.20000000298,22024.5,24689.29999999702,25109.09999999404,25752.20000000298],"survey":"map","page":4,"trial_type":"survey-map","trial_index":7,"time_elapsed":195163,"internal_node_id":"0.0-7.0","task_version":"prescreen-v0.3","browser_interactions":0,"infrequency":0},{"view_history":[{"page_index":0,"viewing_time":1657},{"page_index":1,"viewing_time":3102.7000000029802}],"rt":4760.79999999702,"trial_type":"instructions","trial_index":8,"time_elapsed":199926,"internal_node_id":"0.0-8.0","task_version":"prescreen-v0.3"},{"responses":{"01":"Yes","01_ages_12":"12","01_ages_13":"13","01_ages_14":"14","01_ages_15":"15","01_ages_16":"16","01_ages_17":"17","01_ages_18":"18","02":"Yes","02_ages_11":"11","02_ages_12":"12","02_ages_13":"13","02_ages_14":"14","02_ages_15":"15","02_ages_16":"16","02_ages_17":"17","02_ages_18":"18","03":"Yes","03_ages_13":"13","03_ages_14":"14","03_ages_15":"15","03_ages_16":"16","03_ages_17":"17","03_ages_18":"18","04":"No","05":"No","06":"Yes","06_ages_15":"15","06_ages_16":"16","06_ages_17":"17","06_ages_18":"18"},"rt":45938.60000000894,"item_order":[0,1,2,3,4,5],"radio_events":[4245.20000000298,15972.800000011921,29578.70000000298,36213.70000000298,38092.5,40514.60000000894],"checkbox_events":[8424,9262.70000000298,9693.70000000298,10058.70000000298,10605.800000011921,11052.70000000298,11454.70000000298,18292.5,19803.60000000894,21031.60000000894,21472,21818.60000000894,22495.10000000894,22903.60000000894,23514,30557.90000000596,31915.80000001192,32406.70000000298,32760.60000000894,33129.60000000894,33982,43526.5,43999.90000000596,44549.80000001192,45304.20000000298],"key_events":[],"mouse_events":[0.10000000894069672,3832.7000000029802,4245.20000000298,8424,8950.60000000894,9262.70000000298,9693.70000000298,10058.70000000298,10605.800000011921,11052.70000000298,11454.70000000298,15972.800000011921,18292.5,18606.40000000596,19243.40000000596,19517.40000000596,19803.60000000894,20376.40000000596,21031.60000000894,21472,21818.60000000894,22209.10000000894,22495.10000000894,22903.60000000894,23514,29578.70000000298,30557.90000000596,31342.60000000894,31661.90000000596,31915.80000001192,32406.70000000298,32760.60000000894,33129.60000000894,33551.60000000894,33982,36213.70000000298,38092.5,40514.60000000894,43526.5,43999.90000000596,44549.80000001192,45048.60000000894,45304.20000000298,45934],"honeypot":0,"survey":"mace","page":1,"trial_type":"survey-mace","trial_index":9,"time_elapsed":245880,"internal_node_id":"0.0-9.0","task_version":"prescreen-v0.3","browser_interactions":0},{"responses":{"01":"Yes","01_ages_15":"15","01_ages_16":"16","01_ages_17":"17","01_ages_18":"18","02":"No","03":"No","04":"No","05":"No","06":"No","07":"Yes","07_ages_4":"4","07_ages_5":"5","08":"Yes","08_ages_4":"4","08_ages_5":"5"},"rt":42896.30000001192,"item_order":[0,1,2,3,4,5,6,7],"radio_events":[3041.800000011921,11322.60000000894,13881,15507,16817,18322,30064.90000000596,34469.20000000298],"checkbox_events":[4904.5,5360.5,5852.5,6253.100000008941,31540.5,31963.90000000596,36313.10000000894,36678.90000000596],"key_events":[],"mouse_events":[3041.800000011921,4904.5,5360.5,5852.5,6253.100000008941,11322.60000000894,13881,15507,16817,18322,30064.90000000596,31540.5,31963.90000000596,34469.20000000298,36313.10000000894,36678.90000000596,42890.30000001192],"honeypot":0,"survey":"mace","page":2,"trial_type":"survey-mace","trial_index":10,"time_elapsed":288783,"internal_node_id":"0.0-10.0","task_version":"prescreen-v0.3","browser_interactions":0},{"responses":{"01":"Yes","01_ages_15":"15","01_ages_16":"16","01_ages_17":"17","01_ages_18":"18","02":"No","03":"No","04":"No"},"rt":23746.70000000298,"item_order":[0,1,2,3],"radio_events":[7277.79999999702,10140.59999999404,12088.29999999702,20820.29999999702,22846.09999999404],"checkbox_events":[16112.89999999106,17518.59999999404,17979.29999999702,18521.70000000298],"key_events":[],"mouse_events":[2099.7999999970198,2386.2999999970198,6631.0999999940395,7277.79999999702,10140.59999999404,12088.29999999702,16112.89999999106,16480.79999999702,16749.39999999106,17064.09999999404,17518.59999999404,17979.29999999702,18521.70000000298,20820.29999999702,22846.09999999404,23743.29999999702],"honeypot":0,"survey":"mace","page":3,"trial_type":"survey-mace","trial_index":11,"time_elapsed":312534,"internal_node_id":"0.0-11.0","task_version":"prescreen-v0.3","browser_interactions":0},{"responses":{"01":"Yes","01_ages_4":"4","01_ages_5":"5","02":"Yes","02_ages_4":"4","02_ages_5":"5"},"rt":15398.70000000298,"item_order":[0,1],"radio_events":[6087.300000011921,10576.20000000298],"checkbox_events":[9175.60000000894,9758.300000011921,12278.70000000298,12723.20000000298],"key_events":[],"mouse_events":[6087.300000011921,9175.60000000894,9513.20000000298,9758.300000011921,10576.20000000298,11724,12278.70000000298,12723.20000000298,15397.40000000596],"honeypot":0,"survey":"mace","page":4,"trial_type":"survey-mace","trial_index":12,"time_elapsed":327937,"internal_node_id":"0.0-12.0","task_version":"prescreen-v0.3","browser_interactions":0},{"responses":{"01":"Yes","01_ages_3":"3","01_ages_4":"4","01_ages_5":"5","01_ages_6":"6","01_ages_11":"11","01_ages_12":"12","01_ages_13":"13","01_ages_14":"14","02":"Yes","02_ages_5":"5","02_ages_6":"6","02_ages_11":"11","02_ages_12":"12","03":"No","04":"Yes","04_ages_4":"4","04_ages_5":"5","04_ages_6":"6","04_ages_7":"7","05":"No"},"rt":48487,"item_order":[0,1,2,3,4],"radio_events":[7727.5,22136.09999999404,32763.79999999702,38592.29999999702,47727.20000000298],"checkbox_events":[9128.29999999702,9538.59999999404,9906.79999999702,10340,17512.29999999702,17801.5,18145.29999999702,18497.29999999702,24482.29999999702,24769,27495.40000000596,28157.40000000596,40370.29999999702,40859.20000000298,41313.70000000298,43512.70000000298],"key_events":[],"mouse_events":[7727.5,9128.29999999702,9538.59999999404,9906.79999999702,10340,17512.29999999702,17801.5,18145.29999999702,18497.29999999702,22136.09999999404,24482.29999999702,24769,27135.59999999404,27495.40000000596,27818.29999999702,28157.40000000596,32763.79999999702,38592.29999999702,40057.70000000298,40370.29999999702,40859.20000000298,41313.70000000298,43512.70000000298,47727.20000000298,48484.29999999702],"honeypot":0,"survey":"mace","page":5,"trial_type":"survey-mace","trial_index":13,"time_elapsed":376429,"internal_node_id":"0.0-13.0","task_version":"prescreen-v0.3","browser_interactions":0},{"responses":{"01":"Yes","01_ages_7":"7","01_ages_8":"8","01_ages_9":"9","01_ages_10":"10","01_ages_11":"11","01_ages_12":"12","01_ages_13":"13","01_ages_14":"14","01_ages_15":"15","01_ages_16":"16","01_ages_17":"17","01_ages_18":"18","02":"Yes","02_ages_8":"8","02_ages_9":"9","02_ages_10":"10","02_ages_11":"11","02_ages_12":"12","02_ages_13":"13","02_ages_14":"14","02_ages_15":"15","02_ages_16":"16","02_ages_17":"17","02_ages_18":"18","03":"Yes","03_ages_13":"13","03_ages_14":"14","03_ages_15":"15","03_ages_16":"16","04":"No","05":"Yes","05_ages_14":"14","05_ages_15":"15","05_ages_16":"16"},"rt":42040.5,"item_order":[0,1,2,3,4],"radio_events":[4292,10441.29999999702,31369,36331.79999999702,39144.60000000894],"checkbox_events":[5523.9000000059605,5890.9000000059605,6206.29999999702,6484.70000000298,6949,7296.9000000059605,7692.5,8439.90000000596,8852.79999999702,11268.79999999702,11564,11837.70000000298,12664.79999999702,19321,19639.60000000894,19978.29999999702,20886.79999999702,21902.90000000596,25635,25978.70000000298,26281.79999999702,26973.40000000596,27288.70000000298,27619.20000000298,27934.70000000298,32567.60000000894,33191.60000000894,33649.70000000298,34537.5,40525.5,40852.79999999702,41242.70000000298],"key_events":[],"mouse_events":[4292,5523.9000000059605,5890.9000000059605,6206.29999999702,6484.70000000298,6949,7296.9000000059605,7692.5,8026.79999999702,8439.90000000596,8852.79999999702,10441.29999999702,11268.79999999702,11564,11837.70000000298,12193.79999999702,12664.79999999702,19321,19639.60000000894,19978.29999999702,20282.90000000596,20886.79999999702,21187.79999999702,21902.90000000596,25635,25978.70000000298,26281.79999999702,26973.40000000596,27288.70000000298,27619.20000000298,27934.70000000298,30463.5,31032.90000000596,31369,32276.79999999702,32567.60000000894,33191.60000000894,33649.70000000298,34281.60000000894,34537.5,36331.79999999702,39144.60000000894,40525.5,40852.79999999702,41242.70000000298,42037.70000000298],"honeypot":0,"survey":"mace","page":6,"trial_type":"survey-mace","trial_index":14,"time_elapsed":418476,"internal_node_id":"0.0-14.0","task_version":"prescreen-v0.3","browser_interactions":0},{"responses":{"01":"No","02":"No","03":"Yes","03_ages_10":"10","03_ages_11":"11","03_ages_13":"13","03_ages_14":"14","03_ages_15":"15","04":"Yes","04_ages_13":"13","04_ages_14":"14","05":"No","06":"No","07":"No"},"rt":29443.29999999702,"item_order":[0,1,2,3,4,5,6],"radio_events":[7429,10020.79999999702,12354.29999999702,18849.69999998808,25172.39999999106,27190.59999999404,28993.5],"checkbox_events":[13585.39999999106,13951.199999988079,15116.09999999404,15378.59999999404,15734.699999988079,20322.59999999404,21484.69999998808,22734.89999999106,23099.39999999106],"key_events":[],"mouse_events":[2058.199999988079,2269.5,3085.0999999940395,3320.699999988079,4621,4812.29999999702,5296.899999991059,5522.5999999940395,6020.5,7429,10020.79999999702,12354.29999999702,13585.39999999106,13951.199999988079,15116.09999999404,15378.59999999404,15734.699999988079,18849.69999998808,20322.59999999404,20700.59999999404,21484.69999998808,21884,22422.39999999106,22734.89999999106,23099.39999999106,25172.39999999106,26781.19999998808,27190.59999999404,28152.5,28993.5,29439.19999998808],"honeypot":0,"survey":"mace","page":7,"trial_type":"survey-mace","trial_index":15,"time_elapsed":447925,"internal_node_id":"0.0-15.0","task_version":"prescreen-v0.3","browser_interactions":0},{"responses":{"01":"Yes","01_ages_8":"8","01_ages_9":"9","01_ages_10":"10","01_ages_11":"11","01_ages_12":"12","01_ages_13":"13","01_ages_14":"14","01_ages_15":"15","01_ages_16":"16","01_ages_17":"17","02":"Yes","02_ages_1":"1","02_ages_2":"2","02_ages_3":"3","02_ages_4":"4","02_ages_5":"5","02_ages_6":"6","02_ages_7":"7","02_ages_8":"8","02_ages_9":"9","02_ages_10":"10","02_ages_11":"11","02_ages_12":"12","02_ages_13":"13","03":"Yes","03_ages_5":"5","03_ages_6":"6","03_ages_7":"7","03_ages_8":"8","03_ages_9":"9","03_ages_10":"10","03_ages_11":"11","03_ages_12":"12","03_ages_13":"13","03_ages_14":"14","03_ages_15":"15","03_ages_16":"16","03_ages_17":"17","03_ages_18":"18","04":"Yes","04_ages_5":"5","04_ages_6":"6","04_ages_7":"7","04_ages_8":"8","04_ages_9":"9","04_ages_10":"10","04_ages_11":"11","04_ages_12":"12","04_ages_13":"13"},"rt":52492.59999999404,"item_order":[0,1,2,3],"radio_events":[6927.29999999702,17002.39999999106,29088.39999999106,42293.89999999106,44339.29999999702],"checkbox_events":[9545.09999999404,9938.5,10403.5,11049.59999999404,11385.89999999106,11809.79999999702,12174.5,12547.79999999702,12967,13316,19568.69999998808,19969.5,20311.5,20670.5,21583.89999999106,22149.89999999106,22524.89999999106,22886.59999999404,23276.09999999404,23709.39999999106,24410.39999999106,24910.09999999404,25381.69999998808,31448.79999999702,31709.29999999702,31980.5,32297.39999999106,32602.39999999106,32879.89999999106,34138.19999998808,34746.5,35377.5,35804.79999999702,36692.69999998808,36813,37291.59999999404,37672.19999998808,38488.39999999106,41116.39999999106,47930.39999999106,48212.89999999106,48526.29999999702,48883.5,49339.29999999702,49704.29999999702,50115.5,50876.59999999404,51137.79999999702],"key_events":[],"mouse_events":[2479,2754.199999988079,6525.399999991059,6927.29999999702,9545.09999999404,9938.5,10403.5,10767.5,11049.59999999404,11385.89999999106,11809.79999999702,12174.5,12547.79999999702,12967,13316,13784.79999999702,17002.39999999106,19568.69999998808,19969.5,20311.5,20670.5,21083.09999999404,21583.89999999106,21902.5,22149.89999999106,22524.89999999106,22886.59999999404,23276.09999999404,23709.39999999106,24144.39999999106,24410.39999999106,24910.09999999404,25381.69999998808,29088.39999999106,31448.79999999702,31709.29999999702,31980.5,32297.39999999106,32602.39999999106,32879.89999999106,33204.5,33887.19999998808,34138.19999998808,34459.09999999404,34746.5,35104.39999999106,35377.5,35804.79999999702,36159,36692.69999998808,36813,37291.59999999404,37672.19999998808,38208.79999999702,38488.39999999106,38951,40757.69999998808,41116.39999999106,42293.89999999106,44339.29999999702,47930.39999999106,48212.89999999106,48526.29999999702,48883.5,49339.29999999702,49704.29999999702,50115.5,50458.39999999106,50876.59999999404,51137.79999999702,52490.59999999404],"honeypot":0,"survey":"mace","page":8,"trial_type":"survey-mace","trial_index":16,"time_elapsed":500424,"internal_node_id":"0.0-16.0","task_version":"prescreen-v0.3","browser_interactions":0},{"responses":{"01":"Yes","01_ages_1":"1","01_ages_2":"2","01_ages_3":"3","01_ages_4":"4","01_ages_5":"5","01_ages_6":"6","01_ages_7":"7","01_ages_8":"8","01_ages_9":"9","01_ages_10":"10","01_ages_11":"11","01_ages_12":"12","01_ages_13":"13","01_ages_14":"14","01_ages_15":"15","01_ages_16":"16","01_ages_17":"17","01_ages_18":"18","02":"Yes","02_ages_1":"1","02_ages_2":"2","02_ages_3":"3","02_ages_4":"4","02_ages_5":"5","02_ages_6":"6","02_ages_7":"7","02_ages_8":"8","02_ages_9":"9","02_ages_10":"10","02_ages_11":"11","02_ages_12":"12","02_ages_13":"13","02_ages_14":"14","02_ages_15":"15","02_ages_16":"16","02_ages_17":"17","02_ages_18":"18","03":"Yes","03_ages_1":"1","03_ages_2":"2","03_ages_3":"3","03_ages_4":"4","03_ages_5":"5","03_ages_6":"6","03_ages_7":"7","03_ages_8":"8","03_ages_9":"9","03_ages_10":"10","03_ages_11":"11","03_ages_12":"12","03_ages_13":"13","03_ages_14":"14","03_ages_15":"15","03_ages_16":"16","03_ages_17":"17","03_ages_18":"18","04":"Yes","04_ages_1":"1","04_ages_2":"2","04_ages_3":"3","04_ages_4":"4","04_ages_5":"5","04_ages_6":"6","04_ages_7":"7","04_ages_8":"8","04_ages_9":"9","04_ages_10":"10","04_ages_11":"11","04_ages_12":"12","04_ages_13":"13","04_ages_14":"14","04_ages_15":"15","04_ages_16":"16","04_ages_17":"17","04_ages_18":"18"},"rt":50472.80000001192,"item_order":[0,1,2,3],"radio_events":[4256.600000008941,15229.800000011921,27566.5,40405.40000000596],"checkbox_events":[5286.800000011921,5652.100000008941,6125,6364.70000000298,6889.70000000298,7190.70000000298,8050.70000000298,8477.60000000894,9052.10000000894,9537,9856.5,10228.800000011921,10911.60000000894,11263.60000000894,11709.300000011921,12059.300000011921,12423.60000000894,12772.40000000596,16233.20000000298,16593.90000000596,17242.80000001192,17729.80000001192,18471.60000000894,18832.20000000298,19198,19677.40000000596,20115.5,20583.90000000596,20820.30000001192,21165,21621.10000000894,22124.80000001192,23435.60000000894,23841.10000000894,24262.70000000298,24635.60000000894,24991.60000000894,25501.30000001192,29124,29527.80000001192,30231.10000000894,30609.60000000894,31202.60000000894,31535,31909.10000000894,32592.5,33230.90000000596,33655.60000000894,34025.40000000596,34410.10000000894,35148.5,35598,35961.5,36395.5,36858.30000001192,37214.5,41771.30000001192,42595.90000000596,42919.40000000596,43311.40000000596,43664,44059.5,44673.40000000596,45071.40000000596,45621.30000001192,46126,46521.5,46997.40000000596,47357.90000000596,47843.40000000596,48322.40000000596,49031.80000001192,49640.80000001192,50020.5],"key_events":[],"mouse_events":[4256.600000008941,5286.800000011921,5652.100000008941,6125,6364.70000000298,6889.70000000298,7190.70000000298,7585.5,8050.70000000298,8477.60000000894,9052.10000000894,9537,9856.5,10228.800000011921,10533.20000000298,10911.60000000894,11263.60000000894,11709.300000011921,12059.300000011921,12423.60000000894,12772.40000000596,15229.800000011921,16233.20000000298,16593.90000000596,16918.60000000894,17242.80000001192,17729.80000001192,18097.70000000298,18471.60000000894,18832.20000000298,19198,19677.40000000596,20115.5,20583.90000000596,20820.30000001192,21165,21621.10000000894,22124.80000001192,22521.90000000596,22965.90000000596,23217.60000000894,23435.60000000894,23841.10000000894,24262.70000000298,24635.60000000894,24991.60000000894,25501.30000001192,27566.5,28624.30000001192,29124,29527.80000001192,29906.80000001192,30231.10000000894,30609.60000000894,30948.5,31202.60000000894,31535,31909.10000000894,32330.40000000596,32592.5,33230.90000000596,33655.60000000894,34025.40000000596,34410.10000000894,34877.30000001192,35148.5,35598,35961.5,36395.5,36858.30000001192,37214.5,38984.60000000894,40405.40000000596,41771.30000001192,42119.90000000596,42595.90000000596,42919.40000000596,43311.40000000596,43664,44059.5,44426.60000000894,44673.40000000596,45071.40000000596,45621.30000001192,46126,46521.5,46997.40000000596,47357.90000000596,47843.40000000596,48322.40000000596,48720.5,49031.80000001192,49640.80000001192,50020.5,50470.60000000894],"honeypot":0,"survey":"mace","page":9,"trial_type":"survey-mace","trial_index":17,"time_elapsed":550902,"internal_node_id":"0.0-17.0","task_version":"prescreen-v0.3","browser_interactions":0},{"responses":{"01":"No","02":"No","03":"No","04":"Yes","04_ages_10":"10","04_ages_11":"11","04_ages_12":"12","04_ages_13":"13","05":"No","06":"Yes","06_ages_17":"17","07":"Yes","07_ages_1":"1","07_ages_2":"2","07_ages_3":"3","07_ages_4":"4","07_ages_5":"5","07_ages_6":"6","07_ages_7":"7","07_ages_8":"8","07_ages_9":"9","07_ages_10":"10","07_ages_11":"11","07_ages_12":"12","07_ages_13":"13","07_ages_14":"14","07_ages_15":"15","07_ages_16":"16","07_ages_17":"17","07_ages_18":"18","08":"Yes","08_ages_1":"1","08_ages_2":"2","08_ages_3":"3","08_ages_4":"4","08_ages_5":"5","08_ages_6":"6","08_ages_7":"7","08_ages_8":"8","08_ages_9":"9","08_ages_10":"10","08_ages_11":"11","08_ages_12":"12","08_ages_13":"13","08_ages_14":"14","08_ages_15":"15","08_ages_16":"16","08_ages_17":"17","08_ages_18":"18"},"rt":50796.09999999404,"item_order":[0,1,2,3,4,5,6,7],"radio_events":[2430.2999999970198,3566.2999999970198,5633.29999999702,8590.39999999106,16310.39999999106,17990.09999999404,25520.29999999702,40683.39999999106],"checkbox_events":[10204.20000000298,10502.20000000298,10891.79999999702,11383.20000000298,19255.70000000298,27675.59999999404,28002.39999999106,29716.79999999702,30140.70000000298,30466.29999999702,30949.39999999106,31584.29999999702,32247.20000000298,33239.09999999404,33706.39999999106,34093.59999999404,34567.39999999106,35446.09999999404,35856.20000000298,36238.39999999106,36647.29999999702,37017,37547.59999999404,37951.39999999106,39114,41835.70000000298,42293.59999999404,43044.5,43660.29999999702,44018.79999999702,44375.20000000298,44753.79999999702,45123.70000000298,45497.79999999702,46275,47040.89999999106,47542.20000000298,47901.29999999702,48431.20000000298,48818.20000000298,49377.39999999106,49831.79999999702,50269.5],"key_events":[],"mouse_events":[2430.2999999970198,3566.2999999970198,5633.29999999702,8115,8590.39999999106,10204.20000000298,10502.20000000298,10891.79999999702,11383.20000000298,16310.39999999106,17507.39999999106,17990.09999999404,19255.70000000298,25520.29999999702,27017.79999999702,27404,27675.59999999404,28002.39999999106,29716.79999999702,30140.70000000298,30466.29999999702,30949.39999999106,31305.79999999702,31584.29999999702,31980.20000000298,32247.20000000298,32555.79999999702,33004.09999999404,33239.09999999404,33706.39999999106,34093.59999999404,34567.39999999106,35085.59999999404,35446.09999999404,35856.20000000298,36238.39999999106,36647.29999999702,37017,37547.59999999404,37951.39999999106,39114,40186.70000000298,40683.39999999106,41835.70000000298,42293.59999999404,42637.09999999404,43044.5,43660.29999999702,44018.79999999702,44375.20000000298,44753.79999999702,45123.70000000298,45497.79999999702,46275,46717.5,47040.89999999106,47542.20000000298,47901.29999999702,48431.20000000298,48818.20000000298,49377.39999999106,49831.79999999702,50269.5,50789.89999999106],"honeypot":0,"survey":"mace","page":10,"trial_type":"survey-mace","trial_index":18,"time_elapsed":601705,"internal_node_id":"0.0-18.0","task_version":"prescreen-v0.3","browser_interactions":0,"instructed":0},{"rt":4150.5,"trial_type":"mental-health-alert","trial_index":19,"time_elapsed":605861,"internal_node_id":"0.0-19.0","task_version":"prescreen-v0.3","interactions":"[]"}]