[{"view_history":[{"page_index":0,"viewing_time":1782},{"page_index":1,"viewing_time":2964},{"page_index":2,"viewing_time":2545},{"page_index":3,"viewing_time":999}],"rt":8291,"trial_type":"instructions","trial_index":0,"time_elapsed":8293,"internal_node_id":"0.0-0.0","task_version":"prescreen-v0.3"},{"rt":9058,"responses":{"age":"28","gender-categorical":"Female","gender-free-response":"","ethnicity":"Not Hispanic or Latino","race":["Asian"],"education":"Bachelor degree"},"trial_type":"survey-demo","trial_index":1,"time_elapsed":17363,"internal_node_id":"0.0-1.0","task_version":"prescreen-v0.3"},{"responses":{"Q20":"0","Q01":"1","Q02":"0","Q05":"0","Q18":"0","Q13":"0","Q03":"0","Q09":"0","Q15":"2","Q21":"3","Q08":"0","Q07":"0","Q12":"0","Q10":"0","Q06":"1","Q11":"2","Q14":"1","Q16":"0","Q04":"0","Q19":"0","Q17":"0"},"rt":59878,"item_order":[19,0,1,4,17,12,2,8,14,20,7,6,11,9,5,10,13,15,3,18,16],"radio_events":[4739,7879,9045,12082,14246,17467,17917,20994,25014,28503,29970,33847,35418,37591,41770,44535,49517,53847,54663,56408,57407,59095],"key_events":[],"mouse_events":[3443,4739,6230,7879,9045,11258,12082,14246,16205,17467,17917,20994,24320,25014,27655,28503,29970,32563,33847,34553,35418,37591,41770,43814,44535,47581,48841,49517,53847,54663,56408,57407,59095,59878],"straightlining":0.7142857142857143,"zigzagging":0.4,"honeypot":0,"survey":"sns","trial_type":"survey-template","trial_index":2,"time_elapsed":77250,"internal_node_id":"0.0-2.0","task_version":"prescreen-v0.3","browser_interactions":0,"infrequency":0},{"responses":{"Q01":"2","Q12":"2","Q09":"2","Q02":"3","Q13":"0","Q10":"3","Q06":"3","Q11":"3","Q03":"3","Q07":"3","Q05":"3","Q04":"3","Q08":"3"},"rt":31897,"item_order":[0,11,8,1,12,9,5,10,2,6,4,3,7],"radio_events":[2468,4942,7413,11001,11952,16637,17938,21673,25462,25939,28214,29475,31385],"key_events":[],"mouse_events":[2468,4942,7413,9209,11001,11952,15028,16637,17938,21673,23980,25462,25939,28214,29475,31385,31896],"straightlining":0.6923076923076923,"zigzagging":0.25,"honeypot":0,"survey":"bisbas","trial_type":"survey-template","trial_index":3,"time_elapsed":109153,"internal_node_id":"0.0-3.0","task_version":"prescreen-v0.3","browser_interactions":0,"infrequency":0},{"responses":{"Q01":"2","Q02":"2","Q03":"3"},"rt":15264,"radio_events":[4665,8580,14255],"key_events":[],"mouse_events":[4665,8580,13143,13722,14255,14746,15264],"survey":"map","page":1,"trial_type":"survey-map","trial_index":4,"time_elapsed":124422,"internal_node_id":"0.0-4.0","task_version":"prescreen-v0.3","browser_interactions":0},{"responses":{"Q04":"3","Q05":"3","Q06":"3"},"rt":11118,"radio_events":[5867,9094,10354],"key_events":[],"mouse_events":[5202,5867,8229,9094,10354,11118],"survey":"map","page":2,"trial_type":"survey-map","trial_index":5,"time_elapsed":135543,"internal_node_id":"0.0-5.0","task_version":"prescreen-v0.3","browser_interactions":0},{"responses":{"Q07":"4","Q08":"0","Q09":"3"},"rt":9978,"radio_events":[3595,6931,8954,9453],"key_events":[],"mouse_events":[3595,6187,6931,8954,9453,9978],"survey":"map","page":3,"trial_type":"survey-map","trial_index":6,"time_elapsed":145525,"internal_node_id":"0.0-6.0","task_version":"prescreen-v0.3","browser_interactions":0},{"responses":{"Q10":"3","Q11":"1","Q12":"1","Q13":"1","Q16":"0","Q14":"3","Q15":"3"},"rt":27704,"radio_events":[6821,8112,9848,14424,19133,21567,26442,27188],"key_events":[],"mouse_events":[3205,4426,6821,8112,9159,9848,12885,13762,14424,19133,21567,24263,26442,27188,27704],"survey":"map","page":4,"trial_type":"survey-map","trial_index":7,"time_elapsed":173233,"internal_node_id":"0.0-7.0","task_version":"prescreen-v0.3","browser_interactions":0,"infrequency":0},{"view_history":[{"page_index":0,"viewing_time":2263},{"page_index":1,"viewing_time":2712}],"rt":4975,"trial_type":"instructions","trial_index":8,"time_elapsed":178210,"internal_node_id":"0.0-8.0","task_version":"prescreen-v0.3"},{"responses":{"01":"No","02":"Yes","02_ages_14":"14","02_ages_15":"15","02_ages_16":"16","02_ages_17":"17","02_ages_18":"18","03":"No","04":"No","05":"No","06":"Yes","06_ages_13":"13","06_ages_14":"14","06_ages_15":"15"},"rt":41862,"item_order":[0,1,2,3,4,5],"radio_events":[10671,12913,29126,30395,31552,34786],"checkbox_events":[20660,21142,21619,22101,22585,23061,23537,24164,25186,39194,40772,41280],"key_events":[],"mouse_events":[0,10671,12913,20660,21142,21619,22101,22585,23061,23537,24164,25186,29126,30395,31552,34786,39194,39694,40281,40772,41280,41862],"honeypot":0,"survey":"mace","page":1,"trial_type":"survey-mace","trial_index":9,"time_elapsed":220083,"internal_node_id":"0.0-9.0","task_version":"prescreen-v0.3","browser_interactions":0},{"responses":{"01":"Yes","01_ages_11":"11","02":"No","03":"No","04":"No","05":"Yes","05_ages_11":"11","06":"No","07":"No","08":"No"},"rt":30254,"item_order":[0,1,2,3,4,5,6,7],"radio_events":[4856,14125,17493,19562,22843,24597,28893,29820],"checkbox_events":[11008,26420],"key_events":[],"mouse_events":[4856,11008,14125,17493,18643,19562,22843,23891,24597,26420,28051,28893,29820,30254],"honeypot":0,"survey":"mace","page":2,"trial_type":"survey-mace","trial_index":10,"time_elapsed":250345,"internal_node_id":"0.0-10.0","task_version":"prescreen-v0.3","browser_interactions":0},{"responses":{"01":"No","02":"No","03":"No","04":"No"},"rt":14230,"item_order":[0,1,2,3],"radio_events":[5267,11531,12625,13481],"checkbox_events":[],"key_events":[],"mouse_events":[5267,10459,11531,12625,13481,14230],"honeypot":0,"survey":"mace","page":3,"trial_type":"survey-mace","trial_index":11,"time_elapsed":264579,"internal_node_id":"0.0-11.0","task_version":"prescreen-v0.3","browser_interactions":0},{"responses":{"01":"No","02":"No"},"rt":7978,"item_order":[0,1],"radio_events":[2348,5645],"checkbox_events":[],"key_events":[],"mouse_events":[2348,4289,5645,7977],"honeypot":0,"survey":"mace","page":4,"trial_type":"survey-mace","trial_index":12,"time_elapsed":272562,"internal_node_id":"0.0-12.0","task_version":"prescreen-v0.3","browser_interactions":0},{"responses":{"01":"No","02":"No","03":"No","04":"No","05":"No"},"rt":16683,"item_order":[0,1,2,3,4],"radio_events":[8357,10274,11947,13035,15499],"checkbox_events":[],"key_events":[],"mouse_events":[8357,10274,11947,13035,15499,16683],"honeypot":0,"survey":"mace","page":5,"trial_type":"survey-mace","trial_index":13,"time_elapsed":289252,"internal_node_id":"0.0-13.0","task_version":"prescreen-v0.3","browser_interactions":0},{"responses":{"01":"Yes","01_ages_11":"11","02":"Yes","02_ages_11":"11","03":"No","04":"Yes","04_ages_10":"10","04_ages_11":"11","05":"No"},"rt":33090,"item_order":[0,1,2,3,4],"radio_events":[6281,14608,23995,28814,32629],"checkbox_events":[9741,19263,29947,30392],"key_events":[],"mouse_events":[6281,9741,13816,14608,19263,23019,23995,28086,28814,29947,30392,32629,33090],"honeypot":0,"survey":"mace","page":6,"trial_type":"survey-mace","trial_index":14,"time_elapsed":322349,"internal_node_id":"0.0-14.0","task_version":"prescreen-v0.3","browser_interactions":0},{"responses":{"01":"No","02":"Yes","02_ages_9":"9","02_ages_10":"10","03":"No","04":"No","05":"No","06":"No","07":"No"},"rt":18853,"item_order":[0,1,2,3,4,5,6],"radio_events":[3215,7165,12824,14124,15988,17534,18311],"checkbox_events":[9432,10843],"key_events":[],"mouse_events":[3215,7165,8743,9432,10232,10843,12824,14124,15988,17534,18311,18853],"honeypot":0,"survey":"mace","page":7,"trial_type":"survey-mace","trial_index":15,"time_elapsed":341211,"internal_node_id":"0.0-15.0","task_version":"prescreen-v0.3","browser_interactions":0},{"responses":{"01":"No","02":"Yes","02_ages_9":"9","02_ages_10":"10","02_ages_11":"11","02_ages_12":"12","02_ages_13":"13","02_ages_14":"14","02_ages_15":"15","02_ages_16":"16","02_ages_17":"17","02_ages_18":"18","03":"Yes","03_ages_12":"12","03_ages_13":"13","03_ages_14":"14","03_ages_15":"15","03_ages_16":"16","03_ages_17":"17","03_ages_18":"18","04":"No"},"rt":48853,"item_order":[0,1,2,3],"radio_events":[8685,17161,38710,48072],"checkbox_events":[27753,28165,29615,30138,30647,31123,32130,32605,33033,33501,43134,43570,44838,45266,45726,46186,46812],"key_events":[],"mouse_events":[8685,16378,17161,27753,28165,28713,29615,30138,30647,31123,31582,32130,32605,33033,33501,38710,42618,43134,43570,44156,44838,45266,45726,46186,46812,48072,48853],"honeypot":0,"survey":"mace","page":8,"trial_type":"survey-mace","trial_index":16,"time_elapsed":390070,"internal_node_id":"0.0-16.0","task_version":"prescreen-v0.3","browser_interactions":0},{"responses":{"01":"Yes","01_ages_1":"1","01_ages_2":"2","01_ages_3":"3","01_ages_4":"4","01_ages_5":"5","01_ages_6":"6","01_ages_7":"7","01_ages_8":"8","01_ages_9":"9","01_ages_10":"10","01_ages_11":"11","01_ages_12":"12","01_ages_13":"13","01_ages_14":"14","01_ages_15":"15","02":"No","03":"Yes","03_ages_1":"1","03_ages_2":"2","03_ages_3":"3","03_ages_4":"4","03_ages_5":"5","03_ages_6":"6","03_ages_7":"7","03_ages_8":"8","03_ages_9":"9","03_ages_10":"10","03_ages_11":"11","03_ages_12":"12","03_ages_13":"13","03_ages_14":"14","03_ages_15":"15","03_ages_16":"16","03_ages_17":"17","03_ages_18":"18","04":"Yes","04_ages_1":"1","04_ages_2":"2","04_ages_3":"3","04_ages_4":"4","04_ages_5":"5","04_ages_6":"6","04_ages_7":"7","04_ages_8":"8","04_ages_9":"9","04_ages_10":"10","04_ages_11":"11","04_ages_12":"12","04_ages_13":"13","04_ages_14":"14","04_ages_15":"15","04_ages_16":"16","04_ages_17":"17","04_ages_18":"18"},"rt":52277,"item_order":[0,1,2,3],"radio_events":[2401,21642,23933,37299],"checkbox_events":[8846,9266,9727,10187,11724,12184,12660,13152,13651,14158,14769,15355,16322,16799,17274,25272,25717,26146,26597,27572,28024,28475,28920,29316,30251,30696,31647,32051,33018,33414,33844,34287,34795,39590,40010,40478,40946,41422,42500,42951,45496,46512,46956,47463,47930,48406,48890,49397,49881,50855,51815],"key_events":[],"mouse_events":[2401,8846,9266,9727,10187,10638,11162,11724,12184,12660,13152,13651,14158,14769,15355,16322,16799,17274,18313,21642,23933,25272,25717,26146,26597,27033,27572,28024,28475,28920,29316,29807,30251,30696,31163,31647,32051,32495,33018,33414,33844,34287,34795,37299,38560,39046,39590,40010,40478,40946,41422,41968,42500,42951,43372,43967,44229,45037,45496,45988,46512,46956,47463,47930,48406,48890,49397,49881,50348,50855,51292,51815,52277],"honeypot":0,"survey":"mace","page":9,"trial_type":"survey-mace","trial_index":17,"time_elapsed":442354,"internal_node_id":"0.0-17.0","task_version":"prescreen-v0.3","browser_interactions":0},{"responses":{"01":"No","02":"No","03":"Yes","03_ages_11":"11","03_ages_12":"12","03_ages_13":"13","03_ages_14":"14","03_ages_15":"15","03_ages_16":"16","03_ages_17":"17","03_ages_18":"18","04":"Yes","04_ages_1":"1","04_ages_2":"2","04_ages_3":"3","04_ages_4":"4","04_ages_5":"5","04_ages_6":"6","04_ages_7":"7","04_ages_8":"8","04_ages_9":"9","04_ages_10":"10","04_ages_11":"11","04_ages_12":"12","05":"No","06":"Yes","06_ages_17":"17","07":"Yes","07_ages_1":"1","07_ages_2":"2","07_ages_3":"3","07_ages_4":"4","07_ages_5":"5","07_ages_6":"6","07_ages_7":"7","07_ages_8":"8","07_ages_9":"9","07_ages_10":"10","07_ages_11":"11","07_ages_12":"12","07_ages_13":"13","07_ages_14":"14","07_ages_15":"15","07_ages_16":"16","07_ages_17":"17","07_ages_18":"18","08":"Yes","08_ages_1":"1","08_ages_2":"2","08_ages_3":"3","08_ages_4":"4","08_ages_5":"5","08_ages_6":"6","08_ages_7":"7","08_ages_8":"8","08_ages_9":"9","08_ages_10":"10","08_ages_11":"11","08_ages_12":"12","08_ages_13":"13","08_ages_14":"14","08_ages_15":"15","08_ages_16":"16","08_ages_17":"17","08_ages_18":"18"},"rt":66169,"item_order":[0,1,2,3,4,5,6,7],"radio_events":[3556,4484,6284,15742,32747,35427,39058,46225],"checkbox_events":[9939,10454,10913,11366,11833,12301,12753,13236,18636,19095,19563,20538,21703,22663,23170,23669,24193,24701,25232,25763,36513,40842,41745,42808,44005,45511,47225,47629,48088,49119,49538,50015,50498,50959,51426,51894,52386,52885,53352,54209,54748,56666,57110,57523,57959,58411,58862,59878,60274,60766,61249,61701,62177,63104,63540,64000,64444,64913,65364],"key_events":[],"mouse_events":[2804,3556,4484,6284,9939,10454,10913,11366,11833,12301,12753,13236,14996,15742,18636,19095,19563,20062,20538,21006,21703,22163,22663,23170,23669,24193,24701,25232,25763,28751,32747,35427,36513,38408,39058,40842,41269,41745,42205,42808,43490,44005,44734,45511,46225,46701,47225,47629,48088,48587,49119,49538,50015,50498,50959,51426,51894,52386,52885,53352,54209,54748,56666,57110,57523,57959,58411,58862,59275,59878,60274,60766,61249,61701,62177,62637,63104,63540,64000,64444,64913,65364,66169],"honeypot":0,"survey":"mace","page":10,"trial_type":"survey-mace","trial_index":18,"time_elapsed":508532,"internal_node_id":"0.0-18.0","task_version":"prescreen-v0.3","browser_interactions":0,"instructed":0},{"rt":3926,"trial_type":"mental-health-alert","trial_index":19,"time_elapsed":512460,"internal_node_id":"0.0-19.0","task_version":"prescreen-v0.3","interactions":"[{\"event\":\"focus\",\"trial\":0,\"time\":1}]"}]