[{"view_history":[{"page_index":0,"viewing_time":4636},{"page_index":1,"viewing_time":4103.5},{"page_index":2,"viewing_time":5823.899999976158},{"page_index":3,"viewing_time":2504.2000000476837}],"rt":17068.299999952316,"trial_type":"instructions","trial_index":0,"time_elapsed":17082,"internal_node_id":"0.0-0.0","task_version":"prescreen-v0.3"},{"rt":23699.600000023842,"responses":{"age":"51","gender-categorical":"Male","gender-free-response":"","ethnicity":"Not Hispanic or Latino","race":["White"],"education":"Bachelor degree","siblings":"0"},"trial_type":"survey-demo","trial_index":1,"time_elapsed":40787,"internal_node_id":"0.0-1.0","task_version":"prescreen-v0.3"},{"responses":{"Q11":"0","Q16":"2","Q17":"1","Q09":"1","Q18":"2","Q20":"2","Q04":"2","Q19":"2","Q13":"2","Q06":"1","Q05":"2","Q03":"2","Q15":"2","Q12":"1","Q07":"1","Q01":"2","Q21":"3","Q14":"2","Q02":"1","Q10":"0","Q08":"2"},"rt":150345,"item_order":[10,15,16,8,17,19,3,18,12,5,4,2,14,11,6,0,20,13,1,9,7],"radio_events":[12295.899999976158,20439.699999928474,25151.699999928474,28399.699999928474,36503.5,41991.5,54103.39999997616,59695.39999997616,61775.39999997616,67959.39999997616,78671.19999992847,83391.39999997616,90383.09999990463,94167.09999990463,103767.09999990463,118830.79999995232,121734.89999997616,129310.89999997616,133806.79999995232,137526.79999995232,144607,149078.69999992847],"key_events":[],"mouse_events":[12295.899999976158,20439.699999928474,25151.699999928474,28399.699999928474,36503.5,41991.5,54103.39999997616,59695.39999997616,61775.39999997616,67959.39999997616,78671.19999992847,83391.39999997616,90383.09999990463,94167.09999990463,102183.09999990463,103767.09999990463,118830.79999995232,121734.89999997616,128543.09999990463,129310.89999997616,133806.79999995232,137526.79999995232,144607,149078.69999992847,150342.69999992847],"straightlining":0.5714285714285714,"zigzagging":0.5,"honeypot":0,"survey":"sns","trial_type":"survey-template","trial_index":2,"time_elapsed":191140,"internal_node_id":"0.0-2.0","task_version":"prescreen-v0.3","browser_interactions":0,"infrequency":0},{"responses":{"Q08":"1","Q11":"2","Q05":"2","Q12":"1","Q02":"2","Q04":"3","Q09":"1","Q03":"2","Q07":"2","Q13":"0","Q10":"1","Q01":"2","Q06":"2"},"rt":77863.39999997616,"item_order":[7,10,4,11,1,3,8,2,6,12,9,0,5],"radio_events":[10382.699999928474,15982.599999904633,21438.699999928474,25094.699999928474,34798.5,45486.59999990463,48534.299999952316,53310.299999952316,55959.09999990463,58174.299999952316,62326.199999928474,63894.39999997616,66494.29999995232,73806.29999995232,76990.19999992847],"key_events":[],"mouse_events":[9278.599999904633,10382.699999928474,15982.599999904633,21438.699999928474,25094.699999928474,34262.59999990463,34798.5,45486.59999990463,48534.299999952316,53310.299999952316,55959.09999990463,58174.299999952316,62326.199999928474,63894.39999997616,66494.29999995232,73806.29999995232,75262.69999992847,76374.29999995232,76990.19999992847,77862.29999995232],"straightlining":0.5384615384615384,"zigzagging":0.5833333333333334,"honeypot":0,"survey":"bisbas","trial_type":"survey-template","trial_index":3,"time_elapsed":269010,"internal_node_id":"0.0-3.0","task_version":"prescreen-v0.3","browser_interactions":0,"infrequency":0},{"responses":{"Q01":"2","Q02":"1","Q03":"2"},"rt":16873.899999976158,"radio_events":[7641.299999952316,12217.399999976158,15393.700000047684],"key_events":[],"mouse_events":[7641.299999952316,11401.299999952316,12217.399999976158,15393.700000047684,16873.299999952316],"survey":"map","page":1,"trial_type":"survey-map","trial_index":4,"time_elapsed":285889,"internal_node_id":"0.0-4.0","task_version":"prescreen-v0.3","browser_interactions":0},{"responses":{"Q04":"2","Q05":"1","Q06":"2"},"rt":14051.799999952316,"radio_events":[6618.700000047684,10666.700000047684,13066.600000023842],"key_events":[],"mouse_events":[6618.700000047684,10666.700000047684,13066.600000023842,14051.200000047684],"survey":"map","page":2,"trial_type":"survey-map","trial_index":5,"time_elapsed":299945,"internal_node_id":"0.0-5.0","task_version":"prescreen-v0.3","browser_interactions":0},{"responses":{"Q07":"3","Q08":"3","Q09":"1"},"rt":17995.600000023842,"radio_events":[6506.600000023842,11394.5,14402.600000023842],"key_events":[],"mouse_events":[6506.600000023842,11394.5,14402.600000023842,17995.100000023842],"survey":"map","page":3,"trial_type":"survey-map","trial_index":6,"time_elapsed":317945,"internal_node_id":"0.0-6.0","task_version":"prescreen-v0.3","browser_interactions":0},{"responses":{"Q10":"1","Q11":"1","Q12":"1","Q13":"1","Q16":"0","Q14":"1","Q15":"2"},"rt":35979.40000009537,"radio_events":[5986.100000023842,8762.300000071526,12570.100000023842,16122.200000047684,23265.900000095367,29538.100000023842,34673.90000009537],"key_events":[],"mouse_events":[5290,5986.100000023842,8762.300000071526,12570.100000023842,16122.200000047684,23265.900000095367,29538.100000023842,34673.90000009537,35978.300000071526],"survey":"map","page":4,"trial_type":"survey-map","trial_index":7,"time_elapsed":353929,"internal_node_id":"0.0-7.0","task_version":"prescreen-v0.3","browser_interactions":0,"infrequency":0},{"view_history":[{"page_index":0,"viewing_time":5674.399999976158},{"page_index":1,"viewing_time":3632.2000000476837}],"rt":9307.399999976158,"trial_type":"instructions","trial_index":8,"time_elapsed":363240,"internal_node_id":"0.0-8.0","task_version":"prescreen-v0.3"},{"responses":{"01":"No","02":"No","03":"No","04":"No","05":"No","06":"No"},"rt":22971.299999952316,"item_order":[0,1,2,3,4,5],"radio_events":[10202.099999904633,13450,15929.5,17785.599999904633,19521.5,21569.5],"checkbox_events":[],"key_events":[],"mouse_events":[17.59999990463257,10202.099999904633,13450,15929.5,17785.599999904633,19521.5,21569.5,22968.699999928474],"honeypot":0,"survey":"mace","page":1,"trial_type":"survey-mace","trial_index":9,"time_elapsed":386219,"internal_node_id":"0.0-9.0","task_version":"prescreen-v0.3","browser_interactions":0},{"responses":{"01":"No","02":"No","03":"Yes","03_ages_5":"5","03_ages_6":"6","03_ages_7":"7","04":"Yes","04_ages_5":"5","04_ages_6":"6","04_ages_7":"7","05":"Yes","05_ages_6":"6","05_ages_7":"7","06":"No","07":"No","08":"No"},"rt":56801.59999990463,"item_order":[0,1,2,3,4,5,6,7],"radio_events":[3719.6999999284744,5239.599999904633,18319.899999976158,29801.5,46079.59999990463,52607.39999997616,53767.199999928474,54975.199999928474],"checkbox_events":[25734.599999904633,26406.399999976158,27086.299999952316,35286.199999928474,35950.199999928474,36798.699999928474,49678.5,50462.199999928474],"key_events":[],"mouse_events":[3719.6999999284744,5239.599999904633,18319.899999976158,25734.599999904633,26406.399999976158,27086.299999952316,29801.5,34702.299999952316,35286.199999928474,35950.199999928474,36798.699999928474,46079.59999990463,49070.799999952316,49678.5,50462.199999928474,52607.39999997616,53767.199999928474,54975.199999928474,56798.299999952316],"honeypot":0,"survey":"mace","page":2,"trial_type":"survey-mace","trial_index":10,"time_elapsed":443028,"internal_node_id":"0.0-10.0","task_version":"prescreen-v0.3","browser_interactions":0},{"responses":{"01":"No","02":"No","03":"No","04":"No"},"rt":10784.399999976158,"item_order":[0,1,2,3],"radio_events":[2535.2000000476837,6767.100000023842,8591.100000023842,9719.100000023842],"checkbox_events":[],"key_events":[],"mouse_events":[2535.2000000476837,6767.100000023842,8591.100000023842,9719.100000023842,10782.700000047684],"honeypot":0,"survey":"mace","page":3,"trial_type":"survey-mace","trial_index":11,"time_elapsed":453818,"internal_node_id":"0.0-11.0","task_version":"prescreen-v0.3","browser_interactions":0},{"responses":{"01":"No","02":"No"},"rt":4753.700000047684,"item_order":[0,1],"radio_events":[2505.7000000476837,3922.2000000476837],"checkbox_events":[],"key_events":[],"mouse_events":[2505.7000000476837,3922.2000000476837,4752.800000071526],"honeypot":0,"survey":"mace","page":4,"trial_type":"survey-mace","trial_index":12,"time_elapsed":458576,"internal_node_id":"0.0-12.0","task_version":"prescreen-v0.3","browser_interactions":0},{"responses":{"01":"No","02":"No","03":"No","04":"No","05":"No"},"rt":27140.100000023842,"item_order":[0,1,2,3,4],"radio_events":[16330.799999952316,17322.600000023842,19259,20250.799999952316,23482.799999952316],"checkbox_events":[],"key_events":[],"mouse_events":[16330.799999952316,17322.600000023842,19259,20250.799999952316,23482.799999952316,27137.899999976158],"honeypot":0,"survey":"mace","page":5,"trial_type":"survey-mace","trial_index":13,"time_elapsed":485721,"internal_node_id":"0.0-13.0","task_version":"prescreen-v0.3","browser_interactions":0},{"responses":{"01":"No","02":"Yes","02_ages_8":"8","02_ages_9":"9","02_ages_10":"10","02_ages_11":"11","03":"Yes","03_ages_8":"8","03_ages_9":"9","03_ages_10":"10","03_ages_11":"11","04":"Yes","04_ages_8":"8","04_ages_9":"9","04_ages_10":"10","04_ages_11":"11","05":"Yes","05_ages_8":"8","05_ages_9":"9","05_ages_10":"10","05_ages_11":"11","05_ages_12":"12","05_ages_13":"13"},"rt":57178.39999997616,"item_order":[0,1,2,3,4],"radio_events":[13913.100000023842,15849.600000023842,28977.5,35249.5,42489.5],"checkbox_events":[22080.799999952316,23096,24153.199999928474,25856.399999976158,30256.199999928474,30816.799999952316,32288,32848.10000002384,36784.199999928474,37704.10000002384,38392.199999928474,39088.10000002384,43976,44512,45039.89999997616,45816.10000002384,47904,49832.299999952316],"key_events":[],"mouse_events":[13913.100000023842,15312.100000023842,15849.600000023842,22080.799999952316,23096,24153.199999928474,25856.399999976158,28977.5,30256.199999928474,30816.799999952316,31329.5,32288,32848.10000002384,35249.5,36784.199999928474,37704.10000002384,38392.199999928474,39088.10000002384,41696.199999928474,42489.5,43976,44512,45039.89999997616,45816.10000002384,47904,49832.299999952316,57176.199999928474],"honeypot":0,"survey":"mace","page":6,"trial_type":"survey-mace","trial_index":14,"time_elapsed":542905,"internal_node_id":"0.0-14.0","task_version":"prescreen-v0.3","browser_interactions":0},{"responses":{"01":"Yes","01_ages_11":"11","01_ages_12":"12","01_ages_13":"13","02":"No","03":"Yes","03_ages_8":"8","03_ages_9":"9","03_ages_10":"10","03_ages_11":"11","03_ages_12":"12","03_ages_13":"13","04":"Yes","04_ages_8":"8","04_ages_9":"9","04_ages_10":"10","04_ages_11":"11","04_ages_12":"12","04_ages_13":"13","05":"Yes","05_ages_13":"13","06":"No","07":"No"},"rt":50546.800000071526,"item_order":[0,1,2,3,4,5,6],"radio_events":[4193.600000023842,17000.800000071526,19097,32769.800000071526,44257.300000071526,47632.39999997616,49496.300000071526],"checkbox_events":[7071.399999976158,7967.899999976158,9655.5,21335.5,22015.5,22959.700000047684,26687.300000071526,27879.5,28656,34399.5,35375.60000002384,37799.5,38799.5,39567.39999997616,40239.39999997616,45447.39999997616],"key_events":[],"mouse_events":[4193.600000023842,7071.399999976158,7967.899999976158,9655.5,17000.800000071526,19097,21335.5,22015.5,22959.700000047684,26687.300000071526,27879.5,28656,32769.800000071526,34399.5,35375.60000002384,37799.5,38799.5,39567.39999997616,40239.39999997616,44257.300000071526,45447.39999997616,47632.39999997616,49496.300000071526,50543.700000047684],"honeypot":0,"survey":"mace","page":7,"trial_type":"survey-mace","trial_index":15,"time_elapsed":593458,"internal_node_id":"0.0-15.0","task_version":"prescreen-v0.3","browser_interactions":0},{"responses":{"01":"No","02":"No","03":"No","04":"No"},"rt":16192.799999952316,"item_order":[0,1,2,3],"radio_events":[6815.799999952316,10671.699999928474,13383.699999928474,15039.699999928474],"checkbox_events":[],"key_events":[],"mouse_events":[6815.799999952316,10671.699999928474,13383.699999928474,15039.699999928474,16190.799999952316],"honeypot":0,"survey":"mace","page":8,"trial_type":"survey-mace","trial_index":16,"time_elapsed":609656,"internal_node_id":"0.0-16.0","task_version":"prescreen-v0.3","browser_interactions":0},{"responses":{"01":"Yes","01_ages_1":"1","01_ages_2":"2","01_ages_3":"3","01_ages_4":"4","01_ages_5":"5","01_ages_6":"6","01_ages_7":"7","01_ages_8":"8","01_ages_9":"9","01_ages_10":"10","01_ages_11":"11","01_ages_12":"12","01_ages_13":"13","01_ages_14":"14","01_ages_15":"15","01_ages_16":"16","01_ages_17":"17","01_ages_18":"18","02":"Yes","02_ages_4":"4","02_ages_5":"5","02_ages_6":"6","02_ages_7":"7","02_ages_8":"8","02_ages_9":"9","02_ages_10":"10","02_ages_11":"11","02_ages_12":"12","02_ages_13":"13","02_ages_14":"14","02_ages_15":"15","02_ages_16":"16","02_ages_17":"17","02_ages_18":"18","03":"Yes","03_ages_1":"1","03_ages_2":"2","03_ages_3":"3","03_ages_4":"4","03_ages_5":"5","03_ages_6":"6","03_ages_7":"7","03_ages_8":"8","03_ages_9":"9","03_ages_10":"10","03_ages_11":"11","03_ages_12":"12","03_ages_13":"13","03_ages_14":"14","03_ages_15":"15","03_ages_16":"16","03_ages_17":"17","03_ages_18":"18","04":"Yes","04_ages_1":"1","04_ages_2":"2","04_ages_3":"3","04_ages_4":"4","04_ages_5":"5","04_ages_6":"6","04_ages_7":"7","04_ages_8":"8","04_ages_9":"9","04_ages_10":"10","04_ages_11":"11","04_ages_12":"12","04_ages_13":"13","04_ages_14":"14","04_ages_15":"15","04_ages_16":"16","04_ages_17":"17","04_ages_18":"18"},"rt":200361.89999997616,"item_order":[0,1,2,3],"radio_events":[6050.299999952316,24466.200000047684,97721.70000004768,179257.29999995232],"checkbox_events":[10769.100000023842,11345.200000047684,12121.100000023842,12745.200000047684,13689,14336.700000047684,15105.100000023842,15729.100000023842,16305.799999952316,16985.299999952316,17505,18072.899999976158,18585,19137.100000023842,20352.899999976158,20920.899999976158,21568.899999976158,22225,27072.899999976158,27656.899999976158,28145,28729,29345.100000023842,29856.899999976158,30961,31576.799999952316,32128.700000047684,32689,34424.89999997616,35056.799999952316,36161,36848.799999952316,37648.799999952316,102824.70000004768,103272.39999997616,104808.29999995232,105416.5,106096.39999997616,106744.60000002384,107400.29999995232,107920.29999995232,108584.60000002384,109256.29999995232,109808.29999995232,110384.29999995232,112952.20000004768,116760.5,117544.29999995232,180551.79999995232,181207.79999995232,181855.79999995232,182368,183047.79999995232,183735.79999995232,184183.89999997616,185407.89999997616,185839.89999997616,186343.79999995232,186823.89999997616,187344.5,187815.70000004768,188959.79999995232,189847.79999995232,190424.5,191015.79999995232,191631.79999995232,193703.79999995232,195152.10000002384,195839.70000004768],"key_events":[],"mouse_events":[6050.299999952316,10769.100000023842,11345.200000047684,12121.100000023842,12745.200000047684,13689,14336.700000047684,15105.100000023842,15729.100000023842,16305.799999952316,16985.299999952316,17505,18072.899999976158,18585,19137.100000023842,19722.299999952316,20352.899999976158,20920.899999976158,21568.899999976158,22225,24466.200000047684,26049.100000023842,27072.899999976158,27656.899999976158,28145,28729,29345.100000023842,29856.899999976158,30480.899999976158,30961,31576.799999952316,32128.700000047684,32689,33312.89999997616,34424.89999997616,35056.799999952316,36161,36848.799999952316,37648.799999952316,97721.70000004768,102824.70000004768,103272.39999997616,104025.10000002384,104808.29999995232,105416.5,106096.39999997616,106744.60000002384,107400.29999995232,107920.29999995232,108584.60000002384,109256.29999995232,109808.29999995232,110384.29999995232,112952.20000004768,116760.5,117544.29999995232,179257.29999995232,180551.79999995232,181207.79999995232,181855.79999995232,182368,183047.79999995232,183735.79999995232,184183.89999997616,184623.70000004768,185407.89999997616,185839.89999997616,186343.79999995232,186823.89999997616,187344.5,187815.70000004768,188344.70000004768,188959.79999995232,189383.60000002384,189847.79999995232,190424.5,191015.79999995232,191631.79999995232,193703.79999995232,194151.79999995232,195152.10000002384,195839.70000004768,200360.20000004768],"honeypot":0,"survey":"mace","page":9,"trial_type":"survey-mace","trial_index":17,"time_elapsed":810023,"internal_node_id":"0.0-17.0","task_version":"prescreen-v0.3","browser_interactions":0},{"responses":{"01":"No","02":"No","03":"Yes","03_ages_11":"11","03_ages_12":"12","03_ages_13":"13","03_ages_14":"14","03_ages_15":"15","03_ages_16":"16","03_ages_17":"17","03_ages_18":"18","04":"No","05":"No","06":"Yes","06_ages_17":"17","07":"Yes","07_ages_1":"1","07_ages_2":"2","07_ages_3":"3","07_ages_4":"4","07_ages_5":"5","07_ages_6":"6","07_ages_7":"7","07_ages_8":"8","07_ages_9":"9","07_ages_10":"10","07_ages_11":"11","07_ages_12":"12","07_ages_13":"13","07_ages_14":"14","07_ages_15":"15","07_ages_16":"16","07_ages_17":"17","07_ages_18":"18","08":"Yes","08_ages_1":"1","08_ages_2":"2","08_ages_3":"3","08_ages_4":"4","08_ages_5":"5","08_ages_6":"6","08_ages_7":"7","08_ages_8":"8","08_ages_9":"9","08_ages_10":"10","08_ages_11":"11","08_ages_12":"12","08_ages_13":"13","08_ages_14":"14","08_ages_15":"15","08_ages_16":"16","08_ages_17":"17","08_ages_18":"18"},"rt":81587.5,"item_order":[0,1,2,3,4,5,6,7],"radio_events":[3793.899999976158,6160.799999952316,10737.5,28656.799999952316,34016.299999952316,35961.39999997616,44337.299999952316,66488.89999997616],"checkbox_events":[13063.899999976158,13671.899999976158,14143.700000047684,15687.799999952316,17095.600000023842,17695.799999952316,18311.600000023842,18919.700000047684,37559.60000002384,47231.5,48583.799999952316,49079.39999997616,50159.5,53367.200000047684,53903.39999997616,55511.299999952316,56104,57575.299999952316,58167.39999997616,58791.39999997616,59711.60000002384,60375.299999952316,61031.60000002384,61631.60000002384,62191.299999952316,63287.299999952316,63863.299999952316,68063.29999995232,68639.39999997616,69262.89999997616,69959.29999995232,70639.29999995232,71351.29999995232,71935.20000004768,72647.10000002384,73407.20000004768,74679.70000004768,75215.10000002384,75839.20000004768,76415.60000002384,77119.29999995232,77735.20000004768,78375.20000004768,79679.20000004768,80295.10000002384],"key_events":[],"mouse_events":[3793.899999976158,6160.799999952316,10737.5,13063.899999976158,13671.899999976158,14143.700000047684,15039.799999952316,15687.799999952316,16359.799999952316,17095.600000023842,17695.799999952316,18311.600000023842,18919.700000047684,28656.799999952316,34016.299999952316,35961.39999997616,37559.60000002384,44337.299999952316,46567.299999952316,47231.5,47663.39999997616,48583.799999952316,49079.39999997616,49607.299999952316,50159.5,52591.39999997616,53367.200000047684,53903.39999997616,54599.5,55511.299999952316,56104,56991.39999997616,57575.299999952316,58167.39999997616,58791.39999997616,59711.60000002384,60375.299999952316,61031.60000002384,61631.60000002384,62191.299999952316,62751.39999997616,63287.299999952316,63863.299999952316,66488.89999997616,68063.29999995232,68639.39999997616,69262.89999997616,69959.29999995232,70639.29999995232,71351.29999995232,71935.20000004768,72647.10000002384,73407.20000004768,74063.29999995232,74679.70000004768,75215.10000002384,75839.20000004768,76415.60000002384,77119.29999995232,77735.20000004768,78375.20000004768,79679.20000004768,80295.10000002384,81583.60000002384],"honeypot":0,"survey":"mace","page":10,"trial_type":"survey-mace","trial_index":18,"time_elapsed":891617,"internal_node_id":"0.0-18.0","task_version":"prescreen-v0.3","browser_interactions":0,"instructed":0},{"rt":7470.799999952316,"trial_type":"mental-health-alert","trial_index":19,"time_elapsed":899092,"internal_node_id":"0.0-19.0","task_version":"prescreen-v0.3","interactions":"[]"}]