[{"view_history":[{"page_index":0,"viewing_time":3511.7999999998137},{"page_index":1,"viewing_time":4791.5},{"page_index":2,"viewing_time":2477.8000000002794},{"page_index":3,"viewing_time":1351.7999999998137}],"rt":12138.899999999907,"trial_type":"instructions","trial_index":0,"time_elapsed":12149,"internal_node_id":"0.0-0.0","task_version":"prescreen-v0.3"},{"rt":18666.69999999972,"responses":{"age":"18","gender-categorical":"Female","gender-free-response":"","ethnicity":"Not Hispanic or Latino","race":["White"],"education":"High school"},"trial_type":"survey-demo","trial_index":1,"time_elapsed":30846,"internal_node_id":"0.0-1.0","task_version":"prescreen-v0.3"},{"responses":{"Q09":"1","Q02":"1","Q06":"0","Q18":"1","Q07":"0","Q10":"1","Q13":"0","Q15":"0","Q17":"1","Q21":"3","Q14":"1","Q01":"1","Q20":"0","Q11":"1","Q03":"1","Q16":"0","Q08":"2","Q04":"2","Q12":"1","Q05":"1","Q19":"0"},"rt":125526.5,"item_order":[8,1,5,17,6,9,12,14,16,20,13,0,19,10,2,15,7,3,11,4,18],"radio_events":[5583.799999999814,10079.599999999627,15076.399999999907,22344.399999999907,31602.5,34816.09999999963,37341.89999999991,43781.5,48564.19999999972,53263.799999999814,55756.69999999972,73278.8999999999,76241.29999999981,78802.5,82134.19999999972,86876.69999999972,94937,97553.3999999999,104993.19999999972,110688.29999999981,120933,124365],"key_events":[],"mouse_events":[5583.799999999814,10079.599999999627,15076.399999999907,22344.399999999907,31602.5,34816.09999999963,37341.89999999991,43781.5,48564.19999999972,53263.799999999814,55756.69999999972,73278.8999999999,76241.29999999981,78802.5,82134.19999999972,86876.69999999972,92516.09999999963,94937,97553.3999999999,104993.19999999972,110688.29999999981,120933,124365,125502.29999999981],"straightlining":0.5238095238095238,"zigzagging":0.55,"honeypot":0,"survey":"sns","trial_type":"survey-template","trial_index":2,"time_elapsed":156405,"internal_node_id":"0.0-2.0","task_version":"prescreen-v0.3","browser_interactions":0,"infrequency":0},{"responses":{"Q01":"3","Q02":"3","Q12":"2","Q04":"3","Q10":"3","Q08":"2","Q06":"3","Q03":"3","Q07":"3","Q11":"2","Q13":"0","Q05":"2","Q09":"3"},"rt":430840.4000000004,"item_order":[0,1,11,3,9,7,5,2,6,10,12,4,8],"radio_events":[6027.100000000093,8061.200000000186,12106.400000000373,36983,40139.10000000009,61164.200000000186,65319.200000000186,413712.6000000001,415427.2000000002,419019.3000000003,422223.6000000001,425541.9000000004,427957,430143],"key_events":[],"mouse_events":[6027.100000000093,8061.200000000186,12106.400000000373,36983,40139.10000000009,61164.200000000186,65319.200000000186,190673.2000000002,413712.6000000001,415427.2000000002,419019.3000000003,422223.6000000001,425541.9000000004,427957,430143,430823.7000000002],"straightlining":0.6153846153846154,"zigzagging":0.5,"honeypot":0,"survey":"bisbas","trial_type":"survey-template","trial_index":3,"time_elapsed":587265,"internal_node_id":"0.0-3.0","task_version":"prescreen-v0.3","browser_interactions":0,"infrequency":0},{"responses":{"Q01":"2","Q02":"2","Q03":"2"},"rt":105464.8999999999,"radio_events":[9947.899999999907,101014.19999999972,104675.59999999963],"key_events":[],"mouse_events":[9947.899999999907,101014.19999999972,104675.59999999963,105457.3999999999],"survey":"map","page":1,"trial_type":"survey-map","trial_index":4,"time_elapsed":692750,"internal_node_id":"0.0-4.0","task_version":"prescreen-v0.3","browser_interactions":0},{"responses":{"Q04":"3","Q05":"3","Q06":"2"},"rt":16931.399999999907,"radio_events":[3949.2999999998137,8574.299999999814,9633.299999999814,12632,15516.799999999814],"key_events":[],"mouse_events":[3949.2999999998137,8574.299999999814,9633.299999999814,12632,14746,15516.799999999814,16923],"survey":"map","page":2,"trial_type":"survey-map","trial_index":5,"time_elapsed":709696,"internal_node_id":"0.0-5.0","task_version":"prescreen-v0.3","browser_interactions":0},{"responses":{"Q07":"4","Q08":"0","Q09":"3"},"rt":19799.799999999814,"radio_events":[10479.69999999972,14555.19999999972,18936],"key_events":[],"mouse_events":[10479.69999999972,14555.19999999972,18936,19790.899999999907],"survey":"map","page":3,"trial_type":"survey-map","trial_index":6,"time_elapsed":729513,"internal_node_id":"0.0-6.0","task_version":"prescreen-v0.3","browser_interactions":0},{"responses":{"Q10":"1","Q11":"1","Q12":"2","Q13":"2","Q16":"0","Q14":"2","Q15":"3"},"rt":41957.10000000009,"radio_events":[4482.899999999907,8003.5,12599,25338.69999999972,30999.399999999907,36884.10000000009,41090.19999999972],"key_events":[],"mouse_events":[4482.899999999907,8003.5,12599,25338.69999999972,30999.399999999907,36884.10000000009,41090.19999999972,41948.60000000009],"survey":"map","page":4,"trial_type":"survey-map","trial_index":7,"time_elapsed":771489,"internal_node_id":"0.0-7.0","task_version":"prescreen-v0.3","browser_interactions":0,"infrequency":0},{"view_history":[{"page_index":0,"viewing_time":2977.600000000093},{"page_index":1,"viewing_time":3863.399999999907}],"rt":6852.299999999814,"trial_type":"instructions","trial_index":8,"time_elapsed":778349,"internal_node_id":"0.0-8.0","task_version":"prescreen-v0.3"},{"responses":{"01":"No","02":"No","03":"No","04":"No","05":"No","06":"No"},"rt":20222.700000000186,"item_order":[0,1,2,3,4,5],"radio_events":[6053.200000000186,9077.5,11317.5,12929.600000000093,14054.200000000186,15359.399999999907],"checkbox_events":[],"key_events":[],"mouse_events":[0.39999999990686774,6053.200000000186,9077.5,11317.5,12929.600000000093,14054.200000000186,15359.399999999907,20185],"honeypot":0,"survey":"mace","page":1,"trial_type":"survey-mace","trial_index":9,"time_elapsed":798615,"internal_node_id":"0.0-9.0","task_version":"prescreen-v0.3","browser_interactions":0},{"responses":{"01":"No","02":"No","03":"Yes","03_ages_5":"5","04":"No","05":"No","06":"No","07":"No","08":"No"},"rt":37230,"item_order":[0,1,2,3,4,5,6,7],"radio_events":[6731.800000000279,9423.100000000093,13090.5,20430,23193,24399,34429,36266.80000000028],"checkbox_events":[16033.100000000093],"key_events":[],"mouse_events":[6731.800000000279,9423.100000000093,13090.5,16033.100000000093,20430,23193,24399,34429,36266.80000000028,37190.10000000009],"honeypot":0,"survey":"mace","page":2,"trial_type":"survey-mace","trial_index":10,"time_elapsed":835864,"internal_node_id":"0.0-10.0","task_version":"prescreen-v0.3","browser_interactions":0},{"responses":{"01":"No","02":"No","03":"No","04":"No"},"rt":9471.5,"item_order":[0,1,2,3],"radio_events":[5057,6194.399999999907,7793.299999999814,8655.899999999907],"checkbox_events":[],"key_events":[],"mouse_events":[5057,6194.399999999907,7793.299999999814,8655.899999999907,9444.700000000186],"honeypot":0,"survey":"mace","page":3,"trial_type":"survey-mace","trial_index":11,"time_elapsed":845350,"internal_node_id":"0.0-11.0","task_version":"prescreen-v0.3","browser_interactions":0},{"responses":{"01":"No","02":"No"},"rt":5513,"item_order":[0,1],"radio_events":[3477.3000000002794,4671.100000000093],"checkbox_events":[],"key_events":[],"mouse_events":[3477.3000000002794,4671.100000000093,5495.5],"honeypot":0,"survey":"mace","page":4,"trial_type":"survey-mace","trial_index":12,"time_elapsed":850879,"internal_node_id":"0.0-12.0","task_version":"prescreen-v0.3","browser_interactions":0},{"responses":{"01":"No","02":"No","03":"No","04":"No","05":"No"},"rt":13882.80000000028,"item_order":[0,1,2,3,4],"radio_events":[3533.100000000093,8618.80000000028,10465.80000000028,11816.400000000373,12989.700000000186],"checkbox_events":[],"key_events":[],"mouse_events":[3533.100000000093,8618.80000000028,10465.80000000028,11816.400000000373,12989.700000000186,13859.80000000028],"honeypot":0,"survey":"mace","page":5,"trial_type":"survey-mace","trial_index":13,"time_elapsed":864785,"internal_node_id":"0.0-13.0","task_version":"prescreen-v0.3","browser_interactions":0},{"responses":{"01":"No","02":"No","03":"No","04":"No","05":"No"},"rt":17433.200000000186,"item_order":[0,1,2,3,4],"radio_events":[7487.299999999814,9507.399999999907,11760.600000000093,14273.399999999907,16256],"checkbox_events":[],"key_events":[],"mouse_events":[7487.299999999814,9507.399999999907,11760.600000000093,14273.399999999907,16256,17403.600000000093],"honeypot":0,"survey":"mace","page":6,"trial_type":"survey-mace","trial_index":14,"time_elapsed":882234,"internal_node_id":"0.0-14.0","task_version":"prescreen-v0.3","browser_interactions":0},{"responses":{"01":"No","02":"No","03":"No","04":"No","05":"No","06":"No","07":"No"},"rt":15652,"item_order":[0,1,2,3,4,5,6],"radio_events":[3674.1999999997206,5142.100000000093,6734.399999999907,8599.69999999972,10080.100000000093,13093.600000000093,13937.399999999907],"checkbox_events":[],"key_events":[],"mouse_events":[3674.1999999997206,5142.100000000093,6734.399999999907,8599.69999999972,10080.100000000093,11091.600000000093,12790.799999999814,13093.600000000093,13937.399999999907,15614.399999999907],"honeypot":0,"survey":"mace","page":7,"trial_type":"survey-mace","trial_index":15,"time_elapsed":897908,"internal_node_id":"0.0-15.0","task_version":"prescreen-v0.3","browser_interactions":0},{"responses":{"01":"No","02":"No","03":"No","04":"No"},"rt":14195.299999999814,"item_order":[0,1,2,3],"radio_events":[6685.299999999814,9138.899999999907,11453,13564.19999999972],"checkbox_events":[],"key_events":[],"mouse_events":[6685.299999999814,9138.899999999907,11453,13564.19999999972,14168],"honeypot":0,"survey":"mace","page":8,"trial_type":"survey-mace","trial_index":16,"time_elapsed":912119,"internal_node_id":"0.0-16.0","task_version":"prescreen-v0.3","browser_interactions":0},{"responses":{"01":"Yes","01_ages_1":"1","01_ages_2":"2","01_ages_3":"3","01_ages_4":"4","01_ages_5":"5","01_ages_6":"6","01_ages_7":"7","01_ages_8":"8","01_ages_9":"9","01_ages_10":"10","01_ages_11":"11","01_ages_12":"12","01_ages_13":"13","01_ages_14":"14","01_ages_15":"15","01_ages_16":"16","01_ages_17":"17","01_ages_18":"18","02":"Yes","02_ages_1":"1","02_ages_2":"2","02_ages_3":"3","02_ages_4":"4","02_ages_5":"5","02_ages_6":"6","02_ages_7":"7","02_ages_8":"8","02_ages_9":"9","02_ages_10":"10","02_ages_11":"11","02_ages_12":"12","02_ages_13":"13","02_ages_14":"14","02_ages_15":"15","02_ages_16":"16","02_ages_17":"17","02_ages_18":"18","03":"Yes","03_ages_1":"1","03_ages_2":"2","03_ages_3":"3","03_ages_4":"4","03_ages_5":"5","03_ages_6":"6","03_ages_7":"7","03_ages_8":"8","03_ages_9":"9","03_ages_10":"10","03_ages_11":"11","03_ages_12":"12","03_ages_13":"13","03_ages_14":"14","03_ages_15":"15","03_ages_16":"16","03_ages_17":"17","03_ages_18":"18","04":"Yes","04_ages_1":"1","04_ages_2":"2","04_ages_3":"3","04_ages_4":"4","04_ages_5":"5","04_ages_6":"6","04_ages_7":"7","04_ages_8":"8","04_ages_9":"9","04_ages_10":"10","04_ages_11":"11","04_ages_12":"12","04_ages_13":"13","04_ages_14":"14","04_ages_15":"15","04_ages_16":"16","04_ages_17":"17","04_ages_18":"18"},"rt":67734.70000000019,"item_order":[0,1,2,3],"radio_events":[3018.8000000002794,23180.400000000373,44159.30000000028,57948.90000000037],"checkbox_events":[6990.9000000003725,7820.700000000186,8566.600000000093,9962.80000000028,10673.100000000093,11422.700000000186,12180.900000000373,12864.5,13582.400000000373,14334.900000000373,15112.80000000028,15921.200000000186,16780.200000000186,17484.400000000373,18293,18912.80000000028,19576.5,20770.100000000093,25374,26263.100000000093,27086.200000000186,27812.600000000093,28595.400000000373,29292.900000000373,30067.30000000028,30927.700000000186,31614.30000000028,33879.700000000186,34686.10000000009,35757.700000000186,36382.700000000186,37545.60000000009,38219,40067.10000000009,40918.40000000037,41716.10000000009,46152.80000000028,46439.40000000037,47258.60000000009,48404.700000000186,49660.30000000028,49942.40000000037,50313.60000000009,50742.60000000009,51566.90000000037,51812.40000000037,52071.700000000186,52280.60000000009,52687.60000000009,52871.60000000009,53065.40000000037,53276.80000000028,53474.60000000009,53692.80000000028,53912.90000000037,54908.60000000009,58676.10000000009,58915.90000000037,59171.30000000028,59387.80000000028,59598.80000000028,59821.60000000009,60020.30000000028,60241.30000000028,61363,61663.80000000028,61894.40000000037,62072,62282.700000000186,62527.200000000186,62720.90000000037,63146.10000000009,63395.10000000009,63658.200000000186,64130.30000000028,64587.5,65125.90000000037,65311],"key_events":[],"mouse_events":[3018.8000000002794,6990.9000000003725,7820.700000000186,8566.600000000093,9962.80000000028,10673.100000000093,11422.700000000186,12180.900000000373,12864.5,13582.400000000373,14334.900000000373,15112.80000000028,15921.200000000186,16780.200000000186,17484.400000000373,18293,18912.80000000028,19576.5,20770.100000000093,23180.400000000373,25027.900000000373,25374,26263.100000000093,27086.200000000186,27812.600000000093,28595.400000000373,29292.900000000373,30067.30000000028,30927.700000000186,31614.30000000028,33578.40000000037,33879.700000000186,34686.10000000009,35757.700000000186,36382.700000000186,37545.60000000009,38219,39350.200000000186,40067.10000000009,40918.40000000037,41716.10000000009,44159.30000000028,46152.80000000028,46439.40000000037,47258.60000000009,48404.700000000186,49660.30000000028,49942.40000000037,50313.60000000009,50742.60000000009,51089.10000000009,51566.90000000037,51812.40000000037,52071.700000000186,52280.60000000009,52493.200000000186,52687.60000000009,52871.60000000009,53065.40000000037,53276.80000000028,53474.60000000009,53692.80000000028,53912.90000000037,54460.5,54908.60000000009,57948.90000000037,58676.10000000009,58915.90000000037,59171.30000000028,59387.80000000028,59598.80000000028,59821.60000000009,60020.30000000028,60241.30000000028,61363,61663.80000000028,61894.40000000037,62072,62282.700000000186,62527.200000000186,62720.90000000037,62927,63146.10000000009,63395.10000000009,63658.200000000186,64130.30000000028,64587.5,65125.90000000037,65311,67710.70000000019],"honeypot":0,"survey":"mace","page":9,"trial_type":"survey-mace","trial_index":17,"time_elapsed":979874,"internal_node_id":"0.0-17.0","task_version":"prescreen-v0.3","browser_interactions":0},{"responses":{"01":"No","02":"No","03":"No","04":"No","05":"No","06":"Yes","06_ages_17":"17","07":"Yes","07_ages_1":"1","07_ages_2":"2","07_ages_3":"3","07_ages_4":"4","07_ages_5":"5","07_ages_6":"6","07_ages_7":"7","07_ages_8":"8","07_ages_9":"9","07_ages_10":"10","07_ages_11":"11","07_ages_12":"12","07_ages_13":"13","07_ages_14":"14","07_ages_15":"15","07_ages_16":"16","07_ages_17":"17","07_ages_18":"18","08":"Yes","08_ages_1":"1","08_ages_2":"2","08_ages_3":"3","08_ages_4":"4","08_ages_5":"5","08_ages_6":"6","08_ages_7":"7","08_ages_8":"8","08_ages_9":"9","08_ages_10":"10","08_ages_11":"11","08_ages_12":"12","08_ages_13":"13","08_ages_14":"14","08_ages_15":"15","08_ages_16":"16","08_ages_17":"17","08_ages_18":"18"},"rt":33519.40000000037,"item_order":[0,1,2,3,4,5,6,7],"radio_events":[3600.100000000093,4622.200000000186,7239,8199.700000000186,9312.600000000093,11701.200000000186,16573.30000000028,26574.30000000028],"checkbox_events":[13522.100000000093,18766.30000000028,18998.400000000373,19273.5,19487.600000000093,20324.30000000028,20617.600000000093,20998.100000000093,21383.30000000028,21666.200000000186,21905.80000000028,22175.100000000093,22399.5,22631.900000000373,22923,23219.700000000186,23530.900000000373,23792.80000000028,23992.600000000093,28138.5,28366.900000000373,28575.700000000186,28780.400000000373,28971.700000000186,29165.5,29377.200000000186,29566.5,29742.100000000093,29933.700000000186,30122.900000000373,30299.400000000373,30480.30000000028,30846.80000000028,31042.5,31232.700000000186,31445.200000000186,31655.700000000186],"key_events":[],"mouse_events":[3600.100000000093,4622.200000000186,7239,8199.700000000186,9312.600000000093,11701.200000000186,13522.100000000093,16573.30000000028,18766.30000000028,18998.400000000373,19273.5,19487.600000000093,20324.30000000028,20617.600000000093,20998.100000000093,21383.30000000028,21666.200000000186,21905.80000000028,22175.100000000093,22399.5,22631.900000000373,22923,23219.700000000186,23530.900000000373,23792.80000000028,23992.600000000093,26574.30000000028,28138.5,28366.900000000373,28575.700000000186,28780.400000000373,28971.700000000186,29165.5,29377.200000000186,29566.5,29742.100000000093,29933.700000000186,30122.900000000373,30299.400000000373,30480.30000000028,30656.100000000093,30846.80000000028,31042.5,31232.700000000186,31445.200000000186,31655.700000000186,33480.80000000028],"honeypot":0,"survey":"mace","page":10,"trial_type":"survey-mace","trial_index":18,"time_elapsed":1013418,"internal_node_id":"0.0-18.0","task_version":"prescreen-v0.3","browser_interactions":0,"instructed":0},{"rt":4027.8000000002794,"trial_type":"mental-health-alert","trial_index":19,"time_elapsed":1017453,"internal_node_id":"0.0-19.0","task_version":"prescreen-v0.3","interactions":"[]"}]