[{"view_history":[{"page_index":0,"viewing_time":5658.299999982119},{"page_index":1,"viewing_time":4167.5},{"page_index":2,"viewing_time":4519.100000023842},{"page_index":3,"viewing_time":1006}],"rt":15351.40000000596,"trial_type":"instructions","trial_index":0,"time_elapsed":15361,"internal_node_id":"0.0-0.0","task_version":"prescreen-v0.3"},{"rt":14714.40000000596,"responses":{"age":"21","gender-categorical":"Female","gender-free-response":"","ethnicity":"Not Hispanic or Latino","race":["White"],"education":"High school"},"trial_type":"survey-demo","trial_index":1,"time_elapsed":30080,"internal_node_id":"0.0-1.0","task_version":"prescreen-v0.3"},{"responses":{"Q12":"2","Q09":"3","Q05":"0","Q01":"3","Q14":"1","Q06":"2","Q08":"2","Q03":"2","Q11":"3","Q02":"3","Q17":"3","Q13":"2","Q19":"1","Q16":"3","Q20":"1","Q07":"3","Q15":"3","Q18":"2","Q04":"3","Q21":"3","Q10":"3"},"rt":97429.69999998808,"item_order":[11,8,4,0,13,5,7,2,10,1,16,12,18,15,19,6,14,17,3,20,9],"radio_events":[5487.699999988079,12213.5,18218.5,20495.80000001192,25400.19999998808,31265.30000001192,34173.5,37055.5,38862.40000000596,44637.5,47329.5,49656.30000001192,55896.5,59279.30000001192,64869.40000000596,71745.5,79697.30000001192,83931.09999999404,87504.30000001192,93139.5,93479.40000000596],"key_events":[5487.699999988079,11938.40000000596,12213.5,18218.5,20140.40000000596,20495.80000001192,24319.09999999404,25400.19999998808,31265.30000001192,34173.5,37055.5,38862.40000000596,44637.5,47329.5,49656.30000001192,55896.5,59279.30000001192,64869.40000000596,71745.5,79697.30000001192,83931.09999999404,87504.30000001192,93139.5,93479.40000000596,97428.40000000596],"mouse_events":[],"straightlining":0.5238095238095238,"zigzagging":0.45,"honeypot":0,"survey":"sns","trial_type":"survey-template","trial_index":2,"time_elapsed":127516,"internal_node_id":"0.0-2.0","task_version":"prescreen-v0.3","browser_interactions":0,"infrequency":0},{"responses":{"Q09":"1","Q05":"3","Q07":"3","Q13":"0","Q08":"1","Q04":"3","Q12":"1","Q10":"1","Q03":"3","Q02":"3","Q01":"3","Q06":"2","Q11":"1"},"rt":58325.80000001192,"item_order":[8,4,6,12,7,3,11,9,2,1,0,5,10],"radio_events":[4091.100000023842,9511.40000000596,10807.200000017881,13244.200000017881,14390.40000000596,16878.20000001788,20897.100000023842,28669.20000001788,32477.100000023842,35490.40000000596,43457.20000001788,45514.20000001788,47170.90000000596,52405.5,55133.20000001788],"key_events":[4091.100000023842,9511.40000000596,10807.200000017881,13244.200000017881,13749.90000000596,14025.100000023842,14390.40000000596,16878.20000001788,20897.100000023842,28669.20000001788,32477.100000023842,34849.30000001192,35210.10000002384,35490.40000000596,43457.20000001788,45514.20000001788,47170.90000000596,52405.5,55133.20000001788,58325],"mouse_events":[],"straightlining":0.46153846153846156,"zigzagging":0.3333333333333333,"honeypot":0,"survey":"bisbas","trial_type":"survey-template","trial_index":3,"time_elapsed":185848,"internal_node_id":"0.0-3.0","task_version":"prescreen-v0.3","browser_interactions":0,"infrequency":0},{"responses":{"Q01":"2","Q02":"2","Q03":"1"},"rt":18785.80000001192,"radio_events":[4308.5,10568.40000000596,17474.40000000596],"key_events":[4308.5,10568.40000000596,17474.40000000596,18785.40000000596],"mouse_events":[],"survey":"map","page":1,"trial_type":"survey-map","trial_index":4,"time_elapsed":204638,"internal_node_id":"0.0-4.0","task_version":"prescreen-v0.3","browser_interactions":0},{"responses":{"Q04":"3","Q05":"3","Q06":"3"},"rt":13143,"radio_events":[3604.5,7137.5,11821.600000023842,12752.600000023842],"key_events":[3604.5,7137.5,10700.600000023842,11095.5,11821.600000023842,12752.600000023842,13142.5],"mouse_events":[],"survey":"map","page":2,"trial_type":"survey-map","trial_index":5,"time_elapsed":217785,"internal_node_id":"0.0-5.0","task_version":"prescreen-v0.3","browser_interactions":0},{"responses":{"Q07":"4","Q08":"3","Q09":"1"},"rt":21391.29999998212,"radio_events":[6160.9000000059605,11902,20594.90000000596],"key_events":[6160.9000000059605,11902,20594.90000000596,21391],"mouse_events":[],"survey":"map","page":3,"trial_type":"survey-map","trial_index":6,"time_elapsed":239180,"internal_node_id":"0.0-6.0","task_version":"prescreen-v0.3","browser_interactions":0},{"responses":{"Q10":"0","Q11":"0","Q12":"0","Q13":"0","Q16":"0","Q14":"2","Q15":"2"},"rt":39819.30000001192,"radio_events":[3188.100000023842,6736.200000017881,9628.100000023842,20013.20000001788,24668.20000001788,34813,38912.20000001788],"key_events":[3188.100000023842,6736.200000017881,9628.100000023842,19757.90000000596,20013.20000001788,24668.20000001788,34813,38912.20000001788,39818.60000002384],"mouse_events":[],"survey":"map","page":4,"trial_type":"survey-map","trial_index":7,"time_elapsed":279004,"internal_node_id":"0.0-7.0","task_version":"prescreen-v0.3","browser_interactions":0,"infrequency":0},{"view_history":[{"page_index":0,"viewing_time":2176.9000000059605},{"page_index":1,"viewing_time":4558.699999988079}],"rt":6736.199999988079,"trial_type":"instructions","trial_index":8,"time_elapsed":285744,"internal_node_id":"0.0-8.0","task_version":"prescreen-v0.3"},{"responses":{"01":"Yes","01_ages_12":"12","01_ages_13":"13","02":"No","03":"No","04":"No","05":"No","06":"No"},"rt":43306.19999998808,"item_order":[0,1,2,3,4,5],"radio_events":[4825.5999999940395,30736.59999999404,35200.69999998808,37097.19999998808,39685.80000001192,42488.30000001192],"checkbox_events":[20590.59999999404,24930.40000000596],"key_events":[0,4825.5999999940395,20590.59999999404,24930.40000000596,30736.59999999404,35200.69999998808,37097.19999998808,39685.80000001192,42488.30000001192,43304.59999999404],"mouse_events":[],"honeypot":0,"survey":"mace","page":1,"trial_type":"survey-mace","trial_index":9,"time_elapsed":329055,"internal_node_id":"0.0-9.0","task_version":"prescreen-v0.3","browser_interactions":0},{"responses":{"01":"No","02":"No","03":"No","04":"No","05":"No","06":"No","07":"No","08":"No"},"rt":24020.100000023842,"item_order":[0,1,2,3,4,5,6,7],"radio_events":[2759.800000011921,6843.9000000059605,12489.600000023842,15142.5,18310.70000001788,20007.80000001192,21574.80000001192,23436.70000001788],"checkbox_events":[],"key_events":[2759.800000011921,6843.9000000059605,12489.600000023842,15142.5,18310.70000001788,20007.80000001192,21574.80000001192,23436.70000001788,24016.600000023842],"mouse_events":[],"honeypot":0,"survey":"mace","page":2,"trial_type":"survey-mace","trial_index":10,"time_elapsed":353081,"internal_node_id":"0.0-10.0","task_version":"prescreen-v0.3","browser_interactions":0},{"responses":{"01":"No","02":"No","03":"No","04":"No"},"rt":10909.699999988079,"item_order":[0,1,2,3],"radio_events":[4391.699999988079,7109.5999999940395,9161.399999976158,10437.59999999404],"checkbox_events":[],"key_events":[4391.699999988079,7109.5999999940395,9161.399999976158,10437.59999999404,10908.5],"mouse_events":[],"honeypot":0,"survey":"mace","page":3,"trial_type":"survey-mace","trial_index":11,"time_elapsed":363995,"internal_node_id":"0.0-11.0","task_version":"prescreen-v0.3","browser_interactions":0},{"responses":{"01":"No","02":"No"},"rt":7828.0999999940395,"item_order":[0,1],"radio_events":[3917.0999999940395,6911.0999999940395],"checkbox_events":[],"key_events":[3917.0999999940395,6911.0999999940395,7827.299999982119],"mouse_events":[],"honeypot":0,"survey":"mace","page":4,"trial_type":"survey-mace","trial_index":12,"time_elapsed":371828,"internal_node_id":"0.0-12.0","task_version":"prescreen-v0.3","browser_interactions":0},{"responses":{"01":"Yes","01_ages_4":"4","02":"No","03":"No","04":"No","05":"No"},"rt":46432.89999997616,"item_order":[0,1,2,3,4],"radio_events":[4559.399999976158,9859.09999999404,28739.399999976158,40990.79999998212,42913.19999998808,45631.89999997616],"checkbox_events":[11781.199999988079],"key_events":[4559.399999976158,9859.09999999404,11781.199999988079,28739.399999976158,37843.09999999404,40990.79999998212,42913.19999998808,43343,43859,45631.89999997616,46431.29999998212],"mouse_events":[],"honeypot":0,"survey":"mace","page":5,"trial_type":"survey-mace","trial_index":13,"time_elapsed":418266,"internal_node_id":"0.0-13.0","task_version":"prescreen-v0.3","browser_interactions":0},{"responses":{"01":"Yes","01_ages_7":"7","02":"Yes","02_ages_11":"11","03":"No","04":"No","05":"No"},"rt":39338.29999998212,"item_order":[0,1,2,3,4],"radio_events":[8135.5,21598.59999999404,32254.399999976158,36103.5,38981.39999997616],"checkbox_events":[11448.399999976158,25252.5,25618.5,26248.5],"key_events":[8135.5,11448.399999976158,21598.59999999404,25252.5,25618.5,26248.5,32254.399999976158,36103.5,38981.39999997616,39336.79999998212],"mouse_events":[],"honeypot":0,"survey":"mace","page":6,"trial_type":"survey-mace","trial_index":14,"time_elapsed":457610,"internal_node_id":"0.0-14.0","task_version":"prescreen-v0.3","browser_interactions":0},{"responses":{"01":"No","02":"No","03":"No","04":"No","05":"No","06":"No","07":"No"},"rt":22580.100000023842,"item_order":[0,1,2,3,4,5,6],"radio_events":[2621.100000023842,4754,13643,14989.300000011921,19204.30000001192,21166.20000001788,21977.20000001788],"checkbox_events":[],"key_events":[2621.100000023842,4754,13643,14989.300000011921,19204.30000001192,21166.20000001788,21977.20000001788,22578],"mouse_events":[],"honeypot":0,"survey":"mace","page":7,"trial_type":"survey-mace","trial_index":15,"time_elapsed":480195,"internal_node_id":"0.0-15.0","task_version":"prescreen-v0.3","browser_interactions":0},{"responses":{"01":"No","02":"No","03":"Yes","03_ages_7":"7","03_ages_8":"8","03_ages_9":"9","03_ages_10":"10","03_ages_11":"11","03_ages_12":"12","03_ages_13":"13","04":"No"},"rt":33580.5,"item_order":[0,1,2,3],"radio_events":[9859,13102,18013.09999999404,31097.09999999404],"checkbox_events":[22643.09999999404,23058.09999999404,23429,24194,25901.09999999404,26266.79999998212,26737],"key_events":[7657,9859,13102,17668.09999999404,18013.09999999404,22643.09999999404,23058.09999999404,23429,23803.899999976158,24194,24609.59999999404,25321,25901.09999999404,26266.79999998212,26737,31097.09999999404,33579],"mouse_events":[],"honeypot":0,"survey":"mace","page":8,"trial_type":"survey-mace","trial_index":16,"time_elapsed":513780,"internal_node_id":"0.0-16.0","task_version":"prescreen-v0.3","browser_interactions":0},{"responses":{"01":"Yes","01_ages_1":"1","01_ages_2":"2","01_ages_3":"3","01_ages_4":"4","01_ages_5":"5","01_ages_6":"6","01_ages_7":"7","01_ages_8":"8","01_ages_9":"9","01_ages_10":"10","01_ages_11":"11","01_ages_12":"12","01_ages_13":"13","01_ages_14":"14","01_ages_15":"15","01_ages_16":"16","01_ages_17":"17","01_ages_18":"18","02":"Yes","02_ages_1":"1","02_ages_2":"2","02_ages_3":"3","02_ages_4":"4","02_ages_5":"5","02_ages_6":"6","02_ages_7":"7","02_ages_8":"8","02_ages_9":"9","02_ages_10":"10","02_ages_11":"11","02_ages_12":"12","02_ages_13":"13","02_ages_14":"14","02_ages_15":"15","02_ages_16":"16","02_ages_17":"17","02_ages_18":"18","03":"Yes","03_ages_1":"1","03_ages_2":"2","03_ages_3":"3","03_ages_4":"4","03_ages_5":"5","03_ages_6":"6","03_ages_7":"7","03_ages_8":"8","03_ages_9":"9","03_ages_10":"10","03_ages_11":"11","03_ages_12":"12","03_ages_13":"13","03_ages_14":"14","03_ages_15":"15","03_ages_16":"16","03_ages_17":"17","03_ages_18":"18","04":"Yes","04_ages_1":"1","04_ages_2":"2","04_ages_3":"3","04_ages_4":"4","04_ages_5":"5","04_ages_6":"6","04_ages_7":"7","04_ages_8":"8","04_ages_9":"9","04_ages_10":"10","04_ages_11":"11","04_ages_12":"12","04_ages_13":"13","04_ages_14":"14","04_ages_15":"15","04_ages_16":"16","04_ages_17":"17","04_ages_18":"18"},"rt":76201.90000000596,"item_order":[0,1,2,3],"radio_events":[9273.600000023842,24353.5,40815.40000000596,45635.70000001788],"checkbox_events":[10620,10975.800000011921,11310.5,11665.5,12101.5,13187.600000023842,13662.800000011921,14123.800000011921,14513.5,14839.700000017881,15194.40000000596,15539.5,15935.5,16300.700000017881,16680.5,17501.80000001192,18132.70000001788,18497.5,25549.80000001192,26706.5,29553.80000001192,29874.5,30354.80000001192,30705.600000023842,31390.80000001192,31771.40000000596,32191.70000001788,32907.40000000596,33313.40000000596,34148.40000000596,34464.70000001788,35440.60000002384,36401.60000002384,36791.70000001788,37181.5,37857.40000000596,46661.5,46961.5,47857.70000001788,48432.40000000596,48578.30000001192,48968.40000000596,49148.40000000596,49413.70000001788,49854.60000002384,50464.30000001192,50820.5,51525.40000000596,51717.20000001788,52066.30000001192,52246.30000001192,52606.30000001192,53152.40000000596,53522.70000001788,53918.30000001192,54273.90000000596,54458.5,55244.40000000596,56570.90000000596,56881.70000001788,57992.5,59373.60000002384,59874.30000001192,63387.5,63944,64313.60000002384,64473.5,64879.40000000596,66320.30000001192,66926.40000000596,67331.30000001192,67541.5,68773.20000001788,69173.30000001192,69599.40000000596,69779.5,70649.60000002384,70970.40000000596,71545.60000002384,72436.80000001192,73072.70000001788,73828.5,74444.60000002384,75530.70000001788],"key_events":[9063.40000000596,9273.600000023842,10099.5,10620,10975.800000011921,11310.5,11665.5,12101.5,12897.600000023842,13187.600000023842,13662.800000011921,14123.800000011921,14513.5,14839.700000017881,15194.40000000596,15539.5,15935.5,16300.700000017881,16680.5,17041.5,17501.80000001192,17812.80000001192,18132.70000001788,18497.5,24353.5,25549.80000001192,26706.5,29553.80000001192,29874.5,30354.80000001192,30705.600000023842,31150.5,31390.80000001192,31771.40000000596,32191.70000001788,32633,32907.40000000596,33313.40000000596,33633.70000001788,34148.40000000596,34464.70000001788,34869.5,35440.60000002384,35915.60000002384,36170.40000000596,36401.60000002384,36791.70000001788,37181.5,37582.60000002384,37857.40000000596,40815.40000000596,45635.70000001788,46370.5,46661.5,46961.5,47296.5,47537.60000002384,47857.70000001788,48047.40000000596,48222.5,48432.40000000596,48578.30000001192,48968.40000000596,49148.40000000596,49413.70000001788,49854.60000002384,50284.60000002384,50464.30000001192,50640.5,50820.5,50995.90000000596,51165.40000000596,51345.40000000596,51525.40000000596,51717.20000001788,51881.30000001192,52066.30000001192,52246.30000001192,52421.30000001192,52606.30000001192,52792.30000001192,52972.40000000596,53152.40000000596,53347.40000000596,53522.70000001788,53727.60000002384,53918.30000001192,54103.5,54273.90000000596,54458.5,55244.40000000596,56310.40000000596,56570.90000000596,56881.70000001788,57812.90000000596,57992.5,58437.40000000596,58642.40000000596,58848.70000001788,59373.60000002384,59874.30000001192,60069.40000000596,60249.5,60444.20000001788,60620,60810.30000001192,60985.40000000596,61175.70000001788,61360.30000001192,61545.40000000596,61730.30000001192,61926.5,62807.40000000596,63007.40000000596,63182.60000002384,63387.5,63552.30000001192,63743.5,63944,64118.40000000596,64313.60000002384,64473.5,64669.20000001788,64879.40000000596,65069.40000000596,65269.40000000596,65470.30000001192,65690.5,65905.30000001192,66320.30000001192,66520.60000002384,66721.90000000596,66926.40000000596,67126.40000000596,67331.30000001192,67541.5,67757.70000001788,67967.80000001192,68157.60000002384,68367.60000002384,68577.5,68773.20000001788,68973.20000001788,69173.30000001192,69388.5,69599.40000000596,69779.5,70414.40000000596,70649.60000002384,70970.40000000596,71545.60000002384,72196.5,72436.80000001192,72777.60000002384,73072.70000001788,73828.5,74444.60000002384,74794.40000000596,75184.70000001788,75530.70000001788,76200.60000002384],"mouse_events":[],"honeypot":0,"survey":"mace","page":9,"trial_type":"survey-mace","trial_index":17,"time_elapsed":589988,"internal_node_id":"0.0-17.0","task_version":"prescreen-v0.3","browser_interactions":0},{"responses":{"01":"No","02":"No","03":"No","04":"Yes","04_ages_13":"13","04_ages_14":"14","04_ages_15":"15","04_ages_16":"16","04_ages_17":"17","04_ages_18":"18","05":"No","06":"Yes","06_ages_17":"17","07":"Yes","07_ages_1":"1","07_ages_2":"2","07_ages_3":"3","07_ages_4":"4","07_ages_5":"5","07_ages_6":"6","07_ages_7":"7","07_ages_8":"8","07_ages_9":"9","07_ages_10":"10","07_ages_11":"11","07_ages_12":"12","07_ages_13":"13","07_ages_14":"14","07_ages_15":"15","07_ages_16":"16","07_ages_17":"17","07_ages_18":"18","08":"Yes","08_ages_1":"1","08_ages_2":"2","08_ages_3":"3","08_ages_4":"4","08_ages_5":"5","08_ages_6":"6","08_ages_7":"7","08_ages_8":"8","08_ages_9":"9","08_ages_10":"10","08_ages_11":"11","08_ages_12":"12","08_ages_13":"13","08_ages_14":"14","08_ages_15":"15","08_ages_16":"16","08_ages_17":"17","08_ages_18":"18"},"rt":52370.20000001788,"item_order":[0,1,2,3,4,5,6,7],"radio_events":[3821.7000000178814,4913.5,6821,12125.800000011921,18286.5,20419.600000023842,27346.600000023842,37186.60000002384],"checkbox_events":[13827.5,14207.600000023842,14593.5,14928.5,15259.40000000596,15844.40000000596,21745.600000023842,28177.40000000596,28492.40000000596,28962.20000001788,29754.40000000596,29998.5,30304.40000000596,30714.5,31070.600000023842,31440.70000001788,31775.30000001192,32131.5,32511.5,32861.5,33512.70000001788,33863.5,34584.5,34939.5,35249.5,38983.30000001192,39308.30000001192,39614.5,39949.60000002384,40254.60000002384,40605.5,40965.90000000596,41316.70000001788,42912.5,44604.60000002384,44964.5,45560.60000002384,45875.60000002384,46226.30000001192,47121.60000002384,47462.20000001788,47787.70000001788,48107.60000002384],"key_events":[3821.7000000178814,4913.5,6821,11860.5,12125.800000011921,13827.5,14207.600000023842,14593.5,14928.5,15259.40000000596,15585,15844.40000000596,18286.5,20419.600000023842,21745.600000023842,27346.600000023842,28177.40000000596,28492.40000000596,28962.20000001788,29273.40000000596,29754.40000000596,29998.5,30304.40000000596,30714.5,31070.600000023842,31440.70000001788,31775.30000001192,32131.5,32511.5,32861.5,33212.70000001788,33512.70000001788,33863.5,34223.70000001788,34584.5,34939.5,35249.5,37186.60000002384,38983.30000001192,39308.30000001192,39614.5,39949.60000002384,40254.60000002384,40605.5,40965.90000000596,41316.70000001788,42712.5,42912.5,44604.60000002384,44964.5,45270.80000001192,45560.60000002384,45875.60000002384,46226.30000001192,46546.70000001788,46896.20000001788,47121.60000002384,47462.20000001788,47787.70000001788,48107.60000002384,52367.80000001192],"mouse_events":[],"honeypot":0,"survey":"mace","page":10,"trial_type":"survey-mace","trial_index":18,"time_elapsed":642364,"internal_node_id":"0.0-18.0","task_version":"prescreen-v0.3","browser_interactions":0,"instructed":0},{"rt":7570.5,"trial_type":"mental-health-alert","trial_index":19,"time_elapsed":649939,"internal_node_id":"0.0-19.0","task_version":"prescreen-v0.3","interactions":"[]"}]