[{"view_history":[{"page_index":0,"viewing_time":5834.600000023842},{"page_index":1,"viewing_time":5871.699999928474},{"page_index":2,"viewing_time":5919.800000071526},{"page_index":3,"viewing_time":1895.8999999761581}],"rt":19522.899999976158,"trial_type":"instructions","trial_index":0,"time_elapsed":19563,"internal_node_id":"0.0-0.0","task_version":"prescreen-v0.3"},{"rt":15109.799999952316,"responses":{"age":"35","gender-categorical":"Male","gender-free-response":"","ethnicity":"Not Hispanic or Latino","race":["Black or African American"],"education":"Bachelor degree","siblings":"1"},"trial_type":"survey-demo","trial_index":1,"time_elapsed":34684,"internal_node_id":"0.0-1.0","task_version":"prescreen-v0.3"},{"responses":{"Q07":"0","Q10":"2","Q13":"2","Q09":"2","Q11":"3","Q08":"2","Q19":"0","Q16":"2","Q03":"1","Q12":"1","Q18":"0","Q15":"2","Q20":"1","Q05":"0","Q06":"1","Q04":"2","Q01":"3","Q02":"2","Q17":"2","Q14":"2","Q21":"3"},"rt":154020.90000009537,"item_order":[6,9,12,8,10,7,18,15,2,11,17,14,19,4,5,3,0,1,16,13,20],"radio_events":[12682.700000047684,20138.600000023842,33298.60000002384,34947.300000071526,38386.60000002384,45210.300000071526,53970.40000009537,55002.40000009537,73970.20000004768,85234,86234,91778.30000007153,99170,102962.20000004768,105890.10000002384,106594,113946.30000007153,128458,133561.90000009537,136385.90000009537,141602.10000002384,144594,147866,152977.80000007153],"key_events":[],"mouse_events":[12682.700000047684,20138.600000023842,33298.60000002384,34947.300000071526,38386.60000002384,44362.200000047684,45210.300000071526,53970.40000009537,55002.40000009537,73970.20000004768,85234,86234,91778.30000007153,99170,102962.20000004768,105890.10000002384,106594,113946.30000007153,128458,133561.90000009537,136385.90000009537,141602.10000002384,144594,147866,152977.80000007153,154018.10000002384],"straightlining":0.47619047619047616,"zigzagging":0.55,"honeypot":0,"survey":"sns","trial_type":"survey-template","trial_index":2,"time_elapsed":188711,"internal_node_id":"0.0-2.0","task_version":"prescreen-v0.3","browser_interactions":0,"infrequency":0},{"responses":{"Q04":"3","Q07":"3","Q05":"3","Q12":"2","Q03":"1","Q11":"1","Q01":"3","Q02":"1","Q10":"1","Q13":"0","Q08":"2","Q09":"1","Q06":"1"},"rt":73800.70000004768,"item_order":[3,6,4,11,2,10,0,1,9,12,7,8,5],"radio_events":[7063.300000071526,8719.300000071526,12839.600000023842,18911.399999976158,23103.300000071526,30839.200000047684,34039,41031.10000002384,46678.89999997616,51215.39999997616,60390.89999997616,68927,71927],"key_events":[],"mouse_events":[7063.300000071526,8719.300000071526,12839.600000023842,18911.399999976158,23103.300000071526,30839.200000047684,34039,41031.10000002384,46678.89999997616,51215.39999997616,60390.89999997616,67527.20000004768,68927,71927,73799.20000004768],"straightlining":0.46153846153846156,"zigzagging":0.3333333333333333,"honeypot":0,"survey":"bisbas","trial_type":"survey-template","trial_index":3,"time_elapsed":262516,"internal_node_id":"0.0-3.0","task_version":"prescreen-v0.3","browser_interactions":0,"infrequency":0},{"responses":{"Q01":"1","Q02":"1","Q03":"2"},"rt":21451.899999976158,"radio_events":[10466.700000047684,15323.100000023842,20594.899999976158],"key_events":[],"mouse_events":[9762.899999976158,10466.700000047684,15323.100000023842,20122.899999976158,20594.899999976158,21450.899999976158],"survey":"map","page":1,"trial_type":"survey-map","trial_index":4,"time_elapsed":283971,"internal_node_id":"0.0-4.0","task_version":"prescreen-v0.3","browser_interactions":0},{"responses":{"Q04":"2","Q05":"2","Q06":"2"},"rt":13045.100000023842,"radio_events":[6140.299999952316,9676.200000047684,12228.200000047684],"key_events":[],"mouse_events":[6140.299999952316,9676.200000047684,12228.200000047684,13044.200000047684],"survey":"map","page":2,"trial_type":"survey-map","trial_index":5,"time_elapsed":297018,"internal_node_id":"0.0-5.0","task_version":"prescreen-v0.3","browser_interactions":0},{"responses":{"Q07":"4","Q08":"4","Q09":"0"},"rt":21542.100000023842,"radio_events":[9861.399999976158,14333.300000071526,18853.300000071526],"key_events":[],"mouse_events":[9861.399999976158,14333.300000071526,18229.100000023842,18853.300000071526,21541.200000047684],"survey":"map","page":3,"trial_type":"survey-map","trial_index":6,"time_elapsed":318563,"internal_node_id":"0.0-6.0","task_version":"prescreen-v0.3","browser_interactions":0},{"responses":{"Q10":"1","Q11":"1","Q12":"2","Q13":"3","Q16":"0","Q14":"2","Q15":"2"},"rt":47094.39999997616,"radio_events":[16157,21388.5,25757,26612.799999952316,33612.799999952316,37284.89999997616,42708.59999990463,46252.699999928474],"key_events":[],"mouse_events":[16157,21388.5,25757,26612.799999952316,33612.799999952316,37284.89999997616,42708.59999990463,46252.699999928474,47093],"survey":"map","page":4,"trial_type":"survey-map","trial_index":7,"time_elapsed":365660,"internal_node_id":"0.0-7.0","task_version":"prescreen-v0.3","browser_interactions":0,"infrequency":0},{"view_history":[{"page_index":0,"viewing_time":3708},{"page_index":1,"viewing_time":2415.600000023842}],"rt":6124.299999952316,"trial_type":"instructions","trial_index":8,"time_elapsed":371784,"internal_node_id":"0.0-8.0","task_version":"prescreen-v0.3"},{"responses":{"01":"Yes","01_ages_14":"14","01_ages_15":"15","01_ages_16":"16","01_ages_17":"17","01_ages_18":"18","02":"Yes","02_ages_14":"14","02_ages_15":"15","02_ages_16":"16","02_ages_17":"17","02_ages_18":"18","03":"No","04":"No","05":"No","06":"No"},"rt":60196.39999997616,"item_order":[0,1,2,3,4,5],"radio_events":[10577.699999928474,32945.199999928474,49921,50977,52257.09999990463,57897.39999997616],"checkbox_events":[19897.5,23153.099999904633,23913.199999928474,36377.5,36953.09999990463,37697.199999928474,39201.199999928474,40057.199999928474,41049.299999952316,41617.59999990463],"key_events":[],"mouse_events":[0.2999999523162842,10577.699999928474,19897.5,22521.099999904633,23153.099999904633,23913.199999928474,32945.199999928474,36377.5,36953.09999990463,37697.199999928474,39201.199999928474,40057.199999928474,41049.299999952316,41617.59999990463,49921,50977,52257.09999990463,57897.39999997616,60193.199999928474],"honeypot":0,"survey":"mace","page":1,"trial_type":"survey-mace","trial_index":9,"time_elapsed":431990,"internal_node_id":"0.0-9.0","task_version":"prescreen-v0.3","browser_interactions":0},{"responses":{"01":"No","02":"No","03":"Yes","03_ages_7":"7","03_ages_8":"8","03_ages_9":"9","03_ages_10":"10","03_ages_11":"11","04":"No","05":"No","06":"No","07":"No","08":"No"},"rt":43884.10000002384,"item_order":[0,1,2,3,4,5,6,7],"radio_events":[4935.899999976158,6728,8823.899999976158,20799.700000047684,26543.800000071526,37839.700000047684,39831.60000002384,42079.5,42791.800000071526],"checkbox_events":[13575.899999976158,13935.899999976158,14855.800000071526,15208,16447.899999976158],"key_events":[],"mouse_events":[4935.899999976158,6728,8823.899999976158,13575.899999976158,13935.899999976158,14855.800000071526,15208,15951.899999976158,16447.899999976158,20799.700000047684,26543.800000071526,37839.700000047684,39831.60000002384,41511.89999997616,42079.5,42791.800000071526,43880.10000002384],"honeypot":0,"survey":"mace","page":2,"trial_type":"survey-mace","trial_index":10,"time_elapsed":475879,"internal_node_id":"0.0-10.0","task_version":"prescreen-v0.3","browser_interactions":0},{"responses":{"01":"No","02":"No","03":"No","04":"No"},"rt":9538,"item_order":[0,1,2,3],"radio_events":[5071.899999976158,7071.699999928474,7911.899999976158,8664],"checkbox_events":[],"key_events":[],"mouse_events":[5071.899999976158,7071.699999928474,7911.899999976158,8664,9535.699999928474],"honeypot":0,"survey":"mace","page":3,"trial_type":"survey-mace","trial_index":11,"time_elapsed":485420,"internal_node_id":"0.0-11.0","task_version":"prescreen-v0.3","browser_interactions":0},{"responses":{"01":"No","02":"No"},"rt":6556.600000023842,"item_order":[0,1],"radio_events":[2147.5,4411.699999928474],"checkbox_events":[],"key_events":[],"mouse_events":[2147.5,2971.399999976158,4411.699999928474,6555.399999976158],"honeypot":0,"survey":"mace","page":4,"trial_type":"survey-mace","trial_index":12,"time_elapsed":491979,"internal_node_id":"0.0-12.0","task_version":"prescreen-v0.3","browser_interactions":0},{"responses":{"01":"No","02":"No","03":"No","04":"No","05":"No"},"rt":16118.600000023842,"item_order":[0,1,2,3,4],"radio_events":[5123.700000047684,8907.800000071526,10011.900000095367,12595.800000071526,13947.900000095367],"checkbox_events":[],"key_events":[],"mouse_events":[5123.700000047684,7355.600000023842,8907.800000071526,10011.900000095367,12595.800000071526,13947.900000095367,16115.600000023842],"honeypot":0,"survey":"mace","page":5,"trial_type":"survey-mace","trial_index":13,"time_elapsed":508100,"internal_node_id":"0.0-13.0","task_version":"prescreen-v0.3","browser_interactions":0},{"responses":{"01":"No","02":"No","03":"Yes","03_ages_18":"18","04":"No","05":"No"},"rt":39893.300000071526,"item_order":[0,1,2,3,4],"radio_events":[12777.800000071526,17089.800000071526,23793.899999976158,33954.10000002384,37729.89999997616],"checkbox_events":[26625.899999976158],"key_events":[],"mouse_events":[12777.800000071526,15369.700000047684,17089.800000071526,23793.899999976158,26625.899999976158,33954.10000002384,37729.89999997616,39890.10000002384],"honeypot":0,"survey":"mace","page":6,"trial_type":"survey-mace","trial_index":14,"time_elapsed":547997,"internal_node_id":"0.0-14.0","task_version":"prescreen-v0.3","browser_interactions":0},{"responses":{"01":"No","02":"No","03":"No","04":"No","05":"No","06":"No","07":"No"},"rt":17828.600000023842,"item_order":[0,1,2,3,4,5,6],"radio_events":[6441,8089.299999952316,10128.799999952316,11537.399999976158,14113.199999928474,15745.100000023842,16961],"checkbox_events":[],"key_events":[],"mouse_events":[6441,8089.299999952316,9241.100000023842,10128.799999952316,11537.399999976158,14113.199999928474,15745.100000023842,16561.199999928474,16961,17825.199999928474],"honeypot":0,"survey":"mace","page":7,"trial_type":"survey-mace","trial_index":15,"time_elapsed":565829,"internal_node_id":"0.0-15.0","task_version":"prescreen-v0.3","browser_interactions":0},{"responses":{"01":"No","02":"No","03":"No","04":"No"},"rt":26451.399999976158,"item_order":[0,1,2,3],"radio_events":[10641.600000023842,12537.300000071526,20201.300000071526,22505.100000023842,25729.600000023842],"checkbox_events":[],"key_events":[],"mouse_events":[10641.600000023842,12537.300000071526,20201.300000071526,22505.100000023842,25729.600000023842,26449.100000023842],"honeypot":0,"survey":"mace","page":8,"trial_type":"survey-mace","trial_index":16,"time_elapsed":592284,"internal_node_id":"0.0-16.0","task_version":"prescreen-v0.3","browser_interactions":0},{"responses":{"01":"Yes","01_ages_1":"1","01_ages_2":"2","01_ages_3":"3","01_ages_4":"4","01_ages_5":"5","01_ages_6":"6","01_ages_7":"7","01_ages_8":"8","01_ages_9":"9","01_ages_10":"10","01_ages_11":"11","01_ages_12":"12","01_ages_13":"13","01_ages_14":"14","01_ages_15":"15","01_ages_16":"16","01_ages_17":"17","01_ages_18":"18","02":"Yes","02_ages_1":"1","02_ages_2":"2","02_ages_3":"3","02_ages_4":"4","02_ages_5":"5","02_ages_6":"6","02_ages_7":"7","02_ages_8":"8","02_ages_9":"9","02_ages_10":"10","02_ages_11":"11","02_ages_12":"12","02_ages_13":"13","02_ages_14":"14","02_ages_15":"15","02_ages_16":"16","02_ages_17":"17","02_ages_18":"18","03":"Yes","03_ages_1":"1","03_ages_2":"2","03_ages_3":"3","03_ages_4":"4","03_ages_5":"5","03_ages_6":"6","03_ages_7":"7","03_ages_8":"8","03_ages_9":"9","03_ages_10":"10","03_ages_11":"11","03_ages_12":"12","03_ages_13":"13","03_ages_14":"14","03_ages_15":"15","03_ages_16":"16","03_ages_17":"17","03_ages_18":"18","04":"Yes","04_ages_1":"1","04_ages_2":"2","04_ages_3":"3","04_ages_4":"4","04_ages_5":"5","04_ages_6":"6","04_ages_7":"7","04_ages_8":"8","04_ages_9":"9","04_ages_10":"10","04_ages_11":"11","04_ages_12":"12","04_ages_13":"13","04_ages_14":"14","04_ages_15":"15","04_ages_16":"16","04_ages_17":"17","04_ages_18":"18"},"rt":64421.200000047684,"item_order":[0,1,2,3],"radio_events":[4899.100000023842,20162.899999976158,34818.89999997616,53858.799999952316],"checkbox_events":[7523.200000047684,7946.899999976158,8427.100000023842,8826.899999976158,9395.200000047684,9755.200000047684,10099.5,10547.200000047684,11067.299999952316,11451.100000023842,12043.200000047684,12443.200000047684,13059.100000023842,13570.899999976158,14163.299999952316,14675,15235.100000023842,15827.100000023842,21299,21851.200000047684,22691.100000023842,23019.700000047684,24027.100000023842,24395,24827.600000023842,25331.100000023842,25858.799999952316,26363.100000023842,27339.100000023842,27779.399999976158,28330.799999952316,28819.100000023842,29419,30243.100000023842,30995,32115.5,36299,38595,40018.799999952316,40490.89999997616,41066.799999952316,41458.89999997616,41834.89999997616,42402.89999997616,43203,44866.299999952316,45148.299999952316,45516.60000002384,45944.5,46213.10000002384,46462.299999952316,46681.200000047684,46910.299999952316,47168.200000047684,48345.60000002384,48979.799999952316,57063.700000047684,57344,57618.299999952316,57915.299999952316,58192.700000047684,58460.299999952316,58725.10000002384,58965.60000002384,59204,59440.60000002384,59718.39999997616,60002,60254,60521.60000002384,60769.299999952316,61036.200000047684,61293.89999997616,61501.799999952316,62769.799999952316,62987.39999997616],"key_events":[],"mouse_events":[4899.100000023842,7523.200000047684,7946.899999976158,8427.100000023842,8826.899999976158,9395.200000047684,9755.200000047684,10099.5,10547.200000047684,11067.299999952316,11451.100000023842,12043.200000047684,12443.200000047684,13059.100000023842,13570.899999976158,14163.299999952316,14675,15235.100000023842,15827.100000023842,20162.899999976158,21299,21851.200000047684,22211,22691.100000023842,23019.700000047684,23394.899999976158,24027.100000023842,24395,24827.600000023842,25331.100000023842,25858.799999952316,26363.100000023842,26947,27339.100000023842,27779.399999976158,28330.799999952316,28819.100000023842,29419,30243.100000023842,30995,32115.5,34818.89999997616,35938.799999952316,36299,38595,38955.10000002384,39338.700000047684,40018.799999952316,40490.89999997616,41066.799999952316,41458.89999997616,41834.89999997616,42402.89999997616,43203,44866.299999952316,45148.299999952316,45516.60000002384,45944.5,46213.10000002384,46462.299999952316,46681.200000047684,46910.299999952316,47168.200000047684,48345.60000002384,48979.799999952316,53858.799999952316,57063.700000047684,57344,57618.299999952316,57915.299999952316,58192.700000047684,58460.299999952316,58725.10000002384,58965.60000002384,59204,59440.60000002384,59718.39999997616,60002,60254,60521.60000002384,60769.299999952316,61036.200000047684,61293.89999997616,61501.799999952316,62769.799999952316,62987.39999997616,64419],"honeypot":0,"survey":"mace","page":9,"trial_type":"survey-mace","trial_index":17,"time_elapsed":656707,"internal_node_id":"0.0-17.0","task_version":"prescreen-v0.3","browser_interactions":0},{"responses":{"01":"No","02":"No","03":"No","04":"No","05":"No","06":"Yes","06_ages_17":"17","07":"Yes","07_ages_1":"1","07_ages_2":"2","07_ages_3":"3","07_ages_4":"4","07_ages_5":"5","07_ages_6":"6","07_ages_7":"7","07_ages_8":"8","07_ages_9":"9","07_ages_10":"10","07_ages_11":"11","07_ages_12":"12","07_ages_13":"13","07_ages_14":"14","07_ages_15":"15","07_ages_16":"16","07_ages_17":"17","07_ages_18":"18","08":"Yes","08_ages_1":"1","08_ages_2":"2","08_ages_3":"3","08_ages_4":"4","08_ages_5":"5","08_ages_6":"6","08_ages_7":"7","08_ages_8":"8","08_ages_9":"9","08_ages_10":"10","08_ages_11":"11","08_ages_12":"12","08_ages_13":"13","08_ages_14":"14","08_ages_15":"15","08_ages_16":"16","08_ages_17":"17","08_ages_18":"18"},"rt":55221.799999952316,"item_order":[0,1,2,3,4,5,6,7],"radio_events":[4265.699999928474,6025.599999904633,7577.599999904633,16041.599999904633,16769.699999928474,19889.599999904633,25865.599999904633,42537.59999990463],"checkbox_events":[21961.5,29025.5,30081.899999976158,30657.399999976158,32471.899999976158,32842,33258.5,33634.09999990463,33980.799999952316,34397,34733.89999997616,35070.5,35377.59999990463,35783.59999990463,36111.09999990463,36467.199999928474,36774.59999990463,37101.59999990463,37379.09999990463,37666.39999997616,38647.59999990463,44572.799999952316,44889.699999928474,45177.09999990463,45484.59999990463,45752.09999990463,46038.89999997616,46336.199999928474,46643.09999990463,46910.59999990463,47158.199999928474,47494,47771.199999928474,48049.89999997616,48375.09999990463,48654.59999990463,48971.5,49269.299999952316,49586.199999928474,49862.799999952316,50100.59999990463,50308.699999928474,51617.299999952316,51953.39999997616,52439.299999952316,52696.799999952316,52884.5],"key_events":[],"mouse_events":[4265.699999928474,6025.599999904633,7577.599999904633,12801.699999928474,15373.699999928474,16041.599999904633,16769.699999928474,19889.599999904633,21961.5,25865.599999904633,29025.5,29641.699999928474,30081.899999976158,30657.399999976158,32471.899999976158,32842,33258.5,33634.09999990463,33980.799999952316,34397,34733.89999997616,35070.5,35377.59999990463,35783.59999990463,36111.09999990463,36467.199999928474,36774.59999990463,37101.59999990463,37379.09999990463,37666.39999997616,38647.59999990463,42001.5,42537.59999990463,44572.799999952316,44889.699999928474,45177.09999990463,45484.59999990463,45752.09999990463,46038.89999997616,46336.199999928474,46643.09999990463,46910.59999990463,47158.199999928474,47494,47771.199999928474,48049.89999997616,48375.09999990463,48654.59999990463,48971.5,49269.299999952316,49586.199999928474,49862.799999952316,50100.59999990463,50308.699999928474,51617.299999952316,51953.39999997616,52439.299999952316,52696.799999952316,52884.5,55217.699999928474],"honeypot":0,"survey":"mace","page":10,"trial_type":"survey-mace","trial_index":18,"time_elapsed":711934,"internal_node_id":"0.0-18.0","task_version":"prescreen-v0.3","browser_interactions":0,"instructed":0},{"rt":7512.200000047684,"trial_type":"mental-health-alert","trial_index":19,"time_elapsed":719448,"internal_node_id":"0.0-19.0","task_version":"prescreen-v0.3","interactions":"[]"}]