[{"view_history":[{"page_index":0,"viewing_time":2608.5999999940395},{"page_index":1,"viewing_time":2694.199999988079},{"page_index":2,"viewing_time":2660.100000023842},{"page_index":3,"viewing_time":954.0999999940395}],"rt":8917.699999988079,"trial_type":"instructions","trial_index":0,"time_elapsed":8933,"internal_node_id":"0.0-0.0","task_version":"prescreen-v0.3"},{"rt":12692.09999999404,"responses":{"age":"36","gender-categorical":"Male","gender-free-response":"","ethnicity":"Hispanic or Latino","race":["White"],"education":"Master degree or higher","siblings":"0"},"trial_type":"survey-demo","trial_index":1,"time_elapsed":21629,"internal_node_id":"0.0-1.0","task_version":"prescreen-v0.3"},{"responses":{"Q11":"2","Q19":"1","Q14":"1","Q20":"0","Q05":"2","Q17":"2","Q18":"1","Q09":"1","Q04":"1","Q07":"0","Q02":"2","Q13":"1","Q06":"1","Q21":"3","Q16":"1","Q08":"1","Q01":"2","Q10":"2","Q15":"1","Q12":"2","Q03":"1"},"rt":75707.09999999404,"item_order":[10,18,13,19,4,16,17,8,3,6,1,12,5,20,15,7,0,9,14,11,2],"radio_events":[3181.7999999821186,4801.4000000059605,11169.699999988079,13763.699999988079,16247.09999999404,21279.19999998808,24861.5,28265.40000000596,31109.79999998212,34809.69999998808,39055.29999998212,40545.5,43125.59999999404,45513.59999999404,48421.40000000596,50879.69999998808,57809.69999998808,59491.29999998212,61655.69999998808,64579.29999998212,69441.5,72453.59999999404,74775.59999999404],"key_events":[],"mouse_events":[3181.7999999821186,4801.4000000059605,10687.299999982119,11169.699999988079,13763.699999988079,16247.09999999404,21279.19999998808,24861.5,28265.40000000596,31109.79999998212,34809.69999998808,39055.29999998212,40545.5,43125.59999999404,45513.59999999404,48421.40000000596,50879.69999998808,57809.69999998808,59491.29999998212,61655.69999998808,64579.29999998212,69441.5,72453.59999999404,74775.59999999404,75705.59999999404],"straightlining":0.5238095238095238,"zigzagging":0.45,"honeypot":0,"survey":"sns","trial_type":"survey-template","trial_index":2,"time_elapsed":97343,"internal_node_id":"0.0-2.0","task_version":"prescreen-v0.3","browser_interactions":0,"infrequency":0},{"responses":{"Q10":"2","Q05":"2","Q08":"2","Q04":"3","Q07":"2","Q06":"3","Q12":"1","Q03":"3","Q01":"3","Q02":"3","Q09":"2","Q13":"0","Q11":"2"},"rt":43226.90000000596,"item_order":[9,4,7,3,6,5,11,2,0,1,8,12,10],"radio_events":[10181.300000011921,12441.800000011921,15461.90000000596,17945.90000000596,20867.80000001192,23687.70000001788,25931.90000000596,29938,31739.70000001788,33581.90000000596,36369.60000002384,38299.60000002384,42361.90000000596],"key_events":[],"mouse_events":[10181.300000011921,12441.800000011921,15461.90000000596,17945.90000000596,20467.40000000596,20867.80000001192,23351.30000001192,23687.70000001788,25931.90000000596,29615.90000000596,29938,31739.70000001788,33581.90000000596,36369.60000002384,38299.60000002384,42361.90000000596,43226],"straightlining":0.46153846153846156,"zigzagging":0.3333333333333333,"honeypot":0,"survey":"bisbas","trial_type":"survey-template","trial_index":3,"time_elapsed":140574,"internal_node_id":"0.0-3.0","task_version":"prescreen-v0.3","browser_interactions":0,"infrequency":0},{"responses":{"Q01":"3","Q02":"2","Q03":"2"},"rt":15337.5,"radio_events":[5210.800000011921,9152.5,10538.40000000596,14440.59999999404],"key_events":[],"mouse_events":[5210.800000011921,9152.5,10138.300000011921,10538.40000000596,14440.59999999404,15336.699999988079],"survey":"map","page":1,"trial_type":"survey-map","trial_index":4,"time_elapsed":155916,"internal_node_id":"0.0-4.0","task_version":"prescreen-v0.3","browser_interactions":0},{"responses":{"Q04":"3","Q05":"2","Q06":"3"},"rt":12541.59999999404,"radio_events":[4297,9952.59999999404,10803.199999988079],"key_events":[],"mouse_events":[4297,8383.299999982119,9536.59999999404,9952.59999999404,10803.199999988079,12541.199999988079],"survey":"map","page":2,"trial_type":"survey-map","trial_index":5,"time_elapsed":168461,"internal_node_id":"0.0-5.0","task_version":"prescreen-v0.3","browser_interactions":0},{"responses":{"Q07":"3","Q08":"1","Q09":"2"},"rt":12180.199999988079,"radio_events":[3583.300000011921,7157.5999999940395,11395.59999999404],"key_events":[],"mouse_events":[3583.300000011921,7157.5999999940395,11395.59999999404,12179.59999999404],"survey":"map","page":3,"trial_type":"survey-map","trial_index":6,"time_elapsed":180645,"internal_node_id":"0.0-6.0","task_version":"prescreen-v0.3","browser_interactions":0},{"responses":{"Q10":"1","Q11":"1","Q12":"3","Q13":"3","Q16":"0","Q14":"3","Q15":"3"},"rt":27704.80000001192,"radio_events":[3544,6051.800000011921,11587.700000017881,15503.90000000596,19109.90000000596,23233.80000001192,26373.80000001192],"key_events":[],"mouse_events":[3223.9000000059605,3544,6051.800000011921,11251.300000011921,11587.700000017881,15503.90000000596,19109.90000000596,23233.80000001192,26373.80000001192,27704],"survey":"map","page":4,"trial_type":"survey-map","trial_index":7,"time_elapsed":208354,"internal_node_id":"0.0-7.0","task_version":"prescreen-v0.3","browser_interactions":0,"infrequency":0},{"view_history":[{"page_index":0,"viewing_time":2343.0999999940395},{"page_index":1,"viewing_time":3997.800000011921}],"rt":6341.5999999940395,"trial_type":"instructions","trial_index":8,"time_elapsed":214699,"internal_node_id":"0.0-8.0","task_version":"prescreen-v0.3"},{"responses":{"01":"No","02":"No","03":"No","04":"No","05":"No","06":"No"},"rt":26022.20000001788,"item_order":[0,1,2,3,4,5],"radio_events":[7130.9000000059605,8974.700000017881,13732.40000000596,16704.90000000596,18924.30000001192,20414.80000001192,22144.5,25156.70000001788],"checkbox_events":[],"key_events":[],"mouse_events":[0.09999999403953552,7130.9000000059605,8974.700000017881,13732.40000000596,16704.90000000596,18924.30000001192,20414.80000001192,22144.5,25156.70000001788,26020.30000001192],"honeypot":0,"survey":"mace","page":1,"trial_type":"survey-mace","trial_index":9,"time_elapsed":240727,"internal_node_id":"0.0-9.0","task_version":"prescreen-v0.3","browser_interactions":0},{"responses":{"01":"No","02":"No","03":"No","04":"No","05":"No","06":"No","07":"No","08":"No"},"rt":17003.80000001192,"item_order":[0,1,2,3,4,5,6,7],"radio_events":[2109.2000000178814,6249.0999999940395,7515,8717.300000011921,10734.40000000596,12651.300000011921,14644.90000000596,16327.300000011921],"checkbox_events":[],"key_events":[],"mouse_events":[2109.2000000178814,6249.0999999940395,7515,8717.300000011921,10734.40000000596,12651.300000011921,14181.300000011921,14644.90000000596,16327.300000011921,17001.20000001788],"honeypot":0,"survey":"mace","page":2,"trial_type":"survey-mace","trial_index":10,"time_elapsed":257736,"internal_node_id":"0.0-10.0","task_version":"prescreen-v0.3","browser_interactions":0},{"responses":{"01":"No","02":"No","03":"No","04":"No"},"rt":8332.100000023842,"item_order":[0,1,2,3],"radio_events":[2890.7000000178814,4630.4000000059605,6632.5,7658.700000017881],"checkbox_events":[],"key_events":[],"mouse_events":[2890.7000000178814,4630.4000000059605,6632.5,7658.700000017881,8330.700000017881],"honeypot":0,"survey":"mace","page":3,"trial_type":"survey-mace","trial_index":11,"time_elapsed":266073,"internal_node_id":"0.0-11.0","task_version":"prescreen-v0.3","browser_interactions":0},{"responses":{"01":"No","02":"No"},"rt":8510.700000017881,"item_order":[0,1],"radio_events":[5218.0999999940395,6780],"checkbox_events":[],"key_events":[],"mouse_events":[5218.0999999940395,6780,8510],"honeypot":0,"survey":"mace","page":4,"trial_type":"survey-mace","trial_index":12,"time_elapsed":274588,"internal_node_id":"0.0-12.0","task_version":"prescreen-v0.3","browser_interactions":0},{"responses":{"01":"No","02":"No","03":"No","04":"No","05":"No"},"rt":16716.30000001192,"item_order":[0,1,2,3,4],"radio_events":[6884.5999999940395,9000.59999999404,10650.90000000596,13068.5,14854.5],"checkbox_events":[],"key_events":[],"mouse_events":[6884.5999999940395,9000.59999999404,10650.90000000596,13068.5,14854.5,16714.59999999404],"honeypot":0,"survey":"mace","page":5,"trial_type":"survey-mace","trial_index":13,"time_elapsed":291309,"internal_node_id":"0.0-13.0","task_version":"prescreen-v0.3","browser_interactions":0},{"responses":{"01":"Yes","01_ages_14":"14","01_ages_15":"15","01_ages_16":"16","02":"Yes","02_ages_14":"14","02_ages_15":"15","02_ages_16":"16","03":"No","04":"Yes","04_ages_12":"12","04_ages_13":"13","04_ages_14":"14","04_ages_15":"15","05":"No"},"rt":54405.30000001192,"item_order":[0,1,2,3,4],"radio_events":[6457.4000000059605,37869.70000001788,44837.70000001788,46513.40000000596,53137.80000001192],"checkbox_events":[12257.90000000596,12707.90000000596,13443.300000011921,39679.5,40127.80000001192,41065,48379.40000000596,48811.80000001192,49677.70000001788,50365.80000001192],"key_events":[],"mouse_events":[6457.4000000059605,12257.90000000596,12707.90000000596,13443.300000011921,37869.70000001788,39679.5,40127.80000001192,41065,44837.70000001788,46513.40000000596,48379.40000000596,48811.80000001192,49677.70000001788,50365.80000001192,53137.80000001192,54403.70000001788],"honeypot":0,"survey":"mace","page":6,"trial_type":"survey-mace","trial_index":14,"time_elapsed":345719,"internal_node_id":"0.0-14.0","task_version":"prescreen-v0.3","browser_interactions":0},{"responses":{"01":"No","02":"No","03":"No","04":"No","05":"No","06":"No","07":"No"},"rt":15983.90000000596,"item_order":[0,1,2,3,4,5,6],"radio_events":[4117.699999988079,6057.299999982119,8003.299999982119,11103.40000000596,12800.90000000596,14443.299999982119,15165.59999999404],"checkbox_events":[],"key_events":[],"mouse_events":[4117.699999988079,6057.299999982119,8003.299999982119,11103.40000000596,12800.90000000596,14443.299999982119,15165.59999999404,15981.59999999404],"honeypot":0,"survey":"mace","page":7,"trial_type":"survey-mace","trial_index":15,"time_elapsed":361708,"internal_node_id":"0.0-15.0","task_version":"prescreen-v0.3","browser_interactions":0},{"responses":{"01":"No","02":"No","03":"Yes","03_ages_11":"11","03_ages_12":"12","03_ages_13":"13","03_ages_14":"14","03_ages_15":"15","03_ages_16":"16","03_ages_17":"17","03_ages_18":"18","04":"No"},"rt":27248.09999999404,"item_order":[0,1,2,3],"radio_events":[7837.200000017881,15423.40000000596,18699.09999999404,26589.40000000596],"checkbox_events":[20789.40000000596,21143.40000000596,21463.40000000596,21799.20000001788,22119.40000000596,22439.30000001192,23449,23849.20000001788,24123.20000001788,24443.09999999404],"key_events":[],"mouse_events":[7837.200000017881,15423.40000000596,18699.09999999404,20789.40000000596,21143.40000000596,21463.40000000596,21799.20000001788,22119.40000000596,22439.30000001192,22777.20000001788,23160.90000000596,23449,23849.20000001788,24123.20000001788,24443.09999999404,26589.40000000596,27246.80000001192],"honeypot":0,"survey":"mace","page":8,"trial_type":"survey-mace","trial_index":16,"time_elapsed":388960,"internal_node_id":"0.0-16.0","task_version":"prescreen-v0.3","browser_interactions":0},{"responses":{"01":"Yes","01_ages_1":"1","01_ages_2":"2","01_ages_3":"3","01_ages_4":"4","01_ages_5":"5","01_ages_6":"6","01_ages_7":"7","01_ages_8":"8","01_ages_9":"9","01_ages_10":"10","01_ages_11":"11","01_ages_12":"12","01_ages_13":"13","01_ages_14":"14","01_ages_15":"15","01_ages_16":"16","01_ages_17":"17","01_ages_18":"18","02":"Yes","02_ages_1":"1","02_ages_2":"2","02_ages_3":"3","02_ages_4":"4","02_ages_5":"5","02_ages_6":"6","02_ages_7":"7","02_ages_8":"8","02_ages_9":"9","02_ages_10":"10","02_ages_11":"11","02_ages_12":"12","02_ages_13":"13","02_ages_14":"14","02_ages_15":"15","02_ages_16":"16","02_ages_17":"17","02_ages_18":"18","03":"Yes","03_ages_1":"1","03_ages_2":"2","03_ages_3":"3","03_ages_4":"4","03_ages_5":"5","03_ages_6":"6","03_ages_7":"7","03_ages_8":"8","03_ages_9":"9","03_ages_10":"10","03_ages_11":"11","03_ages_12":"12","03_ages_13":"13","03_ages_14":"14","03_ages_15":"15","03_ages_16":"16","03_ages_17":"17","03_ages_18":"18","04":"Yes","04_ages_1":"1","04_ages_2":"2","04_ages_3":"3","04_ages_4":"4","04_ages_5":"5","04_ages_6":"6","04_ages_7":"7","04_ages_8":"8","04_ages_9":"9","04_ages_10":"10","04_ages_11":"11","04_ages_12":"12","04_ages_13":"13","04_ages_14":"14","04_ages_15":"15","04_ages_16":"16","04_ages_17":"17","04_ages_18":"18"},"rt":64740,"item_order":[0,1,2,3],"radio_events":[3415,17994.5,31725,46106.90000000596],"checkbox_events":[6226.9000000059605,6514.9000000059605,6850.699999988079,7604.800000011921,8325,8719,9071.09999999404,9806.699999988079,10209,10704.699999988079,11457.09999999404,11890.699999988079,12634.800000011921,13067,13517,14236.90000000596,14942.90000000596,15486.5,18891,19325,19788.80000001192,20268.40000000596,20748.90000000596,21182.80000001192,21601.69999998808,23328.90000000596,23784.90000000596,24538.19999998808,25082.5,25580.90000000596,26140.30000001192,26604.90000000596,27022.40000000596,27471,27951.09999999404,28472.80000001192,32748.80000001192,33766.90000000596,34198.80000001192,34616.59999999404,35112.69999998808,35496.5,35904.80000001192,36291.09999999404,36682.40000000596,36971,37362.69999998808,37732.69999998808,38580.90000000596,39575.30000001192,40227.19999998808,40740.90000000596,41189,41572.69999998808,41957,42359.09999999404,50097,50448.59999999404,51394.90000000596,52067,52387,52884.80000001192,53252.80000001192,53892.80000001192,54230.80000001192,54982.69999998808,55367,55769,56168.90000000596,57787,58170.80000001192,58650.90000000596,59437,59772.5],"key_events":[],"mouse_events":[3014.9000000059605,3415,6226.9000000059605,6514.9000000059605,6850.699999988079,7300.300000011921,7604.800000011921,7948.9000000059605,8325,8719,9071.09999999404,9407,9806.699999988079,10209,10704.699999988079,11089.5,11457.09999999404,11890.699999988079,12634.800000011921,13067,13517,13932.300000011921,14236.90000000596,14942.90000000596,15486.5,17672.5,17994.5,18891,19325,19788.80000001192,20268.40000000596,20748.90000000596,21182.80000001192,21601.69999998808,21998.40000000596,22896.80000001192,23328.90000000596,23784.90000000596,24538.19999998808,25082.5,25580.90000000596,26140.30000001192,26604.90000000596,27022.40000000596,27471,27951.09999999404,28472.80000001192,31725,32748.80000001192,33086.90000000596,33766.90000000596,34198.80000001192,34616.59999999404,35112.69999998808,35496.5,35904.80000001192,36291.09999999404,36682.40000000596,36971,37362.69999998808,37732.69999998808,38580.90000000596,38940.40000000596,39575.30000001192,40227.19999998808,40740.90000000596,41189,41572.69999998808,41957,42359.09999999404,45562.59999999404,46106.90000000596,50097,50448.59999999404,50784.69999998808,51394.90000000596,51762.69999998808,52067,52387,52884.80000001192,53252.80000001192,53589,53892.80000001192,54230.80000001192,54631,54982.69999998808,55367,55769,56168.90000000596,56537,56904.90000000596,57145.09999999404,57787,58170.80000001192,58650.90000000596,58988.30000001192,59437,59772.5,64738.69999998808],"honeypot":0,"survey":"mace","page":9,"trial_type":"survey-mace","trial_index":17,"time_elapsed":453705,"internal_node_id":"0.0-17.0","task_version":"prescreen-v0.3","browser_interactions":0},{"responses":{"01":"No","02":"No","03":"Yes","03_ages_16":"16","03_ages_17":"17","03_ages_18":"18","04":"No","05":"No","06":"Yes","06_ages_17":"17","07":"Yes","07_ages_1":"1","07_ages_2":"2","07_ages_3":"3","07_ages_4":"4","07_ages_5":"5","07_ages_6":"6","07_ages_7":"7","07_ages_8":"8","07_ages_9":"9","07_ages_10":"10","07_ages_11":"11","07_ages_12":"12","07_ages_13":"13","07_ages_14":"14","07_ages_15":"15","07_ages_16":"16","07_ages_17":"17","07_ages_18":"18","08":"Yes","08_ages_1":"1","08_ages_2":"2","08_ages_3":"3","08_ages_4":"4","08_ages_5":"5","08_ages_6":"6","08_ages_7":"7","08_ages_8":"8","08_ages_9":"9","08_ages_10":"10","08_ages_11":"11","08_ages_12":"12","08_ages_13":"13","08_ages_14":"14","08_ages_15":"15","08_ages_16":"16","08_ages_17":"17","08_ages_18":"18"},"rt":44134.70000001788,"item_order":[0,1,2,3,4,5,6,7],"radio_events":[3391.800000011921,4320.5,6980.300000011921,11754.300000011921,13798.40000000596,15174.5,18900.30000001192,31004.40000000596],"checkbox_events":[8277.90000000596,8998.200000017881,9352.700000017881,16608.09999999404,19764.40000000596,20182.30000001192,20726.5,21173.70000001788,21592.40000000596,21992.59999999404,22472.5,22840.20000001788,23258.20000001788,24636.30000001192,25083.80000001192,25612.40000000596,26142.40000000596,26574.30000001192,27054.09999999404,28304.40000000596,28640.5,29394.5,32094.40000000596,32542.40000000596,33022.40000000596,34056.20000001788,34408.30000001192,35514.20000001788,35994.20000001788,36457.80000001192,37388.20000001788,37884.20000001788,38350.30000001192,38910.5,39374.40000000596,39872.40000000596,40320.40000000596,40816.5,41825.90000000596,42692.40000000596],"key_events":[],"mouse_events":[3391.800000011921,4320.5,6500.5,6980.300000011921,8277.90000000596,8694.300000011921,8998.200000017881,9352.700000017881,11754.300000011921,13798.40000000596,15174.5,16608.09999999404,18900.30000001192,19764.40000000596,20182.30000001192,20726.5,21173.70000001788,21592.40000000596,21992.59999999404,22472.5,22840.20000001788,23258.20000001788,23658.09999999404,24074.5,24636.30000001192,25083.80000001192,25612.40000000596,26142.40000000596,26574.30000001192,27054.09999999404,27536.5,28304.40000000596,28640.5,29394.5,31004.40000000596,32094.40000000596,32542.40000000596,33022.40000000596,33478.20000001788,34056.20000001788,34408.30000001192,34984.5,35514.20000001788,35994.20000001788,36457.80000001192,36924.30000001192,37388.20000001788,37884.20000001788,38350.30000001192,38910.5,39374.40000000596,39872.40000000596,40320.40000000596,40816.5,41442.20000001788,41825.90000000596,42178.20000001788,42692.40000000596,44132.30000001192],"honeypot":0,"survey":"mace","page":10,"trial_type":"survey-mace","trial_index":18,"time_elapsed":497844,"internal_node_id":"0.0-18.0","task_version":"prescreen-v0.3","browser_interactions":0,"instructed":0},{"rt":4175.399999976158,"trial_type":"mental-health-alert","trial_index":19,"time_elapsed":502023,"internal_node_id":"0.0-19.0","task_version":"prescreen-v0.3","interactions":"[]"}]