[{"view_history":[{"page_index":0,"viewing_time":7486},{"page_index":1,"viewing_time":6215},{"page_index":2,"viewing_time":5112},{"page_index":3,"viewing_time":2080}],"rt":20893,"trial_type":"instructions","trial_index":0,"time_elapsed":20898,"internal_node_id":"0.0-0.0","task_version":"prescreen-v0.3"},{"rt":34176,"responses":{"age":"52","gender-categorical":"Female","gender-free-response":"","ethnicity":"Not Hispanic or Latino","race":["White"],"education":"Some college"},"trial_type":"survey-demo","trial_index":1,"time_elapsed":55094,"internal_node_id":"0.0-1.0","task_version":"prescreen-v0.3"},{"responses":{"Q15":"3","Q10":"0","Q05":"1","Q06":"0","Q21":"3","Q19":"2","Q11":"1","Q16":"3","Q12":"1","Q17":"0","Q13":"3","Q14":"3","Q03":"1","Q20":"2","Q07":"0","Q01":"1","Q18":"2","Q02":"0","Q04":"2","Q09":"1","Q08":"2"},"rt":182009,"item_order":[14,9,4,5,20,18,10,15,11,16,12,13,2,19,6,0,17,1,3,8,7],"radio_events":[9486,17486,38710,46158,48966,55151,71750,75959,83398,94830,101551,110430,114807,121382,125646,137974,141150,147446,153214,160183,167390,174934],"key_events":[],"mouse_events":[9486,17486,38710,46158,48966,55151,71750,75959,83398,89238,90526,94830,101551,110430,114807,121382,125646,135622,137974,141150,147446,153214,157719,159078,160183,167390,172214,173150,173902,174934,182009],"straightlining":0.2857142857142857,"zigzagging":0.65,"honeypot":0,"survey":"sns","trial_type":"survey-template","trial_index":2,"time_elapsed":237127,"internal_node_id":"0.0-2.0","task_version":"prescreen-v0.3","browser_interactions":0,"infrequency":0},{"responses":{"Q09":"1","Q08":"2","Q11":"1","Q05":"3","Q10":"1","Q06":"3","Q07":"2","Q03":"2","Q04":"3","Q02":"1","Q12":"1","Q13":"0","Q01":"2"},"rt":494579,"item_order":[8,7,10,4,9,5,6,2,3,1,11,12,0],"radio_events":[425831,430999,435015,440119,445175,453400,458006,464192,469535,477319,482591,487463,492240],"key_events":[],"mouse_events":[424975,425831,430999,435015,440119,445175,453400,458006,464192,468663,469535,477319,482591,487463,492240,494579],"straightlining":0.38461538461538464,"zigzagging":0.4166666666666667,"honeypot":0,"survey":"bisbas","trial_type":"survey-template","trial_index":3,"time_elapsed":731721,"internal_node_id":"0.0-3.0","task_version":"prescreen-v0.3","browser_interactions":2,"infrequency":0},{"responses":{"Q01":"2","Q02":"2","Q03":"2"},"rt":33878,"radio_events":[12101,22893,31270],"key_events":[],"mouse_events":[12101,22893,31270,33878],"survey":"map","page":1,"trial_type":"survey-map","trial_index":4,"time_elapsed":765604,"internal_node_id":"0.0-4.0","task_version":"prescreen-v0.3","browser_interactions":0},{"responses":{"Q04":"1","Q05":"1","Q06":"2"},"rt":23909,"radio_events":[8580,17548,22348],"key_events":[],"mouse_events":[8580,15436,17548,22348,23909],"survey":"map","page":2,"trial_type":"survey-map","trial_index":5,"time_elapsed":789516,"internal_node_id":"0.0-5.0","task_version":"prescreen-v0.3","browser_interactions":0},{"responses":{"Q07":"4","Q08":"0","Q09":"3"},"rt":25612,"radio_events":[8706,12867,19851,23484],"key_events":[],"mouse_events":[8706,12867,19851,23484,25612],"survey":"map","page":3,"trial_type":"survey-map","trial_index":6,"time_elapsed":815133,"internal_node_id":"0.0-6.0","task_version":"prescreen-v0.3","browser_interactions":0},{"responses":{"Q10":"1","Q11":"0","Q12":"1","Q13":"1","Q16":"0","Q14":"1","Q15":"0"},"rt":55596,"radio_events":[9268,14252,22291,32467,38595,45643,51667],"key_events":[],"mouse_events":[9268,14252,22291,32467,38595,45643,51667,55596],"survey":"map","page":4,"trial_type":"survey-map","trial_index":7,"time_elapsed":870734,"internal_node_id":"0.0-7.0","task_version":"prescreen-v0.3","browser_interactions":0,"infrequency":0},{"view_history":[{"page_index":0,"viewing_time":2933},{"page_index":1,"viewing_time":4543}],"rt":7476,"trial_type":"instructions","trial_index":8,"time_elapsed":878211,"internal_node_id":"0.0-8.0","task_version":"prescreen-v0.3"},{"responses":{"01":"No","02":"Yes","02_ages_10":"10","02_ages_17":"17","02_ages_18":"18","03":"No","04":"No","05":"No","06":"No"},"rt":82179,"item_order":[0,1,2,3,4,5],"radio_events":[13336,30824,55920,60504,63872,78416],"checkbox_events":[40233,45408,46593],"key_events":[],"mouse_events":[0,12352,13336,24768,27896,29881,30824,40233,45408,46593,55072,55920,60504,63872,78416,82179],"honeypot":0,"survey":"mace","page":1,"trial_type":"survey-mace","trial_index":9,"time_elapsed":960400,"internal_node_id":"0.0-9.0","task_version":"prescreen-v0.3","browser_interactions":0},{"responses":{"01":"No","02":"No","03":"Yes","03_ages_5":"5","03_ages_6":"6","03_ages_7":"7","04":"No","05":"Yes","05_ages_5":"5","05_ages_6":"6","05_ages_7":"7","06":"No","07":"No","08":"No"},"rt":66657,"item_order":[0,1,2,3,4,5,6,7],"radio_events":[7725,13526,16405,41326,46965,56813,59557,62829],"checkbox_events":[24405,25693,36485,50741,51678,53021],"key_events":[],"mouse_events":[7725,13526,16405,24405,25693,36485,41326,46965,50741,51678,53021,56813,59557,62829,66656],"honeypot":0,"survey":"mace","page":2,"trial_type":"survey-mace","trial_index":10,"time_elapsed":1027065,"internal_node_id":"0.0-10.0","task_version":"prescreen-v0.3","browser_interactions":0},{"responses":{"01":"No","02":"No","03":"No","04":"No"},"rt":33335,"item_order":[0,1,2,3],"radio_events":[23253,27342,29862,32069],"checkbox_events":[],"key_events":[],"mouse_events":[23253,27342,29862,32069,33335],"honeypot":0,"survey":"mace","page":3,"trial_type":"survey-mace","trial_index":11,"time_elapsed":1060406,"internal_node_id":"0.0-11.0","task_version":"prescreen-v0.3","browser_interactions":0},{"responses":{"01":"No","02":"No"},"rt":12290,"item_order":[0,1],"radio_events":[8353,10545],"checkbox_events":[],"key_events":[],"mouse_events":[8353,10545,12290],"honeypot":0,"survey":"mace","page":4,"trial_type":"survey-mace","trial_index":12,"time_elapsed":1072701,"internal_node_id":"0.0-12.0","task_version":"prescreen-v0.3","browser_interactions":0},{"responses":{"01":"No","02":"No","03":"No","04":"No","05":"No"},"rt":36692,"item_order":[0,1,2,3,4],"radio_events":[16289,21953,26417,29857,34737],"checkbox_events":[],"key_events":[],"mouse_events":[16289,21953,26417,29857,34737,36691],"honeypot":0,"survey":"mace","page":5,"trial_type":"survey-mace","trial_index":13,"time_elapsed":1109398,"internal_node_id":"0.0-13.0","task_version":"prescreen-v0.3","browser_interactions":0},{"responses":{"01":"No","02":"Yes","02_ages_10":"10","02_ages_11":"11","02_ages_13":"13","03":"No","04":"No","05":"Yes","05_ages_11":"11","05_ages_13":"13","05_ages_14":"14"},"rt":99266,"item_order":[0,1,2,3,4],"radio_events":[25136,30287,66160,73664,77072],"checkbox_events":[43024,52080,59280,84656,89232,96920],"key_events":[],"mouse_events":[25136,30287,43024,50976,52080,59280,66160,73664,77072,84656,89232,96920,99266],"honeypot":0,"survey":"mace","page":6,"trial_type":"survey-mace","trial_index":14,"time_elapsed":1208671,"internal_node_id":"0.0-14.0","task_version":"prescreen-v0.3","browser_interactions":0},{"responses":{"01":"No","02":"No","03":"Yes","03_ages_12":"12","03_ages_13":"13","04":"Yes","04_ages_12":"12","04_ages_13":"13","05":"No","06":"Yes","06_ages_16":"16","06_ages_17":"17","07":"Yes","07_ages_16":"16","07_ages_17":"17"},"rt":80641,"item_order":[0,1,2,3,4,5,6],"radio_events":[8814,14742,18046,29838,43118,47334,50263,55694,74230],"checkbox_events":[21855,22894,33094,35143,58742,64150,76470,78422],"key_events":[],"mouse_events":[8814,14742,18046,21855,22894,29838,33094,35143,43118,47334,50263,55694,58742,64150,74230,76470,78422,80641],"honeypot":0,"survey":"mace","page":7,"trial_type":"survey-mace","trial_index":15,"time_elapsed":1289322,"internal_node_id":"0.0-15.0","task_version":"prescreen-v0.3","browser_interactions":0},{"responses":{"01":"Yes","01_ages_12":"12","01_ages_13":"13","01_ages_14":"14","01_ages_15":"15","02":"No","03":"No","04":"No"},"rt":50615,"item_order":[0,1,2,3],"radio_events":[11180,32476,41540,49172],"checkbox_events":[20748,22180,24340,26180],"key_events":[],"mouse_events":[11180,20748,22180,24340,26180,32476,41540,49172,50614],"honeypot":0,"survey":"mace","page":8,"trial_type":"survey-mace","trial_index":16,"time_elapsed":1339943,"internal_node_id":"0.0-16.0","task_version":"prescreen-v0.3","browser_interactions":0},{"responses":{"01":"Yes","01_ages_9":"9","01_ages_10":"10","01_ages_11":"11","01_ages_12":"12","01_ages_13":"13","01_ages_14":"14","01_ages_15":"15","01_ages_16":"16","02":"Yes","02_ages_6":"6","02_ages_7":"7","02_ages_8":"8","02_ages_9":"9","03":"Yes","03_ages_1":"1","03_ages_2":"2","03_ages_3":"3","03_ages_4":"4","03_ages_5":"5","03_ages_6":"6","03_ages_7":"7","03_ages_8":"8","03_ages_9":"9","03_ages_10":"10","03_ages_11":"11","04":"Yes","04_ages_1":"1","04_ages_2":"2","04_ages_3":"3","04_ages_4":"4","04_ages_5":"5","04_ages_6":"6","04_ages_7":"7","04_ages_8":"8","04_ages_9":"9","04_ages_10":"10","04_ages_11":"11","04_ages_12":"12","04_ages_13":"13","04_ages_14":"14","04_ages_15":"15","04_ages_16":"16","04_ages_17":"17","04_ages_18":"18"},"rt":112091,"item_order":[0,1,2,3],"radio_events":[7793,33497,51473,77025],"checkbox_events":[15009,16410,17401,19481,21001,21906,23209,24281,36465,39234,40329,41529,56354,58025,59041,60080,61737,62537,64697,65673,66921,68225,70330,79361,82505,84266,87602,88801,92217,92881,94017,94632,95249,98305,99977,101377,102177,107217,108617,109201,109969],"key_events":[],"mouse_events":[7793,13897,15009,16410,17401,19481,21001,21906,23209,24281,33497,36465,39234,40329,41529,51473,56354,58025,59041,60080,61737,62537,64697,65673,66921,68225,70330,77025,79361,80433,82505,84266,87602,88801,92217,92881,94017,94632,95249,96466,98305,99977,101377,102177,107217,108617,109201,109969,112091],"honeypot":0,"survey":"mace","page":9,"trial_type":"survey-mace","trial_index":17,"time_elapsed":1452026,"internal_node_id":"0.0-17.0","task_version":"prescreen-v0.3","browser_interactions":0},{"responses":{"01":"No","02":"No","03":"No","04":"No","05":"No","06":"Yes","06_ages_17":"17","07":"Yes","07_ages_1":"1","07_ages_2":"2","07_ages_3":"3","07_ages_4":"4","07_ages_5":"5","07_ages_6":"6","07_ages_7":"7","07_ages_8":"8","07_ages_9":"9","07_ages_10":"10","07_ages_11":"11","08":"Yes","08_ages_1":"1","08_ages_2":"2","08_ages_3":"3","08_ages_4":"4","08_ages_5":"5","08_ages_6":"6","08_ages_7":"7","08_ages_8":"8","08_ages_9":"9","08_ages_10":"10"},"rt":114689,"item_order":[0,1,2,3,4,5,6,7],"radio_events":[4557,6557,10557,15141,23557,27797,43893,75101],"checkbox_events":[30813,48709,49910,51654,52789,54757,57925,58941,60093,61021,63613,77453,78685,79445,80789,82493,84133,85125,89269,91285,94565,95213,95965,99181,110661,112957],"key_events":[],"mouse_events":[4557,6557,10557,15141,23557,27797,30813,43893,48709,49910,51654,52789,54757,57925,58941,60093,61021,63613,75101,77453,78685,79445,80789,82493,84133,85125,88629,89269,91285,94565,95213,95965,99181,109981,110661,112957,114688],"honeypot":0,"survey":"mace","page":10,"trial_type":"survey-mace","trial_index":18,"time_elapsed":1566723,"internal_node_id":"0.0-18.0","task_version":"prescreen-v0.3","browser_interactions":0,"instructed":0},{"rt":20848,"trial_type":"mental-health-alert","trial_index":19,"time_elapsed":1587574,"internal_node_id":"0.0-19.0","task_version":"prescreen-v0.3","interactions":"[{\"event\":\"focus\",\"trial\":0,\"time\":1},{\"event\":\"blur\",\"trial\":3,\"time\":544018},{\"event\":\"focus\",\"trial\":3,\"time\":652698}]"}]