[{"view_history":[{"page_index":0,"viewing_time":3165},{"page_index":1,"viewing_time":1094.5},{"page_index":2,"viewing_time":1639.3999999985099},{"page_index":3,"viewing_time":654.5}],"rt":6554.60000000149,"trial_type":"instructions","trial_index":0,"time_elapsed":6569,"internal_node_id":"0.0-0.0","task_version":"prescreen-v0.3"},{"rt":17066,"responses":{"age":"20","gender-categorical":"Female","gender-free-response":"","ethnicity":"Not Hispanic or Latino","race":["Asian","White"],"education":"Some college"},"trial_type":"survey-demo","trial_index":1,"time_elapsed":23643,"internal_node_id":"0.0-1.0","task_version":"prescreen-v0.3"},{"responses":{"Q14":"2","Q10":"0","Q01":"2","Q15":"3","Q12":"0","Q03":"0","Q02":"1","Q21":"3","Q05":"0","Q11":"1","Q19":"2","Q07":"0","Q06":"0","Q18":"1","Q13":"2","Q17":"0","Q20":"0","Q09":"0","Q16":"2","Q08":"0","Q04":"2"},"rt":97969.70000000298,"item_order":[13,9,0,14,11,2,1,20,4,10,18,6,5,17,12,16,19,8,15,7,3],"radio_events":[4249.9000000059605,11247.70000000298,12791,19813.10000000149,24466.70000000298,26083.10000000149,29250.70000000298,34892.5,43760,47613.60000000149,55542,58808.10000000149,63976.20000000298,68613.90000000596,73112.60000000149,82158.5,83195.70000000298,85759.40000000596,92086.80000000447,93074.70000000298,97018.30000000447],"key_events":[],"mouse_events":[4249.9000000059605,11247.70000000298,12791,19813.10000000149,24466.70000000298,26083.10000000149,29250.70000000298,34892.5,43760,47613.60000000149,55542,58808.10000000149,63976.20000000298,68613.90000000596,73112.60000000149,82158.5,83195.70000000298,85759.40000000596,89359.80000000447,92086.80000000447,93074.70000000298,97018.30000000447,97965.30000000447],"straightlining":0.47619047619047616,"zigzagging":0.4,"honeypot":0,"survey":"sns","trial_type":"survey-template","trial_index":2,"time_elapsed":121622,"internal_node_id":"0.0-2.0","task_version":"prescreen-v0.3","browser_interactions":0,"infrequency":0},{"responses":{"Q11":"2","Q10":"1","Q03":"0","Q07":"3","Q01":"1","Q13":"0","Q12":"2","Q04":"3","Q09":"2","Q08":"2","Q06":"3","Q02":"1","Q05":"3"},"rt":56445.39999999851,"item_order":[10,9,2,6,0,12,11,3,8,7,5,1,4],"radio_events":[12632.89999999851,15924.70000000298,21957.10000000149,24040.60000000149,26057.5,27959.39999999851,34148.39999999851,38328.70000000298,42786.39999999851,46101.10000000149,49815.79999999702,52754.60000000149,55456.5],"key_events":[],"mouse_events":[12632.89999999851,15924.70000000298,21957.10000000149,24040.60000000149,26057.5,27959.39999999851,34148.39999999851,38328.70000000298,42786.39999999851,46101.10000000149,49815.79999999702,52754.60000000149,55456.5,56442.89999999851],"straightlining":0.3076923076923077,"zigzagging":0.5833333333333334,"honeypot":0,"survey":"bisbas","trial_type":"survey-template","trial_index":3,"time_elapsed":178073,"internal_node_id":"0.0-3.0","task_version":"prescreen-v0.3","browser_interactions":0,"infrequency":0},{"responses":{"Q01":"3","Q02":"3","Q03":"4"},"rt":21239.40000000596,"radio_events":[11809.40000000596,17074.40000000596,20527.5],"key_events":[],"mouse_events":[11809.40000000596,17074.40000000596,20527.5,21238],"survey":"map","page":1,"trial_type":"survey-map","trial_index":4,"time_elapsed":199319,"internal_node_id":"0.0-4.0","task_version":"prescreen-v0.3","browser_interactions":0},{"responses":{"Q04":"4","Q05":"2","Q06":"4"},"rt":21610.89999999851,"radio_events":[8974.5,12361.5,17096.60000000149,20574.20000000298],"key_events":[],"mouse_events":[8974.5,12361.5,17096.60000000149,20574.20000000298,21609.60000000149],"survey":"map","page":2,"trial_type":"survey-map","trial_index":5,"time_elapsed":220934,"internal_node_id":"0.0-5.0","task_version":"prescreen-v0.3","browser_interactions":0},{"responses":{"Q07":"1","Q08":"4","Q09":"2"},"rt":20980.29999999702,"radio_events":[14594.79999999702,17590.89999999851,20138.19999999553],"key_events":[],"mouse_events":[14594.79999999702,17590.89999999851,20138.19999999553,20979.19999999553],"survey":"map","page":3,"trial_type":"survey-map","trial_index":6,"time_elapsed":241918,"internal_node_id":"0.0-6.0","task_version":"prescreen-v0.3","browser_interactions":0},{"responses":{"Q10":"2","Q11":"2","Q12":"1","Q13":"3","Q16":"0","Q14":"4","Q15":"3"},"rt":38506.39999999851,"radio_events":[9644.10000000149,12101.89999999851,16371.60000000149,23319.39999999851,29621.70000000298,32626,36945],"key_events":[],"mouse_events":[9644.10000000149,12101.89999999851,16371.60000000149,23319.39999999851,29621.70000000298,32626,36945,38504.10000000149],"survey":"map","page":4,"trial_type":"survey-map","trial_index":7,"time_elapsed":280430,"internal_node_id":"0.0-7.0","task_version":"prescreen-v0.3","browser_interactions":0,"infrequency":0},{"view_history":[{"page_index":0,"viewing_time":1872.1000000014901},{"page_index":1,"viewing_time":1728.5999999940395}],"rt":3602.10000000149,"trial_type":"instructions","trial_index":8,"time_elapsed":284034,"internal_node_id":"0.0-8.0","task_version":"prescreen-v0.3"},{"responses":{"01":"Yes","01_ages_5":"5","01_ages_6":"6","01_ages_7":"7","01_ages_8":"8","01_ages_9":"9","01_ages_10":"10","01_ages_11":"11","01_ages_12":"12","01_ages_13":"13","01_ages_14":"14","01_ages_15":"15","01_ages_16":"16","01_ages_17":"17","01_ages_18":"18","02":"Yes","02_ages_7":"7","02_ages_8":"8","02_ages_9":"9","02_ages_10":"10","02_ages_11":"11","02_ages_12":"12","02_ages_13":"13","02_ages_14":"14","02_ages_15":"15","02_ages_16":"16","02_ages_17":"17","02_ages_18":"18","03":"Yes","03_ages_5":"5","03_ages_6":"6","03_ages_7":"7","03_ages_8":"8","03_ages_16":"16","04":"Yes","04_ages_8":"8","04_ages_9":"9","04_ages_17":"17","05":"No","06":"Yes","06_ages_5":"5","06_ages_6":"6","06_ages_7":"7","06_ages_8":"8","06_ages_16":"16"},"rt":108341.29999999702,"item_order":[0,1,2,3,4,5],"radio_events":[11780.70000000298,33685.29999999702,75694.10000000149,90502.89999999851,98145.89999999851,100913.70000000298],"checkbox_events":[18483.60000000149,19544.89999999851,21316.39999999851,22418.70000000298,23047.29999999702,24010.5,24443,25055.60000000149,25815.10000000149,26582.20000000298,27464.20000000298,28215,28966.39999999851,30476.5,35204.10000000149,35963.29999999702,37530.60000000149,37987.89999999851,38486.20000000298,39343.10000000149,40085.79999999702,40837,41457.29999999702,42404.5,42910.89999999851,43652.10000000149,44723.10000000149,45204.89999999851,78576.70000000298,82593.60000000149,83744.89999999851,84340.70000000298,85165.60000000149,92202.70000000298,95329.39999999851,96137.60000000149,102612,104220.20000000298,105314.10000000149,105951,106416.39999999851],"key_events":[],"mouse_events":[0.10000000149011612,11780.70000000298,12417.10000000149,18483.60000000149,19544.89999999851,21316.39999999851,21862.79999999702,22418.70000000298,23047.29999999702,24010.5,24443,25055.60000000149,25815.10000000149,26582.20000000298,27464.20000000298,28215,28966.39999999851,30476.5,33685.29999999702,35204.10000000149,35963.29999999702,37530.60000000149,37987.89999999851,38486.20000000298,38991.79999999702,39343.10000000149,40085.79999999702,40837,41457.29999999702,42404.5,42910.89999999851,43652.10000000149,44290.20000000298,44723.10000000149,45204.89999999851,75694.10000000149,78576.70000000298,82593.60000000149,83744.89999999851,84340.70000000298,85165.60000000149,90502.89999999851,92202.70000000298,95329.39999999851,96137.60000000149,98145.89999999851,100913.70000000298,102612,104220.20000000298,105314.10000000149,105951,106416.39999999851,108333.79999999702],"honeypot":0,"survey":"mace","page":1,"trial_type":"survey-mace","trial_index":9,"time_elapsed":392388,"internal_node_id":"0.0-9.0","task_version":"prescreen-v0.3","browser_interactions":0},{"responses":{"01":"No","02":"No","03":"No","04":"No","05":"No","06":"No","07":"No","08":"No"},"rt":17835.59999999404,"item_order":[0,1,2,3,4,5,6,7],"radio_events":[4725.79999999702,7461,8725.89999999851,10277.09999999404,12350.39999999851,14513.69999999553,15909.89999999851,16914.09999999404],"checkbox_events":[],"key_events":[],"mouse_events":[4725.79999999702,7461,8725.89999999851,10277.09999999404,12350.39999999851,14513.69999999553,15909.89999999851,16914.09999999404,17828.5],"honeypot":0,"survey":"mace","page":2,"trial_type":"survey-mace","trial_index":10,"time_elapsed":410232,"internal_node_id":"0.0-10.0","task_version":"prescreen-v0.3","browser_interactions":0},{"responses":{"01":"No","02":"No","03":"No","04":"No"},"rt":7315.4000000059605,"item_order":[0,1,2,3],"radio_events":[3017,4356,5392.80000000447,6405.10000000149],"checkbox_events":[],"key_events":[],"mouse_events":[3017,4356,5392.80000000447,6405.10000000149,7311.10000000149],"honeypot":0,"survey":"mace","page":3,"trial_type":"survey-mace","trial_index":11,"time_elapsed":417551,"internal_node_id":"0.0-11.0","task_version":"prescreen-v0.3","browser_interactions":0},{"responses":{"01":"No","02":"No"},"rt":6451.60000000149,"item_order":[0,1],"radio_events":[4090,5788.10000000149],"checkbox_events":[],"key_events":[],"mouse_events":[2391.8000000044703,3118.3000000044703,4090,5788.10000000149,6449.30000000447],"honeypot":0,"survey":"mace","page":4,"trial_type":"survey-mace","trial_index":12,"time_elapsed":424006,"internal_node_id":"0.0-12.0","task_version":"prescreen-v0.3","browser_interactions":0},{"responses":{"01":"No","02":"No","03":"No","04":"No","05":"No"},"rt":17524.80000000447,"item_order":[0,1,2,3,4],"radio_events":[8311.10000000149,10572.5,12515.39999999851,14262.20000000298,16858.60000000149],"checkbox_events":[],"key_events":[],"mouse_events":[8311.10000000149,10572.5,12515.39999999851,14262.20000000298,15176.89999999851,16858.60000000149,17519.89999999851],"honeypot":0,"survey":"mace","page":5,"trial_type":"survey-mace","trial_index":13,"time_elapsed":441537,"internal_node_id":"0.0-13.0","task_version":"prescreen-v0.3","browser_interactions":0},{"responses":{"01":"No","02":"Yes","02_ages_8":"8","02_ages_9":"9","02_ages_10":"10","02_ages_11":"11","02_ages_12":"12","02_ages_13":"13","02_ages_14":"14","02_ages_15":"15","02_ages_16":"16","03":"Yes","03_ages_6":"6","03_ages_7":"7","03_ages_8":"8","03_ages_9":"9","03_ages_10":"10","03_ages_11":"11","03_ages_12":"12","03_ages_13":"13","03_ages_14":"14","03_ages_15":"15","03_ages_16":"16","03_ages_17":"17","03_ages_18":"18","04":"Yes","04_ages_7":"7","04_ages_8":"8","04_ages_9":"9","04_ages_10":"10","04_ages_11":"11","04_ages_12":"12","04_ages_13":"13","04_ages_14":"14","04_ages_15":"15","04_ages_16":"16","04_ages_17":"17","04_ages_18":"18","05":"No"},"rt":63288.60000000149,"item_order":[0,1,2,3,4],"radio_events":[5523.60000000149,15067,20095.89999999851,34382.89999999851,49951.79999999702,62499.79999999702],"checkbox_events":[11475.20000000298,12258.79999999702,13181.20000000298,13842.5,22185.89999999851,23116.60000000149,23998.29999999702,24455.5,24920.79999999702,25884.20000000298,26929.20000000298,27427.20000000298,28227.39999999851,36211.79999999702,36652.60000000149,37273,37746.60000000149,38309.39999999851,38971.29999999702,39469.20000000298,42857.10000000149,43959.10000000149,44441,45380.10000000149,46016.5,47159.60000000149,51699,52490.79999999702,53233.79999999702,53781,54401.29999999702,55062.39999999851,55903.39999999851,56736.39999999851,57372.10000000149,58050.39999999851,58728.20000000298,59895.5],"key_events":[],"mouse_events":[5523.60000000149,11475.20000000298,12258.79999999702,13181.20000000298,13842.5,15067,20095.89999999851,22185.89999999851,23116.60000000149,23998.29999999702,24455.5,24920.79999999702,25884.20000000298,26447.5,26929.20000000298,27427.20000000298,28227.39999999851,32244.20000000298,34382.89999999851,36211.79999999702,36652.60000000149,37273,37746.60000000149,38309.39999999851,38971.29999999702,39469.20000000298,40146.70000000298,42857.10000000149,43420.70000000298,43959.10000000149,44441,44963.20000000298,45380.10000000149,46016.5,46759.39999999851,47159.60000000149,49951.79999999702,51699,52490.79999999702,53233.79999999702,53781,54401.29999999702,55062.39999999851,55903.39999999851,56319.79999999702,56736.39999999851,57372.10000000149,58050.39999999851,58728.20000000298,59895.5,62499.79999999702,63283.89999999851],"honeypot":0,"survey":"mace","page":6,"trial_type":"survey-mace","trial_index":14,"time_elapsed":504831,"internal_node_id":"0.0-14.0","task_version":"prescreen-v0.3","browser_interactions":0},{"responses":{"01":"No","02":"No","03":"No","04":"No","05":"No","06":"No","07":"Yes","07_ages_16":"16","07_ages_17":"17"},"rt":26912.30000000447,"item_order":[0,1,2,3,4,5,6],"radio_events":[6706.60000000149,8863.90000000596,12023.10000000149,15288.40000000596,16137.80000000447,17394.80000000447,18889,23697.5],"checkbox_events":[25060.40000000596,26236.20000000298],"key_events":[],"mouse_events":[6706.60000000149,8863.90000000596,12023.10000000149,13321.30000000447,14806.90000000596,15288.40000000596,16137.80000000447,17394.80000000447,18889,23697.5,25060.40000000596,26236.20000000298,26905.90000000596],"honeypot":0,"survey":"mace","page":7,"trial_type":"survey-mace","trial_index":15,"time_elapsed":531748,"internal_node_id":"0.0-15.0","task_version":"prescreen-v0.3","browser_interactions":0},{"responses":{"01":"Yes","01_ages_2":"2","01_ages_3":"3","01_ages_4":"4","01_ages_5":"5","01_ages_6":"6","01_ages_7":"7","01_ages_8":"8","01_ages_9":"9","01_ages_10":"10","01_ages_11":"11","01_ages_12":"12","01_ages_13":"13","01_ages_14":"14","01_ages_15":"15","01_ages_16":"16","01_ages_17":"17","01_ages_18":"18","02":"Yes","02_ages_4":"4","02_ages_5":"5","02_ages_6":"6","02_ages_7":"7","02_ages_8":"8","02_ages_9":"9","02_ages_10":"10","02_ages_11":"11","02_ages_12":"12","02_ages_13":"13","02_ages_14":"14","02_ages_15":"15","02_ages_16":"16","02_ages_17":"17","03":"No","04":"No"},"rt":56293.80000000447,"item_order":[0,1,2,3],"radio_events":[8553.40000000596,25770,52666.30000000447,55050.30000000447],"checkbox_events":[11581.70000000298,12275.80000000447,12969.5,13818.70000000298,14725,15182,15908.5,16373.80000000447,16839.30000000447,17516.80000000447,17965.70000000298,19043.60000000149,19557.60000000149,20063.90000000596,20684.20000000298,21133.5,21606.70000000298,27149.90000000596,27884.5,34391.20000000298,34922,35590.90000000596,36056.70000000298,41114,41791.80000000447,42354.80000000447,43081.60000000149,43538.70000000298,44649.10000000149,45596,46061.70000000298,47032.80000000447,47522.70000000298,48404.70000000298,49670.10000000149],"key_events":[],"mouse_events":[8553.40000000596,11581.70000000298,12275.80000000447,12969.5,13818.70000000298,14725,15182,15908.5,16373.80000000447,16839.30000000447,17516.80000000447,17965.70000000298,18627.10000000149,19043.60000000149,19557.60000000149,20063.90000000596,20684.20000000298,21133.5,21606.70000000298,25770,27149.90000000596,27884.5,34391.20000000298,34922,35590.90000000596,36056.70000000298,41114,41791.80000000447,42354.80000000447,43081.60000000149,43538.70000000298,44004.10000000149,44649.10000000149,45596,46061.70000000298,47032.80000000447,47522.70000000298,48404.70000000298,49670.10000000149,52666.30000000447,55050.30000000447,56289.70000000298],"honeypot":0,"survey":"mace","page":8,"trial_type":"survey-mace","trial_index":16,"time_elapsed":588047,"internal_node_id":"0.0-16.0","task_version":"prescreen-v0.3","browser_interactions":0},{"responses":{"01":"Yes","01_ages_1":"1","01_ages_2":"2","01_ages_3":"3","01_ages_4":"4","01_ages_5":"5","01_ages_6":"6","01_ages_7":"7","01_ages_8":"8","01_ages_9":"9","01_ages_10":"10","01_ages_11":"11","01_ages_17":"17","01_ages_18":"18","02":"No","03":"Yes","03_ages_1":"1","03_ages_2":"2","03_ages_3":"3","03_ages_4":"4","03_ages_5":"5","03_ages_6":"6","03_ages_7":"7","03_ages_8":"8","03_ages_9":"9","03_ages_10":"10","03_ages_11":"11","03_ages_12":"12","03_ages_13":"13","03_ages_14":"14","03_ages_15":"15","03_ages_16":"16","03_ages_17":"17","03_ages_18":"18","04":"Yes","04_ages_1":"1","04_ages_2":"2","04_ages_3":"3","04_ages_4":"4","04_ages_5":"5","04_ages_6":"6","04_ages_7":"7","04_ages_8":"8","04_ages_9":"9","04_ages_10":"10","04_ages_11":"11","04_ages_12":"12","04_ages_13":"13","04_ages_14":"14","04_ages_15":"15","04_ages_16":"16","04_ages_17":"17","04_ages_18":"18"},"rt":97468.5,"item_order":[0,1,2,3],"radio_events":[35246.69999999553,57722.19999999553,60205.39999999851,76566],"checkbox_events":[39567.69999999553,40155.10000000149,41943.10000000149,42653.60000000149,43657.39999999851,44686.29999999702,45412.69999999553,47215.39999999851,48056.29999999702,48929,49485.10000000149,52554.79999999702,53535.39999999851,61364.79999999702,61919.79999999702,62809.5,63495.39999999851,64377.10000000149,65307.60000000149,65887.29999999702,66344.79999999702,66777.5,67887.60000000149,68735.29999999702,69153.10000000149,69626.39999999851,70287.79999999702,70745.10000000149,71945.39999999851,73031.10000000149,73741.5,77529.19999999553,78018.89999999851,78598.19999999553,79023.10000000149,80182.29999999702,80614.89999999851,81684.39999999851,84532.29999999702,85268.10000000149,87366.29999999702,88450,89023.60000000149,90558.10000000149,91243.89999999851,92574.79999999702,93847.29999999702,94697.69999999553,95677],"key_events":[],"mouse_events":[35246.69999999553,39567.69999999553,40155.10000000149,41420.60000000149,41943.10000000149,42653.60000000149,43657.39999999851,44686.29999999702,45412.69999999553,47215.39999999851,48056.29999999702,48929,49485.10000000149,52554.79999999702,53535.39999999851,57722.19999999553,60205.39999999851,61364.79999999702,61919.79999999702,62466.79999999702,62809.5,63495.39999999851,64377.10000000149,64809.69999999553,65307.60000000149,65887.29999999702,66344.79999999702,66777.5,67397.79999999702,67887.60000000149,68735.29999999702,69153.10000000149,69626.39999999851,70287.79999999702,70745.10000000149,71414.60000000149,71945.39999999851,73031.10000000149,73741.5,76566,77529.19999999553,78018.89999999851,78598.19999999553,79023.10000000149,79447.29999999702,80182.29999999702,80614.89999999851,81684.39999999851,82149.79999999702,82516.89999999851,83749.79999999702,84532.29999999702,85268.10000000149,87366.29999999702,88450,89023.60000000149,89456,89807.10000000149,90092.89999999851,90558.10000000149,91243.89999999851,92011.29999999702,92574.79999999702,93847.29999999702,94697.69999999553,95677,97463.19999999553],"honeypot":0,"survey":"mace","page":9,"trial_type":"survey-mace","trial_index":17,"time_elapsed":685522,"internal_node_id":"0.0-17.0","task_version":"prescreen-v0.3","browser_interactions":0},{"responses":{"01":"No","02":"No","03":"Yes","03_ages_8":"8","03_ages_9":"9","03_ages_10":"10","03_ages_11":"11","03_ages_12":"12","03_ages_13":"13","03_ages_14":"14","03_ages_15":"15","03_ages_16":"16","03_ages_17":"17","03_ages_18":"18","04":"Yes","04_ages_8":"8","04_ages_9":"9","04_ages_16":"16","04_ages_17":"17","04_ages_18":"18","05":"Yes","05_ages_16":"16","05_ages_17":"17","06":"Yes","06_ages_17":"17","07":"Yes","07_ages_1":"1","07_ages_2":"2","07_ages_3":"3","07_ages_4":"4","07_ages_5":"5","07_ages_6":"6","07_ages_7":"7","07_ages_8":"8","07_ages_9":"9","07_ages_10":"10","07_ages_11":"11","07_ages_12":"12","07_ages_13":"13","07_ages_14":"14","07_ages_15":"15","07_ages_16":"16","07_ages_17":"17","07_ages_18":"18","08":"Yes","08_ages_1":"1","08_ages_2":"2","08_ages_3":"3","08_ages_4":"4","08_ages_5":"5","08_ages_6":"6","08_ages_7":"7","08_ages_8":"8","08_ages_9":"9","08_ages_10":"10","08_ages_11":"11","08_ages_12":"12","08_ages_13":"13","08_ages_14":"14","08_ages_15":"15","08_ages_16":"16","08_ages_17":"17","08_ages_18":"18"},"rt":87883.60000000149,"item_order":[0,1,2,3,4,5,6,7],"radio_events":[8906.70000000298,9821.39999999851,12188.89999999851,28033.89999999851,35626,44376.70000000298,50489.70000000298,70659.70000000298],"checkbox_events":[13952.20000000298,14931.80000000447,15552.10000000149,16442.20000000298,17291,18425.70000000298,19478.70000000298,21078.70000000298,22058.10000000149,23102.89999999851,24115.39999999851,29258.5,30376.60000000149,32091.80000000447,32687.60000000149,33225.89999999851,37479.10000000149,38499.60000000149,45788.89999999851,52262.39999999851,52939.80000000447,54057.80000000447,55152.5,55951.70000000298,56612.80000000447,57208.89999999851,58114.80000000447,59584.20000000298,60318.89999999851,61045.30000000447,61798.5,62718.89999999851,64000.10000000149,64653.30000000447,65510.39999999851,66366.30000000447,68228.30000000447,73174.70000000298,73713.39999999851,74848,75574.30000000447,76113.10000000149,76815.10000000149,77386.39999999851,78080.30000000447,78749.60000000149,79753.30000000447,80414.80000000447,80888.30000000447,82006.80000000447,83133,83598.5,84945.5,85729.20000000298,86635.20000000298],"key_events":[],"mouse_events":[8906.70000000298,9821.39999999851,12188.89999999851,13348,13952.20000000298,14474.39999999851,14931.80000000447,15552.10000000149,16442.20000000298,17291,17903.39999999851,18425.70000000298,19478.70000000298,20344.10000000149,21078.70000000298,22058.10000000149,23102.89999999851,24115.39999999851,28033.89999999851,29258.5,30376.60000000149,31577.39999999851,32091.80000000447,32687.60000000149,33225.89999999851,35626,36899.5,37479.10000000149,38499.60000000149,40262.30000000447,44376.70000000298,45788.89999999851,50489.70000000298,52262.39999999851,52939.80000000447,53543.80000000447,54057.80000000447,55152.5,55951.70000000298,56612.80000000447,57208.89999999851,58114.80000000447,58653.39999999851,59584.20000000298,60318.89999999851,61045.30000000447,61798.5,62718.89999999851,63445.20000000298,64000.10000000149,64653.30000000447,65510.39999999851,66366.30000000447,67200.39999999851,68228.30000000447,70659.70000000298,73174.70000000298,73713.39999999851,74472.60000000149,74848,75574.30000000447,76113.10000000149,76815.10000000149,77386.39999999851,78080.30000000447,78749.60000000149,79753.30000000447,80414.80000000447,80888.30000000447,81492.60000000149,82006.80000000447,82431.20000000298,83133,83598.5,84945.5,85729.20000000298,86635.20000000298,87875],"honeypot":0,"survey":"mace","page":10,"trial_type":"survey-mace","trial_index":18,"time_elapsed":773414,"internal_node_id":"0.0-18.0","task_version":"prescreen-v0.3","browser_interactions":0,"instructed":0},{"rt":2401.89999999851,"trial_type":"mental-health-alert","trial_index":19,"time_elapsed":775819,"internal_node_id":"0.0-19.0","task_version":"prescreen-v0.3","interactions":"[]"}]