[{"view_history":[{"page_index":0,"viewing_time":3543.0999999046326},{"page_index":1,"viewing_time":2213.3000000715256},{"page_index":2,"viewing_time":2431},{"page_index":3,"viewing_time":1239.1999999284744}],"rt":9428.299999952316,"trial_type":"instructions","trial_index":0,"time_elapsed":9465,"internal_node_id":"0.0-0.0","task_version":"prescreen-v0.3"},{"rt":11618.100000023842,"responses":{"age":"26","gender-categorical":"Female","gender-free-response":"","ethnicity":"Not Hispanic or Latino","race":["White"],"education":"Bachelor degree"},"trial_type":"survey-demo","trial_index":1,"time_elapsed":21093,"internal_node_id":"0.0-1.0","task_version":"prescreen-v0.3"},{"responses":{"Q06":"1","Q01":"1","Q19":"0","Q10":"2","Q13":"1","Q09":"1","Q07":"0","Q02":"1","Q14":"2","Q04":"2","Q12":"2","Q18":"0","Q21":"3","Q05":"0","Q15":"2","Q20":"1","Q11":"2","Q03":"1","Q08":"0","Q17":"1","Q16":"2"},"rt":133679.5,"item_order":[5,0,18,9,12,8,6,1,13,3,11,17,20,4,14,19,10,2,7,16,15],"radio_events":[23496.5,27443.300000071526,39971.200000047684,45049.10000002384,50365.700000047684,54725.800000071526,63390.800000071526,68004.10000002384,70454.39999997616,73454.5,77546.39999997616,83662.20000004768,88859.60000002384,92391.80000007153,100599.60000002384,108384.60000002384,113338.60000002384,116259.30000007153,120441.30000007153,122216.80000007153,131530.80000007153,132974.60000002384],"key_events":[],"mouse_events":[11373.100000023842,23496.5,27443.300000071526,39971.200000047684,45049.10000002384,48725.700000047684,49812.10000002384,50365.700000047684,54725.800000071526,63390.800000071526,68004.10000002384,70454.39999997616,72833.5,73454.5,77546.39999997616,83662.20000004768,88859.60000002384,92391.80000007153,100599.60000002384,108384.60000002384,111512,113338.60000002384,116259.30000007153,120441.30000007153,122216.80000007153,127949.80000007153,131530.80000007153,132974.60000002384,133676],"straightlining":0.38095238095238093,"zigzagging":0.65,"honeypot":0,"survey":"sns","trial_type":"survey-template","trial_index":2,"time_elapsed":154784,"internal_node_id":"0.0-2.0","task_version":"prescreen-v0.3","browser_interactions":4,"infrequency":0},{"responses":{"Q01":"3","Q13":"0","Q05":"2","Q02":"3","Q10":"2","Q03":"3","Q08":"3","Q07":"2","Q12":"1","Q09":"1","Q06":"3","Q04":"3","Q11":"2"},"rt":125968,"item_order":[0,12,4,1,9,2,7,6,11,8,5,3,10],"radio_events":[4057.600000023842,6938.899999976158,10889.5,14343.700000047684,82833.89999997616,87972.20000004768,93599.5,97692.80000007153,106266.89999997616,112200.89999997616,114561.5,119130.80000007153,124624.5],"key_events":[],"mouse_events":[4057.600000023842,6938.899999976158,10889.5,14343.700000047684,82833.89999997616,87972.20000004768,93599.5,97692.80000007153,106266.89999997616,112200.89999997616,114561.5,119130.80000007153,124624.5,125966.39999997616],"straightlining":0.46153846153846156,"zigzagging":0.5833333333333334,"honeypot":0,"survey":"bisbas","trial_type":"survey-template","trial_index":3,"time_elapsed":280761,"internal_node_id":"0.0-3.0","task_version":"prescreen-v0.3","browser_interactions":2,"infrequency":0},{"responses":{"Q01":"3","Q02":"4","Q03":"4"},"rt":21447.600000023842,"radio_events":[5599.5,14642.799999952316,20659.5],"key_events":[],"mouse_events":[5599.5,14642.799999952316,20659.5,21445.100000023842],"survey":"map","page":1,"trial_type":"survey-map","trial_index":4,"time_elapsed":302218,"internal_node_id":"0.0-4.0","task_version":"prescreen-v0.3","browser_interactions":0},{"responses":{"Q04":"1","Q05":"2","Q06":"3"},"rt":21204.299999952316,"radio_events":[5460.199999928474,12082,20392.5],"key_events":[],"mouse_events":[5460.199999928474,12082,20392.5,21203.899999976158],"survey":"map","page":2,"trial_type":"survey-map","trial_index":5,"time_elapsed":323431,"internal_node_id":"0.0-5.0","task_version":"prescreen-v0.3","browser_interactions":0},{"responses":{"Q07":"1","Q08":"4","Q09":"2"},"rt":13625.600000023842,"radio_events":[8408.5,11092.200000047684,12810.399999976158],"key_events":[],"mouse_events":[8408.5,11092.200000047684,12810.399999976158,13624.5],"survey":"map","page":3,"trial_type":"survey-map","trial_index":6,"time_elapsed":337059,"internal_node_id":"0.0-6.0","task_version":"prescreen-v0.3","browser_interactions":0},{"responses":{"Q10":"2","Q11":"2","Q12":"3","Q13":"3","Q16":"0","Q14":"2","Q15":"1"},"rt":61183.60000002384,"radio_events":[4228,7697.5,12163.5,16716.100000023842,24145.899999976158,51269,54152.699999928474,59427.10000002384],"key_events":[],"mouse_events":[4228,7697.5,11354.799999952316,12163.5,16716.100000023842,24145.899999976158,45110,51269,54152.699999928474,58106.299999952316,58876.89999997616,59427.10000002384,61181.799999952316],"survey":"map","page":4,"trial_type":"survey-map","trial_index":7,"time_elapsed":398250,"internal_node_id":"0.0-7.0","task_version":"prescreen-v0.3","browser_interactions":2,"infrequency":0},{"view_history":[{"page_index":0,"viewing_time":2745.399999976158},{"page_index":1,"viewing_time":3336.2000000476837}],"rt":6084,"trial_type":"instructions","trial_index":8,"time_elapsed":404336,"internal_node_id":"0.0-8.0","task_version":"prescreen-v0.3"},{"responses":{"01":"Yes","01_ages_7":"7","01_ages_8":"8","01_ages_9":"9","01_ages_10":"10","01_ages_11":"11","01_ages_12":"12","01_ages_13":"13","01_ages_14":"14","01_ages_15":"15","01_ages_16":"16","01_ages_17":"17","02":"Yes","02_ages_7":"7","02_ages_8":"8","02_ages_9":"9","02_ages_10":"10","02_ages_11":"11","02_ages_12":"12","02_ages_13":"13","02_ages_14":"14","02_ages_15":"15","02_ages_16":"16","02_ages_17":"17","02_ages_18":"18","03":"No","04":"No","05":"No","06":"No"},"rt":61147.10000002384,"item_order":[0,1,2,3,4,5],"radio_events":[6549,27914.100000023842,46365,55031.199999928474,56083.60000002384,58783],"checkbox_events":[11922.899999976158,13212.899999976158,13986.600000023842,14979,15949.199999928474,16734.100000023842,17342.199999928474,18757,19313.399999976158,20091.399999976158,21571.699999928474,22108,22700.399999976158,23287.600000023842,24548.299999952316,29487.399999976158,30322.799999952316,30964.100000023842,31742,32362.5,33871.299999952316,34339.39999997616,35048.699999928474,36363,36891.5,37494.199999928474,38893.699999928474],"key_events":[],"mouse_events":[1,6549,11922.899999976158,12694.100000023842,13212.899999976158,13986.600000023842,14979,15949.199999928474,16734.100000023842,17342.199999928474,18219.299999952316,18757,19313.399999976158,20091.399999976158,21571.699999928474,22108,22700.399999976158,23287.600000023842,24028.600000023842,24548.299999952316,27914.100000023842,29487.399999976158,30322.799999952316,30964.100000023842,31742,32362.5,32941.699999928474,33871.299999952316,34339.39999997616,35048.699999928474,36363,36891.5,37494.199999928474,38893.699999928474,45606.299999952316,46365,55031.199999928474,56083.60000002384,58041.5,58783,61140.5],"honeypot":0,"survey":"mace","page":1,"trial_type":"survey-mace","trial_index":9,"time_elapsed":465504,"internal_node_id":"0.0-9.0","task_version":"prescreen-v0.3","browser_interactions":0},{"responses":{"01":"No","02":"No","03":"No","04":"No","05":"No","06":"No","07":"No","08":"No"},"rt":20791.200000047684,"item_order":[0,1,2,3,4,5,6,7],"radio_events":[4105.5,5855.700000047684,9901.5,11401.399999976158,13462.899999976158,15363,16282.200000047684,17980.299999952316],"checkbox_events":[],"key_events":[],"mouse_events":[4105.5,5855.700000047684,9901.5,11401.399999976158,13462.899999976158,15363,16282.200000047684,17980.299999952316,19158.799999952316,20324.399999976158,20784.299999952316],"honeypot":0,"survey":"mace","page":2,"trial_type":"survey-mace","trial_index":10,"time_elapsed":486308,"internal_node_id":"0.0-10.0","task_version":"prescreen-v0.3","browser_interactions":0},{"responses":{"01":"No","02":"No","03":"No","04":"No"},"rt":12805.899999976158,"item_order":[0,1,2,3],"radio_events":[4588.600000023842,5982.299999952316,10919.200000047684,11706.200000047684],"checkbox_events":[],"key_events":[],"mouse_events":[4588.600000023842,5982.299999952316,10919.200000047684,11706.200000047684,12802.600000023842],"honeypot":0,"survey":"mace","page":3,"trial_type":"survey-mace","trial_index":11,"time_elapsed":499120,"internal_node_id":"0.0-11.0","task_version":"prescreen-v0.3","browser_interactions":0},{"responses":{"01":"No","02":"No"},"rt":16782.099999904633,"item_order":[0,1],"radio_events":[15090.899999976158,15924.899999976158],"checkbox_events":[],"key_events":[],"mouse_events":[15090.899999976158,15924.899999976158,16781.399999976158],"honeypot":0,"survey":"mace","page":4,"trial_type":"survey-mace","trial_index":12,"time_elapsed":515910,"internal_node_id":"0.0-12.0","task_version":"prescreen-v0.3","browser_interactions":0},{"responses":{"01":"No","02":"No","03":"No","04":"No","05":"No"},"rt":23731.299999952316,"item_order":[0,1,2,3,4],"radio_events":[7588.199999928474,10633.399999976158,11503.699999928474,21446.100000023842,22255.899999976158],"checkbox_events":[],"key_events":[],"mouse_events":[7588.199999928474,10633.399999976158,11503.699999928474,21446.100000023842,22255.899999976158,23729.799999952316],"honeypot":0,"survey":"mace","page":5,"trial_type":"survey-mace","trial_index":13,"time_elapsed":539645,"internal_node_id":"0.0-13.0","task_version":"prescreen-v0.3","browser_interactions":0},{"responses":{"01":"Yes","01_ages_5":"5","01_ages_6":"6","01_ages_7":"7","01_ages_8":"8","01_ages_9":"9","01_ages_10":"10","01_ages_11":"11","01_ages_12":"12","01_ages_13":"13","01_ages_14":"14","01_ages_15":"15","01_ages_16":"16","02":"Yes","02_ages_5":"5","02_ages_6":"6","02_ages_7":"7","02_ages_8":"8","02_ages_9":"9","02_ages_10":"10","02_ages_11":"11","02_ages_12":"12","02_ages_13":"13","02_ages_14":"14","02_ages_15":"15","02_ages_16":"16","03":"Yes","03_ages_10":"10","03_ages_11":"11","03_ages_12":"12","03_ages_13":"13","03_ages_14":"14","03_ages_15":"15","03_ages_16":"16","03_ages_17":"17","03_ages_18":"18","04":"Yes","04_ages_8":"8","04_ages_9":"9","04_ages_10":"10","04_ages_11":"11","04_ages_12":"12","04_ages_13":"13","04_ages_14":"14","04_ages_15":"15","04_ages_16":"16","04_ages_17":"17","04_ages_18":"18","05":"No"},"rt":58268.200000047684,"item_order":[0,1,2,3,4],"radio_events":[6791.5,20707.399999976158,32456,42686.60000002384,56833.89999997616],"checkbox_events":[8079.300000071526,8836.800000071526,9838.5,10756.5,11389.100000023842,12017.600000023842,12537.399999976158,13264.399999976158,14114.100000023842,15028,15655.100000023842,17412.300000071526,22143.800000071526,22693.700000047684,23431.200000047684,24019.899999976158,24714.100000023842,25218.600000023842,25957.600000023842,26605.200000047684,27326.800000071526,28351.600000023842,29079.700000047684,29752.600000023842,34637.800000071526,35339.300000071526,35874,36423.89999997616,37015.60000002384,37516.60000002384,38314.800000071526,39285.10000002384,39892.700000047684,43740.10000002384,44233,45394.10000002384,47007.39999997616,47583.800000071526,48235.700000047684,48841,49403.5,51060.5,51637.39999997616,52657.200000047684],"key_events":[],"mouse_events":[6791.5,8079.300000071526,8836.800000071526,9396.399999976158,9838.5,10756.5,11389.100000023842,12017.600000023842,12537.399999976158,13264.399999976158,14114.100000023842,15028,15655.100000023842,17412.300000071526,19961.100000023842,20707.399999976158,22143.800000071526,22693.700000047684,23431.200000047684,24019.899999976158,24714.100000023842,25218.600000023842,25957.600000023842,26605.200000047684,27326.800000071526,27898.700000047684,28351.600000023842,29079.700000047684,29752.600000023842,32456,34637.800000071526,35339.300000071526,35874,36423.89999997616,37015.60000002384,37516.60000002384,38314.800000071526,39285.10000002384,39892.700000047684,42686.60000002384,43740.10000002384,44233,44837.89999997616,45394.10000002384,46108.10000002384,47007.39999997616,47583.800000071526,48235.700000047684,48841,49403.5,50075.200000047684,51060.5,51637.39999997616,52166.5,52657.200000047684,56833.89999997616,58262.200000047684],"honeypot":0,"survey":"mace","page":6,"trial_type":"survey-mace","trial_index":14,"time_elapsed":597918,"internal_node_id":"0.0-14.0","task_version":"prescreen-v0.3","browser_interactions":0},{"responses":{"01":"No","02":"No","03":"No","04":"No","05":"No","06":"No","07":"No"},"rt":38627.5,"item_order":[0,1,2,3,4,5,6],"radio_events":[27988.5,28905.100000023842,30001.299999952316,32481,33440.60000002384,36302.799999952316,37140.5],"checkbox_events":[],"key_events":[],"mouse_events":[17736.799999952316,25660.200000047684,27202.700000047684,27988.5,28905.100000023842,30001.299999952316,32481,33440.60000002384,35410.200000047684,36302.799999952316,37140.5,37999.200000047684,38622.299999952316],"honeypot":0,"survey":"mace","page":7,"trial_type":"survey-mace","trial_index":15,"time_elapsed":636554,"internal_node_id":"0.0-15.0","task_version":"prescreen-v0.3","browser_interactions":2},{"responses":{"01":"Yes","01_ages_7":"7","01_ages_8":"8","01_ages_9":"9","01_ages_10":"10","01_ages_11":"11","01_ages_12":"12","01_ages_13":"13","01_ages_14":"14","01_ages_15":"15","01_ages_16":"16","01_ages_17":"17","02":"Yes","02_ages_7":"7","02_ages_8":"8","02_ages_9":"9","02_ages_10":"10","02_ages_11":"11","02_ages_12":"12","02_ages_13":"13","02_ages_14":"14","02_ages_15":"15","02_ages_16":"16","02_ages_17":"17","02_ages_18":"18","03":"Yes","03_ages_5":"5","03_ages_6":"6","03_ages_7":"7","03_ages_8":"8","03_ages_9":"9","03_ages_10":"10","03_ages_11":"11","03_ages_12":"12","03_ages_13":"13","03_ages_14":"14","03_ages_15":"15","03_ages_16":"16","03_ages_17":"17","03_ages_18":"18","04":"No"},"rt":65801.70000004768,"item_order":[0,1,2,3],"radio_events":[10352.5,30844.5,45529.799999952316,64300.60000002384],"checkbox_events":[12756.899999976158,14256.5,15752.200000047684,18879.899999976158,20222.799999952316,20830.899999976158,21429.5,22370.600000023842,23047.700000047684,24019.399999976158,24825.600000023842,31814.600000023842,33191.200000047684,33985.200000047684,34648.39999997616,35482.299999952316,36566.10000002384,37046,37673.200000047684,38814.200000047684,39357.10000002384,39912.799999952316,40821,47395.200000047684,47979,49319.60000002384,50155.10000002384,50629.299999952316,51112.60000002384,52032.39999997616,52823.60000002384,53624.700000047684,54210.10000002384,55815,57300.60000002384,58514.60000002384,59240.799999952316],"key_events":[],"mouse_events":[10352.5,12756.899999976158,14256.5,15752.200000047684,18879.899999976158,19482.100000023842,20222.799999952316,20830.899999976158,21429.5,22370.600000023842,23047.700000047684,24019.399999976158,24825.600000023842,30306.899999976158,30844.5,31814.600000023842,32414.100000023842,32791,33191.200000047684,33985.200000047684,34648.39999997616,35482.299999952316,36068.799999952316,36566.10000002384,37046,37673.200000047684,38814.200000047684,39357.10000002384,39912.799999952316,40821,45529.799999952316,47395.200000047684,47979,48700.799999952316,49319.60000002384,50155.10000002384,50629.299999952316,51112.60000002384,51599.299999952316,52032.39999997616,52823.60000002384,53624.700000047684,54210.10000002384,55815,57300.60000002384,58010.10000002384,58514.60000002384,59240.799999952316,64300.60000002384,65799.29999995232],"honeypot":0,"survey":"mace","page":8,"trial_type":"survey-mace","trial_index":16,"time_elapsed":702361,"internal_node_id":"0.0-16.0","task_version":"prescreen-v0.3","browser_interactions":0},{"responses":{"01":"Yes","01_ages_1":"1","01_ages_2":"2","01_ages_3":"3","01_ages_4":"4","01_ages_5":"5","01_ages_6":"6","01_ages_7":"7","01_ages_8":"8","01_ages_9":"9","01_ages_10":"10","01_ages_11":"11","01_ages_12":"12","01_ages_13":"13","01_ages_14":"14","01_ages_15":"15","01_ages_16":"16","01_ages_17":"17","01_ages_18":"18","02":"Yes","02_ages_1":"1","02_ages_2":"2","02_ages_3":"3","02_ages_4":"4","02_ages_5":"5","02_ages_6":"6","02_ages_7":"7","02_ages_8":"8","02_ages_9":"9","02_ages_10":"10","02_ages_11":"11","02_ages_12":"12","02_ages_13":"13","02_ages_14":"14","02_ages_15":"15","02_ages_16":"16","02_ages_17":"17","02_ages_18":"18","03":"Yes","03_ages_1":"1","03_ages_2":"2","03_ages_3":"3","03_ages_4":"4","03_ages_5":"5","03_ages_6":"6","03_ages_7":"7","03_ages_8":"8","03_ages_9":"9","03_ages_10":"10","03_ages_11":"11","03_ages_12":"12","03_ages_13":"13","03_ages_14":"14","03_ages_15":"15","03_ages_16":"16","03_ages_17":"17","03_ages_18":"18","04":"Yes","04_ages_1":"1","04_ages_2":"2","04_ages_3":"3","04_ages_4":"4","04_ages_5":"5","04_ages_6":"6","04_ages_7":"7","04_ages_8":"8","04_ages_9":"9","04_ages_10":"10","04_ages_11":"11","04_ages_12":"12","04_ages_13":"13","04_ages_14":"14","04_ages_15":"15","04_ages_16":"16","04_ages_17":"17","04_ages_18":"18"},"rt":120393.30000007153,"item_order":[0,1,2,3],"radio_events":[5172.100000023842,21444,73497.20000004768,93338.70000004768],"checkbox_events":[6085.600000023842,6634.200000047684,7919.100000023842,9439.700000047684,9952.300000071526,10578.800000071526,11203.900000095367,12606.5,14149.5,14991.300000071526,15849.900000095367,16408.800000071526,17027.800000071526,17611.100000023842,18187.100000023842,18787.300000071526,19376.100000023842,20198.5,58163.5,58755.200000047684,59303.60000002384,60272.300000071526,61008.40000009537,61788.800000071526,62476.10000002384,63142.700000047684,63804.60000002384,64406.200000047684,65703,66787.70000004768,67532.70000004768,68110.60000002384,68725.30000007153,70014.60000002384,70729,71313.60000002384,75237.30000007153,75738.90000009537,78300.30000007153,78856.20000004768,79430.70000004768,79992,80676.90000009537,81247.40000009537,81962.30000007153,82511,84477,85030.40000009537,85530.10000002384,86165.70000004768,86836.60000002384,88105.40000009537,88647.40000009537,90735.90000009537,91881.40000009537,92426.60000002384,94964.70000004768,96541.40000009537,97714.70000004768,98879.90000009537,99656.30000007153,100459.5,101518.20000004768,102620.60000002384,104676.20000004768,105613.40000009537,106931.5,108664,110540.40000009537,112631.80000007153,116079.30000007153,117244.60000002384,118260,119461.60000002384],"key_events":[],"mouse_events":[5172.100000023842,6085.600000023842,6634.200000047684,7277.800000071526,7919.100000023842,8803.700000047684,9439.700000047684,9952.300000071526,10578.800000071526,11203.900000095367,12606.5,13152.300000071526,13616,14149.5,14991.300000071526,15849.900000095367,16408.800000071526,17027.800000071526,17611.100000023842,18187.100000023842,18787.300000071526,19376.100000023842,20198.5,21444,54313.60000002384,56699.5,57405.60000002384,58163.5,58755.200000047684,59303.60000002384,60272.300000071526,61008.40000009537,61788.800000071526,62476.10000002384,63142.700000047684,63804.60000002384,64406.200000047684,65703,66219.5,66787.70000004768,67532.70000004768,68110.60000002384,68725.30000007153,69351.30000007153,70014.60000002384,70729,71313.60000002384,73497.20000004768,75237.30000007153,75738.90000009537,76970.80000007153,77434.20000004768,78300.30000007153,78856.20000004768,79430.70000004768,79992,80676.90000009537,81247.40000009537,81962.30000007153,82511,84477,85030.40000009537,85530.10000002384,86165.70000004768,86836.60000002384,87635.60000002384,88105.40000009537,88647.40000009537,89961.60000002384,90735.90000009537,91333.20000004768,91881.40000009537,92426.60000002384,93338.70000004768,94964.70000004768,96541.40000009537,97714.70000004768,98879.90000009537,99656.30000007153,100459.5,101518.20000004768,102620.60000002384,104278.30000007153,104676.20000004768,105613.40000009537,106931.5,107869.20000004768,108664,110540.40000009537,112260.80000007153,112631.80000007153,113802.60000002384,115169.40000009537,116079.30000007153,117244.60000002384,118260,119461.60000002384,120387.40000009537],"honeypot":0,"survey":"mace","page":9,"trial_type":"survey-mace","trial_index":17,"time_elapsed":822767,"internal_node_id":"0.0-17.0","task_version":"prescreen-v0.3","browser_interactions":2},{"responses":{"01":"No","02":"No","03":"No","04":"No","05":"Yes","05_ages_1":"1","05_ages_2":"2","05_ages_3":"3","05_ages_4":"4","05_ages_5":"5","05_ages_6":"6","05_ages_7":"7","05_ages_8":"8","05_ages_9":"9","05_ages_10":"10","05_ages_11":"11","05_ages_12":"12","05_ages_13":"13","05_ages_14":"14","05_ages_15":"15","05_ages_16":"16","05_ages_17":"17","05_ages_18":"18","06":"Yes","06_ages_17":"17","07":"No","08":"No"},"rt":72526.80000007153,"item_order":[0,1,2,3,4,5,6,7],"radio_events":[33239.700000047684,34039.200000047684,36687.300000071526,37471.90000009537,40363.90000009537,61070.5,70640.10000002384,71537.60000002384],"checkbox_events":[43584.200000047684,44620.90000009537,46155.800000071526,47013.5,47532.700000047684,49225.200000047684,49738.800000071526,50245.40000009537,50830.60000002384,51787.60000002384,52385.5,53329.700000047684,53941.60000002384,55146.5,55902.5,56921.40000009537,57772.40000009537,58385.800000071526,63325.300000071526],"key_events":[],"mouse_events":[29833.100000023842,33239.700000047684,34039.200000047684,36687.300000071526,37471.90000009537,40363.90000009537,43584.200000047684,44620.90000009537,45085.60000002384,45479.200000047684,46155.800000071526,47013.5,47532.700000047684,49225.200000047684,49738.800000071526,50245.40000009537,50830.60000002384,51787.60000002384,52385.5,53329.700000047684,53941.60000002384,54540.800000071526,55146.5,55902.5,56921.40000009537,57772.40000009537,58385.800000071526,61070.5,63325.300000071526,70640.10000002384,71537.60000002384,72520.20000004768],"honeypot":0,"survey":"mace","page":10,"trial_type":"survey-mace","trial_index":18,"time_elapsed":895319,"internal_node_id":"0.0-18.0","task_version":"prescreen-v0.3","browser_interactions":2,"instructed":0},{"rt":3353.2000000476837,"trial_type":"mental-health-alert","trial_index":19,"time_elapsed":898676,"internal_node_id":"0.0-19.0","task_version":"prescreen-v0.3","interactions":"[{\"event\":\"blur\",\"trial\":2,\"time\":22089},{\"event\":\"focus\",\"trial\":2,\"time\":25528},{\"event\":\"blur\",\"trial\":2,\"time\":27252},{\"event\":\"focus\",\"trial\":2,\"time\":32315},{\"event\":\"blur\",\"trial\":3,\"time\":171165},{\"event\":\"focus\",\"trial\":3,\"time\":231682},{\"event\":\"blur\",\"trial\":7,\"time\":366582},{\"event\":\"focus\",\"trial\":7,\"time\":382146},{\"event\":\"blur\",\"trial\":15,\"time\":599007},{\"event\":\"focus\",\"trial\":15,\"time\":615630},{\"event\":\"blur\",\"trial\":17,\"time\":724593},{\"event\":\"focus\",\"trial\":17,\"time\":756640},{\"event\":\"blur\",\"trial\":18,\"time\":824229},{\"event\":\"focus\",\"trial\":18,\"time\":852398}]"}]