[{"view_history":[{"page_index":0,"viewing_time":1684.0000000000005},{"page_index":1,"viewing_time":3018.9999999999995},{"page_index":2,"viewing_time":4014.000000000002},{"page_index":3,"viewing_time":1023.9999999999982}],"rt":9742,"trial_type":"instructions","trial_index":0,"time_elapsed":9750,"internal_node_id":"0.0-0.0","task_version":"prescreen-v0.3"},{"rt":13581,"responses":{"age":"24","gender-categorical":"Female","gender-free-response":"","ethnicity":"Hispanic or Latino","race":["Asian","White"],"education":"Bachelor degree"},"trial_type":"survey-demo","trial_index":1,"time_elapsed":23350,"internal_node_id":"0.0-1.0","task_version":"prescreen-v0.3"},{"responses":{"Q07":"3","Q05":"1","Q20":"2","Q11":"0","Q15":"3","Q03":"2","Q09":"1","Q21":"3","Q01":"2","Q04":"2","Q13":"2","Q06":"1","Q16":"3","Q10":"3","Q08":"3","Q17":"2","Q14":"3","Q02":"3","Q19":"2","Q12":"1","Q18":"3"},"rt":106826.00000000001,"item_order":[6,4,19,10,14,2,8,20,0,3,12,5,15,9,7,16,13,1,18,11,17],"radio_events":[10979,16922,19797,22600.000000000007,29656,32838.00000000001,37866,42753,44356,49877,51773,62341,67312,70280,75961,78714,83391.00000000001,86481,94659.00000000001,101564,106383],"key_events":[],"mouse_events":[10979,16922,19797,22600.000000000007,29656,32838.00000000001,36855,37866,42753,44356,49877,51773,62341,67312,70280,75961,78714,83391.00000000001,86481,94659.00000000001,101564,105829,106383,106812],"straightlining":0.42857142857142855,"zigzagging":0.5,"honeypot":0,"survey":"sns","trial_type":"survey-template","trial_index":2,"time_elapsed":130205,"internal_node_id":"0.0-2.0","task_version":"prescreen-v0.3","browser_interactions":0,"infrequency":0},{"responses":{"Q09":"2","Q02":"0","Q05":"3","Q06":"3","Q04":"2","Q12":"1","Q01":"2","Q07":"3","Q08":"3","Q03":"2","Q10":"1","Q11":"2","Q13":"0"},"rt":76176,"item_order":[8,1,4,5,3,11,0,6,7,2,9,10,12],"radio_events":[11710,14468,18793,22169.00000000003,27435,40509,45547,48846,53505,59817,63074.00000000003,69770.00000000003,75334],"key_events":[],"mouse_events":[10754,11710,14468,18793,21812,22169.00000000003,26746.00000000003,27435,36325,40509,44360,45547,48846,53505,59817,63074.00000000003,69770.00000000003,73880,75334,76166],"straightlining":0.38461538461538464,"zigzagging":0.6666666666666666,"honeypot":0,"survey":"bisbas","trial_type":"survey-template","trial_index":3,"time_elapsed":206388,"internal_node_id":"0.0-3.0","task_version":"prescreen-v0.3","browser_interactions":0,"infrequency":0},{"responses":{"Q01":"3","Q02":"2","Q03":"2"},"rt":20321.99999999997,"radio_events":[7916.999999999971,14114.99999999997,19506.99999999997],"key_events":[],"mouse_events":[7916.999999999971,14114.99999999997,19506.99999999997,20316.99999999997],"survey":"map","page":1,"trial_type":"survey-map","trial_index":4,"time_elapsed":226715,"internal_node_id":"0.0-4.0","task_version":"prescreen-v0.3","browser_interactions":0},{"responses":{"Q04":"2","Q05":"1","Q06":"1"},"rt":15974,"radio_events":[7106,11379,15001.00000000003],"key_events":[],"mouse_events":[7106,11379,14557,15001.00000000003,15969],"survey":"map","page":2,"trial_type":"survey-map","trial_index":5,"time_elapsed":242693,"internal_node_id":"0.0-5.0","task_version":"prescreen-v0.3","browser_interactions":0},{"responses":{"Q07":"2","Q08":"3","Q09":"2"},"rt":18056.99999999997,"radio_events":[5439,13487,17505.00000000003],"key_events":[],"mouse_events":[5439,12132,12727,13487,17505.00000000003,18051],"survey":"map","page":3,"trial_type":"survey-map","trial_index":6,"time_elapsed":260755,"internal_node_id":"0.0-6.0","task_version":"prescreen-v0.3","browser_interactions":0},{"responses":{"Q10":"2","Q11":"2","Q12":"1","Q13":"1","Q16":"0","Q14":"2","Q15":"2"},"rt":48457,"radio_events":[8382,13154,21824,28672,33128,37192,39168,47681],"key_events":[],"mouse_events":[8382,12150.000000000058,12588,13154,21824,28672,33128,37192,39168,47681,48450],"survey":"map","page":4,"trial_type":"survey-map","trial_index":7,"time_elapsed":309218,"internal_node_id":"0.0-7.0","task_version":"prescreen-v0.3","browser_interactions":0,"infrequency":0},{"view_history":[{"page_index":0,"viewing_time":3055},{"page_index":1,"viewing_time":2742}],"rt":5798,"trial_type":"instructions","trial_index":8,"time_elapsed":315018,"internal_node_id":"0.0-8.0","task_version":"prescreen-v0.3"},{"responses":{"01":"Yes","01_ages_13":"13","01_ages_14":"14","01_ages_15":"15","01_ages_16":"16","01_ages_17":"17","01_ages_18":"18","02":"Yes","02_ages_13":"13","02_ages_14":"14","02_ages_15":"15","02_ages_16":"16","02_ages_17":"17","02_ages_18":"18","03":"Yes","03_ages_17":"17","03_ages_18":"18","04":"No","05":"No","06":"Yes","06_ages_18":"18"},"rt":69866,"item_order":[0,1,2,3,4,5],"radio_events":[12176,39251,48515,50541,59203,61809,65426],"checkbox_events":[23845,25151,26343.00000000006,26881,27344,27795.00000000006,28221,33638,41699.00000000006,42211.00000000006,42725,43107,43530,44066,52177,52646.00000000006,66669],"key_events":[],"mouse_events":[0,11149,11426,12176,23845,25151,25903,26343.00000000006,26881,27344,27795.00000000006,28221,33638,35792,39251,41699.00000000006,42211.00000000006,42725,43107,43530,44066,48515,50541,52177,52646.00000000006,58756,59203,61809,65426,66669,69851],"honeypot":0,"survey":"mace","page":1,"trial_type":"survey-mace","trial_index":9,"time_elapsed":384895,"internal_node_id":"0.0-9.0","task_version":"prescreen-v0.3","browser_interactions":0},{"responses":{"01":"Yes","01_ages_15":"15","01_ages_16":"16","02":"No","03":"Yes","03_ages_6":"6","03_ages_7":"7","03_ages_8":"8","03_ages_9":"9","03_ages_10":"10","03_ages_11":"11","03_ages_12":"12","04":"No","05":"Yes","05_ages_9":"9","05_ages_10":"10","05_ages_11":"11","05_ages_12":"12","05_ages_13":"13","06":"No","07":"No","08":"No"},"rt":58589,"item_order":[0,1,2,3,4,5,6,7],"radio_events":[7089,21268.99999999994,23454.99999999994,39952,41661,55209,56791.99999999994,57568.99999999994],"checkbox_events":[9358.999999999942,11252.999999999942,12331.999999999942,14616.999999999942,28147.99999999994,28849.99999999994,29452.99999999994,30596.99999999994,31085.99999999994,31603.99999999994,32040.99999999994,43395.99999999994,43858.99999999994,44346.99999999994,45174.99999999994,47290.99999999994,48012,48490.99999999994,48979.99999999994,50492.99999999994],"key_events":[],"mouse_events":[7089,9358.999999999942,11252.999999999942,12331.999999999942,14616.999999999942,21268.99999999994,23454.99999999994,28147.99999999994,28849.99999999994,29452.99999999994,29858,30596.99999999994,31085.99999999994,31603.99999999994,32040.99999999994,39952,41661,43395.99999999994,43858.99999999994,44346.99999999994,45174.99999999994,46003.99999999994,47290.99999999994,48012,48490.99999999994,48979.99999999994,50492.99999999994,55209,56791.99999999994,57568.99999999994,58577.99999999994],"honeypot":0,"survey":"mace","page":2,"trial_type":"survey-mace","trial_index":10,"time_elapsed":443493,"internal_node_id":"0.0-10.0","task_version":"prescreen-v0.3","browser_interactions":0},{"responses":{"01":"No","02":"No","03":"No","04":"No"},"rt":16168,"item_order":[0,1,2,3],"radio_events":[5126.000000000058,11836,14566.000000000058,15333],"checkbox_events":[],"key_events":[],"mouse_events":[5126.000000000058,11836,14566.000000000058,15333,16162.000000000058],"honeypot":0,"survey":"mace","page":3,"trial_type":"survey-mace","trial_index":11,"time_elapsed":459667,"internal_node_id":"0.0-11.0","task_version":"prescreen-v0.3","browser_interactions":0},{"responses":{"01":"No","02":"No"},"rt":9682,"item_order":[0,1],"radio_events":[2530.000000000058,4878],"checkbox_events":[],"key_events":[],"mouse_events":[2530.000000000058,4878,9679.000000000058],"honeypot":0,"survey":"mace","page":4,"trial_type":"survey-mace","trial_index":12,"time_elapsed":469353,"internal_node_id":"0.0-12.0","task_version":"prescreen-v0.3","browser_interactions":0},{"responses":{"01":"Yes","01_ages_15":"15","01_ages_16":"16","01_ages_17":"17","01_ages_18":"18","02":"No","03":"No","04":"Yes","04_ages_18":"18","05":"No"},"rt":45879,"item_order":[0,1,2,3,4],"radio_events":[13098,27507,34491,39311,45195],"checkbox_events":[17262,17711,18149,18556,41054],"key_events":[],"mouse_events":[12633,13098,17262,17711,18149,18556,27507,34491,39311,41054,41609,45195,45869.99999999994],"honeypot":0,"survey":"mace","page":5,"trial_type":"survey-mace","trial_index":13,"time_elapsed":515240,"internal_node_id":"0.0-13.0","task_version":"prescreen-v0.3","browser_interactions":0},{"responses":{"01":"No","02":"Yes","02_ages_17":"17","03":"Yes","03_ages_17":"17","04":"No","05":"No"},"rt":52461.99999999994,"item_order":[0,1,2,3,4],"radio_events":[10315.999999999942,20431.99999999994,40023.00000000006,50068.99999999994,51231.99999999994],"checkbox_events":[29687.99999999994,32268.99999999994,33220.00000000006,41244.99999999994],"key_events":[],"mouse_events":[10315.999999999942,20431.99999999994,29687.99999999994,31095.00000000006,32268.99999999994,33220.00000000006,33806.99999999994,40023.00000000006,41244.99999999994,50068.99999999994,51231.99999999994,52452.99999999994],"honeypot":0,"survey":"mace","page":6,"trial_type":"survey-mace","trial_index":14,"time_elapsed":567710,"internal_node_id":"0.0-14.0","task_version":"prescreen-v0.3","browser_interactions":0},{"responses":{"01":"No","02":"No","03":"Yes","03_ages_10":"10","04":"No","05":"No","06":"No","07":"No"},"rt":46625,"item_order":[0,1,2,3,4,5,6],"radio_events":[21803.999999999884,25365.999999999884,35431.99999999988,42154,44051.99999999988,45012.99999999988,46080.99999999988],"checkbox_events":[37445.99999999988],"key_events":[],"mouse_events":[21803.999999999884,25365.999999999884,34202.99999999988,35431.99999999988,37445.99999999988,39080.99999999988,42154,44051.99999999988,45012.99999999988,46080.99999999988,46614.99999999988],"honeypot":0,"survey":"mace","page":7,"trial_type":"survey-mace","trial_index":15,"time_elapsed":614345,"internal_node_id":"0.0-15.0","task_version":"prescreen-v0.3","browser_interactions":0},{"responses":{"01":"No","02":"No","03":"Yes","03_ages_10":"10","03_ages_11":"11","03_ages_12":"12","03_ages_13":"13","03_ages_14":"14","03_ages_15":"15","03_ages_16":"16","03_ages_17":"17","03_ages_18":"18","04":"No"},"rt":29509,"item_order":[0,1,2,3],"radio_events":[10082,13858,16256,28877],"checkbox_events":[18522,19323,19683,20129,20548,20948,21502,21903.000000000116,22562],"key_events":[],"mouse_events":[10082,13858,16256,18522,18931,19323,19683,20129,20548,20948,21502,21903.000000000116,22562,27186,27811,28877,29500],"honeypot":0,"survey":"mace","page":8,"trial_type":"survey-mace","trial_index":16,"time_elapsed":643860,"internal_node_id":"0.0-16.0","task_version":"prescreen-v0.3","browser_interactions":0},{"responses":{"01":"Yes","01_ages_1":"1","01_ages_2":"2","01_ages_3":"3","01_ages_4":"4","01_ages_17":"17","01_ages_18":"18","02":"No","03":"Yes","03_ages_1":"1","03_ages_2":"2","03_ages_3":"3","03_ages_4":"4","03_ages_17":"17","03_ages_18":"18","04":"Yes","04_ages_1":"1","04_ages_2":"2","04_ages_3":"3","04_ages_4":"4","04_ages_5":"5","04_ages_6":"6","04_ages_7":"7","04_ages_8":"8","04_ages_9":"9","04_ages_10":"10","04_ages_11":"11","04_ages_12":"12","04_ages_13":"13","04_ages_14":"14","04_ages_15":"15","04_ages_16":"16","04_ages_17":"17","04_ages_18":"18"},"rt":56425.00000000012,"item_order":[0,1,2,3],"radio_events":[6549,24750,26449,41061],"checkbox_events":[7890,8546,15382.000000000116,15741,16168,17292,27500,27906.000000000116,28279,29067,30795,31196,42415,43373,43706,44121,45697,46612,47356,47775,48317,48765,49134,49407,50167,50704.00000000012,51415,51845,52261,52667,53643,54172],"key_events":[],"mouse_events":[5805.000000000116,6549,7890,8546,15382.000000000116,15741,16168,16794,17292,18278,18852,24750,26449,27500,27906.000000000116,28279,28778,29067,30795,31196,31644,41061,42415,42687,43047,43373,43706,44121,44856,45697,46063,46612,46987,47356,47775,48317,48765,49134,49407,49879,50167,50704.00000000012,51415,51845,52261,52667,53065,53643,54172,54628,56417],"honeypot":0,"survey":"mace","page":9,"trial_type":"survey-mace","trial_index":17,"time_elapsed":700294,"internal_node_id":"0.0-17.0","task_version":"prescreen-v0.3","browser_interactions":0},{"responses":{"01":"No","02":"No","03":"Yes","03_ages_10":"10","03_ages_11":"11","03_ages_12":"12","03_ages_16":"16","03_ages_17":"17","03_ages_18":"18","04":"Yes","04_ages_16":"16","04_ages_17":"17","04_ages_18":"18","05":"Yes","05_ages_16":"16","05_ages_17":"17","05_ages_18":"18","06":"Yes","06_ages_17":"17","07":"No","08":"No"},"rt":43220,"item_order":[0,1,2,3,4,5,6,7],"radio_events":[4460,6316,8240,22696,31159,36329.00000000012,41513,42843.00000000012],"checkbox_events":[13148,13799,14354,17038,17979,18679,25595,25993,26394,32193,33118,33561,37529],"key_events":[],"mouse_events":[4460,6316,8240,13148,13799,14354,17038,17979,18679,22696,24048,24829.000000000116,25595,25993,26394,26807,31159,32193,32563,33118,33561,33937,36329.00000000012,37529,41513,42843.00000000012,43208],"honeypot":0,"survey":"mace","page":10,"trial_type":"survey-mace","trial_index":18,"time_elapsed":743524,"internal_node_id":"0.0-18.0","task_version":"prescreen-v0.3","browser_interactions":0,"instructed":0},{"rt":3891.0000000001164,"trial_type":"mental-health-alert","trial_index":19,"time_elapsed":747419,"internal_node_id":"0.0-19.0","task_version":"prescreen-v0.3","interactions":"[]"}]