[{"view_history":[{"page_index":0,"viewing_time":7157},{"page_index":1,"viewing_time":2835.199999988079},{"page_index":2,"viewing_time":5823.699999988079},{"page_index":3,"viewing_time":1711.9000000357628}],"rt":17529.100000023842,"trial_type":"instructions","trial_index":0,"time_elapsed":17545,"internal_node_id":"0.0-0.0","task_version":"prescreen-v0.3"},{"rt":20063.69999998808,"responses":{"age":"19","gender-categorical":"Female","gender-free-response":"","ethnicity":"Not Hispanic or Latino","race":["White"],"education":"Some college"},"trial_type":"survey-demo","trial_index":1,"time_elapsed":37617,"internal_node_id":"0.0-1.0","task_version":"prescreen-v0.3"},{"responses":{"Q08":"2","Q20":"1","Q05":"0","Q15":"3","Q06":"1","Q02":"1","Q11":"3","Q16":"2","Q10":"2","Q21":"3","Q17":"1","Q19":"1","Q18":"1","Q04":"0","Q14":"3","Q13":"2","Q01":"2","Q12":"3","Q03":"2","Q09":"2","Q07":"0"},"rt":121937.69999998808,"item_order":[7,19,4,14,5,1,10,15,9,20,16,18,17,3,13,12,0,11,2,8,6],"radio_events":[11609.800000011921,17753.099999964237,25738.30000001192,32363.30000001192,42192.69999998808,44731.89999997616,48757.39999997616,55328.59999996424,59288.89999997616,63345.30000001192,69134.39999997616,77005.19999998808,88139.59999996424,89532.30000001192,96589.30000001192,98869.39999997616,101430.19999998808,111005.5,114085.89999997616,116746.09999996424,120696],"key_events":[],"mouse_events":[11609.800000011921,17753.099999964237,25738.30000001192,32363.30000001192,42192.69999998808,44731.89999997616,48757.39999997616,55328.59999996424,59288.89999997616,63345.30000001192,67865.5,69134.39999997616,77005.19999998808,88139.59999996424,89532.30000001192,96589.30000001192,98869.39999997616,101430.19999998808,111005.5,114085.89999997616,116746.09999996424,120696,121934],"straightlining":0.3333333333333333,"zigzagging":0.5,"honeypot":0,"survey":"sns","trial_type":"survey-template","trial_index":2,"time_elapsed":159560,"internal_node_id":"0.0-2.0","task_version":"prescreen-v0.3","browser_interactions":0,"infrequency":0},{"responses":{"Q04":"3","Q02":"3","Q08":"1","Q03":"3","Q09":"1","Q13":"0","Q06":"2","Q01":"3","Q11":"1","Q10":"1","Q12":"1","Q05":"2","Q07":"3"},"rt":61036.5,"item_order":[3,1,7,2,8,12,5,0,10,9,11,4,6],"radio_events":[10221.799999952316,11876.099999964237,14348.899999976158,17809.19999998808,22176.69999998808,24845.5,31467.5,35296.59999996424,40797.799999952316,46562.59999996424,51561.09999996424,54716,56471.5,57487.89999997616,60090.09999996424],"key_events":[],"mouse_events":[10221.799999952316,11876.099999964237,14348.899999976158,17809.19999998808,22176.69999998808,24845.5,30349.099999964237,31467.5,35296.59999996424,39659.299999952316,40797.799999952316,46562.59999996424,51561.09999996424,54716,56471.5,57487.89999997616,60090.09999996424,61033.89999997616],"straightlining":0.38461538461538464,"zigzagging":0.3333333333333333,"honeypot":0,"survey":"bisbas","trial_type":"survey-template","trial_index":3,"time_elapsed":220602,"internal_node_id":"0.0-3.0","task_version":"prescreen-v0.3","browser_interactions":0,"infrequency":0},{"responses":{"Q01":"1","Q02":"1","Q03":"2"},"rt":37384.299999952316,"radio_events":[24894.19999998808,31644.69999998808,35970.09999996424],"key_events":[],"mouse_events":[24894.19999998808,31644.69999998808,35056.39999997616,35970.09999996424,37383.19999998808],"survey":"map","page":1,"trial_type":"survey-map","trial_index":4,"time_elapsed":257992,"internal_node_id":"0.0-4.0","task_version":"prescreen-v0.3","browser_interactions":0},{"responses":{"Q04":"1","Q05":"2","Q06":"2"},"rt":13986.699999988079,"radio_events":[5993.699999988079,10572,12602.800000011921],"key_events":[],"mouse_events":[5993.699999988079,10572,11696.199999988079,12602.800000011921,13985.600000023842],"survey":"map","page":2,"trial_type":"survey-map","trial_index":5,"time_elapsed":271982,"internal_node_id":"0.0-5.0","task_version":"prescreen-v0.3","browser_interactions":0},{"responses":{"Q07":"2","Q08":"1","Q09":"3"},"rt":22433,"radio_events":[12583.299999952316,16607.299999952316,20720.5],"key_events":[],"mouse_events":[12583.299999952316,16607.299999952316,20720.5,22432.099999964237],"survey":"map","page":3,"trial_type":"survey-map","trial_index":6,"time_elapsed":294418,"internal_node_id":"0.0-6.0","task_version":"prescreen-v0.3","browser_interactions":0},{"responses":{"Q10":"1","Q11":"1","Q12":"1","Q13":"0","Q16":"0","Q14":"1","Q15":"0"},"rt":41406.5,"radio_events":[10750.699999988079,13464.899999976158,15901.799999952316,24214.19999998808,27520.69999998808,33803,34950.799999952316,39097.59999996424],"key_events":[],"mouse_events":[10750.699999988079,13464.899999976158,15901.799999952316,24214.19999998808,27520.69999998808,31213.399999976158,32621.099999964237,33803,34950.799999952316,39097.59999996424,41404.59999996424],"survey":"map","page":4,"trial_type":"survey-map","trial_index":7,"time_elapsed":335829,"internal_node_id":"0.0-7.0","task_version":"prescreen-v0.3","browser_interactions":0,"infrequency":0},{"view_history":[{"page_index":0,"viewing_time":3941.400000035763},{"page_index":1,"viewing_time":6012}],"rt":9954.800000011921,"trial_type":"instructions","trial_index":8,"time_elapsed":345786,"internal_node_id":"0.0-8.0","task_version":"prescreen-v0.3"},{"responses":{"01":"Yes","01_ages_11":"11","01_ages_12":"12","01_ages_13":"13","01_ages_14":"14","01_ages_15":"15","01_ages_16":"16","01_ages_17":"17","01_ages_18":"18","02":"Yes","02_ages_6":"6","02_ages_7":"7","02_ages_8":"8","02_ages_9":"9","02_ages_10":"10","02_ages_11":"11","02_ages_12":"12","02_ages_13":"13","02_ages_14":"14","02_ages_15":"15","02_ages_16":"16","02_ages_17":"17","02_ages_18":"18","03":"No","04":"No","05":"No","06":"Yes","06_ages_1":"1","06_ages_2":"2","06_ages_3":"3","06_ages_4":"4","06_ages_5":"5","06_ages_6":"6","06_ages_7":"7","06_ages_8":"8"},"rt":58559.200000047684,"item_order":[0,1,2,3,4,5],"radio_events":[9474.5,24248.30000001192,35592.5,37562.40000003576,40350,43339.10000002384],"checkbox_events":[18080.80000001192,18575.30000001192,18946.100000023842,19307,19727.600000023842,20086,20496.80000001192,20989.5,27921.600000023842,28319.700000047684,28661.900000035763,29023.700000047684,29376.900000035763,29701,30060.900000035763,30452.5,30803.700000047684,31156.200000047684,31528.700000047684,31868.80000001192,32233,49685.90000003576,50163.40000003576,50685.60000002384,51246.60000002384,53007.40000003576,53454.40000003576,54293,54766.40000003576,55139.700000047684,55749.40000003576],"key_events":[],"mouse_events":[0.20000004768371582,8574.200000047684,9474.5,18080.80000001192,18575.30000001192,18946.100000023842,19307,19727.600000023842,20086,20496.80000001192,20989.5,24248.30000001192,27921.600000023842,28319.700000047684,28661.900000035763,29023.700000047684,29376.900000035763,29701,30060.900000035763,30452.5,30803.700000047684,31156.200000047684,31528.700000047684,31868.80000001192,32233,35592.5,37562.40000003576,40350,43339.10000002384,49685.90000003576,50163.40000003576,50685.60000002384,51246.60000002384,53007.40000003576,53454.40000003576,54293,54766.40000003576,55139.700000047684,55749.40000003576,58556.60000002384],"honeypot":0,"survey":"mace","page":1,"trial_type":"survey-mace","trial_index":9,"time_elapsed":404353,"internal_node_id":"0.0-9.0","task_version":"prescreen-v0.3","browser_interactions":0},{"responses":{"01":"No","02":"No","03":"Yes","03_ages_1":"1","03_ages_2":"2","03_ages_3":"3","03_ages_4":"4","03_ages_5":"5","03_ages_6":"6","03_ages_7":"7","04":"Yes","04_ages_1":"1","04_ages_2":"2","04_ages_3":"3","04_ages_4":"4","05":"Yes","05_ages_1":"1","05_ages_2":"2","05_ages_3":"3","05_ages_4":"4","05_ages_5":"5","05_ages_6":"6","05_ages_7":"7","06":"No","07":"No","08":"No"},"rt":36374.69999998808,"item_order":[0,1,2,3,4,5,6,7],"radio_events":[3708.899999976158,6573,8694.100000023842,15521.699999988079,23693.100000023842,29462.80000001192,30888.600000023842,34152.39999997616],"checkbox_events":[9890.899999976158,10311.300000011921,10719.100000023842,11169.399999976158,11566.100000023842,11987.100000023842,12415.300000011921,19371.100000023842,19704.600000023842,20064.100000023842,20551.5,24768.899999976158,25064,25434.100000023842,25833.69999998808,26156.69999998808,26471.19999998808,26805.399999976158],"key_events":[],"mouse_events":[3708.899999976158,6573,8694.100000023842,9890.899999976158,10311.300000011921,10719.100000023842,11169.399999976158,11566.100000023842,11987.100000023842,12415.300000011921,15521.699999988079,19371.100000023842,19704.600000023842,20064.100000023842,20551.5,23693.100000023842,24768.899999976158,25064,25434.100000023842,25833.69999998808,26156.69999998808,26471.19999998808,26805.399999976158,29462.80000001192,30888.600000023842,34152.39999997616,36371.5],"honeypot":0,"survey":"mace","page":2,"trial_type":"survey-mace","trial_index":10,"time_elapsed":440731,"internal_node_id":"0.0-10.0","task_version":"prescreen-v0.3","browser_interactions":0},{"responses":{"01":"No","02":"No","03":"No","04":"No"},"rt":11589.100000023842,"item_order":[0,1,2,3],"radio_events":[3779.7000000476837,6444.5,8738.900000035763,10642.900000035763],"checkbox_events":[],"key_events":[],"mouse_events":[3779.7000000476837,6444.5,8738.900000035763,10642.900000035763,11584.600000023842],"honeypot":0,"survey":"mace","page":3,"trial_type":"survey-mace","trial_index":11,"time_elapsed":452323,"internal_node_id":"0.0-11.0","task_version":"prescreen-v0.3","browser_interactions":0},{"responses":{"01":"No","02":"No"},"rt":25260.100000023842,"item_order":[0,1],"radio_events":[13763.5,19206.80000001192],"checkbox_events":[],"key_events":[],"mouse_events":[13763.5,19206.80000001192,25258.400000035763],"honeypot":0,"survey":"mace","page":4,"trial_type":"survey-mace","trial_index":12,"time_elapsed":477586,"internal_node_id":"0.0-12.0","task_version":"prescreen-v0.3","browser_interactions":0},{"responses":{"01":"No","02":"No","03":"No","04":"No","05":"No"},"rt":19882.100000023842,"item_order":[0,1,2,3,4],"radio_events":[7936.199999988079,10609.400000035763,13008.699999988079,15824,18383],"checkbox_events":[],"key_events":[],"mouse_events":[7936.199999988079,10609.400000035763,13008.699999988079,15824,18383,19879],"honeypot":0,"survey":"mace","page":5,"trial_type":"survey-mace","trial_index":13,"time_elapsed":497471,"internal_node_id":"0.0-13.0","task_version":"prescreen-v0.3","browser_interactions":0},{"responses":{"01":"Yes","01_ages_8":"8","01_ages_9":"9","01_ages_10":"10","01_ages_11":"11","01_ages_12":"12","01_ages_13":"13","01_ages_14":"14","01_ages_15":"15","01_ages_16":"16","01_ages_17":"17","01_ages_18":"18","02":"Yes","02_ages_7":"7","02_ages_8":"8","02_ages_9":"9","02_ages_10":"10","02_ages_11":"11","02_ages_12":"12","02_ages_13":"13","02_ages_14":"14","02_ages_15":"15","02_ages_16":"16","02_ages_17":"17","02_ages_18":"18","03":"Yes","03_ages_14":"14","03_ages_15":"15","03_ages_16":"16","03_ages_17":"17","03_ages_18":"18","04":"Yes","04_ages_6":"6","04_ages_7":"7","04_ages_8":"8","04_ages_9":"9","04_ages_10":"10","04_ages_11":"11","04_ages_12":"12","04_ages_13":"13","04_ages_14":"14","04_ages_15":"15","04_ages_16":"16","04_ages_17":"17","04_ages_18":"18","05":"Yes","05_ages_15":"15","05_ages_16":"16","05_ages_17":"17","05_ages_18":"18"},"rt":44530.30000001192,"item_order":[0,1,2,3,4],"radio_events":[6106.300000011921,14814.100000023842,23151.100000023842,31537.5,39547.40000003576],"checkbox_events":[8570.400000035763,8824.199999988079,9140.300000011921,9442,9793.900000035763,10129.699999988079,10442.600000023842,10805,11137.699999988079,11451.900000035763,11765,16764.30000001192,17001.100000023842,17258,18235.30000001192,18456.900000035763,18731.900000035763,18999.100000023842,19276,19523.5,19781.5,20027.30000001192,20255.5,27652.30000001192,27936.30000001192,28326,28688.30000001192,29004.5,32970.5,33208.80000001192,33474.30000001192,33713.69999998808,33982.19999998808,34237.69999998808,34503.40000003576,34779.5,35027,35341.19999998808,35559.90000003576,35836.90000003576,36093.5,42156.5,42450.80000001192,43402.90000003576,43745.10000002384],"key_events":[],"mouse_events":[6106.300000011921,8570.400000035763,8824.199999988079,9140.300000011921,9442,9793.900000035763,10129.699999988079,10442.600000023842,10805,11137.699999988079,11451.900000035763,11765,14814.100000023842,16764.30000001192,17001.100000023842,17258,17554.30000001192,17884.30000001192,18235.30000001192,18456.900000035763,18731.900000035763,18999.100000023842,19276,19523.5,19781.5,20027.30000001192,20255.5,23151.100000023842,27652.30000001192,27936.30000001192,28326,28688.30000001192,29004.5,31537.5,32970.5,33208.80000001192,33474.30000001192,33713.69999998808,33982.19999998808,34237.69999998808,34503.40000003576,34779.5,35027,35341.19999998808,35559.90000003576,35836.90000003576,36093.5,39547.40000003576,42156.5,42450.80000001192,43402.90000003576,43745.10000002384,44527.60000002384],"honeypot":0,"survey":"mace","page":6,"trial_type":"survey-mace","trial_index":14,"time_elapsed":542003,"internal_node_id":"0.0-14.0","task_version":"prescreen-v0.3","browser_interactions":0},{"responses":{"01":"No","02":"Yes","02_ages_11":"11","02_ages_12":"12","02_ages_13":"13","02_ages_14":"14","02_ages_15":"15","02_ages_16":"16","02_ages_17":"17","02_ages_18":"18","03":"Yes","03_ages_15":"15","03_ages_16":"16","03_ages_17":"17","03_ages_18":"18","04":"Yes","04_ages_16":"16","04_ages_17":"17","04_ages_18":"18","05":"No","06":"Yes","06_ages_15":"15","06_ages_16":"16","07":"Yes","07_ages_15":"15","07_ages_16":"16","07_ages_17":"17","07_ages_18":"18"},"rt":50382.200000047684,"item_order":[0,1,2,3,4,5,6],"radio_events":[3884.900000035763,5998.900000035763,14787.100000023842,25748,33850,35750.40000003576,44276.60000002384],"checkbox_events":[8169.200000047684,8395.300000011921,8690.200000047684,8967.700000047684,9177.300000011921,9833,10651.200000047684,10812.800000011921,16783.200000047684,17180.700000047684,17580.100000023842,18188.700000047684,27024,27221.100000023842,27456.400000035763,39956,40144.5,46141.700000047684,46894.40000003576,47330.90000003576,47808.200000047684,48254.200000047684,48738.80000001192],"key_events":[],"mouse_events":[3884.900000035763,5998.900000035763,8169.200000047684,8395.300000011921,8690.200000047684,8967.700000047684,9177.300000011921,9406.700000047684,9833,10651.200000047684,10812.800000011921,14787.100000023842,16783.200000047684,17180.700000047684,17580.100000023842,18188.700000047684,25748,27024,27221.100000023842,27456.400000035763,33850,35750.40000003576,39956,40144.5,44276.60000002384,46141.700000047684,46894.40000003576,47330.90000003576,47808.200000047684,48254.200000047684,48738.80000001192,50379.5],"honeypot":0,"survey":"mace","page":7,"trial_type":"survey-mace","trial_index":15,"time_elapsed":592389,"internal_node_id":"0.0-15.0","task_version":"prescreen-v0.3","browser_interactions":0},{"responses":{"01":"Yes","01_ages_8":"8","01_ages_9":"9","01_ages_10":"10","01_ages_11":"11","01_ages_12":"12","01_ages_13":"13","01_ages_14":"14","01_ages_15":"15","01_ages_16":"16","01_ages_17":"17","01_ages_18":"18","02":"Yes","02_ages_7":"7","02_ages_8":"8","02_ages_9":"9","02_ages_10":"10","02_ages_11":"11","02_ages_12":"12","02_ages_13":"13","02_ages_14":"14","02_ages_15":"15","02_ages_16":"16","02_ages_17":"17","02_ages_18":"18","03":"Yes","03_ages_8":"8","03_ages_9":"9","03_ages_10":"10","03_ages_11":"11","03_ages_12":"12","03_ages_13":"13","03_ages_14":"14","03_ages_15":"15","03_ages_16":"16","03_ages_17":"17","03_ages_18":"18","04":"No"},"rt":56291.09999996424,"item_order":[0,1,2,3],"radio_events":[11688.5,27371.5,36481.5,43106.39999997616,55307.09999996424],"checkbox_events":[31284.19999998808,31455.19999998808,31614.5,31788.69999998808,31987.799999952316,32207.5,32339.599999964237,32511.099999964237,32893.69999998808,33110.69999998808,33493.39999997616,33959.09999996424,34167.59999996424,34737.69999998808,35262.59999996424,37425.799999952316,37584.89999997616,37742.299999952316,37917.69999998808,38079.5,38565.19999998808,38822.5,39078.299999952316,39612.299999952316,39783.299999952316,39953.59999996424,40145.09999996424,44524.799999952316,44684.299999952316,44848.39999997616,45007.59999996424,45172.39999997616,45637.5,45818,45980.799999952316,46151.09999996424,46313.5,47340.09999996424,47521.19999998808,47683.69999998808,47881.69999998808,48502.5,48973.69999998808,49387],"key_events":[],"mouse_events":[11688.5,27371.5,31284.19999998808,31455.19999998808,31614.5,31788.69999998808,31987.799999952316,32207.5,32339.599999964237,32511.099999964237,32893.69999998808,33110.69999998808,33493.39999997616,33959.09999996424,34167.59999996424,34396.5,34737.69999998808,35262.59999996424,36481.5,37425.799999952316,37584.89999997616,37742.299999952316,37917.69999998808,38079.5,38252.09999996424,38410.5,38565.19999998808,38822.5,39078.299999952316,39612.299999952316,39783.299999952316,39953.59999996424,40145.09999996424,43106.39999997616,44524.799999952316,44684.299999952316,44848.39999997616,45007.59999996424,45172.39999997616,45637.5,45818,45980.799999952316,46151.09999996424,46313.5,47340.09999996424,47521.19999998808,47683.69999998808,47881.69999998808,48502.5,48973.69999998808,49387,55307.09999996424,56287.5],"honeypot":0,"survey":"mace","page":8,"trial_type":"survey-mace","trial_index":16,"time_elapsed":648683,"internal_node_id":"0.0-16.0","task_version":"prescreen-v0.3","browser_interactions":0},{"responses":{"01":"Yes","01_ages_1":"1","01_ages_2":"2","01_ages_3":"3","01_ages_4":"4","01_ages_5":"5","01_ages_6":"6","01_ages_7":"7","01_ages_8":"8","01_ages_9":"9","01_ages_10":"10","01_ages_11":"11","01_ages_12":"12","01_ages_13":"13","01_ages_14":"14","01_ages_15":"15","01_ages_16":"16","01_ages_17":"17","01_ages_18":"18","02":"Yes","02_ages_1":"1","02_ages_2":"2","02_ages_3":"3","02_ages_4":"4","02_ages_5":"5","02_ages_6":"6","02_ages_7":"7","02_ages_8":"8","02_ages_9":"9","02_ages_10":"10","02_ages_11":"11","02_ages_12":"12","02_ages_13":"13","02_ages_14":"14","02_ages_15":"15","02_ages_16":"16","02_ages_17":"17","02_ages_18":"18","03":"Yes","03_ages_1":"1","03_ages_2":"2","03_ages_3":"3","03_ages_4":"4","03_ages_5":"5","03_ages_6":"6","03_ages_7":"7","03_ages_8":"8","03_ages_9":"9","03_ages_10":"10","03_ages_11":"11","03_ages_12":"12","03_ages_13":"13","03_ages_14":"14","03_ages_15":"15","03_ages_16":"16","03_ages_17":"17","03_ages_18":"18","04":"Yes","04_ages_1":"1","04_ages_2":"2","04_ages_3":"3","04_ages_4":"4","04_ages_5":"5","04_ages_6":"6","04_ages_7":"7","04_ages_8":"8","04_ages_9":"9","04_ages_10":"10","04_ages_11":"11","04_ages_12":"12","04_ages_13":"13","04_ages_14":"14","04_ages_15":"15","04_ages_16":"16","04_ages_17":"17","04_ages_18":"18"},"rt":49924.60000002384,"item_order":[0,1,2,3],"radio_events":[2952,17373.100000023842,29164.900000035763,41875.19999998808],"checkbox_events":[4514.800000011921,4740.800000011921,5008.100000023842,6645.100000023842,6891.800000011921,7509.900000035763,7796.400000035763,7986.900000035763,8843.900000035763,9014.300000011921,9175.699999988079,9825.100000023842,10032.699999988079,10173.699999988079,10366.100000023842,10537,10956.199999988079,11146,11585,11898.900000035763,12545.600000023842,13029.699999988079,18191.80000001192,18389.100000023842,18626.69999998808,19112.100000023842,19389.69999998808,19827.600000023842,20731.400000035763,21673.69999998808,22045.600000023842,22339.900000035763,22643.900000035763,22958,23262.600000023842,23575.900000035763,23852.900000035763,24136.600000023842,24433,24795.69999998808,25138.30000001192,25432.5,30040.600000023842,30218.900000035763,30448.30000001192,31229.80000001192,31503.400000035763,31665.100000023842,31731.30000001192,32310.400000035763,32542,33037.5,33253.80000001192,33435.5,33798.69999998808,34131.60000002384,34731,35151.40000003576,35377.40000003576,35559.5,35786.80000001192,36110.90000003576,36282.10000002384,36729.90000003576,37633.5,37880.10000002384,43290.69999998808,43525.5,43704.5,43895.10000002384,44380.60000002384,44772.60000002384,44943,45087.80000001192,45246.5,45636.80000001192,45961.10000002384,46131,46285,46456.69999998808,46618.40000003576,47044.5,47432.30000001192,47583.19999998808,47749.90000003576,47910.80000001192,48559.80000001192,48922.10000002384],"key_events":[],"mouse_events":[2952,4514.800000011921,4740.800000011921,5008.100000023842,5324.400000035763,5586.800000011921,5853.300000011921,6121.5,6398,6645.100000023842,6891.800000011921,7509.900000035763,7796.400000035763,7986.900000035763,8158.400000035763,8338.400000035763,8843.900000035763,9014.300000011921,9175.699999988079,9825.100000023842,10032.699999988079,10173.699999988079,10366.100000023842,10537,10956.199999988079,11146,11585,11898.900000035763,12545.600000023842,13029.699999988079,17373.100000023842,18191.80000001192,18389.100000023842,18626.69999998808,18895.69999998808,19112.100000023842,19389.69999998808,19827.600000023842,20360.30000001192,20731.400000035763,20978.400000035763,21673.69999998808,22045.600000023842,22339.900000035763,22643.900000035763,22958,23262.600000023842,23575.900000035763,23852.900000035763,24136.600000023842,24433,24795.69999998808,25138.30000001192,25432.5,29164.900000035763,30040.600000023842,30218.900000035763,30448.30000001192,30639.400000035763,30835.80000001192,31229.80000001192,31503.400000035763,31665.100000023842,31731.30000001192,32310.400000035763,32542,33037.5,33253.80000001192,33435.5,33798.69999998808,34131.60000002384,34731,35151.40000003576,35377.40000003576,35559.5,35786.80000001192,36110.90000003576,36282.10000002384,36729.90000003576,37196.69999998808,37633.5,37880.10000002384,41624.10000002384,41875.19999998808,43290.69999998808,43525.5,43704.5,43895.10000002384,44380.60000002384,44772.60000002384,44943,45087.80000001192,45246.5,45636.80000001192,45961.10000002384,46131,46285,46456.69999998808,46618.40000003576,47044.5,47432.30000001192,47583.19999998808,47749.90000003576,47910.80000001192,48559.80000001192,48922.10000002384,49921.90000003576],"honeypot":0,"survey":"mace","page":9,"trial_type":"survey-mace","trial_index":17,"time_elapsed":698609,"internal_node_id":"0.0-17.0","task_version":"prescreen-v0.3","browser_interactions":0},{"responses":{"01":"No","02":"No","03":"No","04":"No","05":"Yes","05_ages_15":"15","05_ages_16":"16","05_ages_17":"17","05_ages_18":"18","06":"Yes","06_ages_17":"17","07":"Yes","07_ages_4":"4","07_ages_5":"5","07_ages_6":"6","07_ages_7":"7","07_ages_8":"8","07_ages_9":"9","07_ages_10":"10","07_ages_11":"11","07_ages_12":"12","07_ages_13":"13","07_ages_14":"14","07_ages_15":"15","07_ages_16":"16","07_ages_17":"17","07_ages_18":"18","08":"Yes","08_ages_4":"4","08_ages_5":"5","08_ages_6":"6","08_ages_7":"7","08_ages_8":"8","08_ages_9":"9","08_ages_10":"10","08_ages_11":"11","08_ages_12":"12","08_ages_13":"13","08_ages_14":"14","08_ages_15":"15","08_ages_16":"16","08_ages_17":"17","08_ages_18":"18"},"rt":73100.5,"item_order":[0,1,2,3,4,5,6,7],"radio_events":[4746.699999988079,5874.100000023842,7849.199999988079,9500.199999988079,23170.5,28709.100000023842,32989.60000002384,51311.30000001192],"checkbox_events":[24939.69999998808,25167.30000001192,25746,26603.5,29611.69999998808,36953.5,37579.19999998808,37947,38425.10000002384,38987.39999997616,39330.10000002384,39660.39999997616,39929.39999997616,40261.80000001192,40612.10000002384,40878,41118,41458.5,41747.30000001192,42053.39999997616,42327.19999998808,42688.5,42964.10000002384,43250.69999998808,43545.80000001192,43812.89999997616,44087.69999998808,45029.5,46002.39999997616,46619.30000001192,47495.10000002384,47644.10000002384,47884.80000001192,56651.30000001192,56992.60000002384,57421.19999998808,63389.39999997616,63713.69999998808,64016.30000001192,64341,64702.5,65265.39999997616,65616.69999998808,65950.69999998808,66720.60000002384,67043.19999998808,67415.10000002384,67737.10000002384,68011.60000002384,69840.19999998808,72087.19999998808],"key_events":[],"mouse_events":[4746.699999988079,5874.100000023842,7849.199999988079,9500.199999988079,23170.5,24939.69999998808,25167.30000001192,25746,26603.5,28709.100000023842,29611.69999998808,32989.60000002384,36953.5,37579.19999998808,37947,38425.10000002384,38987.39999997616,39330.10000002384,39660.39999997616,39929.39999997616,40261.80000001192,40612.10000002384,40878,41118,41458.5,41747.30000001192,42053.39999997616,42327.19999998808,42688.5,42964.10000002384,43250.69999998808,43545.80000001192,43812.89999997616,44087.69999998808,45029.5,45698.80000001192,46002.39999997616,46619.30000001192,47495.10000002384,47644.10000002384,47884.80000001192,51311.30000001192,56651.30000001192,56992.60000002384,57421.19999998808,63389.39999997616,63713.69999998808,64016.30000001192,64341,64702.5,65265.39999997616,65616.69999998808,65950.69999998808,66720.60000002384,67043.19999998808,67415.10000002384,67737.10000002384,68011.60000002384,69840.19999998808,72087.19999998808,73097.19999998808],"honeypot":0,"survey":"mace","page":10,"trial_type":"survey-mace","trial_index":18,"time_elapsed":771713,"internal_node_id":"0.0-18.0","task_version":"prescreen-v0.3","browser_interactions":0,"instructed":0},{"rt":13040.5,"trial_type":"mental-health-alert","trial_index":19,"time_elapsed":784755,"internal_node_id":"0.0-19.0","task_version":"prescreen-v0.3","interactions":"[]"}]