[{"view_history":[{"page_index":0,"viewing_time":3462.0000000000005},{"page_index":1,"viewing_time":42985},{"page_index":2,"viewing_time":3754.0000000000073},{"page_index":3,"viewing_time":1335.9999999999927}],"rt":51538,"trial_type":"instructions","trial_index":0,"time_elapsed":51539,"internal_node_id":"0.0-0.0","task_version":"prescreen-v0.3"},{"rt":13398,"responses":{"age":"20","gender-categorical":"Female","gender-free-response":"","ethnicity":"Not Hispanic or Latino","race":["White"],"education":"Some college"},"trial_type":"survey-demo","trial_index":1,"time_elapsed":64947,"internal_node_id":"0.0-1.0","task_version":"prescreen-v0.3"},{"responses":{"Q17":"1","Q13":"1","Q11":"1","Q05":"0","Q02":"0","Q09":"0","Q16":"1","Q10":"1","Q03":"1","Q04":"1","Q06":"1","Q21":"3","Q07":"0","Q14":"2","Q08":"2","Q19":"1","Q15":"2","Q12":"1","Q20":"0","Q01":"1","Q18":"2"},"rt":133366,"item_order":[16,12,10,4,1,8,15,9,2,3,5,20,6,13,7,18,14,11,19,0,17],"radio_events":[9831,15323,17270.000000000015,31911,37282.000000000015,38151.000000000015,43169.000000000015,51056.000000000015,52841,56748,61645.000000000015,67657,76429,80929,82415,96004.00000000003,104315,105408,110900,114619,118309,131941],"key_events":[],"mouse_events":[9831,13538.000000000015,15323,17270.000000000015,30481,31911,35345,37282.000000000015,38151.000000000015,43169.000000000015,48733,50220,51056.000000000015,52841,56748,61645.000000000015,67657,76429,80929,82415,94245,96004.00000000003,98553,101229,103819,104315,105408,110900,113197,114619,116637,118309,130374,131257,131941,133348],"straightlining":0.5238095238095238,"zigzagging":0.45,"honeypot":0,"survey":"sns","trial_type":"survey-template","trial_index":2,"time_elapsed":198314,"internal_node_id":"0.0-2.0","task_version":"prescreen-v0.3","browser_interactions":0,"infrequency":0},{"responses":{"Q04":"2","Q06":"2","Q02":"2","Q12":"1","Q11":"2","Q10":"2","Q05":"2","Q13":"0","Q03":"3","Q08":"2","Q07":"3","Q01":"3","Q09":"2"},"rt":58773,"item_order":[3,5,1,11,10,9,4,12,2,7,6,0,8],"radio_events":[6525.000000000029,10962,12537.00000000003,16683,30121,30925,34752,40376.00000000003,44322,48510,49626.00000000003,51338,53812,57960.00000000003],"key_events":[],"mouse_events":[6525.000000000029,10962,12537.00000000003,16683,25558,28666,30121,30925,32106,33665,34752,38488,39356,40376.00000000003,44322,47457,48510,49626.00000000003,51338,53812,56529,57960.00000000003,58764],"straightlining":0.6153846153846154,"zigzagging":0.5,"honeypot":0,"survey":"bisbas","trial_type":"survey-template","trial_index":3,"time_elapsed":257090,"internal_node_id":"0.0-3.0","task_version":"prescreen-v0.3","browser_interactions":0,"infrequency":0},{"responses":{"Q01":"3","Q02":"2","Q03":"2"},"rt":16753,"radio_events":[7884,11284,15783],"key_events":[],"mouse_events":[7884,11284,15100,15783,16747],"survey":"map","page":1,"trial_type":"survey-map","trial_index":4,"time_elapsed":273847,"internal_node_id":"0.0-4.0","task_version":"prescreen-v0.3","browser_interactions":0},{"responses":{"Q04":"3","Q05":"2","Q06":"2"},"rt":13080.999999999942,"radio_events":[5327,9305.999999999942,12149.999999999942],"key_events":[],"mouse_events":[5327,9305.999999999942,10943.999999999942,12149.999999999942,13074.999999999942],"survey":"map","page":2,"trial_type":"survey-map","trial_index":5,"time_elapsed":286930,"internal_node_id":"0.0-5.0","task_version":"prescreen-v0.3","browser_interactions":0},{"responses":{"Q07":"2","Q08":"4","Q09":"3"},"rt":14723,"radio_events":[7389,9993,13834],"key_events":[],"mouse_events":[4851,7389,9993,13199,13834,14718],"survey":"map","page":3,"trial_type":"survey-map","trial_index":6,"time_elapsed":301658,"internal_node_id":"0.0-6.0","task_version":"prescreen-v0.3","browser_interactions":0},{"responses":{"Q10":"2","Q11":"3","Q12":"2","Q13":"3","Q16":"0","Q14":"2","Q15":"2"},"rt":33002,"radio_events":[7522,13774,14811.000000000058,17471,21948.00000000006,29269,31495],"key_events":[],"mouse_events":[7522,10326,12761,13774,14811.000000000058,17471,21948.00000000006,29269,31495,32997],"survey":"map","page":4,"trial_type":"survey-map","trial_index":7,"time_elapsed":334664,"internal_node_id":"0.0-7.0","task_version":"prescreen-v0.3","browser_interactions":0,"infrequency":0},{"view_history":[{"page_index":0,"viewing_time":2604},{"page_index":1,"viewing_time":4982}],"rt":7587,"trial_type":"instructions","trial_index":8,"time_elapsed":342254,"internal_node_id":"0.0-8.0","task_version":"prescreen-v0.3"},{"responses":{"01":"No","02":"No","03":"No","04":"No","05":"No","06":"No"},"rt":20660,"item_order":[0,1,2,3,4,5],"radio_events":[8980,11743,13945,16221,17257,19548],"checkbox_events":[],"key_events":[],"mouse_events":[0,8980,11743,13945,15135.000000000058,16221,17257,19548,20650],"honeypot":0,"survey":"mace","page":1,"trial_type":"survey-mace","trial_index":9,"time_elapsed":362921,"internal_node_id":"0.0-9.0","task_version":"prescreen-v0.3","browser_interactions":0},{"responses":{"01":"No","02":"No","03":"Yes","03_ages_6":"6","03_ages_7":"7","03_ages_8":"8","03_ages_9":"9","03_ages_10":"10","03_ages_11":"11","04":"No","05":"No","06":"No","07":"No","08":"No"},"rt":31269,"item_order":[0,1,2,3,4,5,6,7],"radio_events":[2940,4974,6781,19679,22435,24018,25705,28719],"checkbox_events":[11234,12021.000000000058,12856,13828,14504.000000000058,15188],"key_events":[],"mouse_events":[2940,4974,6781,11234,12021.000000000058,12856,13828,14504.000000000058,15188,19679,22435,24018,25705,28719,31258],"honeypot":0,"survey":"mace","page":2,"trial_type":"survey-mace","trial_index":10,"time_elapsed":394196,"internal_node_id":"0.0-10.0","task_version":"prescreen-v0.3","browser_interactions":0},{"responses":{"01":"No","02":"No","03":"No","04":"No"},"rt":22451,"item_order":[0,1,2,3],"radio_events":[15492.000000000058,17444.00000000006,20113,21567],"checkbox_events":[],"key_events":[],"mouse_events":[15492.000000000058,17444.00000000006,18369,20113,20924,21567,22443],"honeypot":0,"survey":"mace","page":3,"trial_type":"survey-mace","trial_index":11,"time_elapsed":416651,"internal_node_id":"0.0-11.0","task_version":"prescreen-v0.3","browser_interactions":0},{"responses":{"01":"No","02":"No"},"rt":5922,"item_order":[0,1],"radio_events":[1940,3909],"checkbox_events":[],"key_events":[],"mouse_events":[1940,2815,3909,5917.000000000058],"honeypot":0,"survey":"mace","page":4,"trial_type":"survey-mace","trial_index":12,"time_elapsed":422576,"internal_node_id":"0.0-12.0","task_version":"prescreen-v0.3","browser_interactions":0},{"responses":{"01":"No","02":"No","03":"No","04":"No","05":"No"},"rt":16237,"item_order":[0,1,2,3,4],"radio_events":[5462,8675,12050,13737,14942],"checkbox_events":[],"key_events":[],"mouse_events":[5462,8675,12050,13737,14942,16228],"honeypot":0,"survey":"mace","page":5,"trial_type":"survey-mace","trial_index":13,"time_elapsed":438819,"internal_node_id":"0.0-13.0","task_version":"prescreen-v0.3","browser_interactions":0},{"responses":{"01":"No","02":"No","03":"No","04":"Yes","04_ages_11":"11","04_ages_12":"12","04_ages_13":"13","04_ages_14":"14","04_ages_15":"15","04_ages_16":"16","04_ages_17":"17","05":"No"},"rt":24115,"item_order":[0,1,2,3,4],"radio_events":[6075,7257,8711,11225,13387,23422],"checkbox_events":[16263,17052,17533,18024,19132,19615,20137],"key_events":[],"mouse_events":[6075,7257,8711,11225,13387,16263,17052,17533,18024,18553,19132,19615,20137,23422,24105],"honeypot":0,"survey":"mace","page":6,"trial_type":"survey-mace","trial_index":14,"time_elapsed":462939,"internal_node_id":"0.0-14.0","task_version":"prescreen-v0.3","browser_interactions":0},{"responses":{"01":"No","02":"No","03":"No","04":"No","05":"No","06":"No","07":"No"},"rt":18440.00000000006,"item_order":[0,1,2,3,4,5,6],"radio_events":[5559,6796.000000000058,8065.000000000058,10244,13554,16341,17587.00000000006],"checkbox_events":[],"key_events":[],"mouse_events":[5559,6796.000000000058,8065.000000000058,10244,13554,16341,17587.00000000006,18431],"honeypot":0,"survey":"mace","page":7,"trial_type":"survey-mace","trial_index":15,"time_elapsed":481387,"internal_node_id":"0.0-15.0","task_version":"prescreen-v0.3","browser_interactions":0},{"responses":{"01":"No","02":"No","03":"No","04":"No"},"rt":14292,"item_order":[0,1,2,3],"radio_events":[5374,8492,11800,13491],"checkbox_events":[],"key_events":[],"mouse_events":[5374,8492,11800,13491,14285],"honeypot":0,"survey":"mace","page":8,"trial_type":"survey-mace","trial_index":16,"time_elapsed":495685,"internal_node_id":"0.0-16.0","task_version":"prescreen-v0.3","browser_interactions":0},{"responses":{"01":"Yes","01_ages_1":"1","01_ages_2":"2","01_ages_3":"3","01_ages_4":"4","01_ages_5":"5","01_ages_6":"6","01_ages_7":"7","01_ages_8":"8","01_ages_9":"9","01_ages_10":"10","01_ages_11":"11","01_ages_12":"12","01_ages_13":"13","01_ages_14":"14","01_ages_15":"15","01_ages_16":"16","01_ages_17":"17","01_ages_18":"18","02":"Yes","02_ages_1":"1","02_ages_2":"2","02_ages_3":"3","02_ages_4":"4","02_ages_5":"5","02_ages_6":"6","02_ages_7":"7","02_ages_8":"8","02_ages_9":"9","02_ages_10":"10","02_ages_11":"11","02_ages_12":"12","02_ages_13":"13","02_ages_14":"14","02_ages_15":"15","02_ages_16":"16","02_ages_17":"17","02_ages_18":"18","03":"Yes","03_ages_1":"1","03_ages_2":"2","03_ages_3":"3","03_ages_4":"4","03_ages_5":"5","03_ages_6":"6","03_ages_7":"7","03_ages_8":"8","03_ages_9":"9","03_ages_10":"10","03_ages_11":"11","03_ages_12":"12","03_ages_13":"13","03_ages_14":"14","03_ages_15":"15","03_ages_16":"16","03_ages_17":"17","03_ages_18":"18","04":"Yes","04_ages_1":"1","04_ages_2":"2","04_ages_3":"3","04_ages_4":"4","04_ages_5":"5","04_ages_6":"6","04_ages_7":"7","04_ages_8":"8","04_ages_9":"9","04_ages_10":"10","04_ages_11":"11","04_ages_12":"12","04_ages_13":"13","04_ages_14":"14","04_ages_15":"15","04_ages_16":"16","04_ages_17":"17","04_ages_18":"18"},"rt":91017,"item_order":[0,1,2,3],"radio_events":[3378.000000000058,24941,46433,48676],"checkbox_events":[7804,8431,8978,9668,11130,12175,13316,13903,14498.000000000058,15551.000000000058,16377.000000000058,17332.99999999994,18338.00000000006,19182,19873.00000000006,20677,21616,23029.99999999994,26654,27827,28468.000000000116,29802,30936,31522,32149,33266.00000000012,35082,35740,36503,37516.00000000012,38529,39355,40303,41549,42690,43365,50621,51561,52268,53344,54767,55900,56968.00000000012,58696,60030,60844,62110,62913,63995,65051,66433,67359,68513,69437,71718.00000000012,72834,73726,74979,76033,76868,77752,80025,80820,82075,82870,83922,84613,85661,86349,87208,88470,89619],"key_events":[],"mouse_events":[3378.000000000058,5492,6703,7804,8431,8978,9668,10576,11130,12175,12689,13316,13903,14498.000000000058,15551.000000000058,16377.000000000058,17332.99999999994,18338.00000000006,19182,19873.00000000006,20677,21616,23029.99999999994,24941,26654,27827,28468.000000000116,29168,29802,30936,31522,32149,33266.00000000012,35082,35740,36503,37516.00000000012,38529,39355,40303,41549,42690,43365,44731,46433,48676,50621,51561,52268,53344,54767,55900,56968.00000000012,57876,58696,60030,60844,62110,62913,63995,65051,66433,67359,68513,69437,71718.00000000012,72834,73726,74979,76033,76868,77752,79302,80025,80820,82075,82870,83922,84613,85661,86349,87208,88470,89619,91009],"honeypot":0,"survey":"mace","page":9,"trial_type":"survey-mace","trial_index":17,"time_elapsed":586704,"internal_node_id":"0.0-17.0","task_version":"prescreen-v0.3","browser_interactions":0},{"responses":{"01":"No","02":"No","03":"No","04":"No","05":"No","06":"Yes","06_ages_17":"17","07":"Yes","07_ages_1":"1","07_ages_2":"2","07_ages_3":"3","07_ages_4":"4","07_ages_5":"5","07_ages_6":"6","07_ages_7":"7","07_ages_8":"8","07_ages_9":"9","07_ages_10":"10","07_ages_11":"11","07_ages_12":"12","07_ages_13":"13","07_ages_14":"14","07_ages_15":"15","07_ages_16":"16","07_ages_17":"17","07_ages_18":"18","08":"Yes","08_ages_1":"1","08_ages_2":"2","08_ages_3":"3","08_ages_4":"4","08_ages_5":"5","08_ages_6":"6","08_ages_7":"7","08_ages_8":"8","08_ages_9":"9","08_ages_10":"10","08_ages_11":"11","08_ages_12":"12","08_ages_13":"13","08_ages_14":"14","08_ages_15":"15","08_ages_16":"16","08_ages_17":"17","08_ages_18":"18"},"rt":57524,"item_order":[0,1,2,3,4,5,6,7],"radio_events":[4202,6773,7650,9730,12414.000000000116,16649,21268,23382],"checkbox_events":[17950,25261,26145.000000000116,26652,27287,28113,28708,29335,30091,31199,31842.000000000116,32380,32934,33755,34710,35707,36325,37329,38132,39758,40817,42046,42809,43541,44882,45501,46522,47430,48434,49100,49663,50218,51278,52033,52982,53802,54685],"key_events":[],"mouse_events":[4202,5704,6773,7650,9730,12414.000000000116,16649,17950,21268,23382,25261,26145.000000000116,26652,27287,28113,28708,29335,30091,31199,31842.000000000116,32380,32934,33755,34710,35707,36325,37329,38132,39758,40817,42046,42809,43541,44882,45501,46522,47430,48434,49100,49663,50218,51278,52033,52982,53802,54685,56733,57514],"honeypot":0,"survey":"mace","page":10,"trial_type":"survey-mace","trial_index":18,"time_elapsed":644235,"internal_node_id":"0.0-18.0","task_version":"prescreen-v0.3","browser_interactions":0,"instructed":0},{"rt":4362,"trial_type":"mental-health-alert","trial_index":19,"time_elapsed":648604,"internal_node_id":"0.0-19.0","task_version":"prescreen-v0.3","interactions":"[]"}]