[{"view_history":[{"page_index":0,"viewing_time":3429.9000000953674},{"page_index":1,"viewing_time":4478.299999952316},{"page_index":2,"viewing_time":4896.799999952316},{"page_index":3,"viewing_time":3109.5}],"rt":15915.100000143051,"trial_type":"instructions","trial_index":0,"time_elapsed":15919,"internal_node_id":"0.0-0.0","task_version":"prescreen-v0.3"},{"rt":23437.599999904633,"responses":{"age":"19","gender-categorical":"Female","gender-free-response":"","ethnicity":"Not Hispanic or Latino","race":["White"],"education":"Some college"},"trial_type":"survey-demo","trial_index":1,"time_elapsed":39361,"internal_node_id":"0.0-1.0","task_version":"prescreen-v0.3"},{"responses":{"Q17":"2","Q05":"1","Q13":"2","Q03":"2","Q08":"2","Q04":"1","Q11":"2","Q09":"1","Q12":"1","Q20":"1","Q21":"3","Q01":"2","Q16":"1","Q02":"2","Q19":"2","Q14":"2","Q07":"1","Q15":"3","Q18":"2","Q10":"3","Q06":"1"},"rt":127432.20000004768,"item_order":[16,4,12,2,7,3,10,8,11,19,20,0,15,1,18,13,6,14,17,9,5],"radio_events":[7371.799999952316,23713.400000095367,27085.5,29023.5,33483.40000009537,35920.200000047684,38539.40000009537,41061.299999952316,55034.299999952316,61506,66620,72723.79999995232,75273.5,80745,85725.70000004768,97428,101172.29999995232,110811.10000014305,115958.10000014305,118394.10000014305,120776.10000014305,122939.10000014305,126701.60000014305],"key_events":[],"mouse_events":[7371.799999952316,23713.400000095367,27085.5,29023.5,33483.40000009537,35920.200000047684,38539.40000009537,41061.299999952316,55034.299999952316,61506,66620,72723.79999995232,75273.5,80745,85725.70000004768,97428,101172.29999995232,110069.10000014305,110811.10000014305,115958.10000014305,118394.10000014305,120776.10000014305,122939.10000014305,126701.60000014305,127430.79999995232],"straightlining":0.47619047619047616,"zigzagging":0.55,"honeypot":0,"survey":"sns","trial_type":"survey-template","trial_index":2,"time_elapsed":166798,"internal_node_id":"0.0-2.0","task_version":"prescreen-v0.3","browser_interactions":0,"infrequency":0},{"responses":{"Q06":"2","Q09":"1","Q03":"3","Q02":"2","Q11":"1","Q12":"1","Q10":"1","Q07":"3","Q08":"2","Q01":"2","Q04":"1","Q05":"2","Q13":"0"},"rt":76635.60000014305,"item_order":[5,8,2,1,10,11,9,6,7,0,3,4,12],"radio_events":[10184.200000047684,15356.700000047684,21555.300000190735,29831.10000014305,36930.200000047684,39000.90000009537,43879,48694.90000009537,49874.90000009537,56181.300000190735,59582.300000190735,62519.700000047684,74587.20000004768],"key_events":[],"mouse_events":[10184.200000047684,15356.700000047684,21555.300000190735,26750.400000095367,29831.10000014305,36355.200000047684,36930.200000047684,39000.90000009537,43879,48694.90000009537,49874.90000009537,56181.300000190735,59582.300000190735,62519.700000047684,66553.70000004768,74587.20000004768,76634.60000014305],"straightlining":0.38461538461538464,"zigzagging":0.5,"honeypot":0,"survey":"bisbas","trial_type":"survey-template","trial_index":3,"time_elapsed":243437,"internal_node_id":"0.0-3.0","task_version":"prescreen-v0.3","browser_interactions":0,"infrequency":0},{"responses":{"Q01":"3","Q02":"2","Q03":"1"},"rt":37236.59999990463,"radio_events":[9159.399999856949,10747.599999904633,20505.799999952316,35471.89999985695,36582.59999990463],"key_events":[],"mouse_events":[9159.399999856949,10407.299999952316,10747.599999904633,20505.799999952316,35471.89999985695,36582.59999990463,37236],"survey":"map","page":1,"trial_type":"survey-map","trial_index":4,"time_elapsed":280676,"internal_node_id":"0.0-4.0","task_version":"prescreen-v0.3","browser_interactions":0},{"responses":{"Q04":"3","Q05":"2","Q06":"3"},"rt":15745.399999856949,"radio_events":[5191.5,11161.599999904633,14987.200000047684],"key_events":[],"mouse_events":[5191.5,11161.599999904633,14987.200000047684,15744.899999856949],"survey":"map","page":2,"trial_type":"survey-map","trial_index":5,"time_elapsed":296423,"internal_node_id":"0.0-5.0","task_version":"prescreen-v0.3","browser_interactions":0},{"responses":{"Q07":"1","Q08":"0","Q09":"3"},"rt":14393.200000047684,"radio_events":[4940.5,8338.400000095367,12244.600000143051],"key_events":[],"mouse_events":[4940.5,8338.400000095367,12244.600000143051,14392.600000143051],"survey":"map","page":3,"trial_type":"survey-map","trial_index":6,"time_elapsed":310818,"internal_node_id":"0.0-6.0","task_version":"prescreen-v0.3","browser_interactions":0},{"responses":{"Q10":"2","Q11":"3","Q12":"1","Q13":"2","Q16":"0","Q14":"2","Q15":"1"},"rt":63138.5,"radio_events":[7005.799999952316,7825.899999856949,11917.799999952316,14285.299999952316,19751.299999952316,20482.799999952316,32129.599999904633,37973.5,49772.699999809265,50560.09999990463,57569,60501.299999952316,62328.5],"key_events":[],"mouse_events":[7005.799999952316,7825.899999856949,11917.799999952316,14285.299999952316,19751.299999952316,20482.799999952316,32129.599999904633,37973.5,49772.699999809265,50560.09999990463,57569,60501.299999952316,62328.5,63137.59999990463],"survey":"map","page":4,"trial_type":"survey-map","trial_index":7,"time_elapsed":373958,"internal_node_id":"0.0-7.0","task_version":"prescreen-v0.3","browser_interactions":0,"infrequency":0},{"view_history":[{"page_index":0,"viewing_time":2966.4000000953674},{"page_index":1,"viewing_time":67687.69999980927}],"rt":70654.79999995232,"trial_type":"instructions","trial_index":8,"time_elapsed":444614,"internal_node_id":"0.0-8.0","task_version":"prescreen-v0.3"},{"responses":{"01":"No","02":"No","03":"No","04":"No","05":"No","06":"No"},"rt":34492,"item_order":[0,1,2,3,4,5],"radio_events":[10268.599999904633,15677.899999856949,23243.5,27254,29591.39999985695,31897.89999985695,33948.59999990463],"checkbox_events":[],"key_events":[],"mouse_events":[0,10268.599999904633,11239,15677.899999856949,23243.5,27254,29591.39999985695,31897.89999985695,33948.59999990463,34490.09999990463],"honeypot":0,"survey":"mace","page":1,"trial_type":"survey-mace","trial_index":9,"time_elapsed":479112,"internal_node_id":"0.0-9.0","task_version":"prescreen-v0.3","browser_interactions":0},{"responses":{"01":"No","02":"No","03":"No","04":"No","05":"No","06":"No","07":"No","08":"No"},"rt":20480.5,"item_order":[0,1,2,3,4,5,6,7],"radio_events":[3997.2999999523163,6602.599999904633,8903.199999809265,11196.899999856949,14746.299999952316,16834.89999985695,18415.099999904633,19653.39999985695],"checkbox_events":[],"key_events":[],"mouse_events":[3997.2999999523163,6602.599999904633,8903.199999809265,11196.899999856949,14746.299999952316,16834.89999985695,18415.099999904633,19653.39999985695,20477.799999952316],"honeypot":0,"survey":"mace","page":2,"trial_type":"survey-mace","trial_index":10,"time_elapsed":499596,"internal_node_id":"0.0-10.0","task_version":"prescreen-v0.3","browser_interactions":0},{"responses":{"01":"No","02":"No","03":"No","04":"No"},"rt":10640.299999952316,"item_order":[0,1,2,3],"radio_events":[3827.4000000953674,6881.799999952316,8620.700000047684,9836.799999952316],"checkbox_events":[],"key_events":[],"mouse_events":[3827.4000000953674,6881.799999952316,8620.700000047684,9836.799999952316,10639.200000047684],"honeypot":0,"survey":"mace","page":3,"trial_type":"survey-mace","trial_index":11,"time_elapsed":510239,"internal_node_id":"0.0-11.0","task_version":"prescreen-v0.3","browser_interactions":0},{"responses":{"01":"No","02":"No"},"rt":9048.300000190735,"item_order":[0,1],"radio_events":[3354.2000000476837,7195.100000143051],"checkbox_events":[],"key_events":[],"mouse_events":[3354.2000000476837,7195.100000143051,9047.400000095367],"honeypot":0,"survey":"mace","page":4,"trial_type":"survey-mace","trial_index":12,"time_elapsed":519289,"internal_node_id":"0.0-12.0","task_version":"prescreen-v0.3","browser_interactions":0},{"responses":{"01":"No","02":"No","03":"No","04":"No","05":"No"},"rt":25913.200000047684,"item_order":[0,1,2,3,4],"radio_events":[11575.399999856949,13868.5,15295.099999904633,16663.299999952316,24498.099999904633],"checkbox_events":[],"key_events":[],"mouse_events":[11575.399999856949,13868.5,15295.099999904633,16663.299999952316,24498.099999904633,25911.599999904633],"honeypot":0,"survey":"mace","page":5,"trial_type":"survey-mace","trial_index":13,"time_elapsed":545205,"internal_node_id":"0.0-13.0","task_version":"prescreen-v0.3","browser_interactions":0},{"responses":{"01":"Yes","01_ages_10":"10","01_ages_12":"12","01_ages_14":"14","01_ages_15":"15","02":"Yes","02_ages_10":"10","02_ages_12":"12","02_ages_13":"13","02_ages_14":"14","02_ages_15":"15","03":"Yes","03_ages_12":"12","03_ages_13":"13","04":"No","05":"No"},"rt":80464.20000004768,"item_order":[0,1,2,3,4],"radio_events":[7227.299999952316,33044,59465.200000047684,77731,79983.5],"checkbox_events":[16190.799999952316,21478.400000095367,24651.400000095367,25169.5,26166.10000014305,27457,41115.40000009537,41989.40000009537,44242.90000009537,49358.299999952316,53084.200000047684,54030.90000009537,55184.799999952316,73787,74499.40000009537],"key_events":[],"mouse_events":[7227.299999952316,16190.799999952316,21478.400000095367,24651.400000095367,25169.5,26166.10000014305,27457,33044,41115.40000009537,41989.40000009537,44242.90000009537,49358.299999952316,53084.200000047684,54030.90000009537,55184.799999952316,59136.10000014305,59465.200000047684,73143.20000004768,73787,74499.40000009537,77731,79983.5,80462.70000004768],"honeypot":0,"survey":"mace","page":6,"trial_type":"survey-mace","trial_index":14,"time_elapsed":625673,"internal_node_id":"0.0-14.0","task_version":"prescreen-v0.3","browser_interactions":0},{"responses":{"01":"No","02":"No","03":"No","04":"No","05":"No","06":"No","07":"No"},"rt":18582.39999985695,"item_order":[0,1,2,3,4,5,6],"radio_events":[4374.699999809265,6192.399999856949,8264.799999952316,10179.5,13383.799999952316,15774.299999952316,18130.699999809265],"checkbox_events":[],"key_events":[],"mouse_events":[4374.699999809265,6192.399999856949,8264.799999952316,10179.5,13383.799999952316,15774.299999952316,18130.699999809265,18580.299999952316],"honeypot":0,"survey":"mace","page":7,"trial_type":"survey-mace","trial_index":15,"time_elapsed":644260,"internal_node_id":"0.0-15.0","task_version":"prescreen-v0.3","browser_interactions":0},{"responses":{"01":"No","02":"Yes","02_ages_14":"14","02_ages_15":"15","02_ages_16":"16","02_ages_17":"17","03":"No","04":"Yes","04_ages_14":"14","04_ages_15":"15","04_ages_16":"16","04_ages_17":"17","04_ages_18":"18"},"rt":50983.89999985695,"item_order":[0,1,2,3],"radio_events":[10887.599999904633,14020.699999809265,40697.5,43705.59999990463],"checkbox_events":[30606.39999985695,31215.39999985695,32154.599999904633,35903.299999952316,45750.299999952316,46180.299999952316,46571.89999985695,46933.199999809265,49881.59999990463],"key_events":[],"mouse_events":[10887.599999904633,14020.699999809265,30606.39999985695,31215.39999985695,32154.599999904633,35903.299999952316,40697.5,43705.59999990463,45750.299999952316,46180.299999952316,46571.89999985695,46933.199999809265,49161.799999952316,49881.59999990463,50982.59999990463],"honeypot":0,"survey":"mace","page":8,"trial_type":"survey-mace","trial_index":16,"time_elapsed":695246,"internal_node_id":"0.0-16.0","task_version":"prescreen-v0.3","browser_interactions":0},{"responses":{"01":"Yes","01_ages_1":"1","01_ages_2":"2","01_ages_3":"3","01_ages_4":"4","01_ages_5":"5","01_ages_6":"6","01_ages_7":"7","01_ages_8":"8","01_ages_9":"9","01_ages_10":"10","02":"Yes","02_ages_17":"17","02_ages_18":"18","03":"Yes","03_ages_1":"1","03_ages_2":"2","03_ages_3":"3","03_ages_4":"4","03_ages_5":"5","03_ages_6":"6","03_ages_7":"7","03_ages_8":"8","03_ages_9":"9","03_ages_10":"10","03_ages_11":"11","03_ages_12":"12","03_ages_13":"13","03_ages_14":"14","03_ages_15":"15","03_ages_16":"16","03_ages_17":"17","03_ages_18":"18","04":"Yes","04_ages_1":"1","04_ages_2":"2","04_ages_3":"3","04_ages_4":"4","04_ages_5":"5","04_ages_6":"6","04_ages_7":"7","04_ages_8":"8","04_ages_9":"9","04_ages_10":"10","04_ages_11":"11","04_ages_12":"12","04_ages_13":"13","04_ages_14":"14","04_ages_15":"15","04_ages_16":"16","04_ages_17":"17","04_ages_18":"18"},"rt":65208.40000009537,"item_order":[0,1,2,3],"radio_events":[5282,35878.799999952316,41728.5,56533.90000009537],"checkbox_events":[18817.599999904633,19555.799999952316,20093.099999904633,21049.700000047684,21590.099999904633,22040.099999904633,23232.700000047684,23654.5,28233.400000095367,28959,36928,38485.799999952316,42751.799999952316,43125.200000047684,44541,45192.200000047684,45586.09999990463,46005.59999990463,46360.40000009537,46759.59999990463,47137.200000047684,47538,47880.299999952316,48281.200000047684,48641.40000009537,49015.799999952316,49399.200000047684,50703.799999952316,51272,51641.59999990463,58201.700000047684,58569.799999952316,58995.40000009537,59375.299999952316,59734.799999952316,60133.299999952316,60547.59999990463,60922.5,61295.700000047684,61658.299999952316,62036.5,62422.90000009537,62809.40000009537,63218.799999952316,63626.90000009537,63983.700000047684,64364.799999952316,64726.5],"key_events":[],"mouse_events":[5282,12259,18817.599999904633,19555.799999952316,20093.099999904633,21049.700000047684,21590.099999904633,22040.099999904633,23232.700000047684,23654.5,28233.400000095367,28959,35878.799999952316,36928,38485.799999952316,41728.5,42751.799999952316,43125.200000047684,43525.5,44541,44867,45192.200000047684,45586.09999990463,46005.59999990463,46360.40000009537,46759.59999990463,47137.200000047684,47538,47880.299999952316,48281.200000047684,48641.40000009537,49015.799999952316,49399.200000047684,49784.09999990463,50703.799999952316,51272,51641.59999990463,56533.90000009537,58201.700000047684,58569.799999952316,58995.40000009537,59375.299999952316,59734.799999952316,60133.299999952316,60547.59999990463,60922.5,61295.700000047684,61658.299999952316,62036.5,62422.90000009537,62809.40000009537,63218.799999952316,63626.90000009537,63983.700000047684,64364.799999952316,64726.5,65207.200000047684],"honeypot":0,"survey":"mace","page":9,"trial_type":"survey-mace","trial_index":17,"time_elapsed":760457,"internal_node_id":"0.0-17.0","task_version":"prescreen-v0.3","browser_interactions":0},{"responses":{"01":"No","02":"No","03":"No","04":"Yes","04_ages_14":"14","04_ages_15":"15","04_ages_16":"16","04_ages_17":"17","04_ages_18":"18","05":"Yes","05_ages_13":"13","05_ages_14":"14","05_ages_15":"15","05_ages_16":"16","05_ages_17":"17","05_ages_18":"18","06":"Yes","06_ages_17":"17","07":"Yes","07_ages_10":"10","07_ages_11":"11","07_ages_12":"12","07_ages_13":"13","07_ages_18":"18","08":"No"},"rt":51764.10000014305,"item_order":[0,1,2,3,4,5,6,7],"radio_events":[3701.7000000476837,5206.700000047684,7326.800000190735,10133,11710.600000143051,21907.10000014305,30657.200000047684,36538.5,51091.60000014305],"checkbox_events":[15073.600000143051,15444.900000095367,16533.400000095367,16996.900000095367,17950.60000014305,22773.5,23114.400000095367,23435.5,23810.200000047684,24521.700000047684,25047.5,26150.800000190735,27039.400000095367,32723.300000190735,38610.5,38979.90000009537,39395.40000009537,40463.60000014305,40828.40000009537,41956.40000009537,45874.800000190735,46400.90000009537,46718.90000009537,47089.60000014305,48150],"key_events":[],"mouse_events":[3701.7000000476837,5206.700000047684,7326.800000190735,10133,11710.600000143051,15073.600000143051,15444.900000095367,15853.900000095367,16533.400000095367,16996.900000095367,17950.60000014305,21907.10000014305,22773.5,23114.400000095367,23435.5,23810.200000047684,24521.700000047684,25047.5,26150.800000190735,27039.400000095367,30657.200000047684,32723.300000190735,36538.5,38610.5,38979.90000009537,39395.40000009537,39760.90000009537,40463.60000014305,40828.40000009537,41956.40000009537,45874.800000190735,46400.90000009537,46718.90000009537,47089.60000014305,48150,51091.60000014305,51761.90000009537],"honeypot":0,"survey":"mace","page":10,"trial_type":"survey-mace","trial_index":18,"time_elapsed":812226,"internal_node_id":"0.0-18.0","task_version":"prescreen-v0.3","browser_interactions":2,"instructed":0},{"rt":6786.700000047684,"trial_type":"mental-health-alert","trial_index":19,"time_elapsed":819014,"internal_node_id":"0.0-19.0","task_version":"prescreen-v0.3","interactions":"[{\"event\":\"blur\",\"trial\":18,\"time\":804658},{\"event\":\"focus\",\"trial\":18,\"time\":804945}]"}]