[{"view_history":[{"page_index":0,"viewing_time":4378.199999988079},{"page_index":1,"viewing_time":4414},{"page_index":2,"viewing_time":4612},{"page_index":3,"viewing_time":1543.699999988079}],"rt":14948.599999964237,"trial_type":"instructions","trial_index":0,"time_elapsed":14961,"internal_node_id":"0.0-0.0","task_version":"prescreen-v0.3"},{"rt":18061.19999998808,"responses":{"age":"41","gender-categorical":"Female","gender-free-response":"","ethnicity":"Not Hispanic or Latino","race":["White"],"education":"Some college"},"trial_type":"survey-demo","trial_index":1,"time_elapsed":33025,"internal_node_id":"0.0-1.0","task_version":"prescreen-v0.3"},{"responses":{"Q17":"2","Q16":"3","Q03":"2","Q02":"2","Q04":"3","Q07":"1","Q11":"1","Q01":"2","Q18":"1","Q12":"1","Q10":"1","Q20":"1","Q15":"2","Q21":"3","Q14":"2","Q06":"2","Q08":"2","Q19":"1","Q05":"0","Q13":"1","Q09":"2"},"rt":137834.19999998808,"item_order":[16,15,2,1,3,6,10,0,17,11,9,19,14,20,13,5,7,18,4,12,8],"radio_events":[6365,10513,18497.099999964237,22415.099999964237,74751.09999996424,81553.09999996424,83641.69999998808,87007.30000001192,90453.09999996424,93836.89999997616,95374.80000001192,97687.19999998808,99479.39999997616,106534.69999998808,111068.59999996424,113327.19999998808,123601.69999998808,124527,128482.89999997616,133011.19999998808,136590.89999997616],"key_events":[],"mouse_events":[6365,10513,17502.899999976158,18497.099999964237,22415.099999964237,74751.09999996424,81553.09999996424,83641.69999998808,87007.30000001192,90453.09999996424,93836.89999997616,95374.80000001192,97687.19999998808,99479.39999997616,106534.69999998808,111068.59999996424,113327.19999998808,115641.5,123601.69999998808,124527,128482.89999997616,132104.89999997616,133011.19999998808,136590.89999997616,137832.89999997616],"straightlining":0.42857142857142855,"zigzagging":0.6,"honeypot":0,"survey":"sns","trial_type":"survey-template","trial_index":2,"time_elapsed":170862,"internal_node_id":"0.0-2.0","task_version":"prescreen-v0.3","browser_interactions":2,"infrequency":0},{"responses":{"Q11":"2","Q05":"2","Q01":"2","Q09":"1","Q08":"2","Q04":"2","Q13":"0","Q02":"2","Q12":"1","Q10":"1","Q07":"2","Q06":"2","Q03":"2"},"rt":236847.40000003576,"item_order":[10,4,0,8,7,3,12,1,11,9,6,5,2],"radio_events":[5712.900000035763,8444.400000035763,10271,18616.200000047684,20804.100000023842,25571.100000023842,30185.100000023842,223391.20000004768,225893,229866.80000001192,230748.40000003576,233360.5,236078.40000003576],"key_events":[],"mouse_events":[5712.900000035763,8444.400000035763,10271,18616.200000047684,20804.100000023842,25571.100000023842,30185.100000023842,223391.20000004768,225893,229866.80000001192,230748.40000003576,233360.5,236078.40000003576,236846.60000002384],"straightlining":0.6923076923076923,"zigzagging":0.3333333333333333,"honeypot":0,"survey":"bisbas","trial_type":"survey-template","trial_index":3,"time_elapsed":407711,"internal_node_id":"0.0-3.0","task_version":"prescreen-v0.3","browser_interactions":0,"infrequency":0},{"responses":{"Q01":"2","Q02":"2","Q03":"2"},"rt":19255.80000001192,"radio_events":[6323.800000011921,13573.300000011921,18097.5],"key_events":[],"mouse_events":[6323.800000011921,10457.900000035763,13573.300000011921,18097.5,19255.400000035763],"survey":"map","page":1,"trial_type":"survey-map","trial_index":4,"time_elapsed":426969,"internal_node_id":"0.0-4.0","task_version":"prescreen-v0.3","browser_interactions":0},{"responses":{"Q04":"4","Q05":"4","Q06":"4"},"rt":12254.800000011921,"radio_events":[4112,7758.100000023842,10876],"key_events":[],"mouse_events":[4112,7758.100000023842,10876,12254.400000035763],"survey":"map","page":2,"trial_type":"survey-map","trial_index":5,"time_elapsed":439225,"internal_node_id":"0.0-5.0","task_version":"prescreen-v0.3","browser_interactions":0},{"responses":{"Q07":"2","Q08":"4","Q09":"2"},"rt":15540.899999976158,"radio_events":[7171.800000011921,10464,14222],"key_events":[],"mouse_events":[7171.800000011921,10464,14222,15540.5],"survey":"map","page":3,"trial_type":"survey-map","trial_index":6,"time_elapsed":454767,"internal_node_id":"0.0-6.0","task_version":"prescreen-v0.3","browser_interactions":0},{"responses":{"Q10":"0","Q11":"0","Q12":"0","Q13":"0","Q16":"0","Q14":"4","Q15":"4"},"rt":31366.69999998808,"radio_events":[3975.899999976158,6082.199999988079,9606.099999964237,16929.80000001192,24133.80000001192,27485.69999998808,30102],"key_events":[],"mouse_events":[3975.899999976158,6082.199999988079,9606.099999964237,16929.80000001192,22565.69999998808,24133.80000001192,26915.80000001192,27485.69999998808,30102,31366],"survey":"map","page":4,"trial_type":"survey-map","trial_index":7,"time_elapsed":486136,"internal_node_id":"0.0-7.0","task_version":"prescreen-v0.3","browser_interactions":0,"infrequency":0},{"view_history":[{"page_index":0,"viewing_time":2302},{"page_index":1,"viewing_time":3098.5}],"rt":5401,"trial_type":"instructions","trial_index":8,"time_elapsed":491538,"internal_node_id":"0.0-8.0","task_version":"prescreen-v0.3"},{"responses":{"01":"Yes","01_ages_5":"5","01_ages_6":"6","01_ages_7":"7","01_ages_8":"8","01_ages_9":"9","01_ages_10":"10","01_ages_11":"11","01_ages_12":"12","01_ages_13":"13","01_ages_14":"14","01_ages_15":"15","01_ages_16":"16","02":"Yes","02_ages_5":"5","02_ages_6":"6","02_ages_7":"7","02_ages_8":"8","02_ages_9":"9","02_ages_10":"10","02_ages_11":"11","02_ages_12":"12","02_ages_13":"13","02_ages_14":"14","02_ages_15":"15","02_ages_16":"16","03":"Yes","03_ages_5":"5","03_ages_6":"6","03_ages_7":"7","03_ages_12":"12","03_ages_13":"13","03_ages_14":"14","03_ages_15":"15","03_ages_16":"16","04":"No","05":"No","06":"No"},"rt":54361.5,"item_order":[0,1,2,3,4,5],"radio_events":[9025.699999988079,23037.399999976158,35721.89999997616,45771.60000002384,48320.69999998808,51239.60000002384],"checkbox_events":[14403.699999988079,14887.800000011921,15323.600000023842,15785.699999988079,16223.5,16623.80000001192,17053.80000001192,17473.5,17941.80000001192,18618.69999998808,19023.399999976158,19397.399999976158,26349.69999998808,26769.399999976158,27221.69999998808,27953.600000023842,28419.5,28871.899999976158,29249.80000001192,31773.899999976158,32247.399999976158,32707.600000023842,33169.60000002384,33602.69999998808,37501.89999997616,37907.69999998808,38431.60000002384,41250,41650.5,42075.69999998808,42681.60000002384,43048.10000002384],"key_events":[],"mouse_events":[0,9025.699999988079,14403.699999988079,14887.800000011921,15323.600000023842,15785.699999988079,16223.5,16623.80000001192,17053.80000001192,17473.5,17941.80000001192,18618.69999998808,19023.399999976158,19397.399999976158,23037.399999976158,26349.69999998808,26769.399999976158,27221.69999998808,27953.600000023842,28419.5,28871.899999976158,29249.80000001192,31773.899999976158,32247.399999976158,32707.600000023842,33169.60000002384,33602.69999998808,35721.89999997616,37501.89999997616,37907.69999998808,38431.60000002384,41250,41650.5,42075.69999998808,42681.60000002384,43048.10000002384,45771.60000002384,48320.69999998808,51239.60000002384,54359.89999997616],"honeypot":0,"survey":"mace","page":1,"trial_type":"survey-mace","trial_index":9,"time_elapsed":545904,"internal_node_id":"0.0-9.0","task_version":"prescreen-v0.3","browser_interactions":0},{"responses":{"01":"No","02":"No","03":"Yes","03_ages_5":"5","03_ages_6":"6","03_ages_7":"7","03_ages_8":"8","03_ages_11":"11","03_ages_12":"12","03_ages_13":"13","04":"No","05":"No","06":"Yes","06_ages_12":"12","06_ages_13":"13","06_ages_14":"14","06_ages_15":"15","06_ages_16":"16","07":"Yes","07_ages_14":"14","07_ages_15":"15","08":"No"},"rt":47185.69999998808,"item_order":[0,1,2,3,4,5,6,7],"radio_events":[6639.5,9910.099999964237,14811.599999964237,17061.80000001192,27018,30025.30000001192,32976,40955.19999998808,45868.09999996424],"checkbox_events":[19474.19999998808,20141.5,20755.5,21165.69999998808,22181.899999976158,22557.399999976158,23907.69999998808,37320,37725.89999997616,38099.19999998808,38524,39161.5,42465.09999996424,42969.09999996424],"key_events":[],"mouse_events":[6639.5,9910.099999964237,14811.599999964237,17061.80000001192,19161.399999976158,19474.19999998808,20141.5,20755.5,21165.69999998808,22181.899999976158,22557.399999976158,23907.69999998808,27018,30025.30000001192,32976,37320,37725.89999997616,38099.19999998808,38524,39161.5,40955.19999998808,42465.09999996424,42969.09999996424,45868.09999996424,47183.69999998808],"honeypot":0,"survey":"mace","page":2,"trial_type":"survey-mace","trial_index":10,"time_elapsed":593092,"internal_node_id":"0.0-10.0","task_version":"prescreen-v0.3","browser_interactions":0},{"responses":{"01":"No","02":"No","03":"No","04":"No"},"rt":14106.600000023842,"item_order":[0,1,2,3],"radio_events":[10753.300000011921,11472.400000035763,12099.300000011921,13155.5],"checkbox_events":[],"key_events":[],"mouse_events":[10753.300000011921,11472.400000035763,12099.300000011921,13155.5,14105.600000023842],"honeypot":0,"survey":"mace","page":3,"trial_type":"survey-mace","trial_index":11,"time_elapsed":607200,"internal_node_id":"0.0-11.0","task_version":"prescreen-v0.3","browser_interactions":0},{"responses":{"01":"No","02":"No"},"rt":12857.899999976158,"item_order":[0,1],"radio_events":[8961.399999976158,10039.5],"checkbox_events":[],"key_events":[],"mouse_events":[8961.399999976158,10039.5,12857.299999952316],"honeypot":0,"survey":"mace","page":4,"trial_type":"survey-mace","trial_index":12,"time_elapsed":620060,"internal_node_id":"0.0-12.0","task_version":"prescreen-v0.3","browser_interactions":0},{"responses":{"01":"Yes","01_ages_5":"5","01_ages_6":"6","01_ages_7":"7","01_ages_8":"8","01_ages_9":"9","01_ages_11":"11","01_ages_12":"12","01_ages_13":"13","01_ages_14":"14","02":"No","03":"No","04":"No","05":"No"},"rt":56574.80000001192,"item_order":[0,1,2,3,4],"radio_events":[23221.69999998808,45614,50289.80000001192,53711.69999998808,55515.5],"checkbox_events":[25621.600000023842,25996,26389.400000035763,26980.400000035763,29329.69999998808,29741.600000023842,30603.600000023842,31279.5,32403.900000035763,32893.40000003576,34420.10000002384],"key_events":[],"mouse_events":[23221.69999998808,25621.600000023842,25996,26389.400000035763,26980.400000035763,29329.69999998808,29741.600000023842,30185.600000023842,30603.600000023842,31279.5,32403.900000035763,32893.40000003576,34420.10000002384,44947.90000003576,45614,50289.80000001192,53711.69999998808,55515.5,56573.30000001192],"honeypot":0,"survey":"mace","page":5,"trial_type":"survey-mace","trial_index":13,"time_elapsed":676636,"internal_node_id":"0.0-13.0","task_version":"prescreen-v0.3","browser_interactions":0},{"responses":{"01":"Yes","01_ages_8":"8","01_ages_9":"9","01_ages_10":"10","01_ages_11":"11","01_ages_12":"12","02":"Yes","02_ages_8":"8","02_ages_9":"9","02_ages_10":"10","02_ages_11":"11","02_ages_12":"12","03":"Yes","03_ages_8":"8","03_ages_9":"9","03_ages_10":"10","03_ages_11":"11","03_ages_12":"12","04":"Yes","04_ages_8":"8","04_ages_9":"9","04_ages_10":"10","04_ages_11":"11","04_ages_12":"12","05":"Yes","05_ages_8":"8","05_ages_9":"9","05_ages_10":"10","05_ages_11":"11","05_ages_12":"12"},"rt":41872.5,"item_order":[0,1,2,3,4],"radio_events":[9399.200000047684,20038.900000035763,26916.80000001192,32567.200000047684,36755.60000002384],"checkbox_events":[13783.100000023842,14506.900000035763,15609,16549.600000023842,17287,21001.600000023842,21410.400000035763,21822.900000035763,22384.900000035763,23004.900000035763,27801,28239,28677.600000023842,29105.30000001192,29703.30000001192,33424.700000047684,33843.10000002384,34241,34662.90000003576,35089.10000002384,37580.5,38260.700000047684,38681,39100.40000003576,39517.5],"key_events":[],"mouse_events":[9399.200000047684,13783.100000023842,14506.900000035763,15609,16015.800000011921,16549.600000023842,17287,20038.900000035763,21001.600000023842,21410.400000035763,21822.900000035763,22384.900000035763,23004.900000035763,26916.80000001192,27801,28239,28677.600000023842,29105.30000001192,29703.30000001192,32567.200000047684,33424.700000047684,33843.10000002384,34241,34662.90000003576,35089.10000002384,36755.60000002384,37580.5,38260.700000047684,38681,39100.40000003576,39517.5,41871.10000002384],"honeypot":0,"survey":"mace","page":6,"trial_type":"survey-mace","trial_index":14,"time_elapsed":718511,"internal_node_id":"0.0-14.0","task_version":"prescreen-v0.3","browser_interactions":0},{"responses":{"01":"No","02":"Yes","02_ages_10":"10","02_ages_11":"11","02_ages_12":"12","03":"No","04":"No","05":"No","06":"No","07":"No"},"rt":23602,"item_order":[0,1,2,3,4,5,6],"radio_events":[4855.899999976158,8832.300000011921,16723.80000001192,17908,19768.5,21997.899999976158,22672],"checkbox_events":[11734.199999988079,12120.300000011921,12521.800000011921,12937.800000011921,13890.100000023842],"key_events":[],"mouse_events":[4855.899999976158,8832.300000011921,11734.199999988079,12120.300000011921,12521.800000011921,12937.800000011921,13890.100000023842,16723.80000001192,17908,19768.5,21997.899999976158,22672,23600.100000023842],"honeypot":0,"survey":"mace","page":7,"trial_type":"survey-mace","trial_index":15,"time_elapsed":742116,"internal_node_id":"0.0-15.0","task_version":"prescreen-v0.3","browser_interactions":0},{"responses":{"01":"No","02":"No","03":"No","04":"No"},"rt":21007,"item_order":[0,1,2,3],"radio_events":[10739.800000011921,11349.5,18783.399999976158,20110.19999998808],"checkbox_events":[],"key_events":[],"mouse_events":[10739.800000011921,11349.5,18783.399999976158,19351.899999976158,20110.19999998808,21005.899999976158],"honeypot":0,"survey":"mace","page":8,"trial_type":"survey-mace","trial_index":16,"time_elapsed":763124,"internal_node_id":"0.0-16.0","task_version":"prescreen-v0.3","browser_interactions":0},{"responses":{"01":"Yes","01_ages_1":"1","01_ages_2":"2","01_ages_3":"3","01_ages_4":"4","01_ages_5":"5","01_ages_6":"6","01_ages_7":"7","01_ages_8":"8","01_ages_9":"9","01_ages_10":"10","01_ages_11":"11","01_ages_12":"12","01_ages_13":"13","01_ages_14":"14","01_ages_15":"15","01_ages_16":"16","01_ages_17":"17","01_ages_18":"18","02":"Yes","02_ages_1":"1","02_ages_2":"2","02_ages_3":"3","02_ages_4":"4","02_ages_5":"5","02_ages_6":"6","02_ages_7":"7","02_ages_8":"8","02_ages_9":"9","02_ages_10":"10","02_ages_11":"11","02_ages_12":"12","02_ages_13":"13","02_ages_14":"14","02_ages_15":"15","02_ages_16":"16","02_ages_17":"17","02_ages_18":"18","03":"Yes","03_ages_1":"1","03_ages_2":"2","03_ages_3":"3","03_ages_4":"4","03_ages_5":"5","03_ages_6":"6","03_ages_7":"7","03_ages_8":"8","03_ages_9":"9","03_ages_10":"10","03_ages_11":"11","03_ages_12":"12","03_ages_13":"13","03_ages_14":"14","03_ages_15":"15","03_ages_16":"16","03_ages_17":"17","03_ages_18":"18","04":"Yes","04_ages_1":"1","04_ages_2":"2","04_ages_3":"3","04_ages_4":"4","04_ages_5":"5","04_ages_6":"6","04_ages_7":"7","04_ages_8":"8","04_ages_9":"9","04_ages_10":"10","04_ages_11":"11","04_ages_12":"12","04_ages_13":"13","04_ages_14":"14","04_ages_15":"15","04_ages_16":"16","04_ages_17":"17","04_ages_18":"18"},"rt":69300.10000002384,"item_order":[0,1,2,3],"radio_events":[3572.800000011921,22581.5,37267,57577],"checkbox_events":[9673.5,10498.400000035763,10889.300000011921,11267,13848.600000023842,14210.5,14605,15031.699999988079,15434.600000023842,16486.600000023842,16927,17443,18044.5,18452.900000035763,19130.100000023842,19577.19999998808,19986.900000035763,20634.69999998808,25493.100000023842,26257.100000023842,26790.600000023842,27238.900000035763,28051.19999998808,28884.69999998808,29496.5,29928.900000035763,30468.69999998808,30912.5,31624.69999998808,32071.100000023842,32622.600000023842,33122.5,33999.10000002384,34584.90000003576,35527.5,36109.40000003576,40535.19999998808,41376.80000001192,42096.5,42608.80000001192,43074.80000001192,43850.80000001192,44277.60000002384,44769.30000001192,45238.69999998808,45737.60000002384,46395.30000001192,47009,47579.10000002384,48338.69999998808,48864.90000003576,49702.80000001192,50602.69999998808,51168.90000003576,59036.90000003576,59434.80000001192,59924.80000001192,60358.80000001192,60894.80000001192,61400.90000003576,61859.10000002384,62360.60000002384,62823.10000002384,63517.60000002384,64640.60000002384,65124.80000001192,65650.69999998808,66496.30000001192,66936.90000003576,67551.40000003576,68029.90000003576,68664.60000002384],"key_events":[],"mouse_events":[3572.800000011921,9673.5,10058.600000023842,10498.400000035763,10889.300000011921,11267,11664.699999988079,13848.600000023842,14210.5,14605,15031.699999988079,15434.600000023842,15880.5,16486.600000023842,16927,17443,18044.5,18452.900000035763,19130.100000023842,19577.19999998808,19986.900000035763,20634.69999998808,22581.5,25493.100000023842,26257.100000023842,26790.600000023842,27238.900000035763,27667,28051.19999998808,28476.600000023842,28884.69999998808,29496.5,29928.900000035763,30468.69999998808,30912.5,31624.69999998808,32071.100000023842,32622.600000023842,33122.5,33999.10000002384,34584.90000003576,35527.5,36109.40000003576,37267,40535.19999998808,41376.80000001192,42096.5,42608.80000001192,43074.80000001192,43850.80000001192,44277.60000002384,44769.30000001192,45238.69999998808,45737.60000002384,46395.30000001192,47009,47579.10000002384,48338.69999998808,48864.90000003576,49702.80000001192,50602.69999998808,51168.90000003576,57577,59036.90000003576,59434.80000001192,59924.80000001192,60358.80000001192,60894.80000001192,61400.90000003576,61859.10000002384,62360.60000002384,62823.10000002384,63517.60000002384,64116.60000002384,64640.60000002384,65124.80000001192,65650.69999998808,66496.30000001192,66936.90000003576,67551.40000003576,68029.90000003576,68664.60000002384,69299],"honeypot":0,"survey":"mace","page":9,"trial_type":"survey-mace","trial_index":17,"time_elapsed":832426,"internal_node_id":"0.0-17.0","task_version":"prescreen-v0.3","browser_interactions":0},{"responses":{"01":"No","02":"No","03":"Yes","03_ages_11":"11","03_ages_12":"12","03_ages_13":"13","03_ages_14":"14","03_ages_15":"15","03_ages_16":"16","04":"Yes","04_ages_5":"5","04_ages_6":"6","04_ages_7":"7","04_ages_8":"8","04_ages_9":"9","04_ages_10":"10","04_ages_11":"11","04_ages_12":"12","04_ages_13":"13","04_ages_14":"14","04_ages_15":"15","04_ages_16":"16","05":"No","06":"Yes","06_ages_17":"17","07":"Yes","07_ages_1":"1","07_ages_2":"2","07_ages_3":"3","07_ages_4":"4","07_ages_5":"5","07_ages_6":"6","07_ages_7":"7","07_ages_8":"8","07_ages_9":"9","07_ages_10":"10","07_ages_11":"11","07_ages_12":"12","07_ages_13":"13","07_ages_14":"14","07_ages_15":"15","07_ages_16":"16","07_ages_17":"17","07_ages_18":"18","08":"Yes","08_ages_1":"1","08_ages_2":"2","08_ages_3":"3","08_ages_4":"4","08_ages_5":"5","08_ages_6":"6","08_ages_7":"7","08_ages_8":"8","08_ages_9":"9","08_ages_10":"10","08_ages_11":"11","08_ages_12":"12","08_ages_13":"13","08_ages_14":"14","08_ages_15":"15","08_ages_16":"16","08_ages_17":"17","08_ages_18":"18"},"rt":61642.5,"item_order":[0,1,2,3,4,5,6,7],"radio_events":[5342.300000011921,6182.600000023842,6992.100000023842,15910.300000011921,28010.900000035763,30212.30000001192,34090.69999998808,48204.40000003576],"checkbox_events":[8994.699999988079,9578.699999988079,9996.699999988079,10414.400000035763,10800.5,12004.100000023842,16618.600000023842,17312.400000035763,18538.80000001192,18986.19999998808,19350.100000023842,19702.5,20102.30000001192,20980.80000001192,21442.400000035763,21808.19999998808,22256.600000023842,22684.30000001192,23070.600000023842,23520.600000023842,31264.80000001192,37720.60000002384,38750.30000001192,39117.10000002384,39478.40000003576,39874,40236.30000001192,40606.40000003576,40992.60000002384,41410.19999998808,41816.60000002384,42200.69999998808,43394.40000003576,43760.69999998808,44422.30000001192,45288.19999998808,45710.40000003576,46200.10000002384,46806.5,49106,49582.19999998808,50030.60000002384,51044,51538.40000003576,52348.19999998808,52766.90000003576,53804.30000001192,54732.80000001192,55244.69999998808,55884.19999998808,56482.5,57366,57992.19999998808,58448.69999998808,58997.19999998808,59490,59930.30000001192],"key_events":[],"mouse_events":[5342.300000011921,6182.600000023842,6992.100000023842,8994.699999988079,9578.699999988079,9996.699999988079,10414.400000035763,10800.5,12004.100000023842,15910.300000011921,16618.600000023842,17312.400000035763,18538.80000001192,18986.19999998808,19350.100000023842,19702.5,20102.30000001192,20554.600000023842,20980.80000001192,21442.400000035763,21808.19999998808,22256.600000023842,22684.30000001192,23070.600000023842,23520.600000023842,28010.900000035763,30212.30000001192,31264.80000001192,34090.69999998808,37720.60000002384,38750.30000001192,39117.10000002384,39478.40000003576,39874,40236.30000001192,40606.40000003576,40992.60000002384,41410.19999998808,41816.60000002384,42200.69999998808,42747.5,43394.40000003576,43760.69999998808,44422.30000001192,44834.40000003576,45288.19999998808,45710.40000003576,46200.10000002384,46806.5,48204.40000003576,49106,49582.19999998808,50030.60000002384,50446.5,51044,51538.40000003576,52348.19999998808,52766.90000003576,53272.60000002384,53804.30000001192,54264.19999998808,54732.80000001192,55244.69999998808,55884.19999998808,56482.5,57366,57992.19999998808,58448.69999998808,58997.19999998808,59490,59930.30000001192,61640.40000003576],"honeypot":0,"survey":"mace","page":10,"trial_type":"survey-mace","trial_index":18,"time_elapsed":894072,"internal_node_id":"0.0-18.0","task_version":"prescreen-v0.3","browser_interactions":0,"instructed":0},{"rt":8336.599999964237,"trial_type":"mental-health-alert","trial_index":19,"time_elapsed":902410,"internal_node_id":"0.0-19.0","task_version":"prescreen-v0.3","interactions":"[{\"event\":\"blur\",\"trial\":2,\"time\":86123},{\"event\":\"focus\",\"trial\":2,\"time\":103374}]"}]