[{"view_history":[{"page_index":0,"viewing_time":1763},{"page_index":1,"viewing_time":3485},{"page_index":2,"viewing_time":4186},{"page_index":3,"viewing_time":990}],"rt":10425,"trial_type":"instructions","trial_index":0,"time_elapsed":10450,"internal_node_id":"0.0-0.0","task_version":"prescreen-v0.3"},{"rt":13467,"responses":{"age":"22","gender-categorical":"Male","gender-free-response":"","ethnicity":"Not Hispanic or Latino","race":["Asian"],"education":"Some college","siblings":"2"},"trial_type":"survey-demo","trial_index":1,"time_elapsed":23932,"internal_node_id":"0.0-1.0","task_version":"prescreen-v0.3"},{"responses":{"Q19":"3","Q06":"1","Q03":"2","Q04":"2","Q07":"0","Q10":"1","Q13":"0","Q02":"3","Q12":"2","Q21":"2","Q15":"1","Q08":"1","Q09":"2","Q11":"3","Q16":"2","Q14":"0","Q17":"2","Q05":"1","Q20":"1","Q18":"0","Q01":"2"},"rt":94762,"item_order":[18,5,2,3,6,9,12,1,11,20,14,7,8,10,15,13,16,4,19,17,0],"radio_events":[2658,6941,20976,26474,29108,37043,38676.00000000001,43760,45026,48560,55928,56710,63427,65196,67363,68611.00000000001,72778,75846.00000000001,78229,82179,88329],"key_events":[],"mouse_events":[2658,5101,6941,9040,20976,24464,25226,26474,28379,29108,34865,37043,38676.00000000001,43760,45026,48560,54948,55928,56710,59743,63427,65196,67363,68611.00000000001,71366,72778,75846.00000000001,77444,78229,79431,82179,84967,86890,88329,94734],"straightlining":0.38095238095238093,"zigzagging":0.55,"honeypot":0,"survey":"sns","trial_type":"survey-template","trial_index":2,"time_elapsed":118724,"internal_node_id":"0.0-2.0","task_version":"prescreen-v0.3","browser_interactions":0,"infrequency":0.5},{"responses":{"Q04":"0","Q09":"3","Q12":"2","Q02":"3","Q08":"1","Q10":"2","Q06":"0","Q01":"3","Q05":"2","Q03":"1","Q13":"0","Q07":"3","Q11":"2"},"rt":50041,"item_order":[3,8,11,1,7,9,5,0,4,2,12,6,10],"radio_events":[3614,5948,7731,8732,10948,12264.00000000003,14833,38767,40217,41486,43785,45950,48383.00000000003],"key_events":[],"mouse_events":[3614,4841,5948,7731,8732,10948,12264.00000000003,13959,14833,38767,40217,41486,43785,45950,47682,48383.00000000003,50025],"straightlining":0.3076923076923077,"zigzagging":0.8333333333333334,"honeypot":0,"survey":"bisbas","trial_type":"survey-template","trial_index":3,"time_elapsed":168818,"internal_node_id":"0.0-3.0","task_version":"prescreen-v0.3","browser_interactions":0,"infrequency":0},{"responses":{"Q01":"2","Q02":"3","Q03":"1"},"rt":14876,"radio_events":[7922,12272,13672],"key_events":[],"mouse_events":[7922,12272,13672,14871],"survey":"map","page":1,"trial_type":"survey-map","trial_index":4,"time_elapsed":183699,"internal_node_id":"0.0-4.0","task_version":"prescreen-v0.3","browser_interactions":0},{"responses":{"Q04":"3","Q05":"1","Q06":"2"},"rt":12037,"radio_events":[3024,7391,9709],"key_events":[],"mouse_events":[3024,7391,9709,12032],"survey":"map","page":2,"trial_type":"survey-map","trial_index":5,"time_elapsed":195740,"internal_node_id":"0.0-5.0","task_version":"prescreen-v0.3","browser_interactions":0},{"responses":{"Q07":"3","Q08":"3","Q09":"2"},"rt":14475,"radio_events":[7367,8250,9335],"key_events":[],"mouse_events":[5838,7367,8250,9335,14470],"survey":"map","page":3,"trial_type":"survey-map","trial_index":6,"time_elapsed":210221,"internal_node_id":"0.0-6.0","task_version":"prescreen-v0.3","browser_interactions":0},{"responses":{"Q10":"4","Q11":"1","Q12":"2","Q13":"2","Q16":"3","Q14":"1","Q15":"0"},"rt":26958.00000000003,"radio_events":[3705,5054,7755,9724,12905,14155,15489,19556,24622],"key_events":[],"mouse_events":[3014,3705,5054,6520,7755,9724,12905,14155,15489,18777,19556,24622,26950],"survey":"map","page":4,"trial_type":"survey-map","trial_index":7,"time_elapsed":237185,"internal_node_id":"0.0-7.0","task_version":"prescreen-v0.3","browser_interactions":0,"infrequency":1},{"view_history":[{"page_index":0,"viewing_time":9707},{"page_index":1,"viewing_time":3483}],"rt":13190,"trial_type":"instructions","trial_index":8,"time_elapsed":250377,"internal_node_id":"0.0-8.0","task_version":"prescreen-v0.3"},{"responses":{"01":"Yes","01_ages_8":"8","01_ages_9":"9","01_ages_10":"10","01_ages_11":"11","01_ages_12":"12","01_ages_13":"13","01_ages_14":"14","01_ages_15":"15","01_ages_16":"16","02":"Yes","02_ages_12":"12","02_ages_13":"13","02_ages_14":"14","02_ages_15":"15","02_ages_16":"16","02_ages_17":"17","03":"No","04":"Yes","04_ages_8":"8","04_ages_9":"9","04_ages_10":"10","04_ages_11":"11","04_ages_12":"12","04_ages_13":"13","04_ages_14":"14","04_ages_15":"15","04_ages_16":"16","04_ages_17":"17","04_ages_18":"18","05":"No","06":"No"},"rt":49335.99999999997,"item_order":[0,1,2,3,4,5],"radio_events":[6146.999999999971,19464.99999999997,31882.99999999997,33465.99999999997,43933.99999999997,45249.99999999997],"checkbox_events":[9115.99999999997,10233.99999999997,10714.99999999997,11364.99999999997,12097.99999999997,12664.99999999997,13280.99999999997,13997.99999999997,15331.99999999997,20732.99999999997,21882.99999999997,23965.99999999997,25565.99999999997,26198.99999999997,26815.99999999997,35332.99999999997,35916.99999999997,36699.99999999997,37384.99999999997,37933.99999999997,38382.99999999997,39033.00000000003,39533.99999999997,40049.99999999997,40449.99999999997,41016.99999999997],"key_events":[],"mouse_events":[0,3503.999999999971,6146.999999999971,9115.99999999997,10233.99999999997,10714.99999999997,11364.99999999997,12097.99999999997,12664.99999999997,13280.99999999997,13997.99999999997,15331.99999999997,18417.99999999997,19464.99999999997,20732.99999999997,21283.00000000003,21882.99999999997,23247.99999999997,23965.99999999997,24593.99999999997,25090.99999999997,25565.99999999997,26198.99999999997,26815.99999999997,31882.99999999997,33465.99999999997,34832.99999999997,35332.99999999997,35916.99999999997,36699.99999999997,37384.99999999997,37933.99999999997,38382.99999999997,39033.00000000003,39533.99999999997,40049.99999999997,40449.99999999997,41016.99999999997,43933.99999999997,45249.99999999997,49321.99999999997],"honeypot":0,"survey":"mace","page":1,"trial_type":"survey-mace","trial_index":9,"time_elapsed":299725,"internal_node_id":"0.0-9.0","task_version":"prescreen-v0.3","browser_interactions":0},{"responses":{"01":"No","02":"No","03":"No","04":"No","05":"No","06":"No","07":"No","08":"No"},"rt":26482,"item_order":[0,1,2,3,4,5,6,7],"radio_events":[5276,6878,8709,10593,12392,15410,19326,20462],"checkbox_events":[],"key_events":[],"mouse_events":[5276,6878,8709,9638.000000000058,10593,12392,15410,19326,20462,26470],"honeypot":0,"survey":"mace","page":2,"trial_type":"survey-mace","trial_index":10,"time_elapsed":326214,"internal_node_id":"0.0-10.0","task_version":"prescreen-v0.3","browser_interactions":0},{"responses":{"01":"No","02":"No","03":"No","04":"No"},"rt":27754,"item_order":[0,1,2,3],"radio_events":[16406,21575,23458,24525.00000000006],"checkbox_events":[],"key_events":[],"mouse_events":[16406,17721,21575,22309,23458,24525.00000000006,27738],"honeypot":0,"survey":"mace","page":3,"trial_type":"survey-mace","trial_index":11,"time_elapsed":353974,"internal_node_id":"0.0-11.0","task_version":"prescreen-v0.3","browser_interactions":0},{"responses":{"01":"No","02":"No"},"rt":23082.00000000006,"item_order":[0,1],"radio_events":[15467,16418],"checkbox_events":[],"key_events":[],"mouse_events":[15467,16418,23077.00000000006],"honeypot":0,"survey":"mace","page":4,"trial_type":"survey-mace","trial_index":12,"time_elapsed":377061,"internal_node_id":"0.0-12.0","task_version":"prescreen-v0.3","browser_interactions":0},{"responses":{"01":"No","02":"No","03":"No","04":"No","05":"No"},"rt":17921,"item_order":[0,1,2,3,4],"radio_events":[7231,8547,10664,14431,16366],"checkbox_events":[],"key_events":[],"mouse_events":[5322,7231,8547,10664,14431,16366,17912],"honeypot":0,"survey":"mace","page":5,"trial_type":"survey-mace","trial_index":13,"time_elapsed":394989,"internal_node_id":"0.0-13.0","task_version":"prescreen-v0.3","browser_interactions":0},{"responses":{"01":"Yes","01_ages_8":"8","01_ages_9":"9","01_ages_10":"10","01_ages_11":"11","01_ages_12":"12","01_ages_13":"13","01_ages_14":"14","02":"Yes","02_ages_8":"8","02_ages_9":"9","02_ages_10":"10","02_ages_11":"11","02_ages_12":"12","02_ages_13":"13","02_ages_14":"14","03":"Yes","03_ages_7":"7","03_ages_8":"8","03_ages_9":"9","03_ages_10":"10","04":"Yes","04_ages_13":"13","04_ages_14":"14","04_ages_15":"15","04_ages_16":"16","05":"No"},"rt":41815.99999999994,"item_order":[0,1,2,3,4],"radio_events":[8269.999999999942,16686.99999999994,25353.99999999994,33806.99999999994,40937.99999999994],"checkbox_events":[9602.999999999942,10137,10721.999999999942,11385.999999999942,11953.999999999942,12536.999999999942,13069.999999999942,17752.99999999994,18355.99999999994,18902.99999999994,19437.99999999994,19953.99999999994,20803,21452.99999999994,26577.99999999994,27137.99999999994,28138.99999999994,28720.99999999994,34971,36587.99999999994,37154.99999999994,37920.99999999994],"key_events":[],"mouse_events":[7015.999999999942,8269.999999999942,9602.999999999942,10137,10721.999999999942,11385.999999999942,11953.999999999942,12536.999999999942,13069.999999999942,16686.99999999994,17752.99999999994,18355.99999999994,18902.99999999994,19437.99999999994,19953.99999999994,20803,21452.99999999994,24607.99999999994,25353.99999999994,26577.99999999994,27137.99999999994,27652.99999999994,28138.99999999994,28720.99999999994,33806.99999999994,34971,35554.99999999994,36587.99999999994,37154.99999999994,37920.99999999994,40438.99999999994,40937.99999999994,41800.99999999994],"honeypot":0,"survey":"mace","page":6,"trial_type":"survey-mace","trial_index":14,"time_elapsed":436814,"internal_node_id":"0.0-14.0","task_version":"prescreen-v0.3","browser_interactions":0},{"responses":{"01":"No","02":"No","03":"No","04":"No","05":"No","06":"No","07":"No"},"rt":23235,"item_order":[0,1,2,3,4,5,6],"radio_events":[8750,9783,13516.000000000058,14749.000000000058,16000,17534,21534],"checkbox_events":[],"key_events":[],"mouse_events":[8750,9783,13516.000000000058,13933,14749.000000000058,16000,17534,21534,23224],"honeypot":0,"survey":"mace","page":7,"trial_type":"survey-mace","trial_index":15,"time_elapsed":460056,"internal_node_id":"0.0-15.0","task_version":"prescreen-v0.3","browser_interactions":0},{"responses":{"01":"Yes","01_ages_7":"7","01_ages_8":"8","01_ages_9":"9","01_ages_10":"10","01_ages_11":"11","01_ages_12":"12","02":"Yes","02_ages_5":"5","02_ages_6":"6","02_ages_7":"7","02_ages_8":"8","02_ages_9":"9","02_ages_10":"10","02_ages_11":"11","02_ages_12":"12","02_ages_13":"13","02_ages_14":"14","02_ages_15":"15","02_ages_16":"16","02_ages_17":"17","03":"Yes","03_ages_5":"5","03_ages_6":"6","03_ages_7":"7","03_ages_8":"8","03_ages_9":"9","03_ages_10":"10","03_ages_11":"11","03_ages_12":"12","03_ages_13":"13","03_ages_14":"14","03_ages_15":"15","03_ages_16":"16","04":"No"},"rt":50127.99999999994,"item_order":[0,1,2,3],"radio_events":[10727.999999999942,17841.99999999994,36793.99999999994,48613.99999999994],"checkbox_events":[12658.999999999942,13310.999999999942,13842.999999999942,15209.999999999942,16242.999999999942,17008.99999999994,19628.99999999994,20610.99999999994,21310.99999999994,21810.99999999994,23548.99999999994,26277.99999999994,27177.99999999994,28044.99999999994,28827.99999999994,29495,30077.99999999994,30627.99999999994,31277.99999999994,37812.99999999994,38344.99999999994,39877.99999999994,40577.99999999994,41262,41827.99999999994,42443.99999999994,42995,43628.99999999994,44147.99999999994,44827.99999999994,46294.99999999994],"key_events":[],"mouse_events":[10727.999999999942,12658.999999999942,13310.999999999942,13842.999999999942,15209.999999999942,15827,16242.999999999942,17008.99999999994,17841.99999999994,19098.99999999994,19628.99999999994,20142.99999999994,20610.99999999994,21310.99999999994,21810.99999999994,22409.99999999994,23003.99999999994,23548.99999999994,25711.99999999994,26277.99999999994,26777.99999999994,27177.99999999994,28044.99999999994,28827.99999999994,29495,30077.99999999994,30627.99999999994,31277.99999999994,36793.99999999994,37812.99999999994,38344.99999999994,38860.99999999994,39430.99999999994,39877.99999999994,40577.99999999994,41262,41827.99999999994,42443.99999999994,42995,43628.99999999994,44147.99999999994,44827.99999999994,45591.99999999994,46294.99999999994,48613.99999999994,50113.99999999994],"honeypot":0,"survey":"mace","page":8,"trial_type":"survey-mace","trial_index":16,"time_elapsed":510192,"internal_node_id":"0.0-16.0","task_version":"prescreen-v0.3","browser_interactions":0},{"responses":{"01":"Yes","01_ages_7":"7","01_ages_8":"8","01_ages_9":"9","01_ages_10":"10","01_ages_11":"11","01_ages_12":"12","01_ages_13":"13","02":"Yes","02_ages_8":"8","02_ages_9":"9","02_ages_10":"10","02_ages_11":"11","02_ages_12":"12","02_ages_13":"13","02_ages_14":"14","02_ages_15":"15","03":"Yes","03_ages_9":"9","03_ages_10":"10","03_ages_11":"11","03_ages_12":"12","03_ages_13":"13","03_ages_14":"14","03_ages_15":"15","03_ages_16":"16","03_ages_17":"17","04":"Yes","04_ages_10":"10","04_ages_11":"11","04_ages_12":"12","04_ages_13":"13","04_ages_14":"14","04_ages_15":"15","04_ages_16":"16","04_ages_17":"17","04_ages_18":"18"},"rt":44747.00000000012,"item_order":[0,1,2,3],"radio_events":[4911.000000000058,14645,23363,35730],"checkbox_events":[6028,6513,7577.999999999942,8128.000000000058,9195.000000000058,10195.000000000058,10845,15846,17012,17630,18230,18696,19579,20546,21513,24979,25648,26230,26813,27413,27880,28447,29814.000000000116,30913,37364,38082,39130,40197,41097,41716,42381,42950,43866],"key_events":[],"mouse_events":[4911.000000000058,6028,6513,7129,7577.999999999942,8128.000000000058,8545.000000000058,9195.000000000058,10195.000000000058,10845,14645,15846,16312,17012,17630,18230,18696,19579,20546,21513,23363,24497.000000000116,24979,25648,26230,26813,27413,27880,28447,29013,29814.000000000116,30279,30913,35730,37364,38082,38580,39130,39681,40197,40680,41097,41716,42381,42950,43866,44732],"honeypot":0,"survey":"mace","page":9,"trial_type":"survey-mace","trial_index":17,"time_elapsed":554946,"internal_node_id":"0.0-17.0","task_version":"prescreen-v0.3","browser_interactions":0},{"responses":{"01":"No","02":"No","03":"No","04":"Yes","04_ages_6":"6","04_ages_7":"7","04_ages_8":"8","04_ages_9":"9","04_ages_10":"10","04_ages_11":"11","04_ages_12":"12","04_ages_13":"13","04_ages_14":"14","04_ages_15":"15","05":"No","06":"Yes","06_ages_17":"17","07":"Yes","07_ages_9":"9","07_ages_10":"10","07_ages_11":"11","07_ages_12":"12","07_ages_13":"13","07_ages_14":"14","07_ages_15":"15","07_ages_16":"16","08":"Yes","08_ages_13":"13","08_ages_14":"14","08_ages_15":"15","08_ages_16":"16","08_ages_17":"17","08_ages_18":"18"},"rt":56458,"item_order":[0,1,2,3,4,5,6,7],"radio_events":[2328,6195,6996,9846,23047,24163,33030,49231],"checkbox_events":[11568,12646,13266,14212,14879,15662.000000000116,16313,16930,17746,18679,25913,35380,36064,37266,37832,38881,39997,40663,41481,50831,51798,53131,53748,54415,54865],"key_events":[],"mouse_events":[2328,3211,6195,6996,9846,11568,12095.000000000116,12646,13266,14212,14879,15662.000000000116,16313,16930,17746,18679,23047,24163,25913,33030,35380,36064,36664,37266,37832,38431,38881,39447,39997,40663,41481,49231,50831,51333,51798,52510,53131,53748,54415,54865,56440],"honeypot":0,"survey":"mace","page":10,"trial_type":"survey-mace","trial_index":18,"time_elapsed":611412,"internal_node_id":"0.0-18.0","task_version":"prescreen-v0.3","browser_interactions":0,"instructed":0},{"rt":416711.0000000001,"trial_type":"mental-health-alert","trial_index":19,"time_elapsed":1028137,"internal_node_id":"0.0-19.0","task_version":"prescreen-v0.3","interactions":"[{\"event\":\"blur\",\"trial\":19,\"time\":632198},{\"event\":\"focus\",\"trial\":19,\"time\":779375},{\"event\":\"focus\",\"trial\":19,\"time\":779376},{\"event\":\"blur\",\"trial\":19,\"time\":787846},{\"event\":\"focus\",\"trial\":19,\"time\":1025968},{\"event\":\"focus\",\"trial\":19,\"time\":1025970}]"}]