[{"view_history":[{"page_index":0,"viewing_time":3952.399999976158},{"page_index":1,"viewing_time":1292.3999999761581},{"page_index":2,"viewing_time":3691.8000000715256},{"page_index":3,"viewing_time":1007.5999999046326}],"rt":9945,"trial_type":"instructions","trial_index":0,"time_elapsed":9956,"internal_node_id":"0.0-0.0","task_version":"prescreen-v0.3"},{"rt":11435.5,"responses":{"age":"25","gender-categorical":"Female","gender-free-response":"","ethnicity":"Not Hispanic or Latino","race":["Asian"],"education":"Bachelor degree"},"trial_type":"survey-demo","trial_index":1,"time_elapsed":21395,"internal_node_id":"0.0-1.0","task_version":"prescreen-v0.3"},{"responses":{"Q04":"0","Q15":"3","Q14":"2","Q18":"2","Q06":"1","Q13":"1","Q20":"0","Q17":"2","Q07":"0","Q12":"2","Q10":"1","Q09":"1","Q16":"1","Q01":"1","Q03":"0","Q19":"0","Q11":"2","Q05":"1","Q02":"1","Q08":"1","Q21":"3"},"rt":155020.69999992847,"item_order":[3,14,13,17,5,12,19,16,6,11,9,8,15,0,2,18,10,4,1,7,20],"radio_events":[5486,13705.299999952316,17887.899999976158,22522,29374.599999904633,32561.699999928474,38421.799999952316,43712.299999952316,50382.39999997616,53739.89999997616,60214.799999952316,65686.39999997616,70767.89999997616,76231.69999992847,80312.89999997616,83857.59999990463,93616.5,97452.59999990463,113971.59999990463,142463.19999992847,146097.19999992847,150383.09999990463],"key_events":[],"mouse_events":[5486,13705.299999952316,17887.899999976158,22522,29374.599999904633,32561.699999928474,38421.799999952316,43712.299999952316,48886.89999997616,50382.39999997616,53739.89999997616,60214.799999952316,65686.39999997616,70767.89999997616,76231.69999992847,80312.89999997616,82752.09999990463,83857.59999990463,93616.5,97452.59999990463,113971.59999990463,141901.79999995232,142463.19999992847,146097.19999992847,150383.09999990463,155016.59999990463],"straightlining":0.42857142857142855,"zigzagging":0.35,"honeypot":0,"survey":"sns","trial_type":"survey-template","trial_index":2,"time_elapsed":176427,"internal_node_id":"0.0-2.0","task_version":"prescreen-v0.3","browser_interactions":0,"infrequency":0},{"responses":{"Q08":"3","Q09":"3","Q12":"2","Q11":"2","Q10":"2","Q04":"3","Q06":"3","Q13":"0","Q07":"3","Q03":"3","Q01":"2","Q05":"3","Q02":"3"},"rt":71273.19999992847,"item_order":[7,8,11,10,9,3,5,12,6,2,0,4,1],"radio_events":[6501.399999976158,11761.299999952316,26584.199999928474,27844.299999952316,32852.799999952316,41252,44398.699999928474,48895.199999928474,51944.199999928474,61839.5,64124.299999952316,68052,70588.69999992847],"key_events":[],"mouse_events":[6501.399999976158,11761.299999952316,19493.199999928474,25234.699999928474,25632.799999952316,26584.199999928474,27844.299999952316,32852.799999952316,40756.39999997616,41252,44398.699999928474,48895.199999928474,51944.199999928474,61839.5,64124.299999952316,68052,70588.69999992847,71271.5],"straightlining":0.6153846153846154,"zigzagging":0.5,"honeypot":0,"survey":"bisbas","trial_type":"survey-template","trial_index":3,"time_elapsed":247707,"internal_node_id":"0.0-3.0","task_version":"prescreen-v0.3","browser_interactions":0,"infrequency":0},{"responses":{"Q01":"4","Q02":"3","Q03":"2"},"rt":28612.100000023842,"radio_events":[8814.600000023842,16712.800000071526,27993.100000023842],"key_events":[],"mouse_events":[8814.600000023842,16712.800000071526,18948.300000071526,27993.100000023842,28611.200000047684],"survey":"map","page":1,"trial_type":"survey-map","trial_index":4,"time_elapsed":276326,"internal_node_id":"0.0-4.0","task_version":"prescreen-v0.3","browser_interactions":0},{"responses":{"Q04":"2","Q05":"1","Q06":"1"},"rt":25197.300000071526,"radio_events":[6797.700000047684,11877.600000023842,22733.399999976158,24474.200000047684],"key_events":[],"mouse_events":[6797.700000047684,11877.600000023842,22733.399999976158,24474.200000047684,25196.399999976158],"survey":"map","page":2,"trial_type":"survey-map","trial_index":5,"time_elapsed":301529,"internal_node_id":"0.0-5.0","task_version":"prescreen-v0.3","browser_interactions":0},{"responses":{"Q07":"2","Q08":"4","Q09":"4"},"rt":21642.600000023842,"radio_events":[8054.899999976158,11826.700000047684,21138],"key_events":[],"mouse_events":[8054.899999976158,11826.700000047684,19040.399999976158,19642,20040.700000047684,21138,21641.799999952316],"survey":"map","page":3,"trial_type":"survey-map","trial_index":6,"time_elapsed":323178,"internal_node_id":"0.0-6.0","task_version":"prescreen-v0.3","browser_interactions":0},{"responses":{"Q10":"4","Q11":"4","Q12":"3","Q13":"3","Q16":"0","Q14":"3","Q15":"3"},"rt":52847.60000002384,"radio_events":[12763.800000071526,19071.900000095367,24364.100000023842,35128.800000071526,41070.800000071526,46302.90000009537,52196.5],"key_events":[],"mouse_events":[12763.800000071526,19071.900000095367,23868.400000095367,24364.100000023842,35128.800000071526,39461.800000071526,41070.800000071526,46302.90000009537,52196.5,52846.40000009537],"survey":"map","page":4,"trial_type":"survey-map","trial_index":7,"time_elapsed":376032,"internal_node_id":"0.0-7.0","task_version":"prescreen-v0.3","browser_interactions":0,"infrequency":0},{"view_history":[{"page_index":0,"viewing_time":3628.7999999523163},{"page_index":1,"viewing_time":6548.800000071526}],"rt":10178.5,"trial_type":"instructions","trial_index":8,"time_elapsed":386214,"internal_node_id":"0.0-8.0","task_version":"prescreen-v0.3"},{"responses":{"01":"Yes","01_ages_7":"7","01_ages_8":"8","01_ages_9":"9","01_ages_10":"10","01_ages_11":"11","01_ages_12":"12","01_ages_13":"13","01_ages_14":"14","01_ages_15":"15","01_ages_16":"16","01_ages_17":"17","02":"Yes","02_ages_9":"9","02_ages_10":"10","02_ages_11":"11","02_ages_12":"12","02_ages_13":"13","02_ages_14":"14","02_ages_15":"15","02_ages_16":"16","02_ages_17":"17","03":"Yes","03_ages_9":"9","03_ages_10":"10","03_ages_11":"11","03_ages_12":"12","03_ages_13":"13","03_ages_14":"14","03_ages_15":"15","03_ages_16":"16","03_ages_17":"17","04":"No","05":"No","06":"Yes","06_ages_9":"9","06_ages_10":"10","06_ages_11":"11","06_ages_12":"12","06_ages_13":"13","06_ages_14":"14","06_ages_15":"15","06_ages_16":"16","06_ages_17":"17"},"rt":83239.5,"item_order":[0,1,2,3,4,5],"radio_events":[11802.100000023842,38604.39999997616,54155.89999997616,65220.699999928474,69195.5,74300],"checkbox_events":[25109.799999952316,25508.299999952316,25841.100000023842,28613.5,28970.899999976158,29410.299999952316,30458.600000023842,31409.899999976158,31832.399999976158,32523.699999928474,32864.89999997616,33230.799999952316,40051.299999952316,40603.89999997616,41644.699999928474,42042.699999928474,42473.5,42798.699999928474,43831,44400.10000002384,45001.89999997616,45440.89999997616,47221,48668.60000002384,55960.39999997616,56529.10000002384,56879.10000002384,57488.799999952316,59058.199999928474,59545.799999952316,59928,60488.89999997616,61066,77023.29999995232,77503,77820,78364.79999995232,78730.89999997616,79292,79689.89999997616,80259.10000002384,80624.60000002384,81478.29999995232,81884.69999992847],"key_events":[],"mouse_events":[0.10000002384185791,11802.100000023842,25109.799999952316,25508.299999952316,25841.100000023842,28613.5,28970.899999976158,29410.299999952316,30458.600000023842,30906,31409.899999976158,31832.399999976158,32523.699999928474,32864.89999997616,33230.799999952316,38075.799999952316,38604.39999997616,40051.299999952316,40603.89999997616,41644.699999928474,42042.699999928474,42473.5,42798.699999928474,43335.39999997616,43831,44400.10000002384,45001.89999997616,45440.89999997616,47221,48668.60000002384,53602.799999952316,54155.89999997616,55960.39999997616,56529.10000002384,56879.10000002384,57488.799999952316,57854.60000002384,59058.199999928474,59545.799999952316,59928,60488.89999997616,61066,65220.699999928474,69195.5,74300,77023.29999995232,77503,77820,78364.79999995232,78730.89999997616,79292,79689.89999997616,80259.10000002384,80624.60000002384,81014.89999997616,81478.29999995232,81884.69999992847,83235],"honeypot":0,"survey":"mace","page":1,"trial_type":"survey-mace","trial_index":9,"time_elapsed":469462,"internal_node_id":"0.0-9.0","task_version":"prescreen-v0.3","browser_interactions":0},{"responses":{"01":"No","02":"No","03":"Yes","03_ages_6":"6","03_ages_7":"7","03_ages_8":"8","03_ages_9":"9","03_ages_10":"10","03_ages_11":"11","03_ages_12":"12","03_ages_13":"13","03_ages_14":"14","03_ages_15":"15","03_ages_16":"16","03_ages_17":"17","04":"No","05":"Yes","05_ages_6":"6","05_ages_7":"7","05_ages_8":"8","05_ages_9":"9","05_ages_10":"10","05_ages_11":"11","05_ages_12":"12","05_ages_13":"13","05_ages_14":"14","05_ages_15":"15","05_ages_16":"16","05_ages_17":"17","06":"No","07":"No","08":"No"},"rt":55555.300000071526,"item_order":[0,1,2,3,4,5,6,7],"radio_events":[5255.5,14967.700000047684,16682.899999976158,28129.200000047684,31421.200000047684,51249.10000002384,52533,54110.200000047684],"checkbox_events":[19390.5,19829,20235.5,20568.600000023842,21593.100000023842,21958.899999976158,22584.600000023842,22934.200000047684,23316.399999976158,23877.100000023842,24600.800000071526,25112.899999976158,32787.5,33453.39999997616,34063.200000047684,35429,35859.800000071526,37022.60000002384,39948.39999997616,40607.10000002384,41778,42314.39999997616,42745.300000071526,43484.800000071526,44810.200000047684,48346.5],"key_events":[],"mouse_events":[5255.5,14967.700000047684,16682.899999976158,19390.5,19829,20235.5,20568.600000023842,21056.200000047684,21593.100000023842,21958.899999976158,22584.600000023842,22934.200000047684,23316.399999976158,23877.100000023842,24242.899999976158,24600.800000071526,25112.899999976158,28129.200000047684,31096.700000047684,31421.200000047684,32787.5,33453.39999997616,34063.200000047684,34559.200000047684,34868,35429,35859.800000071526,36421.10000002384,37022.60000002384,38851.5,39948.39999997616,40607.10000002384,41159.700000047684,41778,42314.39999997616,42745.300000071526,43484.800000071526,44810.200000047684,48346.5,50850.5,51249.10000002384,52533,54110.200000047684,55550],"honeypot":0,"survey":"mace","page":2,"trial_type":"survey-mace","trial_index":10,"time_elapsed":525025,"internal_node_id":"0.0-10.0","task_version":"prescreen-v0.3","browser_interactions":0},{"responses":{"01":"No","02":"No","03":"No","04":"No"},"rt":9030.599999904633,"item_order":[0,1,2,3],"radio_events":[5150,6296.299999952316,7540.199999928474,8199.399999976158],"checkbox_events":[],"key_events":[],"mouse_events":[5150,6296.299999952316,7540.199999928474,8199.399999976158,9027.899999976158],"honeypot":0,"survey":"mace","page":3,"trial_type":"survey-mace","trial_index":11,"time_elapsed":534061,"internal_node_id":"0.0-11.0","task_version":"prescreen-v0.3","browser_interactions":0},{"responses":{"01":"No","02":"No"},"rt":9845.799999952316,"item_order":[0,1],"radio_events":[6730.700000047684,9226.299999952316],"checkbox_events":[],"key_events":[],"mouse_events":[6730.700000047684,8641.100000023842,9226.299999952316,9844.200000047684],"honeypot":0,"survey":"mace","page":4,"trial_type":"survey-mace","trial_index":12,"time_elapsed":543913,"internal_node_id":"0.0-12.0","task_version":"prescreen-v0.3","browser_interactions":0},{"responses":{"01":"No","01_ages_11":"11","02":"No","03":"No","04":"No","05":"No"},"rt":70632.39999997616,"item_order":[0,1,2,3,4],"radio_events":[21097.699999928474,33306,39727.09999990463,62932.299999952316,69247.69999992847,69939.29999995232],"checkbox_events":[22568.599999904633,23389.799999952316,23902],"key_events":[],"mouse_events":[20496,21097.699999928474,22568.599999904633,23389.799999952316,23902,33306,39727.09999990463,62932.299999952316,65581.19999992847,66899.19999992847,69247.69999992847,69939.29999995232,70630],"honeypot":0,"survey":"mace","page":5,"trial_type":"survey-mace","trial_index":13,"time_elapsed":614553,"internal_node_id":"0.0-13.0","task_version":"prescreen-v0.3","browser_interactions":0},{"responses":{"01":"No","02":"No","03":"No","04":"No","05":"No"},"rt":23836.399999976158,"item_order":[0,1,2,3,4],"radio_events":[8901.100000023842,14980.399999976158,17720.699999928474,20386.199999928474,23247.799999952316],"checkbox_events":[],"key_events":[],"mouse_events":[8901.100000023842,14980.399999976158,17720.699999928474,20386.199999928474,22882,23247.799999952316,23833.100000023842],"honeypot":0,"survey":"mace","page":6,"trial_type":"survey-mace","trial_index":14,"time_elapsed":638395,"internal_node_id":"0.0-14.0","task_version":"prescreen-v0.3","browser_interactions":0},{"responses":{"01":"No","02":"No","03":"No","04":"No","05":"No","06":"No","07":"No"},"rt":13106.899999976158,"item_order":[0,1,2,3,4,5,6],"radio_events":[4005.899999976158,6623.199999928474,7769.5,8867.299999952316,9858.699999928474,11159.5,12370.899999976158],"checkbox_events":[],"key_events":[],"mouse_events":[4005.899999976158,6623.199999928474,7769.5,8867.299999952316,9858.699999928474,11159.5,12370.899999976158,13102.699999928474],"honeypot":0,"survey":"mace","page":7,"trial_type":"survey-mace","trial_index":15,"time_elapsed":651511,"internal_node_id":"0.0-15.0","task_version":"prescreen-v0.3","browser_interactions":0},{"responses":{"01":"No","02":"No","03":"No","04":"No"},"rt":21857.299999952316,"item_order":[0,1,2,3],"radio_events":[9053.399999976158,12418.799999952316,18041.699999928474,20919.5],"checkbox_events":[],"key_events":[],"mouse_events":[9053.399999976158,12418.799999952316,18041.699999928474,20919.5,21854.5],"honeypot":0,"survey":"mace","page":8,"trial_type":"survey-mace","trial_index":16,"time_elapsed":673374,"internal_node_id":"0.0-16.0","task_version":"prescreen-v0.3","browser_interactions":0},{"responses":{"01":"Yes","01_ages_1":"1","01_ages_2":"2","01_ages_3":"3","01_ages_4":"4","01_ages_5":"5","01_ages_6":"6","01_ages_7":"7","01_ages_8":"8","01_ages_9":"9","01_ages_10":"10","01_ages_11":"11","01_ages_12":"12","01_ages_13":"13","01_ages_14":"14","01_ages_15":"15","01_ages_16":"16","01_ages_17":"17","01_ages_18":"18","02":"Yes","02_ages_1":"1","02_ages_2":"2","02_ages_3":"3","02_ages_4":"4","02_ages_5":"5","02_ages_6":"6","02_ages_7":"7","02_ages_8":"8","02_ages_9":"9","02_ages_10":"10","02_ages_11":"11","02_ages_12":"12","02_ages_13":"13","02_ages_14":"14","02_ages_15":"15","02_ages_16":"16","02_ages_17":"17","02_ages_18":"18","03":"Yes","03_ages_1":"1","03_ages_2":"2","03_ages_3":"3","03_ages_4":"4","03_ages_5":"5","03_ages_6":"6","03_ages_7":"7","03_ages_8":"8","03_ages_9":"9","03_ages_10":"10","03_ages_11":"11","03_ages_12":"12","03_ages_13":"13","03_ages_14":"14","03_ages_15":"15","03_ages_16":"16","03_ages_17":"17","03_ages_18":"18","04":"Yes","04_ages_1":"1","04_ages_2":"2","04_ages_3":"3","04_ages_4":"4","04_ages_5":"5","04_ages_6":"6","04_ages_7":"7","04_ages_8":"8","04_ages_9":"9","04_ages_10":"10","04_ages_11":"11","04_ages_12":"12","04_ages_13":"13","04_ages_14":"14","04_ages_15":"15","04_ages_16":"16","04_ages_17":"17","04_ages_18":"18"},"rt":71079.5,"item_order":[0,1,2,3],"radio_events":[4958.299999952316,26738,42738.299999952316,59012.89999997616],"checkbox_events":[11983.600000023842,12357.600000023842,13300.5,13690.5,14894.100000023842,15519.899999976158,16357.5,16982.799999952316,18365.5,18811.899999976158,19332.100000023842,20202.399999976158,20738.600000023842,21300.100000023842,21860.399999976158,22307.5,22811.600000023842,23543.100000023842,27925.100000023842,28444.600000023842,28892.399999976158,29558.799999952316,29965.399999976158,30380,31038.399999976158,31493.700000047684,32290.399999976158,32794.299999952316,33322.799999952316,34005.60000002384,34460.700000047684,34940.5,35582.299999952316,35981.10000002384,36550.5,37200.5,43624.700000047684,44071.799999952316,44494.5,45047,45592.89999997616,46185.299999952316,46795.5,47811.299999952316,48266.5,49241.799999952316,49786.5,50233.39999997616,50827.10000002384,51818.799999952316,52258.200000047684,52729,53729.200000047684,54217,60126.799999952316,60598.299999952316,61199.39999997616,62353.60000002384,62890.10000002384,63898.89999997616,64272.299999952316,64727.700000047684,65329.5,65906.89999997616,66435.20000004768,66865.89999997616,67670.60000002384,68150.20000004768,68857.39999997616,69491.60000002384,70077,70588.89999997616],"key_events":[],"mouse_events":[4958.299999952316,11983.600000023842,12357.600000023842,12829,13300.5,13690.5,14894.100000023842,15519.899999976158,15877.399999976158,16357.5,16982.799999952316,17519.700000047684,18007.899999976158,18365.5,18811.899999976158,19332.100000023842,19836.700000047684,20202.399999976158,20738.600000023842,21300.100000023842,21860.399999976158,22307.5,22811.600000023842,23543.100000023842,26738,27925.100000023842,28444.600000023842,28892.399999976158,29558.799999952316,29965.399999976158,30380,31038.399999976158,31493.700000047684,32290.399999976158,32794.299999952316,33322.799999952316,34005.60000002384,34460.700000047684,34940.5,35582.299999952316,35981.10000002384,36550.5,37200.5,42738.299999952316,43624.700000047684,44071.799999952316,44494.5,45047,45592.89999997616,46185.299999952316,46795.5,47290.799999952316,47811.299999952316,48266.5,48933.200000047684,49241.799999952316,49786.5,50233.39999997616,50827.10000002384,51818.799999952316,52258.200000047684,52729,53290.10000002384,53729.200000047684,54217,59012.89999997616,60126.799999952316,60598.299999952316,61199.39999997616,62353.60000002384,62890.10000002384,63394.10000002384,63898.89999997616,64272.299999952316,64727.700000047684,65329.5,65906.89999997616,66435.20000004768,66865.89999997616,67670.60000002384,68150.20000004768,68857.39999997616,69491.60000002384,70077,70588.89999997616,71076.89999997616],"honeypot":0,"survey":"mace","page":9,"trial_type":"survey-mace","trial_index":17,"time_elapsed":744462,"internal_node_id":"0.0-17.0","task_version":"prescreen-v0.3","browser_interactions":0},{"responses":{"01":"No","02":"No","03":"No","04":"No","05":"No","06":"Yes","06_ages_17":"17","07":"Yes","07_ages_1":"1","07_ages_2":"2","07_ages_3":"3","07_ages_4":"4","07_ages_5":"5","07_ages_6":"6","07_ages_7":"7","07_ages_8":"8","07_ages_9":"9","07_ages_10":"10","07_ages_11":"11","07_ages_12":"12","07_ages_13":"13","07_ages_14":"14","07_ages_15":"15","07_ages_16":"16","07_ages_17":"17","07_ages_18":"18","08":"Yes","08_ages_1":"1","08_ages_2":"2","08_ages_3":"3","08_ages_4":"4","08_ages_5":"5","08_ages_6":"6","08_ages_7":"7","08_ages_8":"8","08_ages_9":"9","08_ages_10":"10","08_ages_11":"11","08_ages_12":"12","08_ages_13":"13","08_ages_14":"14","08_ages_15":"15","08_ages_16":"16","08_ages_17":"17","08_ages_18":"18"},"rt":53968.89999997616,"item_order":[0,1,2,3,4,5,6,7],"radio_events":[2884.5,3900.899999976158,5672.700000047684,7208.899999976158,15940.100000023842,16793.5,22605.799999952316,38848.799999952316],"checkbox_events":[18273,25914.899999976158,26483.5,26873.899999976158,28434.700000047684,28776,29231,29841,30255.5,31027.700000047684,31475.100000023842,33637.89999997616,34051.89999997616,34548,35100.700000047684,35514.700000047684,35930.200000047684,36621,37125.39999997616,39808.299999952316,40288.700000047684,40686,41125.39999997616,41873.200000047684,42304.200000047684,43271.60000002384,43710.60000002384,44133.5,44767.799999952316,45198.5,45637.5,46328.700000047684,46808.5,47613.39999997616,48247.60000002384,48808.60000002384,49572.799999952316],"key_events":[],"mouse_events":[2884.5,3900.899999976158,5672.700000047684,7208.899999976158,15045.799999952316,15940.100000023842,16793.5,18273,22605.799999952316,25914.899999976158,26483.5,26873.899999976158,27467.399999976158,27800.399999976158,28434.700000047684,28776,29231,29841,30255.5,31027.700000047684,31475.100000023842,33637.89999997616,34051.89999997616,34548,35100.700000047684,35514.700000047684,35930.200000047684,36621,37125.39999997616,38848.799999952316,39808.299999952316,40288.700000047684,40686,41125.39999997616,41873.200000047684,42304.200000047684,42702.799999952316,43271.60000002384,43710.60000002384,44133.5,44767.799999952316,45198.5,45637.5,46328.700000047684,46808.5,47613.39999997616,48247.60000002384,48808.60000002384,49572.799999952316,53963.5],"honeypot":0,"survey":"mace","page":10,"trial_type":"survey-mace","trial_index":18,"time_elapsed":798440,"internal_node_id":"0.0-18.0","task_version":"prescreen-v0.3","browser_interactions":0,"instructed":0},{"rt":6362.899999976158,"trial_type":"mental-health-alert","trial_index":19,"time_elapsed":804806,"internal_node_id":"0.0-19.0","task_version":"prescreen-v0.3","interactions":"[]"}]