[{"view_history":[{"page_index":0,"viewing_time":7757.200000017881},{"page_index":1,"viewing_time":1751.5},{"page_index":2,"viewing_time":5160},{"page_index":3,"viewing_time":2351.7999999821186}],"rt":17021.30000001192,"trial_type":"instructions","trial_index":0,"time_elapsed":17034,"internal_node_id":"0.0-0.0","task_version":"prescreen-v0.3"},{"rt":45092.30000001192,"responses":{"age":"58","gender-categorical":"Male","gender-free-response":"","ethnicity":"Not Hispanic or Latino","race":["Asian"],"education":"Master degree or higher"},"trial_type":"survey-demo","trial_index":1,"time_elapsed":62146,"internal_node_id":"0.0-1.0","task_version":"prescreen-v0.3"},{"responses":{"Q05":"2","Q18":"0","Q19":"1","Q12":"1","Q07":"0","Q09":"2","Q13":"1","Q06":"2","Q16":"2","Q17":"0","Q03":"0","Q04":"1","Q15":"2","Q02":"1","Q01":"0","Q21":"3","Q11":"2","Q20":"1","Q08":"1","Q10":"1","Q14":"0"},"rt":508453.40000000596,"item_order":[4,17,18,11,6,8,12,5,15,16,2,3,14,1,0,20,10,19,7,9,13],"radio_events":[21974.09999999404,156848.69999998808,165160.90000000596,178040.59999999404,191008.09999999404,205047.19999998808,211407.40000000596,289004.7999999821,298972.5,304572.2999999821,320571.7999999821,345210.7999999821,351586.59999999404,357234.09999999404,365210.1999999881,371305.7999999821,379473.59999999404,394417.2999999821,405776.6999999881,421336.2999999821,485334.40000000596,500718],"key_events":[],"mouse_events":[21974.09999999404,156848.69999998808,165160.90000000596,178040.59999999404,191008.09999999404,205047.19999998808,211407.40000000596,224407,289004.7999999821,298972.5,304572.2999999821,320571.7999999821,345210.7999999821,351586.59999999404,356482.7999999821,357234.09999999404,365210.1999999881,371305.7999999821,379473.59999999404,394417.2999999821,405776.6999999881,421336.2999999821,452343.6999999881,485334.40000000596,488126.40000000596,500718,508445.90000000596],"straightlining":0.38095238095238093,"zigzagging":0.6,"honeypot":0,"survey":"sns","trial_type":"survey-template","trial_index":2,"time_elapsed":570627,"internal_node_id":"0.0-2.0","task_version":"prescreen-v0.3","browser_interactions":0,"infrequency":0},{"responses":{"Q12":"2","Q10":"2","Q06":"3","Q05":"2","Q11":"2","Q07":"3","Q03":"1","Q04":"2","Q09":"2","Q01":"2","Q02":"2","Q13":"0","Q08":"2"},"rt":250556.80000001192,"item_order":[11,9,5,4,10,6,2,3,8,0,1,12,7],"radio_events":[32175.5,116356.80000001192,127140.40000000596,133444.09999999404,170938.69999998808,182194.30000001192,191730,211817.5,219369.19999998808,224073,228024.90000000596,238096.5,249072.30000001192],"key_events":[],"mouse_events":[32175.5,71381.80000001192,90309.80000001192,102796.80000001192,116356.80000001192,127140.40000000596,133444.09999999404,170938.69999998808,182194.30000001192,191730,211817.5,219369.19999998808,224073,228024.90000000596,238096.5,249072.30000001192,250552.40000000596],"straightlining":0.6923076923076923,"zigzagging":0.3333333333333333,"honeypot":0,"survey":"bisbas","trial_type":"survey-template","trial_index":3,"time_elapsed":821201,"internal_node_id":"0.0-3.0","task_version":"prescreen-v0.3","browser_interactions":6,"infrequency":0},{"responses":{"Q01":"2","Q02":"2","Q03":"2"},"rt":62062.70000001788,"radio_events":[31076.5,43021,60500.5],"key_events":[],"mouse_events":[31076.5,43021,60500.5,62060.60000002384],"survey":"map","page":1,"trial_type":"survey-map","trial_index":4,"time_elapsed":883275,"internal_node_id":"0.0-4.0","task_version":"prescreen-v0.3","browser_interactions":0},{"responses":{"Q04":"3","Q05":"3","Q06":"3"},"rt":38878.79999998212,"radio_events":[20013.59999999404,26605.29999998212,34869],"key_events":[],"mouse_events":[20013.59999999404,26605.29999998212,34869,38876.90000000596],"survey":"map","page":2,"trial_type":"survey-map","trial_index":5,"time_elapsed":922163,"internal_node_id":"0.0-5.0","task_version":"prescreen-v0.3","browser_interactions":0},{"responses":{"Q07":"4","Q08":"0","Q09":"2"},"rt":51999.5,"radio_events":[23574.59999999404,33102.19999998808,44285.90000000596,50029.69999998808],"key_events":[],"mouse_events":[23574.59999999404,33102.19999998808,44285.90000000596,50029.69999998808,51997.59999999404],"survey":"map","page":3,"trial_type":"survey-map","trial_index":6,"time_elapsed":974169,"internal_node_id":"0.0-6.0","task_version":"prescreen-v0.3","browser_interactions":0},{"responses":{"Q10":"1","Q11":"1","Q12":"3","Q13":"4","Q16":"0","Q14":"3","Q15":"3"},"rt":121766.40000000596,"radio_events":[44869.20000001788,59772.40000000596,70123.90000000596,83771.40000000596,93811.30000001192,105067.09999999404,115738.59999999404],"key_events":[],"mouse_events":[44869.20000001788,59772.40000000596,70123.90000000596,83771.40000000596,93811.30000001192,105067.09999999404,115738.59999999404,121762.70000001788],"survey":"map","page":4,"trial_type":"survey-map","trial_index":7,"time_elapsed":1095947,"internal_node_id":"0.0-7.0","task_version":"prescreen-v0.3","browser_interactions":0,"infrequency":0},{"view_history":[{"page_index":0,"viewing_time":65674.80000001192},{"page_index":1,"viewing_time":25622.79999998212}],"rt":91300.19999998808,"trial_type":"instructions","trial_index":8,"time_elapsed":1187253,"internal_node_id":"0.0-8.0","task_version":"prescreen-v0.3"},{"responses":{"01":"No","02":"No","03":"No","04":"No","05":"No","06":"No"},"rt":64122.90000000596,"item_order":[0,1,2,3,4,5],"radio_events":[22826.09999999404,29881.09999999404,35648.90000000596,53464,54752.30000001192,62287.80000001192],"checkbox_events":[],"key_events":[],"mouse_events":[0.20000001788139343,22826.09999999404,29881.09999999404,35648.90000000596,46960.30000001192,53464,54752.30000001192,62287.80000001192,64112.5],"honeypot":0,"survey":"mace","page":1,"trial_type":"survey-mace","trial_index":9,"time_elapsed":1251403,"internal_node_id":"0.0-9.0","task_version":"prescreen-v0.3","browser_interactions":0},{"responses":{"01":"No","02":"No","03":"No","04":"No","05":"No","06":"No","07":"No","08":"No"},"rt":76079.09999999404,"item_order":[0,1,2,3,4,5,6,7],"radio_events":[7276,27203.09999999404,32971,51538.59999999404,55250.09999999404,61377.89999997616,66113.89999997616,74529.79999998212],"checkbox_events":[],"key_events":[],"mouse_events":[7276,10659.699999988079,27203.09999999404,32971,51538.59999999404,55250.09999999404,61377.89999997616,66113.89999997616,67274.09999999404,72593.59999999404,74529.79999998212,76065.69999998808],"honeypot":0,"survey":"mace","page":2,"trial_type":"survey-mace","trial_index":10,"time_elapsed":1327500,"internal_node_id":"0.0-10.0","task_version":"prescreen-v0.3","browser_interactions":2},{"responses":{"01":"No","02":"No","03":"No","04":"No"},"rt":19362.09999999404,"item_order":[0,1,2,3],"radio_events":[7947.699999988079,10555.40000000596,13657.90000000596,18427],"checkbox_events":[],"key_events":[],"mouse_events":[7947.699999988079,10555.40000000596,13657.90000000596,18427,19355.09999999404],"honeypot":0,"survey":"mace","page":3,"trial_type":"survey-mace","trial_index":11,"time_elapsed":1346875,"internal_node_id":"0.0-11.0","task_version":"prescreen-v0.3","browser_interactions":0},{"responses":{"01":"No","02":"No"},"rt":13891.100000023842,"item_order":[0,1],"radio_events":[10607.600000023842,12639.40000000596],"checkbox_events":[],"key_events":[],"mouse_events":[10607.600000023842,12639.40000000596,13887.40000000596],"honeypot":0,"survey":"mace","page":4,"trial_type":"survey-mace","trial_index":12,"time_elapsed":1360773,"internal_node_id":"0.0-12.0","task_version":"prescreen-v0.3","browser_interactions":0},{"responses":{"01":"No","02":"No","03":"No","04":"No","05":"No"},"rt":43498.30000001192,"item_order":[0,1,2,3,4],"radio_events":[20018,24674.40000000596,28737.59999999404,35809.90000000596,42065.70000001788],"checkbox_events":[],"key_events":[],"mouse_events":[20018,24674.40000000596,28737.59999999404,35809.90000000596,42065.70000001788,43489.70000001788],"honeypot":0,"survey":"mace","page":5,"trial_type":"survey-mace","trial_index":13,"time_elapsed":1404284,"internal_node_id":"0.0-13.0","task_version":"prescreen-v0.3","browser_interactions":0},{"responses":{"01":"No","02":"No","03":"No","04":"No","05":"No"},"rt":64625.5,"item_order":[0,1,2,3,4],"radio_events":[27234.19999998808,44377.29999998212,52977.09999999404,57865,63712.79999998212],"checkbox_events":[],"key_events":[],"mouse_events":[27234.19999998808,32417.69999998808,44377.29999998212,52977.09999999404,57865,63712.79999998212,64616.79999998212],"honeypot":0,"survey":"mace","page":6,"trial_type":"survey-mace","trial_index":14,"time_elapsed":1468923,"internal_node_id":"0.0-14.0","task_version":"prescreen-v0.3","browser_interactions":0},{"responses":{"01":"No","02":"No","03":"No","04":"No","05":"No","06":"No","07":"No"},"rt":35164,"item_order":[0,1,2,3,4,5,6],"radio_events":[9080.59999999404,14312.799999982119,19400.59999999404,23672.19999998808,28744.29999998212,31808.19999998808,34200],"checkbox_events":[],"key_events":[],"mouse_events":[9080.59999999404,14312.799999982119,19400.59999999404,23672.19999998808,28744.29999998212,31808.19999998808,34200,35152.09999999404],"honeypot":0,"survey":"mace","page":7,"trial_type":"survey-mace","trial_index":15,"time_elapsed":1504103,"internal_node_id":"0.0-15.0","task_version":"prescreen-v0.3","browser_interactions":0},{"responses":{"01":"No","02":"No","03":"No","04":"No"},"rt":74653.90000000596,"item_order":[0,1,2,3],"radio_events":[34152.30000001192,44447.80000001192,66703.30000001192,73686.80000001192],"checkbox_events":[],"key_events":[],"mouse_events":[34152.30000001192,44447.80000001192,66703.30000001192,73686.80000001192,74646.80000001192],"honeypot":0,"survey":"mace","page":8,"trial_type":"survey-mace","trial_index":16,"time_elapsed":1578767,"internal_node_id":"0.0-16.0","task_version":"prescreen-v0.3","browser_interactions":2},{"responses":{"01":"Yes","01_ages_1":"1","01_ages_2":"2","01_ages_3":"3","01_ages_4":"4","01_ages_5":"5","01_ages_6":"6","01_ages_7":"7","01_ages_8":"8","01_ages_9":"9","01_ages_10":"10","01_ages_11":"11","01_ages_12":"12","01_ages_13":"13","01_ages_14":"14","01_ages_15":"15","01_ages_16":"16","01_ages_17":"17","01_ages_18":"18","02":"Yes","02_ages_6":"6","02_ages_7":"7","02_ages_8":"8","02_ages_9":"9","02_ages_10":"10","02_ages_11":"11","02_ages_12":"12","02_ages_13":"13","02_ages_14":"14","02_ages_15":"15","02_ages_16":"16","02_ages_17":"17","02_ages_18":"18","03":"Yes","03_ages_1":"1","03_ages_2":"2","03_ages_3":"3","03_ages_4":"4","03_ages_5":"5","03_ages_6":"6","03_ages_7":"7","03_ages_8":"8","03_ages_9":"9","03_ages_10":"10","03_ages_11":"11","03_ages_12":"12","03_ages_13":"13","03_ages_14":"14","03_ages_15":"15","03_ages_16":"16","03_ages_17":"17","03_ages_18":"18","04":"Yes","04_ages_1":"1","04_ages_2":"2","04_ages_3":"3","04_ages_4":"4","04_ages_5":"5","04_ages_6":"6","04_ages_7":"7","04_ages_8":"8","04_ages_9":"9","04_ages_10":"10","04_ages_11":"11","04_ages_12":"12","04_ages_13":"13","04_ages_14":"14","04_ages_15":"15","04_ages_16":"16","04_ages_17":"17","04_ages_18":"18"},"rt":275372.59999999404,"item_order":[0,1,2,3],"radio_events":[22045.30000001192,96498.69999998808,137513.19999998808,218966.5],"checkbox_events":[45189.5,46364.59999999404,46884.5,49180.30000001192,50252.30000001192,52564.19999998808,53196.19999998808,54340.40000000596,55484.19999998808,57220,58316,59220,60947.90000000596,61763.90000000596,62724,65923.80000001192,66899.69999998808,69707.59999999404,105442.40000000596,107474.30000001192,110810.30000001192,111954.19999998808,113114.19999998808,115258.09999999404,116346,117954,120057.90000000596,120825.80000001192,121857.80000001192,123345.80000001192,125585.5,126665.59999999404,127729.59999999404,144289.09999999404,145625,146609,147825,148521,149752.90000000596,155728.69999998808,187143.69999998808,189543.69999998808,190279.5,191511.5,192263.19999998808,193015.5,199495.30000001192,201511.19999998808,202911.09999999404,204287,205839,237302.09999999404,238469.90000000596,239821.90000000596,240781.80000001192,242845.80000001192,243685.69999998808,245453.69999998808,248573.59999999404,252741.5,254453.40000000596,255381.40000000596,256709.30000001192,257597.19999998808,258877.19999998808,261813.19999998808,263197,264973.1999999881,266988.6999999881],"key_events":[],"mouse_events":[22045.30000001192,45189.5,46364.59999999404,46884.5,49180.30000001192,50252.30000001192,51100.19999998808,52564.19999998808,53196.19999998808,54340.40000000596,55484.19999998808,57220,58316,59220,60947.90000000596,61763.90000000596,62724,63907.80000001192,65923.80000001192,66899.69999998808,69707.59999999404,73627,96498.69999998808,105442.40000000596,107474.30000001192,110810.30000001192,111954.19999998808,113114.19999998808,115258.09999999404,116346,117954,120057.90000000596,120825.80000001192,121857.80000001192,123345.80000001192,124601.69999998808,125585.5,126665.59999999404,127729.59999999404,137513.19999998808,144289.09999999404,145625,146609,147825,148521,149752.90000000596,155728.69999998808,187143.69999998808,189543.69999998808,190279.5,191511.5,192263.19999998808,193015.5,199495.30000001192,201511.19999998808,202911.09999999404,204287,205839,218966.5,237302.09999999404,238469.90000000596,239821.90000000596,240781.80000001192,242845.80000001192,243685.69999998808,245453.69999998808,248573.59999999404,250909.40000000596,252741.5,254453.40000000596,255381.40000000596,256709.30000001192,257597.19999998808,258877.19999998808,261813.19999998808,263197,264973.1999999881,266988.6999999881,275365.8000000119],"honeypot":0,"survey":"mace","page":9,"trial_type":"survey-mace","trial_index":17,"time_elapsed":1854156,"internal_node_id":"0.0-17.0","task_version":"prescreen-v0.3","browser_interactions":2},{"responses":{"01":"No","02":"No","03":"No","04":"No","05":"No","06":"Yes","06_ages_17":"17","07":"Yes","07_ages_1":"1","07_ages_2":"2","07_ages_3":"3","07_ages_4":"4","07_ages_5":"5","07_ages_6":"6","07_ages_7":"7","07_ages_8":"8","07_ages_9":"9","07_ages_10":"10","07_ages_11":"11","07_ages_12":"12","07_ages_13":"13","07_ages_14":"14","07_ages_15":"15","07_ages_16":"16","07_ages_17":"17","07_ages_18":"18","08":"Yes","08_ages_1":"1","08_ages_2":"2","08_ages_3":"3","08_ages_4":"4","08_ages_5":"5","08_ages_6":"6","08_ages_7":"7","08_ages_8":"8","08_ages_9":"9","08_ages_10":"10","08_ages_11":"11","08_ages_12":"12","08_ages_13":"13","08_ages_14":"14","08_ages_15":"15","08_ages_16":"16","08_ages_17":"17","08_ages_18":"18"},"rt":150138.80000001192,"item_order":[0,1,2,3,4,5,6,7],"radio_events":[11273.699999988079,15649.5,37336.80000001192,43752.59999999404,50824.19999998808,57959.80000001192,82743,125989.5],"checkbox_events":[59632.09999999404,96102.59999999404,97038.5,98654.5,99870.40000000596,101446.40000000596,102262.30000001192,104206.19999998808,106254.09999999404,107630.09999999404,108942.09999999404,109838.19999998808,111038.09999999404,113542,114989.90000000596,116069.80000001192,116853.80000001192,118613.69999998808,119405.69999998808,131357.40000000596,132141.30000001192,133181.19999998808,134213.09999999404,135069.19999998808,137125,137701.09999999404,138597.09999999404,139429.09999999404,140541,141285,142749,143628.90000000596,145052.80000001192,145804.80000001192,146564.80000001192,148260.59999999404,149244.59999999404],"key_events":[],"mouse_events":[11273.699999988079,15649.5,23864.5,37336.80000001192,43752.59999999404,49624.19999998808,50824.19999998808,57959.80000001192,59632.09999999404,72222.90000000596,82743,96102.59999999404,97038.5,97958.69999998808,98654.5,99870.40000000596,101446.40000000596,102262.30000001192,104206.19999998808,106254.09999999404,107630.09999999404,108942.09999999404,109838.19999998808,111038.09999999404,111750.19999998808,113542,114989.90000000596,116069.80000001192,116853.80000001192,118613.69999998808,119405.69999998808,125989.5,131357.40000000596,132141.30000001192,133181.19999998808,134213.09999999404,135069.19999998808,137125,137701.09999999404,138597.09999999404,139429.09999999404,140541,141285,142749,143628.90000000596,145052.80000001192,145804.80000001192,146564.80000001192,148260.59999999404,149244.59999999404,150125.40000000596],"honeypot":0,"survey":"mace","page":10,"trial_type":"survey-mace","trial_index":18,"time_elapsed":2004313,"internal_node_id":"0.0-18.0","task_version":"prescreen-v0.3","browser_interactions":4,"instructed":0},{"rt":21540.30000001192,"trial_type":"mental-health-alert","trial_index":19,"time_elapsed":2025861,"internal_node_id":"0.0-19.0","task_version":"prescreen-v0.3","interactions":"[{\"event\":\"blur\",\"trial\":3,\"time\":631187},{\"event\":\"focus\",\"trial\":3,\"time\":636090},{\"event\":\"blur\",\"trial\":3,\"time\":645757},{\"event\":\"focus\",\"trial\":3,\"time\":658557},{\"event\":\"blur\",\"trial\":3,\"time\":676276},{\"event\":\"focus\",\"trial\":3,\"time\":682046},{\"event\":\"blur\",\"trial\":10,\"time\":1294116},{\"event\":\"focus\",\"trial\":10,\"time\":1301229},{\"event\":\"blur\",\"trial\":16,\"time\":1561269},{\"event\":\"focus\",\"trial\":16,\"time\":1568566},{\"event\":\"blur\",\"trial\":17,\"time\":1655956},{\"event\":\"focus\",\"trial\":17,\"time\":1664428},{\"event\":\"blur\",\"trial\":18,\"time\":1880776},{\"event\":\"focus\",\"trial\":18,\"time\":1889364},{\"event\":\"blur\",\"trial\":18,\"time\":1928974},{\"event\":\"focus\",\"trial\":18,\"time\":1934281}]"}]