[{"view_history":[{"page_index":0,"viewing_time":2705},{"page_index":1,"viewing_time":2433.699999988079},{"page_index":2,"viewing_time":5128.300000011921},{"page_index":3,"viewing_time":1412.3999999761581}],"rt":11680.09999999404,"trial_type":"instructions","trial_index":0,"time_elapsed":11702,"internal_node_id":"0.0-0.0","task_version":"prescreen-v0.3"},{"rt":15219.90000000596,"responses":{"age":"42","gender-categorical":"Male","gender-free-response":"","ethnicity":"Not Hispanic or Latino","race":["White"],"education":"Some college","siblings":"1"},"trial_type":"survey-demo","trial_index":1,"time_elapsed":26926,"internal_node_id":"0.0-1.0","task_version":"prescreen-v0.3"},{"responses":{"Q20":"1","Q19":"1","Q21":"3","Q16":"1","Q04":"2","Q09":"3","Q06":"1","Q14":"0","Q05":"2","Q08":"3","Q01":"3","Q15":"2","Q10":"3","Q13":"1","Q11":"2","Q12":"1","Q18":"1","Q02":"2","Q03":"2","Q17":"2","Q07":"2"},"rt":94168.90000000596,"item_order":[19,18,20,15,3,8,5,13,4,7,0,14,9,12,10,11,17,1,2,16,6],"radio_events":[6194.9000000059605,10279.40000000596,13343.800000011921,17501.30000001192,24099.20000001788,28148.30000001192,34406.60000002384,37940.60000002384,48095.5,51405.80000001192,56186,61588.5,63435.80000001192,65774.70000001788,68425.5,74291.10000002384,76905.80000001192,80571,82968.10000002384,85634.10000002384,93267.40000000596],"key_events":[],"mouse_events":[6194.9000000059605,10279.40000000596,13343.800000011921,17501.30000001192,24099.20000001788,28148.30000001192,34406.60000002384,37940.60000002384,48095.5,51405.80000001192,53737.90000000596,55373.90000000596,56186,60742,61588.5,63435.80000001192,65774.70000001788,68425.5,74291.10000002384,76905.80000001192,80571,82968.10000002384,85634.10000002384,91710.70000001788,93267.40000000596,94166.40000000596],"straightlining":0.38095238095238093,"zigzagging":0.45,"honeypot":0,"survey":"sns","trial_type":"survey-template","trial_index":2,"time_elapsed":121100,"internal_node_id":"0.0-2.0","task_version":"prescreen-v0.3","browser_interactions":0,"infrequency":0},{"responses":{"Q04":"3","Q13":"0","Q03":"3","Q12":"1","Q11":"1","Q02":"2","Q09":"1","Q10":"1","Q05":"2","Q07":"3","Q06":"2","Q01":"3","Q08":"2"},"rt":44397.19999998808,"item_order":[3,12,2,11,10,1,8,9,4,6,5,0,7],"radio_events":[4983.299999982119,7228.0999999940395,12703.90000000596,15514.299999982119,18780.69999998808,21163.40000000596,24870.5,29296.59999999404,31895.79999998212,34452.59999999404,36907.79999998212,38558.90000000596,43439.90000000596],"key_events":[],"mouse_events":[3918.5,4983.299999982119,7228.0999999940395,12703.90000000596,15514.299999982119,18780.69999998808,21163.40000000596,24009.29999998212,24870.5,29296.59999999404,31895.79999998212,34452.59999999404,36907.79999998212,38558.90000000596,42339.29999998212,43439.90000000596,44395.5],"straightlining":0.3076923076923077,"zigzagging":0.75,"honeypot":0,"survey":"bisbas","trial_type":"survey-template","trial_index":3,"time_elapsed":165500,"internal_node_id":"0.0-3.0","task_version":"prescreen-v0.3","browser_interactions":0,"infrequency":0},{"responses":{"Q01":"3","Q02":"1","Q03":"2"},"rt":23142.40000000596,"radio_events":[12010.300000011921,15406.700000017881,17073,22134.80000001192],"key_events":[],"mouse_events":[12010.300000011921,15406.700000017881,17073,22134.80000001192,23141.80000001192],"survey":"map","page":1,"trial_type":"survey-map","trial_index":4,"time_elapsed":188646,"internal_node_id":"0.0-4.0","task_version":"prescreen-v0.3","browser_interactions":0},{"responses":{"Q04":"3","Q05":"2","Q06":"3"},"rt":13033,"radio_events":[7159,10621.700000017881,12177.5],"key_events":[],"mouse_events":[7159,9773.800000011921,10621.700000017881,12177.5,13032.40000000596],"survey":"map","page":2,"trial_type":"survey-map","trial_index":5,"time_elapsed":201681,"internal_node_id":"0.0-5.0","task_version":"prescreen-v0.3","browser_interactions":0},{"responses":{"Q07":"2","Q08":"2","Q09":"2"},"rt":14974.5,"radio_events":[6355.800000011921,10158.90000000596,14171.200000017881],"key_events":[],"mouse_events":[6355.800000011921,10158.90000000596,14171.200000017881,14973.90000000596],"survey":"map","page":3,"trial_type":"survey-map","trial_index":6,"time_elapsed":216657,"internal_node_id":"0.0-6.0","task_version":"prescreen-v0.3","browser_interactions":0},{"responses":{"Q10":"1","Q11":"3","Q12":"1","Q13":"4","Q16":"0","Q14":"2","Q15":"2"},"rt":30530.69999998808,"radio_events":[3061.9000000059605,8195.90000000596,12025.800000011921,19739.80000001192,24300.80000001192,27074.59999999404,29732.19999998808],"key_events":[],"mouse_events":[3061.9000000059605,8195.90000000596,12025.800000011921,19739.80000001192,24300.80000001192,27074.59999999404,29732.19999998808,30529.30000001192],"survey":"map","page":4,"trial_type":"survey-map","trial_index":7,"time_elapsed":247190,"internal_node_id":"0.0-7.0","task_version":"prescreen-v0.3","browser_interactions":0,"infrequency":0},{"view_history":[{"page_index":0,"viewing_time":2350.7999999821186},{"page_index":1,"viewing_time":3294.9000000059605}],"rt":5646.4000000059605,"trial_type":"instructions","trial_index":8,"time_elapsed":252838,"internal_node_id":"0.0-8.0","task_version":"prescreen-v0.3"},{"responses":{"01":"No","02":"No","03":"No","04":"No","05":"No","06":"No"},"rt":26700.100000023842,"item_order":[0,1,2,3,4,5],"radio_events":[15108.5,16412.20000001788,18656.90000000596,20300.90000000596,22183.70000001788,23610.40000000596],"checkbox_events":[],"key_events":[],"mouse_events":[0.20000001788139343,11321.100000023842,12334.5,15108.5,16412.20000001788,18656.90000000596,20300.90000000596,22183.70000001788,23610.40000000596,26696.90000000596],"honeypot":0,"survey":"mace","page":1,"trial_type":"survey-mace","trial_index":9,"time_elapsed":279544,"internal_node_id":"0.0-9.0","task_version":"prescreen-v0.3","browser_interactions":0},{"responses":{"01":"No","02":"No","03":"No","04":"No","05":"No","06":"No","07":"No","08":"No"},"rt":14444.5,"item_order":[0,1,2,3,4,5,6,7],"radio_events":[2678.9000000059605,4540.699999988079,5821.799999982119,7661.299999982119,9660.199999988079,11282.90000000596,12434.5,13440.5],"checkbox_events":[],"key_events":[],"mouse_events":[2678.9000000059605,4540.699999988079,5821.799999982119,7661.299999982119,9660.199999988079,11282.90000000596,12434.5,13440.5,14440.40000000596],"honeypot":0,"survey":"mace","page":2,"trial_type":"survey-mace","trial_index":10,"time_elapsed":293992,"internal_node_id":"0.0-10.0","task_version":"prescreen-v0.3","browser_interactions":0},{"responses":{"01":"No","02":"No","03":"No","04":"No"},"rt":9481.5,"item_order":[0,1,2,3],"radio_events":[4817,5873.199999988079,7495,8646.299999982119],"checkbox_events":[],"key_events":[],"mouse_events":[4817,5873.199999988079,6800.199999988079,7495,8646.299999982119,9479.5],"honeypot":0,"survey":"mace","page":3,"trial_type":"survey-mace","trial_index":11,"time_elapsed":303476,"internal_node_id":"0.0-11.0","task_version":"prescreen-v0.3","browser_interactions":0},{"responses":{"01":"No","02":"No"},"rt":7631,"item_order":[0,1],"radio_events":[5188.699999988079,6630.0999999940395],"checkbox_events":[],"key_events":[],"mouse_events":[5188.699999988079,6630.0999999940395,7629.9000000059605],"honeypot":0,"survey":"mace","page":4,"trial_type":"survey-mace","trial_index":12,"time_elapsed":311109,"internal_node_id":"0.0-12.0","task_version":"prescreen-v0.3","browser_interactions":0},{"responses":{"01":"No","02":"No","03":"No","04":"No","05":"No"},"rt":15540.09999999404,"item_order":[0,1,2,3,4],"radio_events":[6528.299999982119,9273,11894.40000000596,13226.90000000596,14574.199999988079],"checkbox_events":[],"key_events":[],"mouse_events":[6528.299999982119,9273,11894.40000000596,13226.90000000596,14574.199999988079,15537.699999988079],"honeypot":0,"survey":"mace","page":5,"trial_type":"survey-mace","trial_index":13,"time_elapsed":326652,"internal_node_id":"0.0-13.0","task_version":"prescreen-v0.3","browser_interactions":0},{"responses":{"01":"Yes","01_ages_11":"11","01_ages_12":"12","01_ages_13":"13","01_ages_14":"14","02":"Yes","02_ages_11":"11","02_ages_12":"12","02_ages_13":"13","02_ages_14":"14","03":"No","04":"No","05":"No"},"rt":31038.40000000596,"item_order":[0,1,2,3,4],"radio_events":[6752,18463.20000001788,24901.5,27450.70000001788,29580.70000001788],"checkbox_events":[12763.5,13351.09999999404,13929.5,15595.300000011921,19259.80000001192,19817.20000001788,21070.20000001788,21794.40000000596],"key_events":[],"mouse_events":[6752,12763.5,13351.09999999404,13929.5,14675.200000017881,15595.300000011921,18463.20000001788,19259.80000001192,19817.20000001788,20440.59999999404,21070.20000001788,21794.40000000596,24901.5,27450.70000001788,29580.70000001788,31035.90000000596],"honeypot":0,"survey":"mace","page":6,"trial_type":"survey-mace","trial_index":14,"time_elapsed":357692,"internal_node_id":"0.0-14.0","task_version":"prescreen-v0.3","browser_interactions":0},{"responses":{"01":"No","02":"No","03":"No","04":"No","05":"No","06":"No","07":"No"},"rt":13194,"item_order":[0,1,2,3,4,5,6],"radio_events":[2463.699999988079,4477.299999982119,6229.5999999940395,7453.5,10415.699999988079,11387.299999982119,12415.09999999404],"checkbox_events":[],"key_events":[],"mouse_events":[2463.699999988079,4477.299999982119,6229.5999999940395,7453.5,8830.199999988079,10415.699999988079,11387.299999982119,12415.09999999404,13190.40000000596],"honeypot":0,"survey":"mace","page":7,"trial_type":"survey-mace","trial_index":15,"time_elapsed":370890,"internal_node_id":"0.0-15.0","task_version":"prescreen-v0.3","browser_interactions":0},{"responses":{"01":"No","02":"No","03":"No","04":"No"},"rt":12626.09999999404,"item_order":[0,1,2,3],"radio_events":[5931.299999982119,7170.199999988079,9371.899999976158,11732.899999976158],"checkbox_events":[],"key_events":[],"mouse_events":[5931.299999982119,7170.199999988079,9371.899999976158,11030.299999982119,11732.899999976158,12623.899999976158],"honeypot":0,"survey":"mace","page":8,"trial_type":"survey-mace","trial_index":16,"time_elapsed":383519,"internal_node_id":"0.0-16.0","task_version":"prescreen-v0.3","browser_interactions":0},{"responses":{"01":"Yes","01_ages_1":"1","01_ages_2":"2","01_ages_3":"3","01_ages_4":"4","01_ages_5":"5","01_ages_6":"6","01_ages_7":"7","01_ages_8":"8","01_ages_9":"9","01_ages_10":"10","01_ages_11":"11","01_ages_12":"12","01_ages_13":"13","01_ages_14":"14","01_ages_15":"15","01_ages_16":"16","01_ages_17":"17","01_ages_18":"18","02":"Yes","02_ages_1":"1","02_ages_2":"2","02_ages_3":"3","02_ages_4":"4","02_ages_5":"5","02_ages_6":"6","02_ages_7":"7","02_ages_8":"8","02_ages_9":"9","02_ages_10":"10","02_ages_11":"11","02_ages_12":"12","02_ages_13":"13","02_ages_14":"14","02_ages_15":"15","02_ages_16":"16","02_ages_17":"17","02_ages_18":"18","03":"Yes","03_ages_1":"1","03_ages_2":"2","03_ages_3":"3","03_ages_4":"4","03_ages_5":"5","03_ages_6":"6","03_ages_7":"7","03_ages_8":"8","03_ages_9":"9","03_ages_10":"10","03_ages_11":"11","03_ages_12":"12","03_ages_13":"13","03_ages_14":"14","03_ages_15":"15","03_ages_16":"16","03_ages_17":"17","03_ages_18":"18","04":"Yes","04_ages_1":"1","04_ages_2":"2","04_ages_3":"3","04_ages_4":"4","04_ages_5":"5","04_ages_6":"6","04_ages_7":"7","04_ages_8":"8","04_ages_9":"9","04_ages_10":"10","04_ages_11":"11","04_ages_12":"12","04_ages_13":"13","04_ages_14":"14","04_ages_15":"15","04_ages_16":"16","04_ages_17":"17","04_ages_18":"18"},"rt":84121,"item_order":[0,1,2,3],"radio_events":[3690.4000000059605,23737,42379.80000001192,63375.70000001788],"checkbox_events":[7361.9000000059605,7912.800000011921,8947.700000017881,9476.300000011921,10064.09999999404,11388.5,13264.700000017881,14032.200000017881,14829.200000017881,15937.300000011921,16603.59999999404,17457.80000001192,18247.59999999404,18935.80000001192,19681.30000001192,20550.59999999404,21304,22260.40000000596,25366.40000000596,25946.30000001192,26518.20000001788,27206.09999999404,27770.80000001192,28357.20000001788,28930.90000000596,29917.09999999404,31297.70000001788,32037.5,32797.5,33506.70000001788,34166.59999999404,34999.09999999404,35788.40000000596,36860.59999999404,37664.5,38367.20000001788,39076.30000001192,39800.5,43473.20000001788,45971.30000001192,48564.90000000596,51868,52614.09999999404,53374.80000001192,53873.70000001788,54431.09999999404,55017.90000000596,55894.70000001788,56844.90000000596,58233.80000001192,58979.80000001192,59602.09999999404,60282.80000001192,61007.30000001192,61804,62550.40000000596,64440.5,69771.30000001192,70488.70000001788,71770.40000000596,72356.80000001192,73146.09999999404,73739.80000001192,74341.09999999404,76072.09999999404,77390.30000001192,78034.70000001788,78867.80000001192,79490.80000001192,80142.30000001192,80844.80000001192,81685.09999999404,82394.20000001788,83104.70000001788],"key_events":[29917.09999999404],"mouse_events":[3690.4000000059605,7361.9000000059605,7912.800000011921,8390.5,8947.700000017881,9476.300000011921,10064.09999999404,10722.59999999404,11388.5,11939,12634.90000000596,13264.700000017881,14032.200000017881,14829.200000017881,15937.300000011921,16603.59999999404,17457.80000001192,18247.59999999404,18935.80000001192,19681.30000001192,20550.59999999404,21304,22260.40000000596,23737,25366.40000000596,25946.30000001192,26518.20000001788,27206.09999999404,27770.80000001192,28357.20000001788,28930.90000000596,31297.70000001788,32037.5,32797.5,33506.70000001788,34166.59999999404,34999.09999999404,35788.40000000596,36860.59999999404,37664.5,38367.20000001788,39076.30000001192,39800.5,42379.80000001192,43473.20000001788,43958.40000000596,45181.90000000596,45971.30000001192,46595.30000001192,47442.20000001788,48564.90000000596,49549.59999999404,51868,52614.09999999404,53374.80000001192,53873.70000001788,54431.09999999404,55017.90000000596,55894.70000001788,56844.90000000596,57524.09999999404,58233.80000001192,58979.80000001192,59602.09999999404,60282.80000001192,61007.30000001192,61804,62550.40000000596,63375.70000001788,64440.5,69771.30000001192,70488.70000001788,71039.20000001788,71770.40000000596,72356.80000001192,73146.09999999404,73739.80000001192,74341.09999999404,75152.70000001788,76072.09999999404,77390.30000001192,78034.70000001788,78867.80000001192,79490.80000001192,80142.30000001192,80844.80000001192,81685.09999999404,82394.20000001788,83104.70000001788,84119],"honeypot":0,"survey":"mace","page":9,"trial_type":"survey-mace","trial_index":17,"time_elapsed":467643,"internal_node_id":"0.0-17.0","task_version":"prescreen-v0.3","browser_interactions":0},{"responses":{"01":"No","02":"No","03":"No","04":"No","05":"No","06":"Yes","06_ages_17":"17","07":"Yes","07_ages_1":"1","07_ages_2":"2","07_ages_3":"3","07_ages_4":"4","07_ages_5":"5","07_ages_6":"6","07_ages_7":"7","07_ages_8":"8","07_ages_9":"9","07_ages_10":"10","07_ages_11":"11","07_ages_12":"12","07_ages_13":"13","07_ages_14":"14","07_ages_15":"15","07_ages_16":"16","07_ages_17":"17","07_ages_18":"18","08":"Yes","08_ages_1":"1","08_ages_2":"2","08_ages_3":"3","08_ages_4":"4","08_ages_5":"5","08_ages_6":"6","08_ages_7":"7","08_ages_8":"8","08_ages_9":"9","08_ages_10":"10","08_ages_11":"11","08_ages_12":"12","08_ages_13":"13","08_ages_14":"14","08_ages_15":"15","08_ages_16":"16","08_ages_17":"17","08_ages_18":"18"},"rt":55850.40000000596,"item_order":[0,1,2,3,4,5,6,7],"radio_events":[3463.2000000178814,4397.9000000059605,6244.9000000059605,9178.40000000596,10946.09999999404,13154.200000017881,16812.09999999404,22904.59999999404],"checkbox_events":[14648.800000011921,18630.5,20223.59999999404,24801.80000001192,25424.5,26033.40000000596,26641.70000001788,27365.40000000596,27960.70000001788,28604.5,29437,30111.59999999404,30783.90000000596,31638.59999999404,32269.59999999404,33116.70000001788,34087,34897.90000000596,35622.20000001788,36766.5,37838.70000001788,42576.40000000596,43156,43807.40000000596,44408.90000000596,45314.09999999404,46031.5,46777.90000000596,48262.5,48943.20000001788,49660.40000000596,50319.30000001192,51000.30000001192,51695.59999999404,53579.30000001192,54289.20000001788,55013.40000000596],"key_events":[],"mouse_events":[2137.7000000178814,3463.2000000178814,4397.9000000059605,6244.9000000059605,9178.40000000596,10946.09999999404,13154.200000017881,14648.800000011921,16812.09999999404,18630.5,19268,20223.59999999404,20999.5,21868.20000001788,22904.59999999404,24801.80000001192,25424.5,26033.40000000596,26641.70000001788,27365.40000000596,27960.70000001788,28604.5,29437,30111.59999999404,30783.90000000596,31638.59999999404,32269.59999999404,33116.70000001788,34087,34897.90000000596,35622.20000001788,36766.5,37838.70000001788,42576.40000000596,43156,43807.40000000596,44408.90000000596,45314.09999999404,46031.5,46777.90000000596,48262.5,48943.20000001788,49660.40000000596,50319.30000001192,51000.30000001192,51695.59999999404,53579.30000001192,54289.20000001788,55013.40000000596,55846.20000001788],"honeypot":0,"survey":"mace","page":10,"trial_type":"survey-mace","trial_index":18,"time_elapsed":523498,"internal_node_id":"0.0-18.0","task_version":"prescreen-v0.3","browser_interactions":0,"instructed":0},{"rt":16352.40000000596,"trial_type":"mental-health-alert","trial_index":19,"time_elapsed":539852,"internal_node_id":"0.0-19.0","task_version":"prescreen-v0.3","interactions":"[]"}]