[{"view_history":[{"page_index":0,"viewing_time":2624.9000000059605},{"page_index":1,"viewing_time":11328.09999999404},{"page_index":2,"viewing_time":5567.4000000059605},{"page_index":3,"viewing_time":1258}],"rt":20779.40000000596,"trial_type":"instructions","trial_index":0,"time_elapsed":20818,"internal_node_id":"0.0-0.0","task_version":"prescreen-v0.3"},{"rt":12395.40000000596,"responses":{"age":"24","gender-categorical":"Female","gender-free-response":"","ethnicity":"Not Hispanic or Latino","race":["White"],"education":"Bachelor degree"},"trial_type":"survey-demo","trial_index":1,"time_elapsed":33222,"internal_node_id":"0.0-1.0","task_version":"prescreen-v0.3"},{"responses":{"Q17":"0","Q09":"0","Q04":"0","Q02":"0","Q18":"0","Q05":"0","Q15":"0","Q07":"0","Q11":"0","Q14":"0","Q19":"0","Q20":"0","Q06":"0","Q03":"0","Q13":"0","Q12":"0","Q08":"1","Q10":"0","Q21":"0","Q16":"0","Q01":"0"},"rt":50612.19999998808,"item_order":[16,8,3,1,17,4,14,6,10,13,18,19,5,2,12,11,7,9,20,15,0],"radio_events":[4852.399999976158,7815.799999982119,12539.699999988079,13276.5,15115.09999999404,17593.19999998808,21981.69999998808,26945.899999976158,28341.79999998212,30846.899999976158,31556.19999998808,33154.69999998808,35497.59999999404,36330.59999999404,38944.09999999404,40124.59999999404,43601,45263.79999998212,46737.5,48974.29999998212,49846],"key_events":[],"mouse_events":[4852.399999976158,7815.799999982119,9916.09999999404,12539.699999988079,13276.5,15115.09999999404,17593.19999998808,21981.69999998808,26945.899999976158,28341.79999998212,29727.399999976158,30846.899999976158,31556.19999998808,33154.69999998808,35497.59999999404,36330.59999999404,38944.09999999404,40124.59999999404,43601,45263.79999998212,46737.5,48974.29999998212,49846,50610.29999998212],"straightlining":0.9523809523809523,"zigzagging":0.1,"honeypot":0,"survey":"sns","trial_type":"survey-template","trial_index":2,"time_elapsed":83843,"internal_node_id":"0.0-2.0","task_version":"prescreen-v0.3","browser_interactions":0,"infrequency":1},{"responses":{"Q06":"3","Q13":"0","Q04":"3","Q08":"3","Q01":"3","Q07":"3","Q10":"2","Q03":"3","Q05":"3","Q11":"2","Q12":"2","Q02":"2","Q09":"3"},"rt":58787.30000001192,"item_order":[5,12,3,7,0,6,9,2,4,10,11,1,8],"radio_events":[18749.40000000596,21092.100000023842,31917.20000001788,33941.10000002384,35365.20000001788,36391.20000001788,40176.80000001192,42955.5,45066.5,49180.80000001192,52114.60000002384,54836.30000001192,58408.40000000596],"key_events":[],"mouse_events":[18749.40000000596,21092.100000023842,31917.20000001788,33941.10000002384,35365.20000001788,36391.20000001788,40176.80000001192,42955.5,45066.5,49180.80000001192,52114.60000002384,54836.30000001192,58408.40000000596,58786.10000002384],"straightlining":0.6153846153846154,"zigzagging":0.5,"honeypot":0,"survey":"bisbas","trial_type":"survey-template","trial_index":3,"time_elapsed":142630,"internal_node_id":"0.0-3.0","task_version":"prescreen-v0.3","browser_interactions":0,"infrequency":0},{"responses":{"Q01":"4","Q02":"4","Q03":"4"},"rt":30671.90000000596,"radio_events":[26072.59999999404,28018.59999999404,30312.5],"key_events":[],"mouse_events":[26072.59999999404,28018.59999999404,30312.5,30671.29999998212],"survey":"map","page":1,"trial_type":"survey-map","trial_index":4,"time_elapsed":173305,"internal_node_id":"0.0-4.0","task_version":"prescreen-v0.3","browser_interactions":0},{"responses":{"Q04":"4","Q05":"4","Q06":"4"},"rt":8296.800000011921,"radio_events":[3938.5999999940395,7036.9000000059605,7713.800000011921],"key_events":[],"mouse_events":[3938.5999999940395,5914.200000017881,7036.9000000059605,7713.800000011921,8296.200000017881],"survey":"map","page":2,"trial_type":"survey-map","trial_index":5,"time_elapsed":181603,"internal_node_id":"0.0-5.0","task_version":"prescreen-v0.3","browser_interactions":0},{"responses":{"Q07":"4","Q08":"0","Q09":"4"},"rt":18019.40000000596,"radio_events":[3017.800000011921,8140.200000017881,17291],"key_events":[],"mouse_events":[3.9000000059604645,3017.800000011921,8140.200000017881,17291,18018.5],"survey":"map","page":3,"trial_type":"survey-map","trial_index":6,"time_elapsed":199625,"internal_node_id":"0.0-6.0","task_version":"prescreen-v0.3","browser_interactions":0},{"responses":{"Q10":"4","Q11":"4","Q12":"4","Q13":"3","Q16":"0","Q14":"4","Q15":"4"},"rt":28648.899999976158,"radio_events":[5010.299999982119,7403,9717.699999988079,19070.09999999404,23021.5,26217.5,28114.5],"key_events":[],"mouse_events":[5010.299999982119,7403,9717.699999988079,19070.09999999404,23021.5,26217.5,28114.5,28647.899999976158],"survey":"map","page":4,"trial_type":"survey-map","trial_index":7,"time_elapsed":228278,"internal_node_id":"0.0-7.0","task_version":"prescreen-v0.3","browser_interactions":0,"infrequency":0},{"view_history":[{"page_index":0,"viewing_time":2155.9000000059605},{"page_index":1,"viewing_time":14070.699999988079}],"rt":16227.40000000596,"trial_type":"instructions","trial_index":8,"time_elapsed":244509,"internal_node_id":"0.0-8.0","task_version":"prescreen-v0.3"},{"responses":{"01":"No","02":"Yes","02_ages_12":"12","02_ages_15":"15","02_ages_18":"18","03":"No","04":"No","05":"No","06":"No"},"rt":34966.80000001192,"item_order":[0,1,2,3,4,5],"radio_events":[5399.800000011921,9456.100000023842,27509.100000023842,29039,31837.90000000596,34441.20000001788],"checkbox_events":[22086.600000023842,22802.100000023842,23790],"key_events":[],"mouse_events":[0.10000002384185791,5399.800000011921,9456.100000023842,22086.600000023842,22802.100000023842,23790,27509.100000023842,29039,31837.90000000596,34441.20000001788,34964.40000000596],"honeypot":0,"survey":"mace","page":1,"trial_type":"survey-mace","trial_index":9,"time_elapsed":279491,"internal_node_id":"0.0-9.0","task_version":"prescreen-v0.3","browser_interactions":0},{"responses":{"01":"No","02":"No","03":"Yes","03_ages_2":"2","03_ages_3":"3","03_ages_4":"4","03_ages_7":"7","04":"No","05":"No","06":"No","07":"No","08":"No"},"rt":19976.20000001788,"item_order":[0,1,2,3,4,5,6,7],"radio_events":[2328.4000000059605,4788.5,7799.5,15150.90000000596,16011.90000000596,17202.59999999404,18219.30000001192,19169],"checkbox_events":[9513.300000011921,9862.200000017881,10221.59999999404,11741.800000011921],"key_events":[],"mouse_events":[2328.4000000059605,4788.5,7054.800000011921,7799.5,9513.300000011921,9862.200000017881,10221.59999999404,11741.800000011921,13988.59999999404,15150.90000000596,16011.90000000596,17202.59999999404,18219.30000001192,19169,19546.30000001192,19973.09999999404],"honeypot":0,"survey":"mace","page":2,"trial_type":"survey-mace","trial_index":10,"time_elapsed":299471,"internal_node_id":"0.0-10.0","task_version":"prescreen-v0.3","browser_interactions":0},{"responses":{"01":"No","02":"No","03":"No","04":"No"},"rt":10125.799999982119,"item_order":[0,1,2,3],"radio_events":[3603,6557.799999982119,8107.9000000059605,9242.699999988079,9250.799999982119],"checkbox_events":[],"key_events":[],"mouse_events":[3603,6557.799999982119,8107.9000000059605,9242.699999988079,9250.799999982119,9619.90000000596,10124.199999988079],"honeypot":0,"survey":"mace","page":3,"trial_type":"survey-mace","trial_index":11,"time_elapsed":309601,"internal_node_id":"0.0-11.0","task_version":"prescreen-v0.3","browser_interactions":0},{"responses":{"01":"No","02":"No"},"rt":4421.199999988079,"item_order":[0,1],"radio_events":[2172.5999999940395,3452],"checkbox_events":[],"key_events":[],"mouse_events":[2172.5999999940395,3452,4420.199999988079],"honeypot":0,"survey":"mace","page":4,"trial_type":"survey-mace","trial_index":12,"time_elapsed":314024,"internal_node_id":"0.0-12.0","task_version":"prescreen-v0.3","browser_interactions":0},{"responses":{"01":"Yes","01_ages_6":"6","01_ages_8":"8","01_ages_11":"11","01_ages_14":"14","01_ages_16":"16","01_ages_18":"18","02":"No","03":"No","04":"No","05":"No"},"rt":45310,"item_order":[0,1,2,3,4],"radio_events":[2727.7999999821186,13700.09999999404,19037,43689.59999999404,44785],"checkbox_events":[4742.9000000059605,5343.699999988079,7347.4000000059605,8625.799999982119,9322.59999999404,10097.299999982119],"key_events":[],"mouse_events":[2727.7999999821186,4742.9000000059605,5013.199999988079,5343.699999988079,7347.4000000059605,8025.199999988079,8625.799999982119,9322.59999999404,10097.299999982119,13700.09999999404,19037,43689.59999999404,44785,45308.09999999404],"honeypot":0,"survey":"mace","page":5,"trial_type":"survey-mace","trial_index":13,"time_elapsed":359338,"internal_node_id":"0.0-13.0","task_version":"prescreen-v0.3","browser_interactions":0},{"responses":{"01":"No","02":"No","03":"No","04":"No","05":"No"},"rt":14872.800000011921,"item_order":[0,1,2,3,4],"radio_events":[6473.199999988079,8120,9204.199999988079,11267.699999988079,13680.699999988079,13690],"checkbox_events":[],"key_events":[],"mouse_events":[5155.699999988079,6473.199999988079,7044.199999988079,8120,9204.199999988079,10492.800000011921,11267.699999988079,11635.90000000596,13680.699999988079,13690,14870.800000011921],"honeypot":0,"survey":"mace","page":6,"trial_type":"survey-mace","trial_index":14,"time_elapsed":374212,"internal_node_id":"0.0-14.0","task_version":"prescreen-v0.3","browser_interactions":0},{"responses":{"01":"No","02":"No","03":"No","04":"No","05":"No","06":"No","07":"No"},"rt":9441.199999988079,"item_order":[0,1,2,3,4,5,6],"radio_events":[2560.4000000059605,3634.7999999821186,4875.299999982119,6047,6987,7654.5999999940395,9098.299999982119],"checkbox_events":[],"key_events":[],"mouse_events":[2560.4000000059605,3634.7999999821186,4875.299999982119,6047,6987,7654.5999999940395,9098.299999982119,9437.90000000596],"honeypot":0,"survey":"mace","page":7,"trial_type":"survey-mace","trial_index":15,"time_elapsed":383657,"internal_node_id":"0.0-15.0","task_version":"prescreen-v0.3","browser_interactions":0},{"responses":{"01":"No","02":"No","03":"No","04":"No"},"rt":9496.09999999404,"item_order":[0,1,2,3],"radio_events":[3789.5,5009.0999999940395,6713.200000017881,8602.40000000596],"checkbox_events":[],"key_events":[],"mouse_events":[3789.5,5009.0999999940395,6713.200000017881,8602.40000000596,9494.300000011921],"honeypot":0,"survey":"mace","page":8,"trial_type":"survey-mace","trial_index":16,"time_elapsed":393157,"internal_node_id":"0.0-16.0","task_version":"prescreen-v0.3","browser_interactions":0},{"responses":{"01":"Yes","01_ages_1":"1","01_ages_2":"2","01_ages_3":"3","01_ages_4":"4","01_ages_5":"5","01_ages_6":"6","01_ages_7":"7","01_ages_8":"8","01_ages_9":"9","01_ages_10":"10","01_ages_11":"11","01_ages_12":"12","01_ages_13":"13","01_ages_14":"14","01_ages_15":"15","01_ages_16":"16","01_ages_17":"17","01_ages_18":"18","02":"Yes","02_ages_1":"1","02_ages_2":"2","02_ages_3":"3","02_ages_4":"4","02_ages_5":"5","02_ages_6":"6","02_ages_7":"7","02_ages_8":"8","02_ages_9":"9","02_ages_10":"10","02_ages_11":"11","02_ages_12":"12","02_ages_13":"13","02_ages_14":"14","02_ages_15":"15","02_ages_16":"16","02_ages_17":"17","02_ages_18":"18","03":"Yes","03_ages_1":"1","03_ages_2":"2","03_ages_3":"3","03_ages_4":"4","03_ages_5":"5","03_ages_6":"6","03_ages_7":"7","03_ages_8":"8","03_ages_9":"9","03_ages_10":"10","03_ages_11":"11","03_ages_12":"12","03_ages_13":"13","03_ages_14":"14","03_ages_15":"15","03_ages_16":"16","03_ages_17":"17","03_ages_18":"18","04":"Yes","04_ages_12":"12"},"rt":47912,"item_order":[0,1,2,3],"radio_events":[2269.9000000059605,15838.90000000596,31026.30000001192,44974.30000001192],"checkbox_events":[6406.4000000059605,6794.300000011921,7113,7878.699999988079,8159,8469.90000000596,8759.800000011921,9263.09999999404,9544.800000011921,10407.199999988079,10756.199999988079,11365.199999988079,11937.199999988079,12237.90000000596,12557.40000000596,13070.40000000596,13399.699999988079,14184.40000000596,16944.5,17380.69999998808,18407.5,18667.40000000596,19249.30000001192,19570.19999998808,20500.5,21612.40000000596,22030.30000001192,22998,23327.90000000596,23878.30000001192,25004.40000000596,25477.30000001192,27269.90000000596,27579.40000000596,27880,28682.59999999404,32218.90000000596,32684.19999998808,33807.40000000596,34339.09999999404,35066.30000001192,35589.40000000596,35996.59999999404,36355,36867.80000001192,38204.40000000596,38486.40000000596,38999.59999999404,39319.80000001192,40287.80000001192,40636,41168.69999998808,41468.30000001192,41808.19999998808,47008.30000001192],"key_events":[],"mouse_events":[2269.9000000059605,6406.4000000059605,6794.300000011921,7113,7355.5999999940395,7878.699999988079,8159,8469.90000000596,8759.800000011921,9263.09999999404,9544.800000011921,9874.5,10407.199999988079,10756.199999988079,11036.40000000596,11365.199999988079,11937.199999988079,12237.90000000596,12557.40000000596,13070.40000000596,13399.699999988079,13748.09999999404,14184.40000000596,15838.90000000596,16944.5,17380.69999998808,17699.09999999404,18407.5,18667.40000000596,19249.30000001192,19570.19999998808,19821.09999999404,20500.5,20799.30000001192,21187.09999999404,21612.40000000596,22030.30000001192,22998,23327.90000000596,23878.30000001192,24218.40000000596,24672.90000000596,25004.40000000596,25477.30000001192,27269.90000000596,27579.40000000596,27880,28219.30000001192,28682.59999999404,31026.30000001192,32218.90000000596,32684.19999998808,33235.09999999404,33807.40000000596,34339.09999999404,34795.40000000596,35066.30000001192,35589.40000000596,35996.59999999404,36355,36867.80000001192,38204.40000000596,38486.40000000596,38999.59999999404,39319.80000001192,39666.40000000596,40287.80000001192,40636,41168.69999998808,41468.30000001192,41808.19999998808,44974.30000001192,47008.30000001192,47910.30000001192],"honeypot":0,"survey":"mace","page":9,"trial_type":"survey-mace","trial_index":17,"time_elapsed":441072,"internal_node_id":"0.0-17.0","task_version":"prescreen-v0.3","browser_interactions":0},{"responses":{"01":"No","02":"No","03":"No","04":"Yes","04_ages_5":"5","04_ages_6":"6","04_ages_9":"9","04_ages_13":"13","05":"No","06":"Yes","06_ages_17":"17","07":"Yes","07_ages_1":"1","07_ages_2":"2","07_ages_3":"3","07_ages_4":"4","07_ages_5":"5","07_ages_6":"6","07_ages_7":"7","07_ages_8":"8","07_ages_9":"9","07_ages_10":"10","07_ages_11":"11","07_ages_12":"12","07_ages_13":"13","07_ages_14":"14","07_ages_15":"15","07_ages_16":"16","07_ages_17":"17","07_ages_18":"18","08":"Yes","08_ages_1":"1","08_ages_2":"2","08_ages_3":"3","08_ages_4":"4","08_ages_5":"5","08_ages_6":"6","08_ages_7":"7","08_ages_8":"8","08_ages_9":"9","08_ages_10":"10","08_ages_11":"11","08_ages_12":"12","08_ages_13":"13","08_ages_14":"14","08_ages_15":"15","08_ages_16":"16","08_ages_17":"17","08_ages_18":"18"},"rt":61293.59999999404,"item_order":[0,1,2,3,4,5,6,7],"radio_events":[3722.0999999940395,4837.5,6233,9380.09999999404,15143.200000017881,18416.59999999404,34922.59999999404,49453.20000001788],"checkbox_events":[10445.200000017881,11986,12566.90000000596,13487.40000000596,20073.80000001192,36985.30000001192,37287.20000001788,38273.20000001788,38603.5,39872.90000000596,40704.90000000596,41480,41819.80000001192,42380.80000001192,42884.70000001788,43640,44114.90000000596,44852.09999999404,45199.59999999404,45733.09999999404,46266.5,46634.30000001192,47380.30000001192,50518.80000001192,50973.59999999404,51456.70000001788,53673.80000001192,54023.40000000596,54448.80000001192,54940.30000001192,55257.20000001788,55548.09999999404,55981.5,56331.5,56614.70000001788,56915.59999999404,57222.70000001788,57520.59999999404,57832,58096.70000001788,58288.90000000596],"key_events":[],"mouse_events":[3722.0999999940395,4837.5,6233,9080.59999999404,9380.09999999404,10445.200000017881,11986,12566.90000000596,13487.40000000596,15143.200000017881,18416.59999999404,20073.80000001192,34922.59999999404,36985.30000001192,37287.20000001788,37701.90000000596,38273.20000001788,38603.5,38912.30000001192,39349.70000001788,39872.90000000596,40182.30000001192,40704.90000000596,41063.70000001788,41480,41819.80000001192,42380.80000001192,42884.70000001788,43204.59999999404,43640,44114.90000000596,44445,44852.09999999404,45199.59999999404,45733.09999999404,46266.5,46634.30000001192,47050.40000000596,47380.30000001192,49453.20000001788,50518.80000001192,50973.59999999404,51456.70000001788,53673.80000001192,54023.40000000596,54448.80000001192,54940.30000001192,55257.20000001788,55548.09999999404,55981.5,56331.5,56614.70000001788,56915.59999999404,57222.70000001788,57520.59999999404,57832,58096.70000001788,58288.90000000596,61290],"honeypot":0,"survey":"mace","page":10,"trial_type":"survey-mace","trial_index":18,"time_elapsed":502366,"internal_node_id":"0.0-18.0","task_version":"prescreen-v0.3","browser_interactions":0,"instructed":0},{"rt":2113,"trial_type":"mental-health-alert","trial_index":19,"time_elapsed":504480,"internal_node_id":"0.0-19.0","task_version":"prescreen-v0.3","interactions":"[]"}]