[{"view_history":[{"page_index":0,"viewing_time":2372.5},{"page_index":1,"viewing_time":5365.800000190735},{"page_index":2,"viewing_time":3630},{"page_index":3,"viewing_time":938}],"rt":12307.599999904633,"trial_type":"instructions","trial_index":0,"time_elapsed":12321,"internal_node_id":"0.0-0.0","task_version":"prescreen-v0.3"},{"rt":15508,"responses":{"age":"21","gender-categorical":"Female","gender-free-response":"","ethnicity":"Not Hispanic or Latino","race":["White"],"education":"Some college"},"trial_type":"survey-demo","trial_index":1,"time_elapsed":27836,"internal_node_id":"0.0-1.0","task_version":"prescreen-v0.3"},{"responses":{"Q09":"1","Q19":"1","Q18":"0","Q11":"1","Q20":"2","Q01":"3","Q08":"2","Q05":"2","Q13":"3","Q12":"2","Q15":"3","Q03":"2","Q16":"3","Q14":"3","Q04":"3","Q07":"1","Q10":"1","Q17":"2","Q06":"1","Q02":"2","Q21":"3"},"rt":131449.09999990463,"item_order":[8,18,17,10,19,0,7,4,12,11,14,2,15,13,3,6,9,16,5,1,20],"radio_events":[21069.599999904633,30081.300000190735,34153.09999990463,39613.09999990463,40997.2000002861,50588.7000002861,55862.5,62056.5,72574.5,74920.7000002861,81164.5,85104.5,88092.5,92974.59999990463,99062,103428.5,112252.7000002861,116152.5,118814.7000002861,123950.5,128504.5,130770.5],"key_events":[],"mouse_events":[21069.599999904633,30081.300000190735,34153.09999990463,39613.09999990463,40997.2000002861,50588.7000002861,55862.5,62056.5,72574.5,74920.7000002861,81164.5,85104.5,88092.5,92974.59999990463,99062,103428.5,112252.7000002861,116152.5,118814.7000002861,123950.5,128504.5,130770.5,131444.59999990463],"straightlining":0.3333333333333333,"zigzagging":0.7,"honeypot":0,"survey":"sns","trial_type":"survey-template","trial_index":2,"time_elapsed":159296,"internal_node_id":"0.0-2.0","task_version":"prescreen-v0.3","browser_interactions":0,"infrequency":0},{"responses":{"Q05":"2","Q07":"3","Q13":"0","Q08":"2","Q06":"2","Q12":"1","Q04":"3","Q09":"2","Q10":"2","Q03":"3","Q11":"2","Q01":"3","Q02":"3"},"rt":79053.59999990463,"item_order":[4,6,12,7,5,11,3,8,9,2,10,0,1],"radio_events":[7826.200000286102,10620.300000190735,13892.099999904633,39691.09999990463,45291.09999990463,50411,54993,60921.2000002861,64621.300000190735,67865.40000009537,75912.90000009537,77046.59999990463,78426.5],"key_events":[],"mouse_events":[7826.200000286102,10620.300000190735,13892.099999904633,39691.09999990463,45291.09999990463,50411,54993,60921.2000002861,64621.300000190735,67865.40000009537,75912.90000009537,77046.59999990463,78426.5,79051],"straightlining":0.46153846153846156,"zigzagging":0.5833333333333334,"honeypot":0,"survey":"bisbas","trial_type":"survey-template","trial_index":3,"time_elapsed":238356,"internal_node_id":"0.0-3.0","task_version":"prescreen-v0.3","browser_interactions":0,"infrequency":0},{"responses":{"Q01":"2","Q02":"2","Q03":"2"},"rt":25479.099999904633,"radio_events":[7208.800000190735,18583.599999904633,23791.800000190735],"key_events":[],"mouse_events":[7208.800000190735,18583.599999904633,22277.699999809265,23791.800000190735,24487.699999809265,25477.5],"survey":"map","page":1,"trial_type":"survey-map","trial_index":4,"time_elapsed":263840,"internal_node_id":"0.0-4.0","task_version":"prescreen-v0.3","browser_interactions":0},{"responses":{"Q04":"3","Q05":"3","Q06":"2"},"rt":31573.299999713898,"radio_events":[5502,12004.699999809265,18934.099999904633,25724.299999713898,30805.900000095367],"key_events":[],"mouse_events":[5502,12004.699999809265,18934.099999904633,25724.299999713898,30805.900000095367,31571.900000095367],"survey":"map","page":2,"trial_type":"survey-map","trial_index":5,"time_elapsed":295417,"internal_node_id":"0.0-5.0","task_version":"prescreen-v0.3","browser_interactions":0},{"responses":{"Q07":"1","Q08":"0","Q09":"2"},"rt":19453.10000038147,"radio_events":[10231.60000038147,12853.5,15815.60000038147,18705.60000038147],"key_events":[],"mouse_events":[10231.60000038147,12853.5,15815.60000038147,18705.60000038147,19451.60000038147],"survey":"map","page":3,"trial_type":"survey-map","trial_index":6,"time_elapsed":314873,"internal_node_id":"0.0-6.0","task_version":"prescreen-v0.3","browser_interactions":0},{"responses":{"Q10":"0","Q11":"1","Q12":"1","Q13":"2","Q16":"0","Q14":"2","Q15":"2"},"rt":48948.5,"radio_events":[5974.099999904633,10157.799999713898,15113.900000095367,21599.5,24925.900000095367,43849.699999809265,47967.90000009537],"key_events":[],"mouse_events":[5974.099999904633,10157.799999713898,15113.900000095367,21599.5,24925.900000095367,43849.699999809265,47967.90000009537,48946],"survey":"map","page":4,"trial_type":"survey-map","trial_index":7,"time_elapsed":363826,"internal_node_id":"0.0-7.0","task_version":"prescreen-v0.3","browser_interactions":0,"infrequency":0},{"view_history":[{"page_index":0,"viewing_time":2901},{"page_index":1,"viewing_time":4322.099999904633}],"rt":7224.199999809265,"trial_type":"instructions","trial_index":8,"time_elapsed":371052,"internal_node_id":"0.0-8.0","task_version":"prescreen-v0.3"},{"responses":{"01":"Yes","01_ages_8":"8","01_ages_9":"9","01_ages_10":"10","01_ages_11":"11","01_ages_12":"12","01_ages_13":"13","01_ages_14":"14","01_ages_15":"15","01_ages_16":"16","02":"Yes","02_ages_5":"5","02_ages_6":"6","02_ages_7":"7","02_ages_8":"8","02_ages_9":"9","02_ages_10":"10","02_ages_11":"11","02_ages_12":"12","02_ages_13":"13","02_ages_14":"14","02_ages_15":"15","02_ages_16":"16","02_ages_17":"17","02_ages_18":"18","03":"No","04":"No","05":"No","06":"No"},"rt":51688.09999990463,"item_order":[0,1,2,3,4,5],"radio_events":[12099.799999713898,30525.599999904633,43771.59999990463,46125.59999990463,48102.199999809265,50033.699999809265],"checkbox_events":[19260.099999904633,19813.699999809265,20383.39999961853,20919.5,21705.599999904633,23149.699999809265,23793.39999961853,24475.599999904633,27265.599999904633,32255.39999961853,32903.699999809265,33391.7999997139,34411.59999990463,34963.7999997139,35965.59999990463,36503.699999809265,37421.59999990463,38023.89999961853,38543.59999990463,39065.2999997139,39545.5,40311.59999990463,40937.5],"key_events":[],"mouse_events":[0.19999980926513672,12099.799999713898,19260.099999904633,19813.699999809265,20383.39999961853,20919.5,21705.599999904633,23149.699999809265,23793.39999961853,24475.599999904633,27265.599999904633,30525.599999904633,32255.39999961853,32903.699999809265,33391.7999997139,33873.59999990463,34411.59999990463,34963.7999997139,35565.699999809265,35965.59999990463,36503.699999809265,37421.59999990463,38023.89999961853,38543.59999990463,39065.2999997139,39545.5,40311.59999990463,40937.5,43771.59999990463,46125.59999990463,48102.199999809265,50033.699999809265,51681.7999997139],"honeypot":0,"survey":"mace","page":1,"trial_type":"survey-mace","trial_index":9,"time_elapsed":422749,"internal_node_id":"0.0-9.0","task_version":"prescreen-v0.3","browser_interactions":0},{"responses":{"01":"No","02":"No","03":"Yes","03_ages_4":"4","03_ages_5":"5","03_ages_6":"6","03_ages_7":"7","04":"Yes","04_ages_4":"4","05":"Yes","05_ages_4":"4","06":"Yes","06_ages_12":"12","06_ages_13":"13","06_ages_14":"14","06_ages_15":"15","06_ages_16":"16","06_ages_17":"17","06_ages_18":"18","07":"Yes","07_ages_15":"15","07_ages_16":"16","08":"No"},"rt":58404.5,"item_order":[0,1,2,3,4,5,6,7],"radio_events":[3184.0999999046326,7184,8698,19330.099999904633,23662.299999713898,27716.099999904633,41729.89999961853,57597.7999997139],"checkbox_events":[10836.199999809265,11428,12122.299999713898,13115.799999713898,20420.199999809265,24647.89999961853,34461.89999961853,34944,35432.199999809265,36378.09999990463,37036.199999809265,37725.89999961853,38815.89999961853,49044.199999809265,50305.89999961853],"key_events":[],"mouse_events":[3184.0999999046326,7184,8698,10836.199999809265,11428,12122.299999713898,13115.799999713898,19330.099999904633,20420.199999809265,23662.299999713898,24647.89999961853,27716.099999904633,34461.89999961853,34944,35432.199999809265,35938.2999997139,36378.09999990463,37036.199999809265,37725.89999961853,38246,38815.89999961853,41729.89999961853,49044.199999809265,50305.89999961853,57597.7999997139,58396.2999997139],"honeypot":0,"survey":"mace","page":2,"trial_type":"survey-mace","trial_index":10,"time_elapsed":481160,"internal_node_id":"0.0-10.0","task_version":"prescreen-v0.3","browser_interactions":0},{"responses":{"01":"No","02":"No","03":"No","04":"No"},"rt":41343.699999809265,"item_order":[0,1,2,3],"radio_events":[6525.099999904633,11873,25650.699999809265,32026.699999809265,40444.89999961853],"checkbox_events":[],"key_events":[],"mouse_events":[4904.599999904633,6525.099999904633,11873,25650.699999809265,32026.699999809265,40444.89999961853,41338.7999997139],"honeypot":0,"survey":"mace","page":3,"trial_type":"survey-mace","trial_index":11,"time_elapsed":522510,"internal_node_id":"0.0-11.0","task_version":"prescreen-v0.3","browser_interactions":0},{"responses":{"01":"No","02":"No"},"rt":16790.099999904633,"item_order":[0,1],"radio_events":[15218.900000095367,15961.199999809265],"checkbox_events":[],"key_events":[],"mouse_events":[15218.900000095367,15961.199999809265,16787.300000190735],"honeypot":0,"survey":"mace","page":4,"trial_type":"survey-mace","trial_index":12,"time_elapsed":539303,"internal_node_id":"0.0-12.0","task_version":"prescreen-v0.3","browser_interactions":0},{"responses":{"01":"No","02":"No","03":"No","04":"No","05":"No"},"rt":22623.299999713898,"item_order":[0,1,2,3,4],"radio_events":[9635.199999809265,16069.400000095367,18065.199999809265,20731.099999904633,21565.099999904633],"checkbox_events":[],"key_events":[],"mouse_events":[6391.699999809265,9635.199999809265,16069.400000095367,18065.199999809265,20731.099999904633,21565.099999904633,22617.400000095367],"honeypot":0,"survey":"mace","page":5,"trial_type":"survey-mace","trial_index":13,"time_elapsed":561932,"internal_node_id":"0.0-13.0","task_version":"prescreen-v0.3","browser_interactions":0},{"responses":{"01":"Yes","01_ages_9":"9","01_ages_10":"10","01_ages_11":"11","01_ages_12":"12","01_ages_13":"13","01_ages_14":"14","01_ages_15":"15","01_ages_16":"16","01_ages_17":"17","01_ages_18":"18","02":"Yes","02_ages_9":"9","02_ages_10":"10","02_ages_11":"11","02_ages_12":"12","02_ages_13":"13","02_ages_14":"14","02_ages_15":"15","02_ages_16":"16","02_ages_17":"17","02_ages_18":"18","03":"Yes","03_ages_9":"9","03_ages_10":"10","03_ages_11":"11","03_ages_12":"12","03_ages_13":"13","03_ages_14":"14","03_ages_15":"15","03_ages_16":"16","03_ages_17":"17","03_ages_18":"18","04":"Yes","04_ages_9":"9","04_ages_10":"10","04_ages_11":"11","04_ages_12":"12","04_ages_13":"13","04_ages_14":"14","04_ages_15":"15","04_ages_16":"16","04_ages_17":"17","04_ages_18":"18","05":"No"},"rt":52443.40000009537,"item_order":[0,1,2,3,4],"radio_events":[6223.800000190735,21681.5,32111.699999809265,40467.5,51419.5],"checkbox_events":[9939.800000190735,10451.599999904633,10945.699999809265,11507.5,12365.599999904633,15683.5,18413.5,18879.599999904633,19391.699999809265,19889.5,22731.599999904633,23171.800000190735,24127.599999904633,25047.5,25825.800000190735,26487.900000095367,27241.5,27851.900000095367,28539.5,29133.5,33451.59999990463,33995.59999990463,34493.5,35011.5,35507.40000009537,36013.90000009537,36485.699999809265,37471.699999809265,37985.699999809265,38473.5,41645.699999809265,42205.59999990463,44503.59999990463,45033.40000009537,45577.59999990463,46107.5,46651.59999990463,47173.5,47711.59999990463,48235.59999990463],"key_events":[],"mouse_events":[6223.800000190735,9939.800000190735,10451.599999904633,10945.699999809265,11507.5,12365.599999904633,15683.5,18413.5,18879.599999904633,19391.699999809265,19889.5,21681.5,22731.599999904633,23171.800000190735,23613.599999904633,24127.599999904633,24607.5,25047.5,25825.800000190735,26487.900000095367,27241.5,27851.900000095367,28539.5,29133.5,31365.699999809265,32111.699999809265,33451.59999990463,33995.59999990463,34493.5,35011.5,35507.40000009537,36013.90000009537,36485.699999809265,37047.5,37471.699999809265,37985.699999809265,38473.5,40467.5,41645.699999809265,42205.59999990463,43941.699999809265,44503.59999990463,45033.40000009537,45577.59999990463,46107.5,46651.59999990463,47173.5,47711.59999990463,48235.59999990463,51419.5,52437.90000009537],"honeypot":0,"survey":"mace","page":6,"trial_type":"survey-mace","trial_index":14,"time_elapsed":614381,"internal_node_id":"0.0-14.0","task_version":"prescreen-v0.3","browser_interactions":0},{"responses":{"01":"No","02":"No","03":"No","04":"No","05":"No","06":"Yes","06_ages_18":"18","07":"Yes","07_ages_18":"18"},"rt":29145.299999713898,"item_order":[0,1,2,3,4,5,6],"radio_events":[4957.699999809265,7190,9217.900000095367,10881.799999713898,12598,22599.599999904633,26739.5],"checkbox_events":[23642,28151.5],"key_events":[],"mouse_events":[4957.699999809265,7190,9217.900000095367,10881.799999713898,12598,22599.599999904633,23642,26739.5,28151.5,29137.799999713898],"honeypot":0,"survey":"mace","page":7,"trial_type":"survey-mace","trial_index":15,"time_elapsed":643532,"internal_node_id":"0.0-15.0","task_version":"prescreen-v0.3","browser_interactions":0},{"responses":{"01":"Yes","01_ages_13":"13","01_ages_14":"14","01_ages_15":"15","01_ages_16":"16","01_ages_17":"17","01_ages_18":"18","02":"Yes","02_ages_8":"8","02_ages_9":"9","02_ages_10":"10","03":"Yes","03_ages_11":"11","03_ages_12":"12","03_ages_13":"13","03_ages_14":"14","03_ages_15":"15","03_ages_16":"16","03_ages_17":"17","03_ages_18":"18","04":"Yes","04_ages_11":"11","04_ages_12":"12","04_ages_13":"13","04_ages_14":"14","04_ages_15":"15","04_ages_16":"16","04_ages_17":"17","04_ages_18":"18"},"rt":57099.699999809265,"item_order":[0,1,2,3],"radio_events":[7638.099999904633,9626.199999809265,12518.300000190735,13304.300000190735,36712.90000009537,50793.199999809265],"checkbox_events":[23943.199999809265,24417.300000190735,24921.199999809265,25427.400000095367,26373.300000190735,27351.199999809265,31697.099999904633,32299.199999809265,32973.199999809265,43717,44173.199999809265,44723.199999809265,45357.199999809265,46319.09999990463,46854.90000009537,47357,48623.199999809265,51635.09999990463,52139,52645.09999990463,53142.90000009537,54045,54701.199999809265,55199,55694.90000009537],"key_events":[],"mouse_events":[7638.099999904633,9626.199999809265,12518.300000190735,13304.300000190735,23943.199999809265,24417.300000190735,24921.199999809265,25427.400000095367,25909.199999809265,26373.300000190735,26855.400000095367,27351.199999809265,31697.099999904633,32299.199999809265,32973.199999809265,36712.90000009537,43717,44173.199999809265,44723.199999809265,45357.199999809265,45909.09999990463,46319.09999990463,46854.90000009537,47357,47853.300000190735,48623.199999809265,50793.199999809265,51635.09999990463,52139,52645.09999990463,53142.90000009537,53635,54045,54701.199999809265,55199,55694.90000009537,57095.09999990463],"honeypot":0,"survey":"mace","page":8,"trial_type":"survey-mace","trial_index":16,"time_elapsed":700637,"internal_node_id":"0.0-16.0","task_version":"prescreen-v0.3","browser_interactions":0},{"responses":{"01":"Yes","01_ages_5":"5","01_ages_6":"6","01_ages_7":"7","01_ages_8":"8","01_ages_9":"9","01_ages_10":"10","01_ages_11":"11","01_ages_12":"12","01_ages_13":"13","01_ages_14":"14","01_ages_15":"15","01_ages_16":"16","01_ages_17":"17","01_ages_18":"18","02":"Yes","02_ages_5":"5","02_ages_6":"6","02_ages_7":"7","02_ages_8":"8","02_ages_9":"9","02_ages_10":"10","02_ages_11":"11","02_ages_12":"12","02_ages_13":"13","02_ages_14":"14","02_ages_15":"15","02_ages_16":"16","02_ages_17":"17","02_ages_18":"18","03":"Yes","03_ages_1":"1","03_ages_2":"2","03_ages_3":"3","03_ages_4":"4","03_ages_5":"5","03_ages_6":"6","03_ages_7":"7","03_ages_8":"8","03_ages_9":"9","03_ages_10":"10","03_ages_11":"11","03_ages_12":"12","03_ages_13":"13","03_ages_14":"14","03_ages_15":"15","03_ages_16":"16","03_ages_17":"17","03_ages_18":"18","04":"Yes","04_ages_1":"1","04_ages_2":"2","04_ages_3":"3","04_ages_4":"4","04_ages_5":"5","04_ages_6":"6","04_ages_7":"7","04_ages_8":"8","04_ages_9":"9","04_ages_10":"10","04_ages_11":"11","04_ages_12":"12","04_ages_13":"13","04_ages_14":"14","04_ages_15":"15","04_ages_16":"16","04_ages_17":"17","04_ages_18":"18"},"rt":148929.40000009537,"item_order":[0,1,2,3],"radio_events":[5949.299999713898,84147.09999990463,105634.7999997139,122523],"checkbox_events":[9393.299999713898,9923.299999713898,10443.299999713898,11005,11731.299999713898,12933.199999809265,13839.199999809265,24924.599999904633,25532.5,26046.400000095367,26796.5,27686.299999713898,29455.400000095367,31435.299999713898,31995.199999809265,33051.199999809265,33651.199999809265,34461.09999990463,65852.90000009537,66511,67133,67741,71526.69999980927,72090.7999997139,72661,73188.7999997139,79457,79912.7999997139,80402.90000009537,80906.7999997139,85193,85763.09999990463,86515,87132.90000009537,87662.69999980927,88182.7999997139,88749,89286.90000009537,90225,90832.90000009537,91835,92717.09999990463,93908.59999990463,97221.09999990463,97712.7999997139,98499.09999990463,101104.90000009537,102416.7999997139,103000.69999980927,103747.09999990463,107588.69999980927,108117.09999990463,108832.90000009537,109384.69999980927,109929.09999990463,110478.69999980927,111097,111609,112138.69999980927,113148.90000009537,113802.69999980927,114620.7999997139,115228.7999997139,115982.90000009537,125724.7999997139,126526.90000009537,127137,127801,128351.09999990463,129457,129970.69999980927,130530.69999980927,131092.90000009537,131651.09999990463,132203.09999990463,132780.90000009537,133327,133902.69999980927,134461,134996.90000009537,136368.90000009537,136833,137686.2999997139,138160.69999980927,138696.90000009537,139218.7999997139,140328.69999980927,140810.69999980927,142300.5,142800.59999990463],"key_events":[],"mouse_events":[5949.299999713898,9393.299999713898,9923.299999713898,10443.299999713898,11005,11731.299999713898,12933.199999809265,13839.199999809265,24924.599999904633,25532.5,26046.400000095367,26796.5,27284.5,27686.299999713898,28961.400000095367,29455.400000095367,31435.299999713898,31995.199999809265,32577.299999713898,33051.199999809265,33651.199999809265,34461.09999990463,65852.90000009537,66511,67133,67741,71526.69999980927,72090.7999997139,72661,73188.7999997139,79457,79912.7999997139,80402.90000009537,80906.7999997139,84147.09999990463,85193,85763.09999990463,86515,87132.90000009537,87662.69999980927,88182.7999997139,88749,89286.90000009537,89775,90225,90832.90000009537,91386.7999997139,91835,92300.90000009537,92717.09999990463,93908.59999990463,97221.09999990463,97712.7999997139,98499.09999990463,101104.90000009537,102416.7999997139,103000.69999980927,103747.09999990463,105634.7999997139,107588.69999980927,108117.09999990463,108832.90000009537,109384.69999980927,109929.09999990463,110478.69999980927,111097,111609,112138.69999980927,112716.7999997139,113148.90000009537,113802.69999980927,114620.7999997139,115228.7999997139,115982.90000009537,122523,125724.7999997139,126526.90000009537,127137,127801,128351.09999990463,128896.69999980927,129457,129970.69999980927,130530.69999980927,131092.90000009537,131651.09999990463,132203.09999990463,132780.90000009537,133327,133902.69999980927,134461,134996.90000009537,136368.90000009537,136833,137686.2999997139,138160.69999980927,138696.90000009537,139218.7999997139,140328.69999980927,140810.69999980927,142300.5,142800.59999990463,148925],"honeypot":0,"survey":"mace","page":9,"trial_type":"survey-mace","trial_index":17,"time_elapsed":849575,"internal_node_id":"0.0-17.0","task_version":"prescreen-v0.3","browser_interactions":4},{"responses":{"01":"No","02":"No","03":"Yes","03_ages_12":"12","03_ages_13":"13","03_ages_14":"14","03_ages_15":"15","03_ages_16":"16","03_ages_17":"17","03_ages_18":"18","04":"Yes","04_ages_8":"8","04_ages_9":"9","04_ages_10":"10","05":"Yes","05_ages_8":"8","05_ages_9":"9","05_ages_10":"10","06":"Yes","06_ages_17":"17","07":"Yes","07_ages_1":"1","07_ages_2":"2","07_ages_3":"3","07_ages_4":"4","07_ages_5":"5","07_ages_6":"6","07_ages_7":"7","07_ages_8":"8","07_ages_9":"9","07_ages_10":"10","07_ages_11":"11","07_ages_12":"12","07_ages_13":"13","07_ages_14":"14","07_ages_15":"15","07_ages_16":"16","07_ages_17":"17","07_ages_18":"18","08":"Yes","08_ages_1":"1","08_ages_2":"2","08_ages_3":"3","08_ages_4":"4","08_ages_5":"5","08_ages_6":"6","08_ages_7":"7","08_ages_8":"8","08_ages_9":"9","08_ages_10":"10","08_ages_11":"11","08_ages_12":"12","08_ages_13":"13","08_ages_14":"14","08_ages_15":"15","08_ages_16":"16","08_ages_17":"17","08_ages_18":"18"},"rt":62797.59999990463,"item_order":[0,1,2,3,4,5,6,7],"radio_events":[3829.0999999046326,4590.900000095367,8259,18041.099999904633,25649.099999904633,30225.099999904633,36291,50828.40000009537],"checkbox_events":[12472.799999713898,12969,13475.099999904633,14010.900000095367,14548.900000095367,15258.799999713898,15891,19503,19977,20457.199999809265,27004.900000095367,27502.900000095367,28075,31650.699999809265,38147,38677,39133.09999990463,39687.09999990463,40200.699999809265,40704.90000009537,41207,41718.7999997139,42232.699999809265,42778.699999809265,43298.7999997139,44012.699999809265,44710.59999990463,45258.7999997139,45796.699999809265,46358.7999997139,46871,47480.699999809265,52680.59999990463,53210.699999809265,53784.90000009537,54297,54802.699999809265,55346.699999809265,55861,56372.699999809265,56894.699999809265,57448.699999809265,58111,58614.90000009537,59576.7999997139,60066.699999809265,60645.199999809265,61173.09999990463,61671,62203.09999990463],"key_events":[],"mouse_events":[3829.0999999046326,4590.900000095367,8259,12472.799999713898,12969,13475.099999904633,14010.900000095367,14548.900000095367,15258.799999713898,15891,18041.099999904633,19503,19977,20457.199999809265,25649.099999904633,27004.900000095367,27502.900000095367,28075,30225.099999904633,31650.699999809265,36291,38147,38677,39133.09999990463,39687.09999990463,40200.699999809265,40704.90000009537,41207,41718.7999997139,42232.699999809265,42778.699999809265,43298.7999997139,44012.699999809265,44710.59999990463,45258.7999997139,45796.699999809265,46358.7999997139,46871,47480.699999809265,50828.40000009537,52680.59999990463,53210.699999809265,53784.90000009537,54297,54802.699999809265,55346.699999809265,55861,56372.699999809265,56894.699999809265,57448.699999809265,58111,58614.90000009537,59152.7999997139,59576.7999997139,60066.699999809265,60645.199999809265,61173.09999990463,61671,62203.09999990463,62789.09999990463],"honeypot":0,"survey":"mace","page":10,"trial_type":"survey-mace","trial_index":18,"time_elapsed":912380,"internal_node_id":"0.0-18.0","task_version":"prescreen-v0.3","browser_interactions":0,"instructed":0},{"rt":10415.299999713898,"trial_type":"mental-health-alert","trial_index":19,"time_elapsed":922798,"internal_node_id":"0.0-19.0","task_version":"prescreen-v0.3","interactions":"[{\"event\":\"blur\",\"trial\":17,\"time\":714977},{\"event\":\"focus\",\"trial\":17,\"time\":715298},{\"event\":\"blur\",\"trial\":17,\"time\":715662},{\"event\":\"focus\",\"trial\":17,\"time\":722586}]"}]