[{"view_history":[{"page_index":0,"viewing_time":4984.4000000059605},{"page_index":1,"viewing_time":2807.4000000059605},{"page_index":2,"viewing_time":2550.0999999940395},{"page_index":3,"viewing_time":921.8000000119209}],"rt":11264.200000017881,"trial_type":"instructions","trial_index":0,"time_elapsed":11273,"internal_node_id":"0.0-0.0","task_version":"prescreen-v0.3"},{"rt":13876.800000011921,"responses":{"age":"44","gender-categorical":"Male","gender-free-response":"","ethnicity":"Not Hispanic or Latino","race":["White"],"education":"High school","siblings":"4"},"trial_type":"survey-demo","trial_index":1,"time_elapsed":25155,"internal_node_id":"0.0-1.0","task_version":"prescreen-v0.3"},{"responses":{"Q02":"2","Q08":"2","Q14":"1","Q11":"2","Q20":"0","Q10":"2","Q15":"2","Q06":"0","Q07":"0","Q17":"1","Q04":"1","Q13":"2","Q01":"2","Q21":"3","Q12":"2","Q16":"2","Q19":"2","Q18":"2","Q05":"1","Q09":"2","Q03":"1"},"rt":82626.09999999404,"item_order":[1,7,13,10,19,9,14,5,6,16,3,12,0,20,11,15,18,17,4,8,2],"radio_events":[3757.899999976158,6749.799999982119,9340.199999988079,13303.59999999404,17061.899999976158,19835.79999998212,22805.899999976158,29357.79999998212,34723.69999998808,37703.79999998212,40531.89999997616,45970.09999999404,50157.79999998212,51801.89999997616,55181.89999997616,60695.89999997616,63925.89999997616,67647.89999997616,70821.89999997616,75640,79362.09999999404,81622.09999999404],"key_events":[],"mouse_events":[3757.899999976158,6749.799999982119,8573.59999999404,9340.199999988079,13303.59999999404,16445.899999976158,17061.899999976158,19044,19835.79999998212,22805.899999976158,28737.59999999404,29357.79999998212,34723.69999998808,37703.79999998212,40531.89999997616,45310.29999998212,45970.09999999404,50157.79999998212,51801.89999997616,54420.19999998808,55181.89999997616,60108.29999998212,60695.89999997616,63925.89999997616,67647.89999997616,70226.09999999404,70821.89999997616,75640,79362.09999999404,81622.09999999404,82624.29999998212],"straightlining":0.5714285714285714,"zigzagging":0.45,"honeypot":0,"survey":"sns","trial_type":"survey-template","trial_index":2,"time_elapsed":107786,"internal_node_id":"0.0-2.0","task_version":"prescreen-v0.3","browser_interactions":0,"infrequency":0},{"responses":{"Q04":"3","Q09":"1","Q13":"0","Q01":"3","Q02":"3","Q07":"2","Q03":"3","Q06":"2","Q11":"2","Q08":"2","Q05":"2","Q12":"0","Q10":"2"},"rt":33057.59999999404,"item_order":[3,8,12,0,1,6,2,5,10,7,4,11,9],"radio_events":[4546.4000000059605,7164.4000000059605,8988.5,11284.40000000596,12802.59999999404,14624.799999982119,17536.59999999404,20198.5,22070.69999998808,24554.5,26610.5,29608.5,32330.90000000596],"key_events":[],"mouse_events":[3804.5999999940395,4546.4000000059605,6414.299999982119,7164.4000000059605,8988.5,11284.40000000596,12802.59999999404,14624.799999982119,17536.59999999404,19586.5,20198.5,22070.69999998808,23968.79999998212,24554.5,26610.5,29608.5,32330.90000000596,33056.59999999404],"straightlining":0.46153846153846156,"zigzagging":0.4166666666666667,"honeypot":0,"survey":"bisbas","trial_type":"survey-template","trial_index":3,"time_elapsed":140846,"internal_node_id":"0.0-3.0","task_version":"prescreen-v0.3","browser_interactions":0,"infrequency":0},{"responses":{"Q01":"1","Q02":"1","Q03":"1"},"rt":15661.199999988079,"radio_events":[5332.699999988079,9388.5,14060.59999999404],"key_events":[],"mouse_events":[5332.699999988079,9388.5,14060.59999999404,15660.59999999404],"survey":"map","page":1,"trial_type":"survey-map","trial_index":4,"time_elapsed":156509,"internal_node_id":"0.0-4.0","task_version":"prescreen-v0.3","browser_interactions":0},{"responses":{"Q04":"2","Q05":"2","Q06":"2"},"rt":12969.800000011921,"radio_events":[4073.5,7959.4000000059605,12059.5],"key_events":[],"mouse_events":[4073.5,7959.4000000059605,11189.5,12059.5,12969.40000000596],"survey":"map","page":2,"trial_type":"survey-map","trial_index":5,"time_elapsed":169481,"internal_node_id":"0.0-5.0","task_version":"prescreen-v0.3","browser_interactions":0},{"responses":{"Q07":"4","Q08":"0","Q09":"4"},"rt":14144.59999999404,"radio_events":[6678.0999999940395,10708.300000011921,13468],"key_events":[],"mouse_events":[6678.0999999940395,10708.300000011921,13468,14144.09999999404],"survey":"map","page":3,"trial_type":"survey-map","trial_index":6,"time_elapsed":183627,"internal_node_id":"0.0-6.0","task_version":"prescreen-v0.3","browser_interactions":0},{"responses":{"Q10":"0","Q11":"0","Q12":"1","Q13":"2","Q16":"0","Q14":"2","Q15":"1"},"rt":30501,"radio_events":[3747.9000000059605,5185.799999982119,11911.699999988079,17961.90000000596,19049.90000000596,22381.90000000596,26456,28759.90000000596],"key_events":[],"mouse_events":[3747.9000000059605,5185.799999982119,11911.699999988079,17961.90000000596,19049.90000000596,22381.90000000596,26456,28759.90000000596,30500.19999998808],"survey":"map","page":4,"trial_type":"survey-map","trial_index":7,"time_elapsed":214130,"internal_node_id":"0.0-7.0","task_version":"prescreen-v0.3","browser_interactions":0,"infrequency":0},{"view_history":[{"page_index":0,"viewing_time":2483.5999999940395},{"page_index":1,"viewing_time":3528.0999999940395}],"rt":6012.0999999940395,"trial_type":"instructions","trial_index":8,"time_elapsed":220143,"internal_node_id":"0.0-8.0","task_version":"prescreen-v0.3"},{"responses":{"01":"No","02":"No","03":"No","04":"No","05":"No","06":"No"},"rt":15432.40000000596,"item_order":[0,1,2,3,4,5],"radio_events":[4161.5999999940395,5103.5,11185.40000000596,11999.200000017881,13625.40000000596,14543.5],"checkbox_events":[],"key_events":[],"mouse_events":[0.20000001788139343,4161.5999999940395,5103.5,9799.700000017881,11185.40000000596,11999.200000017881,13025.700000017881,13625.40000000596,14543.5,15429.90000000596],"honeypot":0,"survey":"mace","page":1,"trial_type":"survey-mace","trial_index":9,"time_elapsed":235580,"internal_node_id":"0.0-9.0","task_version":"prescreen-v0.3","browser_interactions":0},{"responses":{"01":"No","02":"No","03":"No","04":"No","05":"No","06":"No","07":"No","08":"No"},"rt":16368.90000000596,"item_order":[0,1,2,3,4,5,6,7],"radio_events":[2141.5,3341.5,6615.4000000059605,7509.200000017881,9853.200000017881,11001.40000000596,12813.300000011921,14251.300000011921],"checkbox_events":[],"key_events":[],"mouse_events":[2141.5,3341.5,5404,6615.4000000059605,7509.200000017881,9853.200000017881,11001.40000000596,12813.300000011921,14251.300000011921,16365.700000017881],"honeypot":0,"survey":"mace","page":2,"trial_type":"survey-mace","trial_index":10,"time_elapsed":251953,"internal_node_id":"0.0-10.0","task_version":"prescreen-v0.3","browser_interactions":0},{"responses":{"01":"No","02":"No","03":"No","04":"No"},"rt":9787,"item_order":[0,1,2,3],"radio_events":[4449.199999988079,5403.199999988079,6821.0999999940395,7811.0999999940395],"checkbox_events":[],"key_events":[],"mouse_events":[4449.199999988079,5403.199999988079,6821.0999999940395,7811.0999999940395,9785.5],"honeypot":0,"survey":"mace","page":3,"trial_type":"survey-mace","trial_index":11,"time_elapsed":261743,"internal_node_id":"0.0-11.0","task_version":"prescreen-v0.3","browser_interactions":0},{"responses":{"01":"No","02":"No"},"rt":5341.199999988079,"item_order":[0,1],"radio_events":[2452.0999999940395,3762.0999999940395],"checkbox_events":[],"key_events":[],"mouse_events":[2452.0999999940395,3762.0999999940395,5340.4000000059605],"honeypot":0,"survey":"mace","page":4,"trial_type":"survey-mace","trial_index":12,"time_elapsed":267086,"internal_node_id":"0.0-12.0","task_version":"prescreen-v0.3","browser_interactions":0},{"responses":{"01":"No","02":"No","03":"No","04":"No","05":"No"},"rt":13271,"item_order":[0,1,2,3,4],"radio_events":[3190.5999999940395,5866.800000011921,7532.699999988079,9506.800000011921,10428.59999999404],"checkbox_events":[],"key_events":[],"mouse_events":[3190.5999999940395,5866.800000011921,7532.699999988079,9506.800000011921,10428.59999999404,11126.699999988079,13269],"honeypot":0,"survey":"mace","page":5,"trial_type":"survey-mace","trial_index":13,"time_elapsed":280359,"internal_node_id":"0.0-13.0","task_version":"prescreen-v0.3","browser_interactions":0},{"responses":{"01":"No","02":"No","03":"No","04":"No","05":"No"},"rt":14149.09999999404,"item_order":[0,1,2,3,4],"radio_events":[2962.7999999821186,4320.9000000059605,5624.9000000059605,9768.59999999404,12270.799999982119],"checkbox_events":[],"key_events":[],"mouse_events":[2962.7999999821186,4320.9000000059605,5624.9000000059605,9768.59999999404,12270.799999982119,14147],"honeypot":0,"survey":"mace","page":6,"trial_type":"survey-mace","trial_index":14,"time_elapsed":294511,"internal_node_id":"0.0-14.0","task_version":"prescreen-v0.3","browser_interactions":0},{"responses":{"01":"No","02":"No","03":"No","04":"No","05":"No","06":"No","07":"No"},"rt":23825.59999999404,"item_order":[0,1,2,3,4,5,6],"radio_events":[2936.4000000059605,6528.5999999940395,7602.4000000059605,8582.299999982119,17100.5,18942.5,23210.40000000596],"checkbox_events":[],"key_events":[],"mouse_events":[2936.4000000059605,6528.5999999940395,7602.4000000059605,8582.299999982119,17100.5,18942.5,19767.19999998808,23210.40000000596,23822.79999998212],"honeypot":0,"survey":"mace","page":7,"trial_type":"survey-mace","trial_index":15,"time_elapsed":318341,"internal_node_id":"0.0-15.0","task_version":"prescreen-v0.3","browser_interactions":0},{"responses":{"01":"No","02":"No","03":"No","04":"No"},"rt":14019.59999999404,"item_order":[0,1,2,3],"radio_events":[7247.5999999940395,9677.59999999404,11585.5,13389.59999999404],"checkbox_events":[],"key_events":[],"mouse_events":[7247.5999999940395,9677.59999999404,11585.5,13389.59999999404,14017.899999976158],"honeypot":0,"survey":"mace","page":8,"trial_type":"survey-mace","trial_index":16,"time_elapsed":332364,"internal_node_id":"0.0-16.0","task_version":"prescreen-v0.3","browser_interactions":0},{"responses":{"01":"Yes","01_ages_1":"1","01_ages_2":"2","01_ages_3":"3","01_ages_4":"4","01_ages_5":"5","01_ages_6":"6","01_ages_7":"7","01_ages_8":"8","01_ages_9":"9","01_ages_10":"10","01_ages_11":"11","01_ages_12":"12","01_ages_13":"13","01_ages_14":"14","01_ages_15":"15","01_ages_16":"16","01_ages_17":"17","01_ages_18":"18","02":"Yes","02_ages_1":"1","02_ages_2":"2","02_ages_3":"3","02_ages_4":"4","02_ages_5":"5","02_ages_6":"6","02_ages_7":"7","02_ages_8":"8","02_ages_9":"9","02_ages_10":"10","02_ages_11":"11","02_ages_12":"12","02_ages_13":"13","02_ages_14":"14","02_ages_15":"15","02_ages_16":"16","02_ages_17":"17","02_ages_18":"18","03":"Yes","03_ages_1":"1","03_ages_2":"2","03_ages_3":"3","03_ages_4":"4","03_ages_5":"5","03_ages_6":"6","03_ages_7":"7","03_ages_8":"8","03_ages_9":"9","03_ages_10":"10","03_ages_11":"11","03_ages_12":"12","03_ages_13":"13","03_ages_14":"14","03_ages_15":"15","03_ages_16":"16","03_ages_17":"17","03_ages_18":"18","04":"Yes","04_ages_1":"1","04_ages_2":"2","04_ages_3":"3","04_ages_4":"4","04_ages_5":"5","04_ages_6":"6","04_ages_7":"7","04_ages_8":"8","04_ages_9":"9","04_ages_10":"10","04_ages_11":"11","04_ages_12":"12","04_ages_13":"13","04_ages_14":"14","04_ages_15":"15","04_ages_16":"16","04_ages_17":"17","04_ages_18":"18"},"rt":65759.79999998212,"item_order":[0,1,2,3],"radio_events":[3025.699999988079,21153.59999999404,35873.5,53711.69999998808],"checkbox_events":[7591.5999999940395,7999.699999988079,8469.299999982119,9001.699999988079,9637.59999999404,10315.5,10839.199999988079,11781.5,12691.699999988079,13851.59999999404,15043.40000000596,15567.59999999404,15977.299999982119,16413.5,16915.5,17375.40000000596,18423.40000000596,18913.29999998212,22175.79999998212,23045.5,23963.69999998808,24539.59999999404,25157.59999999404,26095.5,26735.69999998808,27227.69999998808,28443.5,28885.69999998808,29581.5,30177.40000000596,30621.5,31041.69999998808,31841.40000000596,32337.5,32771.69999998808,33203.59999999404,37013.59999999404,37705.59999999404,38423.59999999404,39469.40000000596,39954,40395.59999999404,41821.5,42257.69999998808,42937.59999999404,43517.69999998808,44053.69999998808,46497.79999998212,47129.79999998212,47601.69999998808,48599.59999999404,49023.59999999404,49530,49957.79999998212,55273.69999998808,56075.69999998808,56823.69999998808,57331.69999998808,58015.69999998808,58609.69999998808,59163.90000000596,59589.59999999404,60041.79999998212,60466.09999999404,61033.59999999404,61447.59999999404,61948.29999998212,62437.90000000596,62929.59999999404,63855.59999999404,64253.90000000596,65153.69999998808],"key_events":[],"mouse_events":[3025.699999988079,7591.5999999940395,7999.699999988079,8469.299999982119,9001.699999988079,9637.59999999404,10315.5,10839.199999988079,11337.799999982119,11781.5,12281.5,12691.699999988079,13851.59999999404,15043.40000000596,15567.59999999404,15977.299999982119,16413.5,16915.5,17375.40000000596,17837.90000000596,18423.40000000596,18913.29999998212,21153.59999999404,22175.79999998212,23045.5,23963.69999998808,24539.59999999404,25157.59999999404,25655.69999998808,26095.5,26735.69999998808,27227.69999998808,27709.69999998808,28443.5,28885.69999998808,29581.5,30177.40000000596,30621.5,31041.69999998808,31841.40000000596,32337.5,32771.69999998808,33203.59999999404,35873.5,37013.59999999404,37705.59999999404,38423.59999999404,38937.69999998808,39469.40000000596,39954,40395.59999999404,41387.79999998212,41821.5,42257.69999998808,42937.59999999404,43517.69999998808,44053.69999998808,46497.79999998212,47129.79999998212,47601.69999998808,48126.09999999404,48599.59999999404,49023.59999999404,49530,49957.79999998212,53711.69999998808,55273.69999998808,56075.69999998808,56823.69999998808,57331.69999998808,58015.69999998808,58609.69999998808,59163.90000000596,59589.59999999404,60041.79999998212,60466.09999999404,61033.59999999404,61447.59999999404,61948.29999998212,62437.90000000596,62929.59999999404,63453.69999998808,63855.59999999404,64253.90000000596,64718,65153.69999998808,65758.19999998808],"honeypot":0,"survey":"mace","page":9,"trial_type":"survey-mace","trial_index":17,"time_elapsed":398125,"internal_node_id":"0.0-17.0","task_version":"prescreen-v0.3","browser_interactions":0},{"responses":{"01":"No","02":"No","03":"Yes","03_ages_10":"10","03_ages_11":"11","03_ages_12":"12","03_ages_13":"13","03_ages_14":"14","03_ages_15":"15","03_ages_16":"16","03_ages_17":"17","03_ages_18":"18","04":"Yes","04_ages_5":"5","04_ages_6":"6","04_ages_7":"7","04_ages_8":"8","04_ages_9":"9","04_ages_10":"10","04_ages_11":"11","04_ages_12":"12","04_ages_13":"13","04_ages_14":"14","04_ages_15":"15","04_ages_16":"16","04_ages_17":"17","04_ages_18":"18","05":"No","06":"Yes","06_ages_17":"17","07":"Yes","07_ages_1":"1","07_ages_2":"2","07_ages_3":"3","07_ages_4":"4","07_ages_5":"5","07_ages_6":"6","07_ages_7":"7","07_ages_8":"8","07_ages_9":"9","07_ages_10":"10","07_ages_11":"11","07_ages_12":"12","07_ages_13":"13","07_ages_14":"14","07_ages_15":"15","07_ages_16":"16","07_ages_17":"17","07_ages_18":"18","08":"Yes","08_ages_1":"1","08_ages_2":"2","08_ages_3":"3","08_ages_4":"4","08_ages_5":"5","08_ages_6":"6","08_ages_7":"7","08_ages_8":"8","08_ages_9":"9","08_ages_10":"10","08_ages_11":"11","08_ages_12":"12","08_ages_13":"13","08_ages_14":"14","08_ages_15":"15","08_ages_16":"16","08_ages_17":"17","08_ages_18":"18"},"rt":71200.30000001192,"item_order":[0,1,2,3,4,5,6,7],"radio_events":[4751.199999988079,6256.9000000059605,9054.59999999404,22454.69999998808,35394.90000000596,38752.80000001192,42908.90000000596,56904.69999998808],"checkbox_events":[12932.800000011921,13550.800000011921,14142.800000011921,16352.699999988079,16908.69999998808,17330.80000001192,17795.30000001192,18148.5,19260.90000000596,25128.80000001192,25608.80000001192,26062.90000000596,27432.90000000596,27870.59999999404,28354.69999998808,28986.80000001192,29442.59999999404,30118.90000000596,30536.69999998808,31040.80000001192,31508.90000000596,32530.69999998808,32974.80000001192,40286.90000000596,44044.69999998808,44545.69999998808,44938.80000001192,45357.30000001192,45921.19999998808,47203,47688.80000001192,48764.90000000596,49300.69999998808,49702.80000001192,50254.90000000596,50766.80000001192,51910.80000001192,52452.90000000596,52900.90000000596,53448.80000001192,53968.90000000596,54609,58363.30000001192,59042.80000001192,59873,60681,61442.90000000596,62059,62566.80000001192,63016.80000001192,63637.19999998808,64085.30000001192,64589.5,66118.80000001192,67548.90000000596,68349,68912.80000001192,69393,69883,70438.90000000596],"key_events":[],"mouse_events":[4751.199999988079,6256.9000000059605,9054.59999999404,12932.800000011921,13550.800000011921,14142.800000011921,16352.699999988079,16908.69999998808,17330.80000001192,17795.30000001192,18148.5,18709.19999998808,19260.90000000596,22454.69999998808,25128.80000001192,25608.80000001192,26062.90000000596,26703.09999999404,27432.90000000596,27870.59999999404,28354.69999998808,28986.80000001192,29442.59999999404,30118.90000000596,30536.69999998808,31040.80000001192,31508.90000000596,32117.30000001192,32530.69999998808,32974.80000001192,35394.90000000596,38752.80000001192,40286.90000000596,42908.90000000596,44044.69999998808,44545.69999998808,44938.80000001192,45357.30000001192,45921.19999998808,46441.69999998808,47203,47688.80000001192,48300.69999998808,48764.90000000596,49300.69999998808,49702.80000001192,50254.90000000596,50766.80000001192,51315.19999998808,51910.80000001192,52452.90000000596,52900.90000000596,53448.80000001192,53968.90000000596,54609,56904.69999998808,58363.30000001192,59042.80000001192,59873,60681,61442.90000000596,62059,62566.80000001192,63016.80000001192,63637.19999998808,64085.30000001192,64589.5,65539.30000001192,66118.80000001192,67548.90000000596,68349,68912.80000001192,69393,69883,70438.90000000596,71197.19999998808],"honeypot":0,"survey":"mace","page":10,"trial_type":"survey-mace","trial_index":18,"time_elapsed":469330,"internal_node_id":"0.0-18.0","task_version":"prescreen-v0.3","browser_interactions":0,"instructed":0},{"rt":4214.0999999940395,"trial_type":"mental-health-alert","trial_index":19,"time_elapsed":473546,"internal_node_id":"0.0-19.0","task_version":"prescreen-v0.3","interactions":"[]"}]