[{"view_history":[{"page_index":0,"viewing_time":2531},{"page_index":1,"viewing_time":4126},{"page_index":2,"viewing_time":5491},{"page_index":3,"viewing_time":1373}],"rt":13521,"trial_type":"instructions","trial_index":0,"time_elapsed":13526,"internal_node_id":"0.0-0.0","task_version":"prescreen-v0.3"},{"rt":17771,"responses":{"age":"23","gender-categorical":"Female","gender-free-response":"","ethnicity":"Not Hispanic or Latino","race":["White"],"education":"Bachelor degree"},"trial_type":"survey-demo","trial_index":1,"time_elapsed":31306,"internal_node_id":"0.0-1.0","task_version":"prescreen-v0.3"},{"responses":{"Q06":"1","Q02":"0","Q13":"3","Q12":"1","Q18":"2","Q19":"1","Q17":"1","Q15":"3","Q07":"0","Q21":"3","Q05":"2","Q16":"2","Q08":"2","Q04":"2","Q03":"1","Q20":"3","Q01":"1","Q09":"0","Q10":"1","Q11":"1","Q14":"3"},"rt":133609,"item_order":[5,1,12,11,17,18,16,14,6,20,4,15,7,3,2,19,0,8,9,10,13],"radio_events":[8056,9585.000000000007,15750,17451.000000000007,23941,28826.000000000007,41456,42845,46236,47395,55853,61792,67164,78938,88815.00000000001,93332,99022.99999999999,102196,106598,109816,113667,116605,118191,122075,123226,127948,132958],"key_events":[],"mouse_events":[8056,9585.000000000007,13781,15750,17451.000000000007,23941,28826.000000000007,41456,42845,46236,47395,55853,61792,67164,78938,88034,88815.00000000001,93332,99022.99999999999,102196,106598,109816,113667,116605,118191,122075,123226,127948,132958,133599],"straightlining":0.38095238095238093,"zigzagging":0.5,"honeypot":0,"survey":"sns","trial_type":"survey-template","trial_index":2,"time_elapsed":164924,"internal_node_id":"0.0-2.0","task_version":"prescreen-v0.3","browser_interactions":0,"infrequency":0},{"responses":{"Q10":"2","Q11":"1","Q09":"1","Q07":"2","Q04":"3","Q06":"3","Q13":"0","Q05":"3","Q03":"3","Q01":"2","Q08":"3","Q02":"2","Q12":"2"},"rt":68879,"item_order":[9,10,8,6,3,5,12,4,2,0,7,1,11],"radio_events":[14410,18631,20874,23735,27117,30770,36388,42532,48625,53063.00000000003,56561,61316,66301.00000000003],"key_events":[],"mouse_events":[14410,18631,20874,23735,27117,30770,34633,36388,42532,48625,53063.00000000003,56561,61316,66301.00000000003,68869],"straightlining":0.38461538461538464,"zigzagging":0.6666666666666666,"honeypot":0,"survey":"bisbas","trial_type":"survey-template","trial_index":3,"time_elapsed":233808,"internal_node_id":"0.0-3.0","task_version":"prescreen-v0.3","browser_interactions":0,"infrequency":0},{"responses":{"Q01":"3","Q02":"4","Q03":"4"},"rt":15911.99999999997,"radio_events":[7771.999999999971,11262.99999999997,14675.99999999997],"key_events":[],"mouse_events":[7771.999999999971,11262.99999999997,14675.99999999997,15908.99999999997],"survey":"map","page":1,"trial_type":"survey-map","trial_index":4,"time_elapsed":249725,"internal_node_id":"0.0-4.0","task_version":"prescreen-v0.3","browser_interactions":0},{"responses":{"Q04":"2","Q05":"2","Q06":"3"},"rt":10746,"radio_events":[3737,6902,9716.00000000003],"key_events":[],"mouse_events":[3737,6902,9716.00000000003,10743],"survey":"map","page":2,"trial_type":"survey-map","trial_index":5,"time_elapsed":260475,"internal_node_id":"0.0-5.0","task_version":"prescreen-v0.3","browser_interactions":0},{"responses":{"Q07":"4","Q08":"4","Q09":"2"},"rt":20712,"radio_events":[6408,10481,14184,18433,19527],"key_events":[],"mouse_events":[6408,10481,14184,18433,19527,20709],"survey":"map","page":3,"trial_type":"survey-map","trial_index":6,"time_elapsed":281191,"internal_node_id":"0.0-6.0","task_version":"prescreen-v0.3","browser_interactions":0},{"responses":{"Q10":"1","Q11":"2","Q12":"0","Q13":"1","Q16":"0","Q14":"1","Q15":"2"},"rt":60461.00000000006,"radio_events":[8458,15319,16811,25667,29015,30740,35060,46165,51378,59191],"key_events":[],"mouse_events":[8458,15319,16811,25667,29015,30740,35060,46165,51378,59191,60457],"survey":"map","page":4,"trial_type":"survey-map","trial_index":7,"time_elapsed":341659,"internal_node_id":"0.0-7.0","task_version":"prescreen-v0.3","browser_interactions":0,"infrequency":0},{"view_history":[{"page_index":0,"viewing_time":1459},{"page_index":1,"viewing_time":3453}],"rt":4912,"trial_type":"instructions","trial_index":8,"time_elapsed":346573,"internal_node_id":"0.0-8.0","task_version":"prescreen-v0.3"},{"responses":{"01":"No","02":"Yes","02_ages_6":"6","02_ages_7":"7","02_ages_8":"8","02_ages_9":"9","02_ages_10":"10","02_ages_11":"11","02_ages_12":"12","02_ages_13":"13","02_ages_14":"14","02_ages_15":"15","02_ages_16":"16","02_ages_17":"17","02_ages_18":"18","03":"No","04":"No","05":"No","06":"No"},"rt":46855,"item_order":[0,1,2,3,4,5],"radio_events":[9267,14461,38850,41570,43061,43209,45921],"checkbox_events":[17375,18006,18837,22380,23267,25047,25844,27027.00000000006,27775,31321,32332,33578,34087,34884,35665],"key_events":[],"mouse_events":[0,9267,14461,17375,18006,18837,22380,23267,25047,25844,27027.00000000006,27775,31321,32332,33578,34087,34884,35665,38850,41570,43061,43209,45921,46846],"honeypot":0,"survey":"mace","page":1,"trial_type":"survey-mace","trial_index":9,"time_elapsed":393435,"internal_node_id":"0.0-9.0","task_version":"prescreen-v0.3","browser_interactions":0},{"responses":{"01":"No","02":"No","03":"No","04":"No","05":"No","06":"No","07":"No","08":"No"},"rt":16210,"item_order":[0,1,2,3,4,5,6,7],"radio_events":[2847,4440.000000000058,6926,9547,11121,12938,14663,15502],"checkbox_events":[],"key_events":[],"mouse_events":[2847,4440.000000000058,6926,9547,11121,12938,14663,15502,16203],"honeypot":0,"survey":"mace","page":2,"trial_type":"survey-mace","trial_index":10,"time_elapsed":409652,"internal_node_id":"0.0-10.0","task_version":"prescreen-v0.3","browser_interactions":0},{"responses":{"01":"No","02":"No","03":"No","04":"No"},"rt":7172,"item_order":[0,1,2,3],"radio_events":[2085,3251,4448,6403.000000000058],"checkbox_events":[],"key_events":[],"mouse_events":[2085,3251,4448,6403.000000000058,7167],"honeypot":0,"survey":"mace","page":3,"trial_type":"survey-mace","trial_index":11,"time_elapsed":416828,"internal_node_id":"0.0-11.0","task_version":"prescreen-v0.3","browser_interactions":0},{"responses":{"01":"No","02":"No"},"rt":15508,"item_order":[0,1],"radio_events":[11987,14412.000000000058],"checkbox_events":[],"key_events":[],"mouse_events":[11987,14412.000000000058,15505],"honeypot":0,"survey":"mace","page":4,"trial_type":"survey-mace","trial_index":12,"time_elapsed":432340,"internal_node_id":"0.0-12.0","task_version":"prescreen-v0.3","browser_interactions":0},{"responses":{"01":"No","02":"No","03":"No","04":"No","05":"No"},"rt":16267,"item_order":[0,1,2,3,4],"radio_events":[6985,10696,12212,13913,15521],"checkbox_events":[],"key_events":[],"mouse_events":[6985,10696,12212,13913,15521,16260],"honeypot":0,"survey":"mace","page":5,"trial_type":"survey-mace","trial_index":13,"time_elapsed":448614,"internal_node_id":"0.0-13.0","task_version":"prescreen-v0.3","browser_interactions":0},{"responses":{"01":"No","02":"No","03":"No","04":"No","05":"No"},"rt":15164,"item_order":[0,1,2,3,4],"radio_events":[6382,7800,8638.000000000058,10142,10915],"checkbox_events":[],"key_events":[],"mouse_events":[6382,7800,8638.000000000058,10142,10915,15159],"honeypot":0,"survey":"mace","page":6,"trial_type":"survey-mace","trial_index":14,"time_elapsed":463784,"internal_node_id":"0.0-14.0","task_version":"prescreen-v0.3","browser_interactions":0},{"responses":{"01":"No","02":"No","03":"No","04":"No","05":"No","06":"No","07":"No"},"rt":22889,"item_order":[0,1,2,3,4,5,6],"radio_events":[8409,11766.000000000058,13698,16417,18464,21082,22018],"checkbox_events":[],"key_events":[],"mouse_events":[8409,11766.000000000058,13698,16417,17815,18464,19619,21082,22018,22882],"honeypot":0,"survey":"mace","page":7,"trial_type":"survey-mace","trial_index":15,"time_elapsed":486679,"internal_node_id":"0.0-15.0","task_version":"prescreen-v0.3","browser_interactions":0},{"responses":{"01":"No","02":"Yes","02_ages_6":"6","02_ages_7":"7","02_ages_8":"8","02_ages_9":"9","02_ages_10":"10","02_ages_11":"11","02_ages_12":"12","02_ages_13":"13","02_ages_14":"14","02_ages_15":"15","02_ages_16":"16","02_ages_17":"17","02_ages_18":"18","03":"Yes","03_ages_6":"6","03_ages_7":"7","03_ages_8":"8","03_ages_9":"9","03_ages_10":"10","03_ages_11":"11","03_ages_12":"12","03_ages_13":"13","03_ages_14":"14","03_ages_15":"15","03_ages_16":"16","03_ages_17":"17","03_ages_18":"18","04":"Yes","04_ages_7":"7","04_ages_8":"8","04_ages_9":"9","04_ages_10":"10","04_ages_11":"11","04_ages_12":"12","04_ages_13":"13","04_ages_14":"14","04_ages_15":"15","04_ages_16":"16","04_ages_17":"17","04_ages_18":"18"},"rt":62182,"item_order":[0,1,2,3],"radio_events":[3837,10670,34300,50300],"checkbox_events":[12457,13230,15062,15934,16353,16816.00000000006,17367,17968,18428,19028,20087,20556,21033,21756,22836,23437,24168,24907.99999999994,26008.99999999994,26591.00000000006,27277.99999999994,27977.00000000006,28602.00000000006,36588,37452,38036,38783,39572.00000000012,40126,40694,41385,41926,42419,42986,43661,44214,44831,45776,52009,52954,53530,54182,55095,55678,56221.00000000012,56796,57527,58369,59110,59775,60663.00000000012,61287],"key_events":[],"mouse_events":[3837,10670,12457,13230,15062,15934,16353,16816.00000000006,17367,17968,18428,19028,19578.00000000006,20087,20556,21033,21756,22326,22836,23437,24168,24907.99999999994,26008.99999999994,26591.00000000006,27277.99999999994,27977.00000000006,28602.00000000006,34300,36588,37452,38036,38783,39572.00000000012,40126,40694,41385,41926,42419,42986,43661,44214,44831,45209,45776,50300,52009,52954,53530,54182,55095,55678,56221.00000000012,56796,57527,58369,59110,59775,60663.00000000012,61287,62175],"honeypot":0,"survey":"mace","page":8,"trial_type":"survey-mace","trial_index":16,"time_elapsed":548868,"internal_node_id":"0.0-16.0","task_version":"prescreen-v0.3","browser_interactions":0},{"responses":{"01":"Yes","01_ages_1":"1","01_ages_2":"2","01_ages_3":"3","01_ages_4":"4","01_ages_5":"5","01_ages_6":"6","01_ages_7":"7","01_ages_8":"8","01_ages_9":"9","01_ages_10":"10","01_ages_11":"11","01_ages_12":"12","01_ages_13":"13","01_ages_14":"14","01_ages_15":"15","01_ages_16":"16","01_ages_17":"17","01_ages_18":"18","02":"Yes","02_ages_1":"1","02_ages_2":"2","02_ages_3":"3","02_ages_4":"4","02_ages_5":"5","02_ages_6":"6","02_ages_7":"7","02_ages_8":"8","02_ages_9":"9","02_ages_10":"10","02_ages_11":"11","02_ages_12":"12","02_ages_13":"13","02_ages_14":"14","02_ages_15":"15","02_ages_16":"16","02_ages_17":"17","02_ages_18":"18","03":"Yes","03_ages_1":"1","03_ages_2":"2","03_ages_3":"3","03_ages_4":"4","03_ages_5":"5","03_ages_6":"6","03_ages_7":"7","03_ages_8":"8","03_ages_9":"9","03_ages_10":"10","03_ages_11":"11","03_ages_12":"12","03_ages_13":"13","03_ages_14":"14","03_ages_15":"15","03_ages_16":"16","03_ages_17":"17","03_ages_18":"18","04":"Yes","04_ages_1":"1","04_ages_2":"2","04_ages_3":"3","04_ages_4":"4","04_ages_5":"5","04_ages_6":"6","04_ages_7":"7","04_ages_8":"8","04_ages_9":"9","04_ages_10":"10","04_ages_11":"11","04_ages_12":"12","04_ages_13":"13","04_ages_14":"14","04_ages_15":"15","04_ages_16":"16","04_ages_17":"17","04_ages_18":"18"},"rt":71013,"item_order":[0,1,2,3],"radio_events":[6353,22726,37756,53744],"checkbox_events":[12545,13105.000000000116,13720,14300,14694,15352,15729,16214,16856,17397,17965,18425,19145,19506,20064,20516,21133,21527,23545,24095,24514,24974,25525,25985.000000000116,26527,27626,28208,28964,29958,30591,31182.000000000116,31762,32542,33299,34161,34826.00000000012,39121,39982,40513,40899,41384.00000000012,41827,42617,43102,43693,44252,45095,45563,46911,47502,48102,48653.00000000012,49257,49692,55416,55843,56911,58637,59714,60346,60959,61789,62274,63145,65331.00000000012,65824,66357,67465,68260,68909,69510,70356],"key_events":[],"mouse_events":[6353,12545,13105.000000000116,13720,14300,14694,15352,15729,16214,16856,17397,17965,18425,19145,19506,20064,20516,21133,21527,22726,23545,24095,24514,24974,25525,25985.000000000116,26527,26889,27626,28208,28964,29383,29958,30591,31182.000000000116,31762,32542,33299,34161,34826.00000000012,37756,39121,39982,40513,40899,41384.00000000012,41827,42617,43102,43693,44252,45095,45563,46213,46911,47502,48102,48653.00000000012,49257,49692,52314,53744,55416,55843,56911,57849,58637,59188,59714,60346,60959,61789,62274,63145,63753,64501,65331.00000000012,65824,66357,67465,68260,68909,69510,70356,71005],"honeypot":0,"survey":"mace","page":9,"trial_type":"survey-mace","trial_index":17,"time_elapsed":619888,"internal_node_id":"0.0-17.0","task_version":"prescreen-v0.3","browser_interactions":0},{"responses":{"01":"No","02":"No","03":"No","04":"No","05":"No","06":"Yes","06_ages_17":"17","07":"Yes","07_ages_1":"1","07_ages_2":"2","07_ages_3":"3","07_ages_4":"4","07_ages_5":"5","07_ages_6":"6","07_ages_7":"7","07_ages_8":"8","07_ages_9":"9","07_ages_10":"10","07_ages_11":"11","07_ages_12":"12","07_ages_13":"13","07_ages_14":"14","07_ages_15":"15","07_ages_16":"16","07_ages_17":"17","07_ages_18":"18","08":"Yes","08_ages_1":"1","08_ages_2":"2","08_ages_3":"3","08_ages_4":"4","08_ages_5":"5","08_ages_6":"6","08_ages_7":"7","08_ages_8":"8","08_ages_9":"9","08_ages_10":"10","08_ages_11":"11","08_ages_12":"12","08_ages_13":"13","08_ages_14":"14","08_ages_15":"15","08_ages_16":"16","08_ages_17":"17","08_ages_18":"18"},"rt":63934,"item_order":[0,1,2,3,4,5,6,7],"radio_events":[16242,17360,19110,21178,23290,27106,31417,33859,49274],"checkbox_events":[29206,34980,35645,36134,37408,37974,38952,39511,40152,40863.00000000012,41471,42038,43509,43978.00000000012,44980,45505,46274,47194,47852,50814,51422,52055.00000000012,52770,53625,54201,54755,55914,56660,57500,58239,58966,59550,60281.00000000012,61037,61621,62254,62935.00000000012],"key_events":[],"mouse_events":[16242,17360,19110,21178,23290,27106,29206,31417,33859,34980,35645,36134,36700,37408,37974,38385,38952,39511,40152,40863.00000000012,41471,42038,42925,43509,43978.00000000012,44980,45505,46274,47194,47852,49274,50814,51422,52055.00000000012,52770,53625,54201,54755,55289,55914,56660,57500,58239,58966,59550,60281.00000000012,61037,61621,62254,62935.00000000012,63926],"honeypot":0,"survey":"mace","page":10,"trial_type":"survey-mace","trial_index":18,"time_elapsed":683833,"internal_node_id":"0.0-18.0","task_version":"prescreen-v0.3","browser_interactions":0,"instructed":0},{"rt":772786.0000000002,"trial_type":"mental-health-alert","trial_index":19,"time_elapsed":1611178,"internal_node_id":"0.0-19.0","task_version":"prescreen-v0.3","interactions":"[{\"event\":\"blur\",\"trial\":19,\"time\":1195173},{\"event\":\"focus\",\"trial\":19,\"time\":1195986},{\"event\":\"blur\",\"trial\":19,\"time\":1435847},{\"event\":\"focus\",\"trial\":19,\"time\":1607930}]"}]