[{"view_history":[{"page_index":0,"viewing_time":3761},{"page_index":1,"viewing_time":3733},{"page_index":2,"viewing_time":6499},{"page_index":3,"viewing_time":2169}],"rt":16162,"trial_type":"instructions","trial_index":0,"time_elapsed":16165,"internal_node_id":"0.0-0.0","task_version":"prescreen-v0.3"},{"rt":31746,"responses":{"age":"32","gender-categorical":"Male","gender-free-response":"","ethnicity":"Not Hispanic or Latino","race":["White"],"education":"Less than high school","siblings":"0"},"trial_type":"survey-demo","trial_index":1,"time_elapsed":47917,"internal_node_id":"0.0-1.0","task_version":"prescreen-v0.3"},{"responses":{"Q18":"1","Q17":"1","Q06":"1","Q12":"2","Q10":"1","Q09":"1","Q04":"1","Q08":"2","Q21":"3","Q13":"2","Q19":"2","Q07":"2","Q15":"3","Q01":"2","Q16":"3","Q20":"2","Q11":"0","Q02":"1","Q05":"1","Q03":"1","Q14":"3"},"rt":173055,"item_order":[17,16,5,11,9,8,3,7,20,12,18,6,14,0,15,19,10,1,4,2,13],"radio_events":[5517,16672,17673,31934,36216,41346,45843,109341,112518,115720,122526,127543,135964,141236,146241,150842,153942,158304,164524,167576,172504],"key_events":[],"mouse_events":[5517,16672,17673,24498,31934,36216,41346,43792,45421,45843,109341,112047,112518,115720,122526,127543,135035,135552,135964,141236,145774,146241,149186,149653,150172,150842,153277,153942,157810,158304,164524,167576,172504,173055],"straightlining":0.42857142857142855,"zigzagging":0.5,"honeypot":0,"survey":"sns","trial_type":"survey-template","trial_index":2,"time_elapsed":220977,"internal_node_id":"0.0-2.0","task_version":"prescreen-v0.3","browser_interactions":2,"infrequency":0},{"responses":{"Q01":"3","Q09":"1","Q03":"3","Q13":"0","Q04":"2","Q11":"1","Q02":"1","Q08":"2","Q07":"2","Q06":"1","Q10":"1","Q12":"1","Q05":"2"},"rt":121348,"item_order":[0,8,2,12,3,10,1,7,6,5,9,11,4],"radio_events":[5663,61297,66235,71545,81017,90543,93077,104177,105613,111453,114075,116565,119109],"key_events":[],"mouse_events":[5663,61297,66235,71545,81017,90543,93077,104177,105613,111099,111453,113549,114075,116565,118755,119109,121348],"straightlining":0.46153846153846156,"zigzagging":0.4166666666666667,"honeypot":0,"survey":"bisbas","trial_type":"survey-template","trial_index":3,"time_elapsed":342328,"internal_node_id":"0.0-3.0","task_version":"prescreen-v0.3","browser_interactions":0,"infrequency":0},{"responses":{"Q01":"2","Q02":"3","Q03":"2"},"rt":22548,"radio_events":[11891,16380,17161,17971,21773],"key_events":[],"mouse_events":[10959,11521,11891,15959,16380,17161,17661,17971,21383,21773,22548],"survey":"map","page":1,"trial_type":"survey-map","trial_index":4,"time_elapsed":364877,"internal_node_id":"0.0-4.0","task_version":"prescreen-v0.3","browser_interactions":0},{"responses":{"Q04":"3","Q05":"3","Q06":"3"},"rt":12171,"radio_events":[4441,7327,11599],"key_events":[],"mouse_events":[4441,7327,11599,12171],"survey":"map","page":2,"trial_type":"survey-map","trial_index":5,"time_elapsed":377051,"internal_node_id":"0.0-5.0","task_version":"prescreen-v0.3","browser_interactions":0},{"responses":{"Q07":"1","Q08":"4","Q09":"3"},"rt":11793,"radio_events":[6562,9339,11120],"key_events":[],"mouse_events":[6562,9339,11120,11793],"survey":"map","page":3,"trial_type":"survey-map","trial_index":6,"time_elapsed":388847,"internal_node_id":"0.0-6.0","task_version":"prescreen-v0.3","browser_interactions":0},{"responses":{"Q10":"1","Q11":"1","Q12":"0","Q13":"0","Q16":"0","Q14":"2","Q15":"2"},"rt":40041,"radio_events":[5271,8295,16203,17620,20625,31917,39317],"key_events":[],"mouse_events":[5271,8295,13767,15833,16203,16779,17161,17620,20625,31917,39317,40041],"survey":"map","page":4,"trial_type":"survey-map","trial_index":7,"time_elapsed":428891,"internal_node_id":"0.0-7.0","task_version":"prescreen-v0.3","browser_interactions":0,"infrequency":0},{"view_history":[{"page_index":0,"viewing_time":2145},{"page_index":1,"viewing_time":4592}],"rt":6737,"trial_type":"instructions","trial_index":8,"time_elapsed":435630,"internal_node_id":"0.0-8.0","task_version":"prescreen-v0.3"},{"responses":{"01":"Yes","01_ages_5":"5","01_ages_6":"6","01_ages_7":"7","01_ages_8":"8","01_ages_9":"9","01_ages_10":"10","01_ages_11":"11","01_ages_12":"12","01_ages_13":"13","01_ages_14":"14","01_ages_15":"15","01_ages_16":"16","01_ages_17":"17","01_ages_18":"18","02":"Yes","02_ages_5":"5","02_ages_6":"6","02_ages_7":"7","02_ages_8":"8","02_ages_9":"9","02_ages_10":"10","02_ages_11":"11","02_ages_12":"12","02_ages_13":"13","02_ages_14":"14","02_ages_15":"15","02_ages_16":"16","02_ages_17":"17","02_ages_18":"18","03":"Yes","03_ages_8":"8","03_ages_9":"9","03_ages_10":"10","03_ages_11":"11","03_ages_12":"12","03_ages_13":"13","03_ages_14":"14","03_ages_15":"15","03_ages_16":"16","03_ages_17":"17","03_ages_18":"18","04":"Yes","04_ages_5":"5","04_ages_6":"6","04_ages_7":"7","04_ages_8":"8","04_ages_9":"9","04_ages_10":"10","04_ages_11":"11","04_ages_12":"12","04_ages_13":"13","04_ages_14":"14","04_ages_15":"15","04_ages_16":"16","05":"Yes","05_ages_5":"5","05_ages_6":"6","06":"Yes","06_ages_4":"4","06_ages_5":"5","06_ages_6":"6","06_ages_7":"7","06_ages_8":"8","06_ages_9":"9","06_ages_10":"10","06_ages_11":"11","06_ages_12":"12","06_ages_13":"13","06_ages_14":"14","06_ages_15":"15","06_ages_16":"16","06_ages_17":"17","06_ages_18":"18"},"rt":141620,"item_order":[0,1,2,3,4,5],"radio_events":[9362,28306,48446,65307,102660,126357],"checkbox_events":[14240,14606,14960,15359,16846,17375,17840,18275,18692,20318,21886,22800,23220,24178,29234,30094,30698,31394,31912,37190,39408,39770,40238,40676,43438,44905,45546,45907,50920,51810,52816,53142,53692,54475,54974,55422,56059,57209,58441,59244,62158,66998,67782,68880,69253,69806,70195,70788,71244,71606,72126,72760,73186,73598,74074,95431,95907,97466,97600,115228,117081,127606,128085,129069,129636,130419,130956,131440,132252,136515,136862,137591,137926,138283,140488,141116],"key_events":[],"mouse_events":[6,9362,14240,14606,14960,15359,16072,16846,17375,17840,18275,18692,19136,20318,21886,22800,23220,24178,27880,28306,29234,30094,30698,31394,31912,37190,39408,39770,40238,40676,43438,44352,44905,45546,45907,48446,50920,51810,52472,52816,53142,53692,54475,54974,55422,56059,57209,58441,59244,62158,65307,66998,67782,68307,68880,69253,69806,70195,70788,71244,71606,72126,72760,73186,73598,74074,78082,95431,95907,97466,97600,102660,115228,116624,117081,126357,127606,128085,129069,129636,130011,130419,130956,131440,132252,136515,136862,137274,137591,137926,138283,140488,140818,141116,141620],"honeypot":0,"survey":"mace","page":1,"trial_type":"survey-mace","trial_index":9,"time_elapsed":577260,"internal_node_id":"0.0-9.0","task_version":"prescreen-v0.3","browser_interactions":0},{"responses":{"01":"Yes","01_ages_11":"11","01_ages_12":"12","01_ages_13":"13","01_ages_14":"14","01_ages_15":"15","02":"No","03":"Yes","03_ages_4":"4","03_ages_5":"5","03_ages_6":"6","04":"Yes","04_ages_4":"4","04_ages_5":"5","04_ages_6":"6","05":"Yes","05_ages_5":"5","06":"Yes","06_ages_3":"3","06_ages_4":"4","06_ages_5":"5","06_ages_6":"6","06_ages_7":"7","06_ages_8":"8","06_ages_9":"9","06_ages_10":"10","06_ages_11":"11","06_ages_12":"12","06_ages_13":"13","06_ages_14":"14","06_ages_15":"15","06_ages_16":"16","06_ages_17":"17","06_ages_18":"18","07":"Yes","07_ages_9":"9","08":"Yes","08_ages_4":"4"},"rt":151642,"item_order":[0,1,2,3,4,5,6,7],"radio_events":[32916,58167,59971,71299,99322,101252,108963,125220,133003],"checkbox_events":[39771,40402,43965,44371,46349,63163,63713,64253,73284,74212,74819,103407,112125,112990,113268,114224,115044,115340,116151,117204,117606,118279,118640,119334,120317,121288,121579,121886,130119,134603,138596,139001,141764,143936],"key_events":[],"mouse_events":[32916,39771,40402,43965,44371,46349,58167,59971,63163,63713,64253,71299,73284,74212,74819,99322,101252,103407,108963,112125,112990,113268,113789,114224,114726,115044,115340,115654,115912,116151,116480,116912,117204,117606,117983,118279,118640,119014,119334,119993,120317,120667,121288,121579,121886,125220,129727,130119,133003,134603,138596,139001,141764,143936,151642],"honeypot":0,"survey":"mace","page":2,"trial_type":"survey-mace","trial_index":10,"time_elapsed":728912,"internal_node_id":"0.0-10.0","task_version":"prescreen-v0.3","browser_interactions":0},{"responses":{"01":"No","02":"No","03":"No","04":"No"},"rt":17144,"item_order":[0,1,2,3],"radio_events":[11384,12808,15073,16552],"checkbox_events":[],"key_events":[],"mouse_events":[11045,11384,12808,15073,16552,17144],"honeypot":0,"survey":"mace","page":3,"trial_type":"survey-mace","trial_index":11,"time_elapsed":746062,"internal_node_id":"0.0-11.0","task_version":"prescreen-v0.3","browser_interactions":0},{"responses":{"01":"No","02":"No"},"rt":17661,"item_order":[0,1],"radio_events":[7458,11919,15857],"checkbox_events":[],"key_events":[],"mouse_events":[7458,11919,15857,17661],"honeypot":0,"survey":"mace","page":4,"trial_type":"survey-mace","trial_index":12,"time_elapsed":763729,"internal_node_id":"0.0-12.0","task_version":"prescreen-v0.3","browser_interactions":0},{"responses":{"01":"Yes","01_ages_5":"5","01_ages_6":"6","01_ages_7":"7","01_ages_8":"8","01_ages_9":"9","01_ages_10":"10","01_ages_11":"11","01_ages_12":"12","01_ages_13":"13","01_ages_14":"14","01_ages_15":"15","01_ages_16":"16","01_ages_17":"17","01_ages_18":"18","02":"Yes","02_ages_5":"5","02_ages_6":"6","02_ages_7":"7","02_ages_8":"8","02_ages_9":"9","02_ages_10":"10","02_ages_11":"11","02_ages_12":"12","02_ages_13":"13","02_ages_14":"14","02_ages_15":"15","02_ages_16":"16","02_ages_17":"17","02_ages_18":"18","03":"Yes","03_ages_8":"8","03_ages_9":"9","03_ages_10":"10","04":"Yes","04_ages_8":"8","04_ages_9":"9","04_ages_10":"10","05":"No"},"rt":73212,"item_order":[0,1,2,3,4],"radio_events":[10513,26234,50146,60048,70366],"checkbox_events":[14163,14489,14829,15935,16445,16797,17349,17939,18346,18909,19302,19846,20144,20989,31679,33638,34473,34756,35081,35401,36361,36735,40914,41425,42200,42917,43535,43823,52933,54134,56381,60938,61821,62495,62983,66526],"key_events":[],"mouse_events":[10513,14163,14489,14829,15093,15935,16445,16797,17349,17939,18346,18909,19302,19846,20144,20989,26234,31679,33638,34473,34756,35081,35401,35819,36361,36735,40283,40914,41425,41741,42200,42917,43242,43535,43823,50146,52933,54134,56381,60048,60938,61821,62110,62495,62983,66526,70366,73212],"honeypot":0,"survey":"mace","page":5,"trial_type":"survey-mace","trial_index":13,"time_elapsed":836949,"internal_node_id":"0.0-13.0","task_version":"prescreen-v0.3","browser_interactions":0},{"responses":{"01":"Yes","01_ages_4":"4","01_ages_5":"5","01_ages_6":"6","01_ages_7":"7","01_ages_8":"8","01_ages_9":"9","01_ages_10":"10","01_ages_11":"11","01_ages_12":"12","01_ages_13":"13","01_ages_14":"14","02":"Yes","02_ages_5":"5","02_ages_6":"6","02_ages_7":"7","02_ages_8":"8","02_ages_9":"9","02_ages_10":"10","02_ages_11":"11","02_ages_12":"12","02_ages_13":"13","02_ages_14":"14","02_ages_15":"15","02_ages_16":"16","02_ages_17":"17","02_ages_18":"18","03":"Yes","03_ages_5":"5","03_ages_6":"6","03_ages_7":"7","03_ages_8":"8","03_ages_9":"9","03_ages_10":"10","03_ages_11":"11","03_ages_12":"12","03_ages_13":"13","03_ages_14":"14","03_ages_15":"15","03_ages_16":"16","03_ages_17":"17","03_ages_18":"18","04":"Yes","04_ages_5":"5","04_ages_6":"6","04_ages_7":"7","04_ages_8":"8","04_ages_9":"9","04_ages_10":"10","04_ages_11":"11","04_ages_12":"12","04_ages_13":"13","04_ages_14":"14","04_ages_15":"15","04_ages_16":"16","04_ages_17":"17","04_ages_18":"18","05":"Yes","05_ages_5":"5","05_ages_6":"6","05_ages_7":"7","05_ages_8":"8","05_ages_9":"9","05_ages_10":"10","05_ages_11":"11","05_ages_12":"12","05_ages_13":"13","05_ages_14":"14"},"rt":82623,"item_order":[0,1,2,3,4],"radio_events":[7757,20595,32609,43623,65658],"checkbox_events":[9987,10603,11369,11766,12237,12709,13176,13623,14917,15338,15899,22949,23755,24225,24581,24911,26178,26491,27286,27735,28444,28952,29613,30036,30441,34183,34689,35022,37205,37499,38061,38397,39057,39392,39738,40133,40503,41330,41761,46197,46553,47069,47470,47821,48141,48933,50138,50548,51833,53263,53732,55149,56019,57090,58045,74447,74715,75367,75873,76219,76696,77155,77619,77930,80853],"key_events":[],"mouse_events":[6999,7757,9987,10603,11369,11766,12237,12709,13176,13623,14277,14917,15338,15899,20595,22949,23313,23755,24225,24581,24911,25259,25813,26178,26491,27286,27735,28128,28444,28952,29613,30036,30441,32609,34183,34689,35022,35879,36890,37205,37499,37803,38061,38397,38737,39057,39392,39738,40133,40503,41001,41330,41761,43623,46197,46553,47069,47470,47821,48141,48933,50138,50548,51833,53263,53732,55149,56019,56617,57090,58045,65658,74447,74715,75035,75367,75873,76219,76696,77155,77619,77930,78441,80853,82623],"honeypot":0,"survey":"mace","page":6,"trial_type":"survey-mace","trial_index":14,"time_elapsed":919579,"internal_node_id":"0.0-14.0","task_version":"prescreen-v0.3","browser_interactions":0},{"responses":{"01":"Yes","01_ages_5":"5","01_ages_6":"6","01_ages_7":"7","01_ages_8":"8","01_ages_9":"9","01_ages_10":"10","01_ages_11":"11","02":"Yes","02_ages_4":"4","02_ages_5":"5","02_ages_6":"6","02_ages_7":"7","02_ages_8":"8","02_ages_9":"9","02_ages_10":"10","02_ages_11":"11","02_ages_12":"12","02_ages_13":"13","02_ages_14":"14","02_ages_15":"15","03":"Yes","03_ages_5":"5","03_ages_6":"6","03_ages_7":"7","03_ages_8":"8","03_ages_9":"9","03_ages_10":"10","03_ages_11":"11","03_ages_12":"12","03_ages_13":"13","04":"Yes","04_ages_4":"4","04_ages_5":"5","04_ages_6":"6","04_ages_7":"7","04_ages_8":"8","04_ages_9":"9","04_ages_10":"10","04_ages_11":"11","04_ages_12":"12","04_ages_13":"13","04_ages_14":"14","05":"Yes","05_ages_13":"13","05_ages_14":"14","06":"Yes","06_ages_5":"5","07":"Yes","07_ages_5":"5"},"rt":93597,"item_order":[0,1,2,3,4,5,6],"radio_events":[6255,19831,32845,45492,60585,73299,91061],"checkbox_events":[7343,7749,10805,13228,13869,15165,18122,21872,22182,22469,22741,23007,23736,24847,25416,26915,27829,29683,30267,34497,35329,36249,36729,37267,37635,37973,39693,43013,46959,47387,47719,48133,48517,48957,49793,51301,52259,52923,54612,65827,68167,68587,69281,75450,92246],"key_events":[],"mouse_events":[6255,7343,7749,10805,12445,13228,13869,15165,17837,18122,19831,21519,21872,22182,22469,22741,23007,23260,23736,23991,24563,24847,25147,25416,25823,26569,26915,27829,28801,29683,30267,32845,34497,35329,35618,36249,36729,37267,37635,37973,39693,43013,45492,46959,47387,47719,48133,48517,48957,49793,51301,52259,52923,54612,60585,65827,68167,68587,69281,73299,75450,91061,92246,93597],"honeypot":0,"survey":"mace","page":7,"trial_type":"survey-mace","trial_index":15,"time_elapsed":1013186,"internal_node_id":"0.0-15.0","task_version":"prescreen-v0.3","browser_interactions":0},{"responses":{"01":"Yes","01_ages_4":"4","01_ages_5":"5","01_ages_6":"6","01_ages_7":"7","01_ages_8":"8","01_ages_9":"9","01_ages_10":"10","01_ages_11":"11","01_ages_12":"12","01_ages_13":"13","01_ages_14":"14","01_ages_15":"15","01_ages_16":"16","01_ages_17":"17","01_ages_18":"18","02":"Yes","02_ages_5":"5","02_ages_6":"6","02_ages_7":"7","02_ages_8":"8","02_ages_9":"9","03":"Yes","03_ages_5":"5","03_ages_6":"6","03_ages_7":"7","03_ages_8":"8","03_ages_9":"9","03_ages_10":"10","03_ages_11":"11","03_ages_12":"12","03_ages_13":"13","03_ages_14":"14","03_ages_15":"15","03_ages_16":"16","03_ages_17":"17","03_ages_18":"18","04":"Yes","04_ages_4":"4","04_ages_5":"5","04_ages_6":"6","04_ages_7":"7","04_ages_8":"8","04_ages_9":"9","04_ages_10":"10","04_ages_11":"11","04_ages_12":"12","04_ages_13":"13","04_ages_14":"14","04_ages_15":"15","04_ages_16":"16","04_ages_17":"17","04_ages_18":"18"},"rt":74044,"item_order":[0,1,2,3],"radio_events":[18901,33585,51363,63233],"checkbox_events":[21773,22061,22525,23978,24454,24914,25213,25559,26053,27059,27390,27722,28255,28719,29075,35853,36385,36755,38731,39659,52632,53435,53779,54778,55057,55347,55679,56439,57903,58173,58461,58858,59197,59502,59842,60851,64607,65527,66637,67075,67611,68195,69018,69290,69593,69791,70653,70998,71356,71831,72145,72963,73441],"key_events":[],"mouse_events":[9382,18035,18901,21141,21773,22061,22525,23015,23673,23978,24454,24914,25213,25559,26053,26529,27059,27390,27722,28255,28719,29075,33585,35853,36385,36755,38731,39659,51363,52632,52895,53435,53779,54449,54778,55057,55347,55679,56439,57903,58173,58461,58858,59197,59502,59842,60851,63233,64607,65216,65527,65825,66637,67075,67611,68195,68742,69018,69290,69593,69791,70653,70998,71356,71831,72145,72547,72963,73441,74044],"honeypot":0,"survey":"mace","page":8,"trial_type":"survey-mace","trial_index":16,"time_elapsed":1087238,"internal_node_id":"0.0-16.0","task_version":"prescreen-v0.3","browser_interactions":0},{"responses":{"01":"Yes","01_ages_1":"1","01_ages_2":"2","01_ages_3":"3","01_ages_4":"4","01_ages_5":"5","01_ages_6":"6","01_ages_7":"7","01_ages_8":"8","01_ages_9":"9","01_ages_10":"10","01_ages_11":"11","01_ages_12":"12","01_ages_13":"13","01_ages_14":"14","01_ages_15":"15","01_ages_16":"16","01_ages_17":"17","01_ages_18":"18","02":"Yes","02_ages_4":"4","02_ages_5":"5","02_ages_6":"6","02_ages_7":"7","02_ages_8":"8","02_ages_9":"9","02_ages_10":"10","02_ages_11":"11","02_ages_12":"12","02_ages_13":"13","03":"No","04":"Yes","04_ages_1":"1","04_ages_2":"2","04_ages_3":"3","04_ages_4":"4","04_ages_5":"5","04_ages_6":"6","04_ages_7":"7","04_ages_8":"8","04_ages_9":"9","04_ages_10":"10","04_ages_11":"11","04_ages_12":"12","04_ages_13":"13","04_ages_14":"14","04_ages_15":"15","04_ages_16":"16","04_ages_17":"17","04_ages_18":"18"},"rt":114714,"item_order":[0,1,2,3],"radio_events":[40275,69080,90262,101932],"checkbox_events":[49440,49744,50057,51156,51846,53098,54932,55796,56223,56528,57061,57543,58297,59456,60001,60364,60792,61678,74038,74950,75634,76484,77510,77825,78839,79143,79597,80212,103986,104309,104641,105408,105763,106921,107210,107642,108096,108642,109821,110465,111204,112305,112701,113166,113604,114134],"key_events":[],"mouse_events":[40275,49440,49744,50057,51156,51530,51846,53098,54069,54932,55796,56223,56528,57061,57543,57943,58297,58708,59134,59456,60001,60364,60792,61178,61678,69080,74038,74387,74950,75634,76484,77510,77825,78839,79143,79597,80212,90262,101932,103413,103986,104309,104641,105021,105408,105763,106251,106921,107210,107642,108096,108642,109474,109821,110465,111204,112305,112701,113166,113604,114134,114714],"honeypot":0,"survey":"mace","page":9,"trial_type":"survey-mace","trial_index":17,"time_elapsed":1201960,"internal_node_id":"0.0-17.0","task_version":"prescreen-v0.3","browser_interactions":0},{"responses":{"01":"Yes","01_ages_5":"5","01_ages_6":"6","01_ages_10":"10","01_ages_11":"11","02":"Yes","02_ages_5":"5","02_ages_6":"6","02_ages_7":"7","02_ages_8":"8","02_ages_9":"9","02_ages_10":"10","02_ages_11":"11","02_ages_12":"12","03":"No","04":"Yes","04_ages_5":"5","04_ages_6":"6","04_ages_7":"7","04_ages_8":"8","04_ages_9":"9","04_ages_10":"10","04_ages_11":"11","04_ages_12":"12","04_ages_13":"13","04_ages_14":"14","04_ages_15":"15","04_ages_16":"16","04_ages_17":"17","04_ages_18":"18","05":"Yes","05_ages_5":"5","05_ages_6":"6","05_ages_13":"13","05_ages_14":"14","05_ages_15":"15","05_ages_16":"16","05_ages_17":"17","05_ages_18":"18","06":"Yes","06_ages_17":"17","07":"No","08":"No"},"rt":74795,"item_order":[0,1,2,3,4,5,6,7],"radio_events":[8116,25442,37383,41188,43656,58364,67724,72879,74357],"checkbox_events":[11227,11598,12138,17130,18800,19246,27992,28522,30086,30582,30968,31241,31943,32662,32944,34283,45316,45585,45874,48951,49226,49487,50024,50366,51258,51895,52533,53190,53738,54106,60969,61432,62709,63008,63651,63925,64543,65421,68960],"key_events":[],"mouse_events":[8116,11227,11598,12138,17130,18029,18487,18800,19246,25442,27992,28522,30086,30582,30968,31241,31943,32306,32662,32944,33365,34283,37383,41188,43656,45316,45585,45874,48951,49226,49487,50024,50366,50962,51258,51607,51895,52533,53190,53738,54106,58364,60969,61432,62709,63008,63298,63651,63925,64543,64827,65421,67724,68960,72879,74357,74795],"honeypot":0,"survey":"mace","page":10,"trial_type":"survey-mace","trial_index":18,"time_elapsed":1276765,"internal_node_id":"0.0-18.0","task_version":"prescreen-v0.3","browser_interactions":0,"instructed":0},{"rt":38803,"trial_type":"mental-health-alert","trial_index":19,"time_elapsed":1315569,"internal_node_id":"0.0-19.0","task_version":"prescreen-v0.3","interactions":"[{\"event\":\"focus\",\"trial\":0,\"time\":1},{\"event\":\"blur\",\"trial\":2,\"time\":69763},{\"event\":\"focus\",\"trial\":2,\"time\":72307}]"}]