[{"view_history":[{"page_index":0,"viewing_time":2211},{"page_index":1,"viewing_time":4850},{"page_index":2,"viewing_time":4155},{"page_index":3,"viewing_time":1010}],"rt":12227,"trial_type":"instructions","trial_index":0,"time_elapsed":12233,"internal_node_id":"0.0-0.0","task_version":"prescreen-v0.3"},{"rt":20332,"responses":{"age":"21","gender-categorical":"Female","gender-free-response":"","ethnicity":"Hispanic or Latino","race":["White"],"education":"Associate degree"},"trial_type":"survey-demo","trial_index":1,"time_elapsed":32575,"internal_node_id":"0.0-1.0","task_version":"prescreen-v0.3"},{"responses":{"Q18":"1","Q07":"0","Q06":"0","Q17":"0","Q19":"0","Q02":"1","Q16":"1","Q20":"1","Q04":"1","Q08":"3","Q21":"3","Q12":"2","Q11":"1","Q13":"1","Q10":"2","Q05":"1","Q09":"1","Q01":"1","Q15":"1","Q14":"2","Q03":"0"},"rt":460199,"item_order":[17,6,5,16,18,1,15,19,3,7,20,11,10,12,9,4,8,0,14,13,2],"radio_events":[93831,99069,138153,142218,149048,319738,327516,358455.00000000006,361538,364290,368563,374287,379551,386802,389426,423156,430331,434758.00000000006,440259,450401,455518,458217.00000000006],"key_events":[],"mouse_events":[93831,99069,138153,142218,149048,319738,327516,358455.00000000006,361538,364290,368563,372934,374287,379551,386802,389426,423156,430331,434758.00000000006,440259,450401,455518,458217.00000000006,460184],"straightlining":0.5238095238095238,"zigzagging":0.35,"honeypot":0,"survey":"sns","trial_type":"survey-template","trial_index":2,"time_elapsed":492714,"internal_node_id":"0.0-2.0","task_version":"prescreen-v0.3","browser_interactions":0,"infrequency":0},{"responses":{"Q08":"3","Q07":"3","Q02":"3","Q04":"3","Q09":"3","Q13":"0","Q11":"3","Q05":"3","Q12":"2","Q01":"3","Q03":"3","Q10":"3","Q06":"3"},"rt":67943,"item_order":[7,6,1,3,8,12,10,4,11,0,2,9,5],"radio_events":[12559.000000000058,17446.00000000006,23299.99999999994,34944,36421.00000000012,40887.00000000012,45312,49862,54157,56254,59497,62537,67132],"key_events":[],"mouse_events":[12559.000000000058,17446.00000000006,23299.99999999994,27799.99999999994,34944,36421.00000000012,40887.00000000012,45312,49862,54157,56254,59497,62537,66244,67132,67931],"straightlining":0.8461538461538461,"zigzagging":0.3333333333333333,"honeypot":0,"survey":"bisbas","trial_type":"survey-template","trial_index":3,"time_elapsed":560664,"internal_node_id":"0.0-3.0","task_version":"prescreen-v0.3","browser_interactions":3,"infrequency":0},{"responses":{"Q01":"1","Q02":"2","Q03":"2"},"rt":28316,"radio_events":[9883,20922,26969],"key_events":[],"mouse_events":[9883,20922,26969,28312.000000000116],"survey":"map","page":1,"trial_type":"survey-map","trial_index":4,"time_elapsed":588986,"internal_node_id":"0.0-4.0","task_version":"prescreen-v0.3","browser_interactions":0},{"responses":{"Q04":"2","Q05":"2","Q06":"1"},"rt":23042,"radio_events":[8968,10557,12244,18131,21736],"key_events":[],"mouse_events":[8968,10557,12244,18131,21736,23038],"survey":"map","page":2,"trial_type":"survey-map","trial_index":5,"time_elapsed":612030,"internal_node_id":"0.0-5.0","task_version":"prescreen-v0.3","browser_interactions":0},{"responses":{"Q07":"4","Q08":"4","Q09":"2"},"rt":22387,"radio_events":[14078.000000000116,17825,20728],"key_events":[],"mouse_events":[14078.000000000116,17825,20728,22381.000000000116],"survey":"map","page":3,"trial_type":"survey-map","trial_index":6,"time_elapsed":634421,"internal_node_id":"0.0-6.0","task_version":"prescreen-v0.3","browser_interactions":0},{"responses":{"Q10":"1","Q11":"1","Q12":"1","Q13":"2","Q16":"0","Q14":"1","Q15":"3"},"rt":53342,"radio_events":[11362,19067,26979.000000000116,38736,42751,46603,52371],"key_events":[],"mouse_events":[11362,19067,26979.000000000116,38736,42751,46603,52371,53334],"survey":"map","page":4,"trial_type":"survey-map","trial_index":7,"time_elapsed":687768,"internal_node_id":"0.0-7.0","task_version":"prescreen-v0.3","browser_interactions":0,"infrequency":0},{"view_history":[{"page_index":0,"viewing_time":4342},{"page_index":1,"viewing_time":7386}],"rt":11729,"trial_type":"instructions","trial_index":8,"time_elapsed":699500,"internal_node_id":"0.0-8.0","task_version":"prescreen-v0.3"},{"responses":{"01":"Yes","01_ages_8":"8","01_ages_9":"9","01_ages_10":"10","01_ages_11":"11","01_ages_12":"12","01_ages_13":"13","01_ages_14":"14","01_ages_15":"15","01_ages_16":"16","01_ages_17":"17","01_ages_18":"18","02":"Yes","02_ages_8":"8","02_ages_9":"9","02_ages_10":"10","02_ages_11":"11","02_ages_12":"12","02_ages_13":"13","02_ages_14":"14","02_ages_15":"15","02_ages_16":"16","02_ages_17":"17","02_ages_18":"18","03":"Yes","03_ages_6":"6","03_ages_7":"7","03_ages_8":"8","03_ages_9":"9","03_ages_10":"10","03_ages_11":"11","03_ages_12":"12","03_ages_13":"13","03_ages_14":"14","03_ages_15":"15","04":"Yes","04_ages_6":"6","04_ages_7":"7","04_ages_8":"8","04_ages_9":"9","04_ages_10":"10","04_ages_11":"11","04_ages_12":"12","04_ages_13":"13","04_ages_14":"14","05":"No","06":"Yes","06_ages_6":"6","06_ages_7":"7","06_ages_8":"8","06_ages_9":"9","06_ages_10":"10","06_ages_11":"11","06_ages_12":"12","06_ages_13":"13","06_ages_14":"14","06_ages_15":"15","06_ages_16":"16"},"rt":92663,"item_order":[0,1,2,3,4,5],"radio_events":[11111,32663,46669.00000000012,61536,74920,81199],"checkbox_events":[21500,22348,23146,23889,24914,25559,26423,27080,27857,28672,29348,34432,35485,36225,37113,37897,38677,39492,40249,40998,41675,42449,49025.00000000012,50019,50729,51356,52325,52962,53792,54567,55398,57629,63057,64185,64866.00000000012,65728,66497,67272,67946,68849,71694,83664,84251.00000000012,85114,85774,86606,87264,87908,88666,89302,89995,90853],"key_events":[],"mouse_events":[0,11111,21500,22348,23146,23889,24914,25559,26423,27080,27857,28672,29348,32663,34432,35485,36225,37113,37897,38677,39492,40249,40998,41675,42449,46669.00000000012,49025.00000000012,50019,50729,51356,52325,52962,53792,54567,55398,56149,57629,61536,63057,64185,64866.00000000012,65728,66497,67272,67946,68849,70146,70697,71694,74920,81199,83664,84251.00000000012,85114,85774,86606,87264,87908,88666,89302,89995,90853,92643],"honeypot":0,"survey":"mace","page":1,"trial_type":"survey-mace","trial_index":9,"time_elapsed":792175,"internal_node_id":"0.0-9.0","task_version":"prescreen-v0.3","browser_interactions":0},{"responses":{"01":"Yes","01_ages_8":"8","02":"No","03":"Yes","03_ages_6":"6","03_ages_7":"7","03_ages_8":"8","03_ages_9":"9","03_ages_10":"10","03_ages_11":"11","04":"No","05":"Yes","05_ages_6":"6","05_ages_7":"7","05_ages_8":"8","05_ages_9":"9","05_ages_10":"10","05_ages_11":"11","05_ages_12":"12","06":"No","07":"No","08":"No"},"rt":59586,"item_order":[0,1,2,3,4,5,6,7],"radio_events":[6983,17977,20911,34147.00000000012,38070.00000000012,50406,52527.00000000012,55367],"checkbox_events":[12448,22511,23159,23892,24627,25367,26705.000000000116,40565,41308,42454,43321,44294,45370,46096],"key_events":[],"mouse_events":[6983,12448,17977,20911,22511,23159,23892,24627,25367,26705.000000000116,34147.00000000012,38070.00000000012,40565,41308,42454,43321,44294,45370,46096,50406,52527.00000000012,55367,59574],"honeypot":0,"survey":"mace","page":2,"trial_type":"survey-mace","trial_index":10,"time_elapsed":851769,"internal_node_id":"0.0-10.0","task_version":"prescreen-v0.3","browser_interactions":0},{"responses":{"01":"Yes","01_ages_10":"10","01_ages_11":"11","01_ages_12":"12","02":"Yes","02_ages_12":"12","03":"No","04":"No"},"rt":124896,"item_order":[0,1,2,3],"radio_events":[107680.00000000012,116571,122864,123983.00000000012],"checkbox_events":[109987,110574.00000000012,111555.00000000012,119035],"key_events":[],"mouse_events":[107680.00000000012,109987,110574.00000000012,111555.00000000012,116571,119035,122864,123983.00000000012,124884],"honeypot":0,"survey":"mace","page":3,"trial_type":"survey-mace","trial_index":11,"time_elapsed":976671,"internal_node_id":"0.0-11.0","task_version":"prescreen-v0.3","browser_interactions":0},{"responses":{"01":"No","02":"No"},"rt":15897.999999999884,"item_order":[0,1],"radio_events":[5986,6941.999999999884,8031.999999999884,13058.999999999884],"checkbox_events":[],"key_events":[],"mouse_events":[5986,6941.999999999884,8031.999999999884,13058.999999999884,15891.999999999884],"honeypot":0,"survey":"mace","page":4,"trial_type":"survey-mace","trial_index":12,"time_elapsed":992573,"internal_node_id":"0.0-12.0","task_version":"prescreen-v0.3","browser_interactions":0},{"responses":{"01":"Yes","01_ages_6":"6","01_ages_7":"7","01_ages_8":"8","01_ages_9":"9","01_ages_10":"10","01_ages_11":"11","01_ages_12":"12","01_ages_13":"13","02":"Yes","02_ages_6":"6","02_ages_7":"7","02_ages_8":"8","02_ages_9":"9","02_ages_10":"10","02_ages_11":"11","02_ages_12":"12","03":"No","04":"Yes","04_ages_6":"6","04_ages_7":"7","04_ages_8":"8","05":"No"},"rt":61105,"item_order":[0,1,2,3,4],"radio_events":[14939.000000000116,30367,45041,50231.00000000012,59241],"checkbox_events":[17156,18199,18804.000000000116,19804.000000000116,20424.000000000116,21075,21711,23548,32073.999999999884,32710.000000000116,33353.99999999988,34649,36125.00000000012,36916,37611,51602.99999999988,54833,57513],"key_events":[],"mouse_events":[14939.000000000116,17156,18199,18804.000000000116,19804.000000000116,20424.000000000116,21075,21711,23548,30367,32073.999999999884,32710.000000000116,33353.99999999988,34020.00000000012,34649,35237,36125.00000000012,36916,37611,45041,50231.00000000012,51602.99999999988,52275.99999999988,54833,57513,59241,61091],"honeypot":0,"survey":"mace","page":5,"trial_type":"survey-mace","trial_index":13,"time_elapsed":1053684,"internal_node_id":"0.0-13.0","task_version":"prescreen-v0.3","browser_interactions":0},{"responses":{"01":"Yes","01_ages_7":"7","01_ages_8":"8","01_ages_9":"9","01_ages_10":"10","01_ages_11":"11","01_ages_12":"12","01_ages_13":"13","01_ages_14":"14","01_ages_15":"15","01_ages_16":"16","01_ages_17":"17","01_ages_18":"18","02":"Yes","02_ages_6":"6","02_ages_7":"7","02_ages_8":"8","02_ages_9":"9","02_ages_10":"10","02_ages_11":"11","02_ages_12":"12","02_ages_13":"13","02_ages_14":"14","02_ages_15":"15","02_ages_16":"16","02_ages_17":"17","02_ages_18":"18","03":"Yes","03_ages_14":"14","03_ages_15":"15","03_ages_16":"16","04":"Yes","04_ages_15":"15","04_ages_16":"16","04_ages_17":"17","04_ages_18":"18","05":"No"},"rt":56165,"item_order":[0,1,2,3,4],"radio_events":[8126,22171,36983.00000000023,45954.00000000023,54961],"checkbox_events":[10730,11408,12012.000000000233,12770,13445,14146.000000000233,14818,15654,16813,17453,18107,18798,24179,25023,25741,26302,27043,28005,28594,29208,29829.000000000233,31018,31719,32461,33105,38386,39356,39957,48360,49676,50663,51966],"key_events":[],"mouse_events":[8126,10730,11408,12012.000000000233,12770,13445,14146.000000000233,14818,15654,16813,17453,18107,18798,22171,24179,25023,25741,26302,27043,28005,28594,29208,29829.000000000233,31018,31719,32461,33105,36983.00000000023,38386,39356,39957,45954.00000000023,47542,48360,49106,49676,50663,51966,54961,56154],"honeypot":0,"survey":"mace","page":6,"trial_type":"survey-mace","trial_index":14,"time_elapsed":1109857,"internal_node_id":"0.0-14.0","task_version":"prescreen-v0.3","browser_interactions":0},{"responses":{"01":"No","02":"No","03":"No","04":"No","05":"No","06":"No","07":"No"},"rt":21898,"item_order":[0,1,2,3,4,5,6],"radio_events":[12211,13410,15578,17098.000000000233,18790,19844,20955],"checkbox_events":[],"key_events":[],"mouse_events":[11558,12211,13410,15578,17098.000000000233,18790,19844,20955,21889],"honeypot":0,"survey":"mace","page":7,"trial_type":"survey-mace","trial_index":15,"time_elapsed":1131763,"internal_node_id":"0.0-15.0","task_version":"prescreen-v0.3","browser_interactions":0},{"responses":{"01":"No","02":"Yes","02_ages_6":"6","02_ages_7":"7","02_ages_8":"8","02_ages_9":"9","02_ages_10":"10","02_ages_11":"11","02_ages_12":"12","02_ages_13":"13","02_ages_14":"14","03":"Yes","03_ages_6":"6","03_ages_7":"7","03_ages_8":"8","03_ages_9":"9","03_ages_10":"10","03_ages_11":"11","03_ages_12":"12","03_ages_13":"13","03_ages_14":"14","03_ages_15":"15","03_ages_16":"16","03_ages_17":"17","03_ages_18":"18","04":"Yes","04_ages_6":"6","04_ages_7":"7","04_ages_8":"8","04_ages_9":"9","04_ages_10":"10","04_ages_11":"11","04_ages_12":"12","04_ages_13":"13","04_ages_14":"14"},"rt":76735,"item_order":[0,1,2,3],"radio_events":[11943,24157,27010,44812,61890],"checkbox_events":[30537,31141,31947,32533,33284,34001,34859,35484,36358.00000000023,46615,47399,48083,48831,49543,50260,51052,51685.00000000023,52429,53095,54064,54815,55567,64243,64917,65619,66263,67039,67615,68268,69490,70076],"key_events":[],"mouse_events":[11943,24157,27010,30537,31141,31947,32533,33284,34001,34859,35484,36358.00000000023,44812,46615,47399,48083,48831,49543,50260,51052,51685.00000000023,52429,53095,54064,54815,55567,61890,64243,64917,65619,66263,67039,67615,68268,68876,69490,70076,76723.00000000023],"honeypot":0,"survey":"mace","page":8,"trial_type":"survey-mace","trial_index":16,"time_elapsed":1208504,"internal_node_id":"0.0-16.0","task_version":"prescreen-v0.3","browser_interactions":0},{"responses":{"01":"Yes","01_ages_10":"10","01_ages_11":"11","01_ages_12":"12","02":"No","03":"Yes","03_ages_1":"1","03_ages_2":"2","03_ages_3":"3","03_ages_4":"4","03_ages_5":"5","03_ages_6":"6","03_ages_7":"7","03_ages_8":"8","03_ages_9":"9","03_ages_10":"10","03_ages_11":"11","03_ages_12":"12","03_ages_13":"13","03_ages_14":"14","03_ages_15":"15","03_ages_16":"16","03_ages_17":"17","03_ages_18":"18","04":"Yes","04_ages_1":"1","04_ages_2":"2","04_ages_3":"3","04_ages_4":"4","04_ages_5":"5","04_ages_6":"6","04_ages_7":"7","04_ages_8":"8","04_ages_9":"9","04_ages_10":"10","04_ages_11":"11","04_ages_12":"12","04_ages_13":"13","04_ages_14":"14","04_ages_15":"15","04_ages_16":"16","04_ages_17":"17","04_ages_18":"18"},"rt":63175,"item_order":[0,1,2,3],"radio_events":[14030,26653.000000000233,30239,49550],"checkbox_events":[20280,21338,22301,32070,33379,34031,34755,35326.00000000023,35865.00000000023,36721,37324,38023,38626,39892,40671,41330,42140,42798,43686,44346,45349,50772,51374.00000000023,52043,52616,53281,54074,54617,55220.00000000023,55824,56396,57329,57933,58944,59489,60206,60893.00000000023,61524,62161],"key_events":[],"mouse_events":[14030,20280,21338,22301,26653.000000000233,30239,32070,33379,34031,34755,35326.00000000023,35865.00000000023,36721,37324,38023,38626,39892,40671,41330,42140,42798,43686,44346,45349,49550,50772,51374.00000000023,52043,52616,53281,54074,54617,55220.00000000023,55824,56396,57329,57933,58944,59489,60206,60893.00000000023,61524,62161,63164],"honeypot":0,"survey":"mace","page":9,"trial_type":"survey-mace","trial_index":17,"time_elapsed":1271701,"internal_node_id":"0.0-17.0","task_version":"prescreen-v0.3","browser_interactions":0},{"responses":{"01":"No","02":"No","03":"No","04":"Yes","04_ages_13":"13","04_ages_14":"14","04_ages_15":"15","05":"No","06":"Yes","06_ages_17":"17","07":"Yes","07_ages_7":"7","07_ages_8":"8","07_ages_9":"9","07_ages_10":"10","07_ages_11":"11","07_ages_12":"12","07_ages_13":"13","07_ages_14":"14","07_ages_15":"15","07_ages_16":"16","07_ages_17":"17","07_ages_18":"18","08":"Yes","08_ages_17":"17","08_ages_18":"18"},"rt":127560.00000000023,"item_order":[0,1,2,3,4,5,6,7],"radio_events":[8283,11263,19494,20840,30118,30863,43473.00000000023,109638,122994],"checkbox_events":[23132,23856,24729,45470,111456,112106,112724,113305,113866,114632,115332,116082,116691,117547,118183,119087,124522,125442],"key_events":[],"mouse_events":[8283,11263,19494,20840,23132,23856,24729,30118,30863,43473.00000000023,45470,109638,111456,112106,112724,113305,113866,114632,115332,116082,116691,117547,118183,119087,122994,124522,125442,127545],"honeypot":0,"survey":"mace","page":10,"trial_type":"survey-mace","trial_index":18,"time_elapsed":1399270,"internal_node_id":"0.0-18.0","task_version":"prescreen-v0.3","browser_interactions":0,"instructed":0},{"rt":25948,"trial_type":"mental-health-alert","trial_index":19,"time_elapsed":1425222,"internal_node_id":"0.0-19.0","task_version":"prescreen-v0.3","interactions":"[{\"event\":\"blur\",\"trial\":3,\"time\":495800},{\"event\":\"focus\",\"trial\":3,\"time\":497927},{\"event\":\"focus\",\"trial\":3,\"time\":497931}]"}]