[{"view_history":[{"page_index":0,"viewing_time":3318.7000000178814},{"page_index":1,"viewing_time":2756},{"page_index":2,"viewing_time":2695.699999988079},{"page_index":3,"viewing_time":1529.800000011921}],"rt":10301.90000000596,"trial_type":"instructions","trial_index":0,"time_elapsed":10310,"internal_node_id":"0.0-0.0","task_version":"prescreen-v0.3"},{"rt":16411.20000001788,"responses":{"age":"34","gender-categorical":"Female","gender-free-response":"","ethnicity":"Not Hispanic or Latino","race":["White"],"education":"Bachelor degree"},"trial_type":"survey-demo","trial_index":1,"time_elapsed":26727,"internal_node_id":"0.0-1.0","task_version":"prescreen-v0.3"},{"responses":{"Q09":"2","Q12":"1","Q08":"2","Q21":"3","Q01":"1","Q18":"1","Q14":"2","Q10":"2","Q13":"1","Q06":"2","Q15":"1","Q02":"0","Q04":"0","Q20":"0","Q17":"0","Q07":"0","Q05":"1","Q19":"0","Q16":"0","Q11":"2","Q03":"0"},"rt":90785.5,"item_order":[8,11,7,20,0,17,13,9,12,5,14,1,3,19,16,6,4,18,15,10,2],"radio_events":[8463.300000011921,12176.40000000596,16010.199999988079,20090.19999998808,23244.59999999404,26465,30544.80000001192,36634.40000000596,40921.90000000596,45654.90000000596,51883.30000001192,54791.69999998808,59238.80000001192,61421.69999998808,66203.90000000596,69829.90000000596,75599.59999999404,80893.5,83721.30000001192,86095.69999998808,89084.40000000596],"key_events":[],"mouse_events":[8463.300000011921,12176.40000000596,16010.199999988079,20090.19999998808,23244.59999999404,26465,30544.80000001192,36634.40000000596,40921.90000000596,45654.90000000596,51883.30000001192,54791.69999998808,59238.80000001192,61421.69999998808,66203.90000000596,69829.90000000596,75599.59999999404,80893.5,83721.30000001192,86095.69999998808,89084.40000000596,90781.59999999404],"straightlining":0.38095238095238093,"zigzagging":0.5,"honeypot":0,"survey":"sns","trial_type":"survey-template","trial_index":2,"time_elapsed":117518,"internal_node_id":"0.0-2.0","task_version":"prescreen-v0.3","browser_interactions":0,"infrequency":0},{"responses":{"Q04":"2","Q05":"3","Q08":"2","Q01":"3","Q03":"3","Q10":"1","Q12":"0","Q02":"2","Q06":"3","Q13":"0","Q07":"2","Q11":"1","Q09":"1"},"rt":51762.59999999404,"item_order":[3,4,7,0,2,9,11,1,5,12,6,10,8],"radio_events":[10930.40000000596,13902.09999999404,16252.40000000596,18914.30000001192,21567.80000001192,25202.40000000596,28485.40000000596,33419.59999999404,36367.59999999404,39379.70000001788,41595.5,46804.09999999404,50700.40000000596],"key_events":[],"mouse_events":[10930.40000000596,13902.09999999404,16252.40000000596,18914.30000001192,21567.80000001192,25202.40000000596,28485.40000000596,33419.59999999404,36367.59999999404,39379.70000001788,41595.5,46804.09999999404,50700.40000000596,51760.40000000596],"straightlining":0.3076923076923077,"zigzagging":0.5833333333333334,"honeypot":0,"survey":"bisbas","trial_type":"survey-template","trial_index":3,"time_elapsed":169285,"internal_node_id":"0.0-3.0","task_version":"prescreen-v0.3","browser_interactions":0,"infrequency":0},{"responses":{"Q01":"4","Q02":"4","Q03":"3"},"rt":18870.20000001788,"radio_events":[8413.59999999404,11434.09999999404,14350.59999999404,18007.09999999404],"key_events":[],"mouse_events":[8413.59999999404,11434.09999999404,14350.59999999404,18007.09999999404,18868.59999999404],"survey":"map","page":1,"trial_type":"survey-map","trial_index":4,"time_elapsed":188161,"internal_node_id":"0.0-4.0","task_version":"prescreen-v0.3","browser_interactions":0},{"responses":{"Q04":"3","Q05":"3","Q06":"3"},"rt":11717.200000017881,"radio_events":[6695.200000017881,8822.800000011921,10863],"key_events":[],"mouse_events":[6695.200000017881,8822.800000011921,10863,11715.90000000596],"survey":"map","page":2,"trial_type":"survey-map","trial_index":5,"time_elapsed":199882,"internal_node_id":"0.0-5.0","task_version":"prescreen-v0.3","browser_interactions":0},{"responses":{"Q07":"4","Q08":"4","Q09":"3"},"rt":11367.199999988079,"radio_events":[4270.199999988079,7459.800000011921,10568.59999999404],"key_events":[],"mouse_events":[4270.199999988079,7459.800000011921,10568.59999999404,11365.699999988079],"survey":"map","page":3,"trial_type":"survey-map","trial_index":6,"time_elapsed":211253,"internal_node_id":"0.0-6.0","task_version":"prescreen-v0.3","browser_interactions":0},{"responses":{"Q10":"4","Q11":"4","Q12":"0","Q13":"1","Q16":"0","Q14":"2","Q15":"3"},"rt":34476.79999998212,"radio_events":[5349.299999982119,7693.199999988079,12379.09999999404,18364.399999976158,25261.19999998808,30632.19999998808,33692.69999998808],"key_events":[],"mouse_events":[5349.299999982119,7693.199999988079,12379.09999999404,18364.399999976158,25261.19999998808,30632.19999998808,33692.69999998808,34474.19999998808],"survey":"map","page":4,"trial_type":"survey-map","trial_index":7,"time_elapsed":245735,"internal_node_id":"0.0-7.0","task_version":"prescreen-v0.3","browser_interactions":0,"infrequency":0},{"view_history":[{"page_index":0,"viewing_time":2534.699999988079},{"page_index":1,"viewing_time":3658.0999999940395}],"rt":6194.699999988079,"trial_type":"instructions","trial_index":8,"time_elapsed":251931,"internal_node_id":"0.0-8.0","task_version":"prescreen-v0.3"},{"responses":{"01":"No","02":"No","03":"No","04":"No","05":"No","06":"No"},"rt":21765.899999976158,"item_order":[0,1,2,3,4,5],"radio_events":[7140.0999999940395,14084.699999988079,16626.69999998808,18507.899999976158,19647.19999998808,20930],"checkbox_events":[],"key_events":[],"mouse_events":[0.09999999403953552,7140.0999999940395,14084.699999988079,16626.69999998808,18507.899999976158,19647.19999998808,20930,21760.29999998212],"honeypot":0,"survey":"mace","page":1,"trial_type":"survey-mace","trial_index":9,"time_elapsed":273706,"internal_node_id":"0.0-9.0","task_version":"prescreen-v0.3","browser_interactions":0},{"responses":{"01":"No","02":"No","03":"Yes","03_ages_3":"3","03_ages_4":"4","03_ages_6":"6","03_ages_7":"7","04":"Yes","04_ages_3":"3","04_ages_4":"4","05":"Yes","05_ages_3":"3","05_ages_4":"4","05_ages_6":"6","05_ages_7":"7","06":"No","07":"No","08":"No"},"rt":45071.30000001192,"item_order":[0,1,2,3,4,5,6,7],"radio_events":[3916.800000011921,5645.699999988079,8921.699999988079,23435.09999999404,31652.09999999404,41469.19999998808,42760.40000000596,44274.19999998808],"checkbox_events":[17681.5,18279.30000001192,19060.19999998808,19737.69999998808,24885.80000001192,25970.19999998808,32897,33421.5,34074.80000001192,34648.40000000596],"key_events":[],"mouse_events":[3916.800000011921,5645.699999988079,8921.699999988079,17681.5,18279.30000001192,19060.19999998808,19737.69999998808,23435.09999999404,24885.80000001192,25970.19999998808,31652.09999999404,32897,33421.5,34074.80000001192,34648.40000000596,41469.19999998808,42760.40000000596,44274.19999998808,45063.30000001192],"honeypot":0,"survey":"mace","page":2,"trial_type":"survey-mace","trial_index":10,"time_elapsed":318782,"internal_node_id":"0.0-10.0","task_version":"prescreen-v0.3","browser_interactions":0},{"responses":{"01":"No","02":"No","03":"No","04":"No"},"rt":12156.799999982119,"item_order":[0,1,2,3],"radio_events":[5609.199999988079,8709.09999999404,10496.40000000596,11363.799999982119],"checkbox_events":[],"key_events":[],"mouse_events":[5609.199999988079,8709.09999999404,10496.40000000596,11363.799999982119,12152.5],"honeypot":0,"survey":"mace","page":3,"trial_type":"survey-mace","trial_index":11,"time_elapsed":330943,"internal_node_id":"0.0-11.0","task_version":"prescreen-v0.3","browser_interactions":0},{"responses":{"01":"No","02":"No"},"rt":7124.899999976158,"item_order":[0,1],"radio_events":[5706.5,6382],"checkbox_events":[],"key_events":[],"mouse_events":[5706.5,6382,7122.699999988079],"honeypot":0,"survey":"mace","page":4,"trial_type":"survey-mace","trial_index":12,"time_elapsed":338072,"internal_node_id":"0.0-12.0","task_version":"prescreen-v0.3","browser_interactions":0},{"responses":{"01":"No","02":"No","03":"No","04":"No","05":"No"},"rt":14554.300000011921,"item_order":[0,1,2,3,4],"radio_events":[6987,8548.700000017881,10285.5,13036.90000000596,13705.300000011921],"checkbox_events":[],"key_events":[],"mouse_events":[6987,8548.700000017881,10285.5,13036.90000000596,13705.300000011921,14549.700000017881],"honeypot":0,"survey":"mace","page":5,"trial_type":"survey-mace","trial_index":13,"time_elapsed":352632,"internal_node_id":"0.0-13.0","task_version":"prescreen-v0.3","browser_interactions":0},{"responses":{"01":"No","02":"No","03":"No","04":"Yes","04_ages_10":"10","04_ages_11":"11","04_ages_15":"15","04_ages_16":"16","04_ages_17":"17","05":"No"},"rt":28287,"item_order":[0,1,2,3,4],"radio_events":[11769.90000000596,15555.200000017881,16479.20000001788,17650.20000001788,27501.100000023842],"checkbox_events":[21620,22425.20000001788,23621.90000000596,24043.5,24624.70000001788],"key_events":[],"mouse_events":[11769.90000000596,15555.200000017881,16479.20000001788,17650.20000001788,21620,22425.20000001788,23621.90000000596,24043.5,24624.70000001788,27501.100000023842,28282.5],"honeypot":0,"survey":"mace","page":6,"trial_type":"survey-mace","trial_index":14,"time_elapsed":380924,"internal_node_id":"0.0-14.0","task_version":"prescreen-v0.3","browser_interactions":0},{"responses":{"01":"No","02":"No","03":"No","04":"No","05":"No","06":"No","07":"No"},"rt":16842.30000001192,"item_order":[0,1,2,3,4,5,6],"radio_events":[4309.200000017881,5918.200000017881,7879,9816,13912.300000011921,15338.100000023842,16208.300000011921],"checkbox_events":[],"key_events":[],"mouse_events":[4309.200000017881,5918.200000017881,7879,9816,13912.300000011921,15338.100000023842,16208.300000011921,16836.30000001192],"honeypot":0,"survey":"mace","page":7,"trial_type":"survey-mace","trial_index":15,"time_elapsed":397772,"internal_node_id":"0.0-15.0","task_version":"prescreen-v0.3","browser_interactions":0},{"responses":{"01":"No","02":"No","03":"No","04":"No"},"rt":16673.899999976158,"item_order":[0,1,2,3],"radio_events":[8095,10636.399999976158,14995.59999999404,15904.799999982119],"checkbox_events":[],"key_events":[],"mouse_events":[8095,10636.399999976158,14995.59999999404,15904.799999982119,16670.19999998808],"honeypot":0,"survey":"mace","page":8,"trial_type":"survey-mace","trial_index":16,"time_elapsed":414450,"internal_node_id":"0.0-16.0","task_version":"prescreen-v0.3","browser_interactions":0},{"responses":{"01":"Yes","01_ages_1":"1","01_ages_2":"2","01_ages_3":"3","01_ages_4":"4","01_ages_5":"5","01_ages_6":"6","01_ages_7":"7","01_ages_8":"8","01_ages_9":"9","01_ages_10":"10","01_ages_11":"11","01_ages_12":"12","01_ages_13":"13","01_ages_14":"14","01_ages_15":"15","01_ages_16":"16","01_ages_17":"17","01_ages_18":"18","02":"Yes","02_ages_1":"1","02_ages_2":"2","02_ages_3":"3","02_ages_4":"4","02_ages_5":"5","02_ages_6":"6","02_ages_7":"7","02_ages_8":"8","02_ages_9":"9","02_ages_10":"10","02_ages_11":"11","02_ages_12":"12","02_ages_13":"13","02_ages_14":"14","02_ages_15":"15","02_ages_16":"16","02_ages_17":"17","02_ages_18":"18","03":"Yes","03_ages_1":"1","03_ages_2":"2","03_ages_3":"3","03_ages_4":"4","03_ages_5":"5","03_ages_6":"6","03_ages_7":"7","03_ages_8":"8","03_ages_9":"9","03_ages_10":"10","03_ages_11":"11","03_ages_12":"12","03_ages_13":"13","03_ages_14":"14","03_ages_15":"15","03_ages_16":"16","03_ages_17":"17","03_ages_18":"18","04":"Yes","04_ages_1":"1","04_ages_2":"2","04_ages_3":"3","04_ages_4":"4","04_ages_5":"5","04_ages_6":"6","04_ages_7":"7","04_ages_8":"8","04_ages_9":"9","04_ages_10":"10","04_ages_11":"11","04_ages_12":"12","04_ages_13":"13","04_ages_14":"14","04_ages_15":"15","04_ages_16":"16","04_ages_17":"17","04_ages_18":"18"},"rt":68883.59999999404,"item_order":[0,1,2,3],"radio_events":[6597.5,23619.40000000596,39103.90000000596,54717.40000000596],"checkbox_events":[11970.09999999404,12398.90000000596,12932.40000000596,13451.199999988079,13985.5,14518.699999988079,15045.40000000596,15602.59999999404,16120.09999999404,16646.5,17197,17746.29999998212,18487.5,19116.5,19651.5,20256.69999998808,21005.69999998808,21636,24918.90000000596,25477.09999999404,26050.09999999404,26600.79999998212,27230.19999998808,27804.40000000596,28385.59999999404,28951.40000000596,29597.69999998808,30378.5,31676.59999999404,32275.09999999404,32849.29999998212,33645.40000000596,34387.5,34984.29999998212,35774,36458.79999998212,40715.19999998808,41264.29999998212,41830.69999998808,42388.79999998212,42993.90000000596,43583.90000000596,44547.79999998212,45129.19999998808,45719.90000000596,46340.90000000596,47153.59999999404,47863,48413.19999998808,49146.09999999404,49711.90000000596,50309.79999998212,50987.29999998212,51728.69999998808,55960.5,56478.69999998808,56964.29999998212,57498.79999998212,58654.90000000596,59110.40000000596,59777.59999999404,60582.79999998212,61332.79999998212,61921.40000000596,62543.59999999404,63324.19999998808,63946.09999999404,64734.29999998212,65419.90000000596,66010,66861.69999998808,67476.90000000596],"key_events":[],"mouse_events":[6597.5,11970.09999999404,12398.90000000596,12932.40000000596,13451.199999988079,13985.5,14518.699999988079,15045.40000000596,15602.59999999404,16120.09999999404,16646.5,17197,17746.29999998212,18487.5,19116.5,19651.5,20256.69999998808,21005.69999998808,21636,23619.40000000596,24918.90000000596,25477.09999999404,26050.09999999404,26600.79999998212,27230.19999998808,27804.40000000596,28385.59999999404,28951.40000000596,29597.69999998808,30378.5,30946.19999998808,31676.59999999404,32275.09999999404,32849.29999998212,33645.40000000596,34387.5,34984.29999998212,35774,36458.79999998212,39103.90000000596,40715.19999998808,41264.29999998212,41830.69999998808,42388.79999998212,42993.90000000596,43583.90000000596,44547.79999998212,45129.19999998808,45719.90000000596,46340.90000000596,47153.59999999404,47863,48413.19999998808,49146.09999999404,49711.90000000596,50309.79999998212,50987.29999998212,51728.69999998808,54717.40000000596,55960.5,56478.69999998808,56964.29999998212,57498.79999998212,58056.29999998212,58654.90000000596,59110.40000000596,59777.59999999404,60582.79999998212,61332.79999998212,61921.40000000596,62543.59999999404,63324.19999998808,63946.09999999404,64734.29999998212,65419.90000000596,66010,66861.69999998808,67476.90000000596,68879.90000000596],"honeypot":0,"survey":"mace","page":9,"trial_type":"survey-mace","trial_index":17,"time_elapsed":483335,"internal_node_id":"0.0-17.0","task_version":"prescreen-v0.3","browser_interactions":0},{"responses":{"01":"No","02":"No","03":"No","04":"No","05":"Yes","05_ages_8":"8","05_ages_9":"9","05_ages_10":"10","06":"Yes","06_ages_17":"17","07":"Yes","07_ages_1":"1","07_ages_2":"2","07_ages_3":"3","07_ages_4":"4","07_ages_5":"5","07_ages_6":"6","07_ages_7":"7","07_ages_8":"8","07_ages_9":"9","07_ages_10":"10","07_ages_11":"11","07_ages_12":"12","07_ages_13":"13","07_ages_14":"14","07_ages_15":"15","07_ages_16":"16","07_ages_17":"17","07_ages_18":"18","08":"Yes","08_ages_1":"1","08_ages_2":"2","08_ages_3":"3","08_ages_4":"4","08_ages_5":"5","08_ages_6":"6","08_ages_7":"7","08_ages_8":"8","08_ages_9":"9","08_ages_10":"10","08_ages_11":"11","08_ages_12":"12","08_ages_13":"13","08_ages_14":"14","08_ages_15":"15","08_ages_16":"16","08_ages_17":"17","08_ages_18":"18"},"rt":63917.80000001192,"item_order":[0,1,2,3,4,5,6,7],"radio_events":[4213.800000011921,5751.4000000059605,7736.300000011921,8652.5,11999.199999988079,26366.80000001192,32670.69999998808,47995.69999998808],"checkbox_events":[19236.19999998808,19672.59999999404,20565.80000001192,27864.90000000596,34336.80000001192,34885.5,35491.5,36600.59999999404,37026.5,37619.09999999404,38234.59999999404,38671.90000000596,39875.09999999404,40675.09999999404,41174.40000000596,41827.19999998808,42425,43174.59999999404,43803.80000001192,44433.09999999404,45142.30000001192,45963.90000000596,51254.69999998808,51773.30000001192,52442.19999998808,53207.19999998808,53932.90000000596,54679.19999998808,55338.5,56048,56817.90000000596,57568.30000001192,58079.40000000596,59090.5,59880.40000000596,60468.90000000596,61049.5,61800.69999998808,62350.40000000596,63001.59999999404],"key_events":[],"mouse_events":[4213.800000011921,5751.4000000059605,7736.300000011921,8652.5,11999.199999988079,19236.19999998808,19672.59999999404,20565.80000001192,26366.80000001192,27864.90000000596,32670.69999998808,34336.80000001192,34885.5,35491.5,36600.59999999404,37026.5,37619.09999999404,38234.59999999404,38671.90000000596,39324,39875.09999999404,40675.09999999404,41174.40000000596,41827.19999998808,42425,43174.59999999404,43803.80000001192,44433.09999999404,45142.30000001192,45963.90000000596,47995.69999998808,51254.69999998808,51773.30000001192,52442.19999998808,53207.19999998808,53932.90000000596,54679.19999998808,55338.5,56048,56817.90000000596,57568.30000001192,58079.40000000596,59090.5,59880.40000000596,60468.90000000596,61049.5,61800.69999998808,62350.40000000596,63001.59999999404,63911],"honeypot":0,"survey":"mace","page":10,"trial_type":"survey-mace","trial_index":18,"time_elapsed":547257,"internal_node_id":"0.0-18.0","task_version":"prescreen-v0.3","browser_interactions":0,"instructed":0},{"rt":7327.9000000059605,"trial_type":"mental-health-alert","trial_index":19,"time_elapsed":554589,"internal_node_id":"0.0-19.0","task_version":"prescreen-v0.3","interactions":"[]"}]