[{"view_history":[{"page_index":0,"viewing_time":2056.8000000044703},{"page_index":1,"viewing_time":1428.3999999985099},{"page_index":2,"viewing_time":2475.2999999970198},{"page_index":3,"viewing_time":1012.3000000044703}],"rt":6973.39999999851,"trial_type":"instructions","trial_index":0,"time_elapsed":7315,"internal_node_id":"0.0-0.0","task_version":"prescreen-v0.3"},{"rt":9784.29999999702,"responses":{"age":"27","gender-categorical":"Female","gender-free-response":"","ethnicity":"Not Hispanic or Latino","race":["White"],"education":"Bachelor degree"},"trial_type":"survey-demo","trial_index":1,"time_elapsed":17103,"internal_node_id":"0.0-1.0","task_version":"prescreen-v0.3"},{"responses":{"Q12":"2","Q14":"2","Q07":"1","Q02":"1","Q19":"0","Q05":"1","Q15":"3","Q18":"1","Q08":"1","Q04":"1","Q11":"2","Q17":"2","Q09":"1","Q21":"3","Q10":"2","Q06":"1","Q01":"1","Q20":"1","Q13":"3","Q03":"0","Q16":"2"},"rt":107946.5,"item_order":[11,13,6,1,18,4,14,17,7,3,10,16,8,20,9,5,0,19,12,2,15],"radio_events":[4192,7634.29999999702,8995.69999999553,20235,23981.39999999851,39439.5,43354.79999999702,48068.69999999553,54605.19999999553,57125.39999999851,61209.19999999553,64877,70254.69999999553,72100.39999999851,74788.69999999553,75778.69999999553,79513.79999999702,82967.79999999702,87086,90393,92429.39999999851,98290.69999999553,101441,103286.19999999553,107032.79999999702],"key_events":[],"mouse_events":[4192,7634.29999999702,8995.69999999553,20235,23981.39999999851,39439.5,43354.79999999702,48068.69999999553,54605.19999999553,57125.39999999851,61209.19999999553,64877,70254.69999999553,72100.39999999851,74788.69999999553,75778.69999999553,79513.79999999702,82967.79999999702,87086,90393,92429.39999999851,98290.69999999553,101441,103286.19999999553,107032.79999999702,107943.79999999702],"straightlining":0.47619047619047616,"zigzagging":0.4,"honeypot":0,"survey":"sns","trial_type":"survey-template","trial_index":2,"time_elapsed":125051,"internal_node_id":"0.0-2.0","task_version":"prescreen-v0.3","browser_interactions":0,"infrequency":0},{"responses":{"Q10":"1","Q08":"2","Q01":"3","Q07":"3","Q11":"0","Q05":"2","Q03":"3","Q09":"1","Q04":"3","Q06":"2","Q12":"1","Q13":"0","Q02":"3"},"rt":55786.30000000447,"item_order":[9,7,0,6,10,4,2,8,3,5,11,12,1],"radio_events":[6901.30000000447,9860.20000000298,12718,15755.39999999851,20289.39999999851,23259.39999999851,28254.80000000447,33261.30000000447,37356.39999999851,41395.39999999851,48235.70000000298,50969.5,55447],"key_events":[],"mouse_events":[6901.30000000447,9860.20000000298,12718,15755.39999999851,20289.39999999851,23259.39999999851,28254.80000000447,33261.30000000447,37356.39999999851,41395.39999999851,48235.70000000298,50969.5,55447,55784.80000000447],"straightlining":0.38461538461538464,"zigzagging":0.6666666666666666,"honeypot":0,"survey":"bisbas","trial_type":"survey-template","trial_index":3,"time_elapsed":180838,"internal_node_id":"0.0-3.0","task_version":"prescreen-v0.3","browser_interactions":0,"infrequency":0},{"responses":{"Q01":"2","Q02":"2","Q03":"3"},"rt":19954.59999999404,"radio_events":[8129.69999999553,11144.69999999553,19323.69999999553],"key_events":[],"mouse_events":[8129.69999999553,11144.69999999553,19323.69999999553,19953.79999999702],"survey":"map","page":1,"trial_type":"survey-map","trial_index":4,"time_elapsed":200795,"internal_node_id":"0.0-4.0","task_version":"prescreen-v0.3","browser_interactions":0},{"responses":{"Q04":"1","Q05":"2","Q06":"2"},"rt":13419.80000000447,"radio_events":[4688.70000000298,6072.4000000059605,10314.30000000447,12924],"key_events":[],"mouse_events":[4688.70000000298,6072.4000000059605,10314.30000000447,12924,13419.20000000298],"survey":"map","page":2,"trial_type":"survey-map","trial_index":5,"time_elapsed":214216,"internal_node_id":"0.0-5.0","task_version":"prescreen-v0.3","browser_interactions":0},{"responses":{"Q07":"1","Q08":"3","Q09":"3"},"rt":14421.20000000298,"radio_events":[5994,10719.10000000149,13925.5],"key_events":[],"mouse_events":[5994,10314.10000000149,10719.10000000149,13925.5,14420.5],"survey":"map","page":3,"trial_type":"survey-map","trial_index":6,"time_elapsed":228638,"internal_node_id":"0.0-6.0","task_version":"prescreen-v0.3","browser_interactions":0},{"responses":{"Q10":"2","Q11":"3","Q12":"0","Q13":"1","Q16":"0","Q14":"0","Q15":"0"},"rt":34233.90000000596,"radio_events":[4767.4000000059605,10066.40000000596,15016.60000000149,19415.5,23690.80000000447,30508.40000000596,33546.20000000298],"key_events":[],"mouse_events":[4767.4000000059605,10066.40000000596,15016.60000000149,19415.5,23690.80000000447,30508.40000000596,33546.20000000298,34232.5],"survey":"map","page":4,"trial_type":"survey-map","trial_index":7,"time_elapsed":262873,"internal_node_id":"0.0-7.0","task_version":"prescreen-v0.3","browser_interactions":0,"infrequency":0},{"view_history":[{"page_index":0,"viewing_time":1796.8000000044703},{"page_index":1,"viewing_time":2587.60000000149}],"rt":4384.80000000447,"trial_type":"instructions","trial_index":8,"time_elapsed":267259,"internal_node_id":"0.0-8.0","task_version":"prescreen-v0.3"},{"responses":{"01":"No","02":"No","03":"No","04":"No","05":"No","06":"No"},"rt":32637.79999999702,"item_order":[0,1,2,3,4,5],"radio_events":[11685.39999999851,14509.09999999404,18356.79999999702,25422,26209.59999999404,28144.5,32217.19999999553],"checkbox_events":[],"key_events":[],"mouse_events":[0,11685.39999999851,14509.09999999404,18356.79999999702,25422,26209.59999999404,28144.5,32217.19999999553,32633.59999999404],"honeypot":0,"survey":"mace","page":1,"trial_type":"survey-mace","trial_index":9,"time_elapsed":299901,"internal_node_id":"0.0-9.0","task_version":"prescreen-v0.3","browser_interactions":0},{"responses":{"01":"No","02":"No","03":"No","04":"No","05":"No","06":"No","07":"No","08":"No"},"rt":18065,"item_order":[0,1,2,3,4,5,6,7],"radio_events":[3411.3000000044703,5762.70000000298,7158.30000000447,8744.30000000447,12288.30000000447,13964.60000000149,15742,17339.60000000149],"checkbox_events":[],"key_events":[],"mouse_events":[3411.3000000044703,5762.70000000298,7158.30000000447,8744.30000000447,12288.30000000447,13964.60000000149,15742,17339.60000000149,18059.5],"honeypot":0,"survey":"mace","page":2,"trial_type":"survey-mace","trial_index":10,"time_elapsed":317970,"internal_node_id":"0.0-10.0","task_version":"prescreen-v0.3","browser_interactions":0},{"responses":{"01":"No","02":"No","03":"No","04":"No"},"rt":9230.39999999851,"item_order":[0,1,2,3],"radio_events":[2623.60000000149,3534.89999999851,5683.70000000298,7000.10000000149],"checkbox_events":[],"key_events":[],"mouse_events":[2623.60000000149,3534.89999999851,5683.70000000298,7000.10000000149,9227.60000000149],"honeypot":0,"survey":"mace","page":3,"trial_type":"survey-mace","trial_index":11,"time_elapsed":327203,"internal_node_id":"0.0-11.0","task_version":"prescreen-v0.3","browser_interactions":0},{"responses":{"01":"No","02":"No"},"rt":7590.5,"item_order":[0,1],"radio_events":[3910.10000000149,6981.30000000447],"checkbox_events":[],"key_events":[],"mouse_events":[3910.10000000149,6981.30000000447,7588.9000000059605],"honeypot":0,"survey":"mace","page":4,"trial_type":"survey-mace","trial_index":12,"time_elapsed":334795,"internal_node_id":"0.0-12.0","task_version":"prescreen-v0.3","browser_interactions":0},{"responses":{"01":"No","02":"No","03":"No","04":"No","05":"No"},"rt":15828.90000000596,"item_order":[0,1,2,3,4],"radio_events":[7207.5,9131.40000000596,10773.80000000447,12000.40000000596,15262.90000000596],"checkbox_events":[],"key_events":[],"mouse_events":[7207.5,9131.40000000596,10773.80000000447,12000.40000000596,15262.90000000596,15825.40000000596],"honeypot":0,"survey":"mace","page":5,"trial_type":"survey-mace","trial_index":13,"time_elapsed":350627,"internal_node_id":"0.0-13.0","task_version":"prescreen-v0.3","browser_interactions":0},{"responses":{"01":"No","02":"No","03":"No","04":"No","05":"No"},"rt":17648.30000000447,"item_order":[0,1,2,3,4],"radio_events":[4628.20000000298,7812,11974.80000000447,14550.90000000596,17217.40000000596],"checkbox_events":[],"key_events":[],"mouse_events":[4628.20000000298,7812,11974.80000000447,14550.90000000596,17217.40000000596,17644.80000000447],"honeypot":0,"survey":"mace","page":6,"trial_type":"survey-mace","trial_index":14,"time_elapsed":368278,"internal_node_id":"0.0-14.0","task_version":"prescreen-v0.3","browser_interactions":0},{"responses":{"01":"No","02":"No","03":"No","03_ages_11":"11","03_ages_12":"12","03_ages_14":"14","04":"No","05":"No","06":"No","07":"No"},"rt":33727.10000000149,"item_order":[0,1,2,3,4,5,6],"radio_events":[3840.7999999970198,7305.89999999851,11885.5,15170.20000000298,25149.29999999702,26364.29999999702,27016.89999999851,28963.20000000298,29458.20000000298],"checkbox_events":[18005.39999999851,18421.60000000149,19839],"key_events":[],"mouse_events":[3840.7999999970198,7305.89999999851,11885.5,15170.20000000298,18005.39999999851,18421.60000000149,19839,25149.29999999702,25689.20000000298,26364.29999999702,27016.89999999851,28963.20000000298,29458.20000000298,33722.39999999851],"honeypot":0,"survey":"mace","page":7,"trial_type":"survey-mace","trial_index":15,"time_elapsed":402008,"internal_node_id":"0.0-15.0","task_version":"prescreen-v0.3","browser_interactions":0},{"responses":{"01":"No","02":"No","03":"No","04":"No"},"rt":15159.70000000298,"item_order":[0,1,2,3],"radio_events":[6280.4000000059605,8148,12220.5,14774.40000000596],"checkbox_events":[],"key_events":[],"mouse_events":[6280.4000000059605,8148,12220.5,14774.40000000596,15157.10000000149],"honeypot":0,"survey":"mace","page":8,"trial_type":"survey-mace","trial_index":16,"time_elapsed":417170,"internal_node_id":"0.0-16.0","task_version":"prescreen-v0.3","browser_interactions":0},{"responses":{"01":"Yes","01_ages_1":"1","01_ages_2":"2","01_ages_3":"3","01_ages_4":"4","01_ages_5":"5","01_ages_6":"6","01_ages_7":"7","01_ages_8":"8","01_ages_9":"9","01_ages_10":"10","01_ages_11":"11","01_ages_12":"12","01_ages_13":"13","01_ages_14":"14","01_ages_15":"15","01_ages_16":"16","01_ages_17":"17","01_ages_18":"18","02":"Yes","02_ages_1":"1","02_ages_2":"2","02_ages_3":"3","02_ages_4":"4","02_ages_5":"5","02_ages_6":"6","02_ages_7":"7","02_ages_8":"8","02_ages_9":"9","02_ages_10":"10","02_ages_11":"11","02_ages_12":"12","02_ages_13":"13","02_ages_14":"14","02_ages_15":"15","02_ages_16":"16","02_ages_17":"17","02_ages_18":"18","03":"Yes","03_ages_1":"1","03_ages_2":"2","03_ages_3":"3","03_ages_4":"4","03_ages_5":"5","03_ages_6":"6","03_ages_7":"7","03_ages_8":"8","03_ages_9":"9","03_ages_10":"10","03_ages_11":"11","03_ages_12":"12","03_ages_13":"13","03_ages_14":"14","03_ages_15":"15","03_ages_16":"16","03_ages_17":"17","03_ages_18":"18","04":"Yes","04_ages_1":"1","04_ages_2":"2","04_ages_3":"3","04_ages_4":"4","04_ages_5":"5","04_ages_6":"6","04_ages_7":"7","04_ages_8":"8","04_ages_9":"9","04_ages_10":"10","04_ages_11":"11","04_ages_12":"12","04_ages_13":"13","04_ages_14":"14","04_ages_15":"15","04_ages_16":"16","04_ages_17":"17","04_ages_18":"18"},"rt":55540.89999999851,"item_order":[0,1,2,3],"radio_events":[3223.1999999955297,17916.29999999702,30944.29999999702,43994.89999999851],"checkbox_events":[7363.39999999851,7667.19999999553,8522.39999999851,8882.19999999553,9276.10000000149,9669.69999999553,10502.29999999702,11233.5,12201.10000000149,12752.19999999553,13112.29999999702,13810.19999999553,14541.10000000149,14923.39999999851,15328.60000000149,15835,16330.5,16836.60000000149,18748.79999999702,19142.5,19615.10000000149,20020.39999999851,20425.19999999553,21156.39999999851,22135.29999999702,23361.69999999553,23766.60000000149,24959.29999999702,25274.19999999553,25634.10000000149,26005.19999999553,26421.5,26860.79999999702,27265.39999999851,27614.29999999702,29515.60000000149,29898.10000000149,30235.69999999553,31866.89999999851,32519.60000000149,33104.39999999851,33621.89999999851,34094.5,35219.5,36716,37109.60000000149,37807.10000000149,39258.60000000149,39562.29999999702,40439.79999999702,40788.60000000149,41137.39999999851,41497.39999999851,41958.89999999851,42734.79999999702,43038.69999999553,45041.79999999702,45345,45963.79999999702,46706,47043.79999999702,47381.10000000149,47730.10000000149,48123.79999999702,49316.39999999851,50306.5,50689,51116.60000000149,51555.29999999702,52466.69999999553,52860.19999999553,53996.39999999851,54345.39999999851,55211.79999999702],"key_events":[],"mouse_events":[3223.1999999955297,7363.39999999851,7667.19999999553,8015.79999999702,8522.39999999851,8882.19999999553,9276.10000000149,9669.69999999553,10086,10502.29999999702,10873.29999999702,11233.5,12201.10000000149,12752.19999999553,13112.29999999702,13494.69999999553,13810.19999999553,14226,14541.10000000149,14923.39999999851,15328.60000000149,15835,16330.5,16836.60000000149,17916.29999999702,18748.79999999702,19142.5,19615.10000000149,20020.39999999851,20425.19999999553,21156.39999999851,22135.29999999702,22855.19999999553,23361.69999999553,23766.60000000149,24374.10000000149,24959.29999999702,25274.19999999553,25634.10000000149,26005.19999999553,26421.5,26860.79999999702,27265.39999999851,27614.29999999702,28942,29515.60000000149,29898.10000000149,30235.69999999553,30944.29999999702,31866.89999999851,32519.60000000149,33104.39999999851,33621.89999999851,34094.5,35219.5,35692.10000000149,36716,37109.60000000149,37807.10000000149,38335.69999999553,39258.60000000149,39562.29999999702,39911,40439.79999999702,40788.60000000149,41137.39999999851,41497.39999999851,41958.89999999851,42408.60000000149,42734.79999999702,43038.69999999553,43994.89999999851,45041.79999999702,45345,45963.79999999702,46357.29999999702,46706,47043.79999999702,47381.10000000149,47730.10000000149,48123.79999999702,49316.39999999851,49766.5,50306.5,50689,51116.60000000149,51555.29999999702,52466.69999999553,52860.19999999553,53636.5,53996.39999999851,54345.39999999851,54671.69999999553,55211.79999999702,55538.19999999553],"honeypot":0,"survey":"mace","page":9,"trial_type":"survey-mace","trial_index":17,"time_elapsed":472712,"internal_node_id":"0.0-17.0","task_version":"prescreen-v0.3","browser_interactions":0},{"responses":{"01":"No","02":"No","03":"No","04":"Yes","04_ages_16":"16","04_ages_17":"17","04_ages_18":"18","05":"No","06":"Yes","06_ages_17":"17","07":"Yes","07_ages_1":"1","07_ages_2":"2","07_ages_3":"3","07_ages_4":"4","07_ages_5":"5","07_ages_6":"6","07_ages_7":"7","07_ages_8":"8","07_ages_9":"9","07_ages_10":"10","07_ages_11":"11","07_ages_12":"12","07_ages_13":"13","07_ages_14":"14","07_ages_15":"15","07_ages_16":"16","07_ages_17":"17","07_ages_18":"18","08":"Yes","08_ages_1":"1","08_ages_2":"2","08_ages_3":"3","08_ages_4":"4","08_ages_5":"5","08_ages_6":"6","08_ages_7":"7","08_ages_8":"8","08_ages_9":"9","08_ages_10":"10","08_ages_11":"11","08_ages_12":"12","08_ages_13":"13","08_ages_14":"14","08_ages_15":"15","08_ages_16":"16","08_ages_17":"17","08_ages_18":"18"},"rt":60560.20000000298,"item_order":[0,1,2,3,4,5,6,7],"radio_events":[2581.2000000029802,3920.10000000149,9005.10000000149,22899.79999999702,28738.79999999702,42002.89999999851,55087.5,58991.10000000149],"checkbox_events":[12402.70000000298,12706.79999999702,13269.10000000149,24317.20000000298,31461.10000000149,31843.70000000298,32395.10000000149,32743.89999999851,33148.89999999851,33486.20000000298,33868.79999999702,34701.60000000149,35668.79999999702,36141.60000000149,36973.89999999851,37378.89999999851,37783.89999999851,38166.5,38582.70000000298,39010.20000000298,39786.39999999851,40259,42779.20000000298,43668.10000000149,44365.20000000298,44702.89999999851,45456.70000000298,46773.29999999702,48832,49214.29999999702,49754.70000000298,50193.29999999702,50542,50891.10000000149,51295.89999999851,52128.5,52488.5,53129.70000000298,53433.70000000298,53838.20000000298],"key_events":[],"mouse_events":[2581.2000000029802,3920.10000000149,6181.5,9005.10000000149,12402.70000000298,12706.79999999702,13269.10000000149,22899.79999999702,24317.20000000298,28738.79999999702,31461.10000000149,31843.70000000298,32395.10000000149,32743.89999999851,33148.89999999851,33486.20000000298,33868.79999999702,34229.10000000149,34701.60000000149,35016.20000000298,35668.79999999702,36141.60000000149,36973.89999999851,37378.89999999851,37783.89999999851,38166.5,38582.70000000298,39010.20000000298,39786.39999999851,40259,42002.89999999851,42779.20000000298,43105.60000000149,43668.10000000149,44365.20000000298,44702.89999999851,45456.70000000298,45884.39999999851,46773.29999999702,47178.10000000149,48156.79999999702,48832,49214.29999999702,49754.70000000298,50193.29999999702,50542,50891.10000000149,51295.89999999851,52128.5,52488.5,52826,53129.70000000298,53433.70000000298,53838.20000000298,55087.5,55897.5,58991.10000000149,60554.89999999851],"honeypot":0,"survey":"mace","page":10,"trial_type":"survey-mace","trial_index":18,"time_elapsed":533274,"internal_node_id":"0.0-18.0","task_version":"prescreen-v0.3","browser_interactions":0,"instructed":0},{"rt":3805.39999999851,"trial_type":"mental-health-alert","trial_index":19,"time_elapsed":537081,"internal_node_id":"0.0-19.0","task_version":"prescreen-v0.3","interactions":"[]"}]