[{"view_history":[{"page_index":0,"viewing_time":9457.199999928474},{"page_index":1,"viewing_time":5478.399999976158},{"page_index":2,"viewing_time":2990.9000000953674},{"page_index":3,"viewing_time":2211.7999999523163}],"rt":20140,"trial_type":"instructions","trial_index":0,"time_elapsed":20153,"internal_node_id":"0.0-0.0","task_version":"prescreen-v0.3"},{"rt":21826.799999952316,"responses":{"age":"55","gender-categorical":"Male","gender-free-response":"","ethnicity":"Not Hispanic or Latino","race":["White"],"education":"Some college","siblings":"2"},"trial_type":"survey-demo","trial_index":1,"time_elapsed":41989,"internal_node_id":"0.0-1.0","task_version":"prescreen-v0.3"},{"responses":{"Q08":"0","Q19":"0","Q09":"1","Q17":"1","Q07":"0","Q14":"2","Q05":"1","Q04":"0","Q13":"2","Q16":"2","Q03":"2","Q18":"1","Q12":"0","Q20":"2","Q10":"0","Q15":"2","Q21":"3","Q02":"1","Q11":"0","Q06":"2","Q01":"1"},"rt":616317,"item_order":[7,18,8,16,6,13,4,3,12,15,2,17,11,19,9,14,20,1,10,5,0],"radio_events":[13170.399999976158,29730.899999976158,99553.70000004768,106589.30000007153,119811.39999997616,121770.70000004768,140325,281830.2000000477,290747.2000000477,295164.39999997616,304010.5,308033.89999997616,315487.3000000715,316589.2000000477,318193.60000002384,436915.10000002384,443608,574383.8000000715,581473.2000000477,587317.6000000238,595559.1000000238,602552,609263.8000000715,615369.3999999762],"key_events":[],"mouse_events":[12441.800000071526,13170.399999976158,27871.399999976158,28820.700000047684,29730.899999976158,97134.10000002384,99553.70000004768,106589.30000007153,118602.39999997616,119811.39999997616,121128,121770.70000004768,139622.39999997616,140325,150456.70000004768,281830.2000000477,290747.2000000477,295164.39999997616,303055.39999997616,304010.5,308033.89999997616,313881.10000002384,314751.39999997616,315487.3000000715,316589.2000000477,318193.60000002384,436207.89999997616,436915.10000002384,443608,573580.7000000477,574383.8000000715,581473.2000000477,587317.6000000238,595559.1000000238,601723.6000000238,602552,609263.8000000715,613691,615369.3999999762,616310.7000000477],"straightlining":0.3333333333333333,"zigzagging":0.45,"honeypot":0,"survey":"sns","trial_type":"survey-template","trial_index":2,"time_elapsed":658334,"internal_node_id":"0.0-2.0","task_version":"prescreen-v0.3","browser_interactions":0,"infrequency":0},{"responses":{"Q10":"2","Q04":"3","Q12":"2","Q11":"2","Q06":"3","Q08":"3","Q13":"0","Q02":"2","Q05":"2","Q09":"2","Q07":"3","Q01":"2","Q03":"2"},"rt":218341.10000002384,"item_order":[9,3,11,10,5,7,12,1,4,8,6,0,2],"radio_events":[6757.899999976158,15018.899999976158,19477.5,24205,29737.700000047684,34873.10000002384,40497.60000002384,178014.60000002384,181888.60000002384,185386.89999997616,206242.39999997616,210232.10000002384,216944.10000002384],"key_events":[],"mouse_events":[6757.899999976158,15018.899999976158,19477.5,23548.200000047684,24205,29737.700000047684,34873.10000002384,40497.60000002384,177089.79999995232,178014.60000002384,181888.60000002384,185386.89999997616,205611.79999995232,206242.39999997616,210232.10000002384,216944.10000002384,218337],"straightlining":0.6153846153846154,"zigzagging":0.5,"honeypot":0,"survey":"bisbas","trial_type":"survey-template","trial_index":3,"time_elapsed":876688,"internal_node_id":"0.0-3.0","task_version":"prescreen-v0.3","browser_interactions":0,"infrequency":0},{"responses":{"Q01":"2","Q02":"2","Q03":"2"},"rt":21643.700000047684,"radio_events":[8795.399999976158,13175.899999976158,20213.200000047684],"key_events":[],"mouse_events":[8795.399999976158,13175.899999976158,20213.200000047684,21641.899999976158],"survey":"map","page":1,"trial_type":"survey-map","trial_index":4,"time_elapsed":898337,"internal_node_id":"0.0-4.0","task_version":"prescreen-v0.3","browser_interactions":0},{"responses":{"Q04":"2","Q05":"3","Q06":"2"},"rt":191405.39999997616,"radio_events":[174351.5,174570.89999997616,180352,187190,190066.70000004768],"key_events":[],"mouse_events":[174351.5,174570.89999997616,179373.80000007153,180352,186300.39999997616,187190,190066.70000004768,191403.60000002384],"survey":"map","page":2,"trial_type":"survey-map","trial_index":5,"time_elapsed":1089696,"internal_node_id":"0.0-5.0","task_version":"prescreen-v0.3","browser_interactions":0},{"responses":{"Q07":"4","Q08":"4","Q09":"3"},"rt":22574.399999976158,"radio_events":[10173.600000023842,17484.299999952316,21474.399999976158],"key_events":[],"mouse_events":[7130.799999952316,10173.600000023842,15968.799999952316,17484.299999952316,21474.399999976158,22572.799999952316],"survey":"map","page":3,"trial_type":"survey-map","trial_index":6,"time_elapsed":1112274,"internal_node_id":"0.0-6.0","task_version":"prescreen-v0.3","browser_interactions":0},{"responses":{"Q10":"3","Q11":"3","Q12":"3","Q13":"3","Q16":"0","Q14":"1","Q15":"1"},"rt":57816.5,"radio_events":[9907.799999952316,15516.399999976158,20668.700000047684,27337.399999976158,36543.10000002384,50524.5,56026.299999952316,56923.5],"key_events":[],"mouse_events":[9907.799999952316,15516.399999976158,20668.700000047684,27337.399999976158,35083.60000002384,36543.10000002384,50524.5,55171.700000047684,56026.299999952316,56923.5,57812.299999952316],"survey":"map","page":4,"trial_type":"survey-map","trial_index":7,"time_elapsed":1170096,"internal_node_id":"0.0-7.0","task_version":"prescreen-v0.3","browser_interactions":0,"infrequency":0},{"view_history":[{"page_index":0,"viewing_time":2965.899999976158},{"page_index":1,"viewing_time":4969.200000047684}],"rt":7936.100000023842,"trial_type":"instructions","trial_index":8,"time_elapsed":1178034,"internal_node_id":"0.0-8.0","task_version":"prescreen-v0.3"},{"responses":{"01":"No","02":"Yes","02_ages_16":"16","02_ages_17":"17","02_ages_18":"18","03":"Yes","03_ages_10":"10","03_ages_11":"11","03_ages_12":"12","03_ages_13":"13","03_ages_14":"14","03_ages_15":"15","03_ages_16":"16","03_ages_17":"17","03_ages_18":"18","04":"Yes","04_ages_10":"10","04_ages_11":"11","04_ages_12":"12","04_ages_13":"13","04_ages_14":"14","04_ages_15":"15","05":"No","06":"No"},"rt":181107.79999995232,"item_order":[0,1,2,3,4,5],"radio_events":[24070.699999928474,29028.599999904633,43192,166790,176644.89999997616,179908.89999997616],"checkbox_events":[35833.799999952316,36545,37439.39999997616,46834.09999990463,47694.299999952316,48885.799999952316,49376.09999990463,50169,51716.699999928474,52535.299999952316,53952.39999997616,54643.199999928474,169604.5,170061.89999997616,170773,171392.29999995232,172424.69999992847,173048.39999997616],"key_events":[],"mouse_events":[0.19999992847442627,24070.699999928474,29028.599999904633,35833.799999952316,36545,37439.39999997616,42187.5,43192,46834.09999990463,47694.299999952316,48885.799999952316,49376.09999990463,50169,50855.59999990463,51716.699999928474,52535.299999952316,53479,53952.39999997616,54643.199999928474,166790,169604.5,170061.89999997616,170773,171392.29999995232,172424.69999992847,173048.39999997616,176644.89999997616,179908.89999997616,180565,181099.29999995232],"honeypot":0,"survey":"mace","page":1,"trial_type":"survey-mace","trial_index":9,"time_elapsed":1359155,"internal_node_id":"0.0-9.0","task_version":"prescreen-v0.3","browser_interactions":0},{"responses":{"01":"No","02":"No","03":"No","03_ages_10":"10","04":"No","05":"Yes","05_ages_9":"9","06":"No","07":"No","08":"No"},"rt":43825.40000009537,"item_order":[0,1,2,3,4,5,6,7],"radio_events":[3050,5075.200000047684,9645.900000095367,19500.900000095367,27681.100000023842,31528.800000071526,39697.5,41585.300000071526,43256.800000071526],"checkbox_events":[13182.600000023842,35642.800000071526],"key_events":[],"mouse_events":[3050,5075.200000047684,9031.600000023842,9645.900000095367,13182.600000023842,19500.900000095367,27681.100000023842,31528.800000071526,35642.800000071526,39697.5,41585.300000071526,43256.800000071526,43814],"honeypot":0,"survey":"mace","page":2,"trial_type":"survey-mace","trial_index":10,"time_elapsed":1402986,"internal_node_id":"0.0-10.0","task_version":"prescreen-v0.3","browser_interactions":0},{"responses":{"01":"Yes","01_ages_6":"6","01_ages_7":"7","02":"Yes","02_ages_7":"7","03":"No","04":"No"},"rt":38252.09999990463,"item_order":[0,1,2,3],"radio_events":[7053.199999928474,29275.599999904633,35858.199999928474,37075.199999928474],"checkbox_events":[13758.699999928474,16209.899999976158,32214.099999904633],"key_events":[],"mouse_events":[7053.199999928474,13758.699999928474,16209.899999976158,29275.599999904633,32214.099999904633,35858.199999928474,37075.199999928474,38246],"honeypot":0,"survey":"mace","page":3,"trial_type":"survey-mace","trial_index":11,"time_elapsed":1441244,"internal_node_id":"0.0-11.0","task_version":"prescreen-v0.3","browser_interactions":0},{"responses":{"01":"No","02":"No"},"rt":10926.100000023842,"item_order":[0,1],"radio_events":[6541.800000071526,8659.600000023842],"checkbox_events":[],"key_events":[],"mouse_events":[6541.800000071526,8659.600000023842,10922.5],"honeypot":0,"survey":"mace","page":4,"trial_type":"survey-mace","trial_index":12,"time_elapsed":1452173,"internal_node_id":"0.0-12.0","task_version":"prescreen-v0.3","browser_interactions":0},{"responses":{"01":"No","02":"No","03":"No","04":"No","05":"No"},"rt":17947.399999976158,"item_order":[0,1,2,3,4],"radio_events":[4704.600000023842,6175.800000071526,7324,12203.5,15011.899999976158],"checkbox_events":[],"key_events":[],"mouse_events":[4704.600000023842,6175.800000071526,7324,12203.5,15011.899999976158,17940.300000071526],"honeypot":0,"survey":"mace","page":5,"trial_type":"survey-mace","trial_index":13,"time_elapsed":1470126,"internal_node_id":"0.0-13.0","task_version":"prescreen-v0.3","browser_interactions":0},{"responses":{"01":"Yes","01_ages_7":"7","01_ages_8":"8","01_ages_9":"9","01_ages_10":"10","01_ages_11":"11","01_ages_12":"12","01_ages_13":"13","01_ages_14":"14","01_ages_15":"15","01_ages_16":"16","01_ages_17":"17","01_ages_18":"18","02":"Yes","02_ages_7":"7","02_ages_8":"8","02_ages_9":"9","02_ages_10":"10","02_ages_11":"11","02_ages_12":"12","02_ages_13":"13","02_ages_14":"14","02_ages_15":"15","02_ages_16":"16","02_ages_17":"17","02_ages_18":"18","03":"No","04":"No","05":"No"},"rt":257196,"item_order":[0,1,2,3,4],"radio_events":[111355.69999992847,137850.5,249048.89999997616,252055.39999997616,256162.5],"checkbox_events":[115406.69999992847,116718.59999990463,117489.09999990463,118307.39999997616,119253.59999990463,124713.39999997616,125786.89999997616,126638,128170.59999990463,129269.09999990463,130335.29999995232,131378,226567.09999990463,227537.29999995232,228547.09999990463,229852,230463,231226.59999990463,231904.19999992847,232642.69999992847,233348.69999992847,237373.79999995232,237949.39999997616,238725.79999995232,239390.59999990463,240528.89999997616,243664.59999990463,244629.29999995232],"key_events":[],"mouse_events":[111355.69999992847,115406.69999992847,116718.59999990463,117489.09999990463,118307.39999997616,119253.59999990463,124713.39999997616,125786.89999997616,126638,128170.59999990463,129269.09999990463,130335.29999995232,131378,137850.5,226567.09999990463,227107.69999992847,227537.29999995232,228076.79999995232,228547.09999990463,229245.29999995232,229852,230463,231226.59999990463,231904.19999992847,232642.69999992847,233348.69999992847,237373.79999995232,237949.39999997616,238725.79999995232,239390.59999990463,240528.89999997616,243664.59999990463,244629.29999995232,249048.89999997616,252055.39999997616,256162.5,257187.59999990463],"honeypot":0,"survey":"mace","page":6,"trial_type":"survey-mace","trial_index":14,"time_elapsed":1727331,"internal_node_id":"0.0-14.0","task_version":"prescreen-v0.3","browser_interactions":0},{"responses":{"01":"No","02":"No","03":"No","04":"No","05":"No","06":"No","07":"No"},"rt":22542.299999952316,"item_order":[0,1,2,3,4,5,6],"radio_events":[5322.699999928474,10085.899999976158,14025.799999952316,17265.799999952316,18284.799999952316,20646,21552.899999976158],"checkbox_events":[],"key_events":[],"mouse_events":[5322.699999928474,10085.899999976158,14025.799999952316,17265.799999952316,18284.799999952316,20646,21552.899999976158,22532.899999976158],"honeypot":0,"survey":"mace","page":7,"trial_type":"survey-mace","trial_index":15,"time_elapsed":1749879,"internal_node_id":"0.0-15.0","task_version":"prescreen-v0.3","browser_interactions":0},{"responses":{"01":"Yes","01_ages_9":"9","01_ages_10":"10","01_ages_11":"11","01_ages_12":"12","01_ages_13":"13","01_ages_14":"14","01_ages_15":"15","01_ages_16":"16","01_ages_17":"17","01_ages_18":"18","02":"No","03":"No","04":"No"},"rt":63018.10000002384,"item_order":[0,1,2,3],"radio_events":[10487.800000071526,42040.60000002384,48018.5,58520.300000071526,61877.700000047684],"checkbox_events":[15135.700000047684,15983.600000023842,16803.300000071526,17828.399999976158,30563.899999976158,31391.200000047684,32233.399999976158,33081.10000002384,33802.10000002384,34725.200000047684],"key_events":[],"mouse_events":[10487.800000071526,15135.700000047684,15983.600000023842,16803.300000071526,17828.399999976158,18671.899999976158,30563.899999976158,31391.200000047684,32233.399999976158,33081.10000002384,33802.10000002384,34725.200000047684,42040.60000002384,48018.5,58520.300000071526,61877.700000047684,63011.200000047684],"honeypot":0,"survey":"mace","page":8,"trial_type":"survey-mace","trial_index":16,"time_elapsed":1812902,"internal_node_id":"0.0-16.0","task_version":"prescreen-v0.3","browser_interactions":0},{"responses":{"01":"Yes","01_ages_1":"1","01_ages_2":"2","01_ages_3":"3","01_ages_4":"4","01_ages_5":"5","01_ages_6":"6","01_ages_7":"7","01_ages_8":"8","01_ages_9":"9","02":"Yes","02_ages_1":"1","02_ages_2":"2","02_ages_3":"3","02_ages_4":"4","02_ages_5":"5","02_ages_6":"6","02_ages_7":"7","02_ages_8":"8","02_ages_9":"9","03":"Yes","03_ages_1":"1","03_ages_2":"2","03_ages_3":"3","03_ages_4":"4","03_ages_5":"5","03_ages_6":"6","03_ages_7":"7","03_ages_8":"8","03_ages_9":"9","04":"Yes","04_ages_1":"1","04_ages_2":"2","04_ages_3":"3","04_ages_4":"4","04_ages_5":"5","04_ages_6":"6","04_ages_7":"7","04_ages_8":"8","04_ages_9":"9","04_ages_10":"10","04_ages_11":"11","04_ages_12":"12","04_ages_13":"13","04_ages_14":"14","04_ages_15":"15","04_ages_16":"16","04_ages_17":"17","04_ages_18":"18"},"rt":82940.60000002384,"item_order":[0,1,2,3],"radio_events":[10814.100000023842,12013.399999976158,12671.5,36455.299999952316,50666.799999952316,64747.89999997616],"checkbox_events":[20911.600000023842,21841.399999976158,25777.100000023842,26987.100000023842,27743.399999976158,28495.5,29285.100000023842,30427.799999952316,31179,37731.5,38623.200000047684,39216.39999997616,39887.39999997616,40594.700000047684,41370.5,42074.60000002384,44529.89999997616,45213.799999952316,51938.299999952316,52579,53069.5,53760,54319.200000047684,54978.10000002384,55652.5,56126.39999997616,56584.799999952316,66124.70000004768,66816.29999995232,67349.20000004768,71843.5,72568.10000002384,73799,74407.70000004768,75050.20000004768,76149.39999997616,76959,77466.29999995232,78180.60000002384,79036.29999995232,79543.29999995232,80150.89999997616,80853.79999995232,81399.29999995232,82108.29999995232],"key_events":[],"mouse_events":[10814.100000023842,12013.399999976158,12671.5,20911.600000023842,21841.399999976158,23191.299999952316,25777.100000023842,26452.100000023842,26987.100000023842,27743.399999976158,28495.5,29285.100000023842,30427.799999952316,31179,36455.299999952316,37731.5,38623.200000047684,39216.39999997616,39887.39999997616,40594.700000047684,41370.5,42074.60000002384,42853.200000047684,44529.89999997616,45213.799999952316,50666.799999952316,51938.299999952316,52579,53069.5,53760,54319.200000047684,54978.10000002384,55652.5,56126.39999997616,56584.799999952316,64747.89999997616,66124.70000004768,66816.29999995232,67349.20000004768,71843.5,72568.10000002384,73799,74407.70000004768,75050.20000004768,76149.39999997616,76959,77466.29999995232,78180.60000002384,79036.29999995232,79543.29999995232,80150.89999997616,80853.79999995232,81399.29999995232,82108.29999995232,82933.29999995232],"honeypot":0,"survey":"mace","page":9,"trial_type":"survey-mace","trial_index":17,"time_elapsed":1895815,"internal_node_id":"0.0-17.0","task_version":"prescreen-v0.3","browser_interactions":0},{"responses":{"01":"No","02":"No","03":"Yes","03_ages_10":"10","03_ages_11":"11","03_ages_12":"12","03_ages_13":"13","03_ages_14":"14","03_ages_15":"15","03_ages_16":"16","03_ages_17":"17","03_ages_18":"18","04":"No","05":"No","06":"Yes","06_ages_17":"17","07":"No","08":"Yes","08_ages_1":"1","08_ages_2":"2","08_ages_3":"3","08_ages_4":"4","08_ages_5":"5","08_ages_6":"6","08_ages_7":"7","08_ages_8":"8","08_ages_9":"9"},"rt":291695.2999999523,"item_order":[0,1,2,3,4,5,6,7],"radio_events":[3796.2999999523163,5366.700000047684,148188.5,151284.60000002384,166390.89999997616,172238.89999997616,177691,185048.10000002384,188521.89999997616,193170.20000004768],"checkbox_events":[153709.10000002384,155018.20000004768,155841.79999995232,156575.89999997616,157183.20000004768,158250.5,159387.29999995232,160079,160778.20000004768,179424.79999995232,282776.2999999523,283420.10000002384,283897.5,284780.7999999523,286663.2000000477,287434.60000002384,288146.39999997616,288838.7000000477,289513.2000000477],"key_events":[],"mouse_events":[3796.2999999523163,5366.700000047684,148188.5,151284.60000002384,153709.10000002384,155018.20000004768,155841.79999995232,156575.89999997616,157183.20000004768,158250.5,159387.29999995232,160079,160778.20000004768,166390.89999997616,172238.89999997616,177691,179424.79999995232,185048.10000002384,188521.89999997616,193170.20000004768,282776.2999999523,283420.10000002384,283897.5,284780.7999999523,285782.5,286663.2000000477,287434.60000002384,288146.39999997616,288838.7000000477,289513.2000000477,291683.7000000477],"honeypot":0,"survey":"mace","page":10,"trial_type":"survey-mace","trial_index":18,"time_elapsed":2187521,"internal_node_id":"0.0-18.0","task_version":"prescreen-v0.3","browser_interactions":0,"instructed":0},{"rt":106392.79999995232,"trial_type":"mental-health-alert","trial_index":19,"time_elapsed":2293919,"internal_node_id":"0.0-19.0","task_version":"prescreen-v0.3","interactions":"[]"}]