[{"view_history":[{"page_index":0,"viewing_time":1776.699999988079},{"page_index":1,"viewing_time":863.9000000357628},{"page_index":2,"viewing_time":1663.699999988079},{"page_index":3,"viewing_time":955.3999999761581}],"rt":5260.300000011921,"trial_type":"instructions","trial_index":0,"time_elapsed":5263,"internal_node_id":"0.0-0.0","task_version":"prescreen-v0.3"},{"rt":16335.800000011921,"responses":{"age":"26","gender-categorical":"Male","gender-free-response":"","ethnicity":"Not Hispanic or Latino","race":["Asian"],"education":"High school","siblings":"2"},"trial_type":"survey-demo","trial_index":1,"time_elapsed":21603,"internal_node_id":"0.0-1.0","task_version":"prescreen-v0.3"},{"responses":{"Q11":"3","Q16":"3","Q18":"2","Q07":"3","Q17":"1","Q01":"1","Q08":"3","Q12":"3","Q02":"3","Q21":"3","Q06":"1","Q20":"1","Q10":"2","Q05":"0","Q15":"2","Q04":"2","Q14":"3","Q19":"2","Q09":"2","Q03":"3","Q13":"3"},"rt":98548.19999998808,"item_order":[10,15,17,6,16,0,7,11,1,20,5,19,9,4,14,3,13,18,8,2,12],"radio_events":[3010.399999976158,3449.899999976158,7362.5,10273.5,14738.5,18688.80000001192,24171.80000001192,26929.30000001192,29339.30000001192,35342.69999998808,37342.69999998808,48192,50255.59999996424,53669.59999996424,60380.30000001192,65864.69999998808,72136.69999998808,79860.30000001192,85822.59999996424,91010.09999996424,93245,96078.69999998808,97960.39999997616],"key_events":[],"mouse_events":[2659.199999988079,3010.399999976158,3449.899999976158,7011,7362.5,10273.5,14738.5,18688.80000001192,23579.399999976158,24171.80000001192,26139.599999964237,26563.399999976158,26929.30000001192,28700.599999964237,29339.30000001192,33536.89999997616,35342.69999998808,36900.30000001192,37342.69999998808,41941.39999997616,42875.5,43532.59999996424,43762.30000001192,44082.39999997616,44691.89999997616,48192,49720.39999997616,50255.59999996424,53669.59999996424,60380.30000001192,65864.69999998808,72136.69999998808,77404.19999998808,79860.30000001192,84941.39999997616,85266.5,85620,85822.59999996424,90690.19999998808,91010.09999996424,93245,95866.30000001192,96078.69999998808,97960.39999997616,98546.30000001192],"straightlining":0.47619047619047616,"zigzagging":0.3,"honeypot":0,"survey":"sns","trial_type":"survey-template","trial_index":2,"time_elapsed":120158,"internal_node_id":"0.0-2.0","task_version":"prescreen-v0.3","browser_interactions":0,"infrequency":0},{"responses":{"Q10":"3","Q07":"2","Q09":"3","Q03":"3","Q08":"3","Q02":"3","Q11":"3","Q06":"2","Q13":"0","Q12":"2","Q05":"2","Q04":"3","Q01":"3"},"rt":43632.60000002384,"item_order":[9,6,8,2,7,1,10,5,12,11,4,3,0],"radio_events":[8146.800000011921,8911.5,11729.600000023842,13834.800000011921,17092.400000035763,19307.30000001192,22481.100000023842,25331.80000001192,27542.200000047684,34899.30000001192,38074.200000047684,42117.200000047684,42818.60000002384],"key_events":[],"mouse_events":[5256.5,5688.200000047684,6770.700000047684,7553.700000047684,7835.800000011921,8146.800000011921,8911.5,11729.600000023842,13834.800000011921,16578.400000035763,17092.400000035763,17900,18940.30000001192,19307.30000001192,22481.100000023842,25331.80000001192,27542.200000047684,34610.5,34899.30000001192,38074.200000047684,41353.700000047684,41784.200000047684,42117.200000047684,42818.60000002384,43631.700000047684],"straightlining":0.6153846153846154,"zigzagging":0.3333333333333333,"honeypot":0,"survey":"bisbas","trial_type":"survey-template","trial_index":3,"time_elapsed":163795,"internal_node_id":"0.0-3.0","task_version":"prescreen-v0.3","browser_interactions":0,"infrequency":0},{"responses":{"Q01":"2","Q02":"2","Q03":"2"},"rt":12151.300000011921,"radio_events":[4245.599999964237,7529.399999976158,11134.5],"key_events":[],"mouse_events":[4245.599999964237,7529.399999976158,11134.5,12150.599999964237],"survey":"map","page":1,"trial_type":"survey-map","trial_index":4,"time_elapsed":175950,"internal_node_id":"0.0-4.0","task_version":"prescreen-v0.3","browser_interactions":0},{"responses":{"Q04":"0","Q05":"0","Q06":"0"},"rt":17884.200000047684,"radio_events":[10652.600000023842,12649.5,13935.600000023842,17017.80000001192],"key_events":[],"mouse_events":[9581.600000023842,10652.600000023842,12649.5,13384.600000023842,13935.600000023842,17017.80000001192,17883.5],"survey":"map","page":2,"trial_type":"survey-map","trial_index":5,"time_elapsed":193838,"internal_node_id":"0.0-5.0","task_version":"prescreen-v0.3","browser_interactions":0},{"responses":{"Q07":"0","Q08":"1","Q09":"4"},"rt":12542,"radio_events":[3604.899999976158,8487.100000023842,11898.399999976158],"key_events":[],"mouse_events":[3192.199999988079,3604.899999976158,8487.100000023842,11197.300000011921,11440.199999988079,11898.399999976158,12541.300000011921],"survey":"map","page":3,"trial_type":"survey-map","trial_index":6,"time_elapsed":206384,"internal_node_id":"0.0-6.0","task_version":"prescreen-v0.3","browser_interactions":0},{"responses":{"Q10":"2","Q11":"2","Q12":"0","Q13":"0","Q16":"0","Q14":"2","Q15":"2"},"rt":29410.30000001192,"radio_events":[5136.899999976158,8296.599999964237,12937.899999976158,17562.599999964237,20383,24945.599999964237,28122.399999976158],"key_events":[],"mouse_events":[5136.899999976158,8296.599999964237,12937.899999976158,16929.19999998808,17562.599999964237,19982.099999964237,20383,24945.599999964237,28122.399999976158,29409.399999976158],"survey":"map","page":4,"trial_type":"survey-map","trial_index":7,"time_elapsed":235798,"internal_node_id":"0.0-7.0","task_version":"prescreen-v0.3","browser_interactions":0,"infrequency":0},{"view_history":[{"page_index":0,"viewing_time":1568.300000011921},{"page_index":1,"viewing_time":2232.699999988079}],"rt":3801.400000035763,"trial_type":"instructions","trial_index":8,"time_elapsed":239602,"internal_node_id":"0.0-8.0","task_version":"prescreen-v0.3"},{"responses":{"01":"Yes","01_ages_7":"7","01_ages_8":"8","01_ages_9":"9","01_ages_10":"10","01_ages_11":"11","01_ages_12":"12","01_ages_13":"13","01_ages_14":"14","01_ages_15":"15","01_ages_16":"16","01_ages_17":"17","01_ages_18":"18","02":"Yes","02_ages_6":"6","02_ages_7":"7","02_ages_8":"8","02_ages_9":"9","02_ages_10":"10","02_ages_11":"11","02_ages_12":"12","02_ages_13":"13","02_ages_14":"14","02_ages_15":"15","02_ages_16":"16","02_ages_17":"17","02_ages_18":"18","03":"Yes","03_ages_4":"4","03_ages_5":"5","03_ages_6":"6","03_ages_7":"7","03_ages_8":"8","03_ages_9":"9","03_ages_10":"10","03_ages_11":"11","03_ages_12":"12","03_ages_13":"13","03_ages_14":"14","03_ages_15":"15","03_ages_16":"16","03_ages_17":"17","03_ages_18":"18","04":"Yes","04_ages_6":"6","04_ages_7":"7","04_ages_8":"8","04_ages_9":"9","04_ages_10":"10","04_ages_11":"11","04_ages_12":"12","04_ages_13":"13","04_ages_14":"14","04_ages_15":"15","04_ages_16":"16","04_ages_17":"17","04_ages_18":"18","05":"No","06":"Yes","06_ages_7":"7","06_ages_8":"8","06_ages_9":"9","06_ages_10":"10","06_ages_11":"11","06_ages_12":"12","06_ages_13":"13","06_ages_14":"14","06_ages_15":"15","06_ages_16":"16","06_ages_17":"17","06_ages_18":"18"},"rt":89090.70000004768,"item_order":[0,1,2,3,4,5],"radio_events":[3469.300000011921,25131.400000035763,35857.10000002384,64689.5,78317.20000004768,81076.40000003576],"checkbox_events":[7108.600000023842,7463.600000023842,8150.100000023842,9384.100000023842,9984,10515.5,11058.900000035763,11439.100000023842,13478.600000023842,13781,14123.200000047684,14725,16478.700000047684,17216.200000047684,17939.700000047684,18542.600000023842,18903.400000035763,19328.400000035763,19778.80000001192,21099.400000035763,21768.5,22103.200000047684,22540.200000047684,23130.200000047684,27670.100000023842,28067.100000023842,28998,29308.400000035763,29889.5,30294.400000035763,30671.5,31131,32068.200000047684,32336.5,32681.200000047684,33090.40000003576,33535.200000047684,37797.90000003576,38204.200000047684,39261,39572.30000001192,39960.40000003576,40341.10000002384,42016.5,42925.5,43445.200000047684,44114,44424.30000001192,44765.30000001192,45203.30000001192,45632.10000002384,46279.700000047684,66428.30000001192,66851.10000002384,67152.20000004768,68142.20000004768,68566.30000001192,69253.20000004768,69566.40000003576,69889,70299.20000004768,70598.30000001192,70973.20000004768,71709.20000004768,72067,72425.30000001192,72773.40000003576,73264.20000004768,73537.10000002384,82052.10000002384,82487.5,82804.20000004768,83120.20000004768,84235.20000004768,84591,85744.70000004768,86053.10000002384,86444.5,86843,87223.30000001192,87902],"key_events":[60928],"mouse_events":[3.100000023841858,3469.300000011921,7108.600000023842,7463.600000023842,8150.100000023842,8554.400000035763,8920.200000047684,9384.100000023842,9984,10515.5,11058.900000035763,11439.100000023842,13478.600000023842,13781,14123.200000047684,14725,16478.700000047684,16934.30000001192,17216.200000047684,17939.700000047684,18230.200000047684,18542.600000023842,18903.400000035763,19328.400000035763,19778.80000001192,20157.80000001192,20638.700000047684,21099.400000035763,21414.200000047684,21768.5,22103.200000047684,22540.200000047684,23130.200000047684,25131.400000035763,27670.100000023842,28067.100000023842,28521.100000023842,28998,29308.400000035763,29889.5,30294.400000035763,30671.5,31131,31552.30000001192,32068.200000047684,32336.5,32681.200000047684,33090.40000003576,33535.200000047684,35161.5,35510.40000003576,35857.10000002384,37797.90000003576,38204.200000047684,38676.30000001192,39261,39572.30000001192,39960.40000003576,40341.10000002384,40707.40000003576,41162,41449.700000047684,42016.5,42545.40000003576,42925.5,43445.200000047684,43811.60000002384,44114,44424.30000001192,44765.30000001192,45203.30000001192,45632.10000002384,45999.40000003576,46279.700000047684,64689.5,66428.30000001192,66851.10000002384,67152.20000004768,67810.10000002384,68142.20000004768,68566.30000001192,69253.20000004768,69566.40000003576,69889,70299.20000004768,70598.30000001192,70973.20000004768,71323.20000004768,71709.20000004768,72067,72425.30000001192,72773.40000003576,73264.20000004768,73537.10000002384,78317.20000004768,81076.40000003576,82052.10000002384,82487.5,82804.20000004768,83120.20000004768,83495.10000002384,83759.10000002384,84235.20000004768,84591,85006.10000002384,85333.40000003576,85744.70000004768,86053.10000002384,86444.5,86843,87223.30000001192,87554.10000002384,87902,89089],"honeypot":0,"survey":"mace","page":1,"trial_type":"survey-mace","trial_index":9,"time_elapsed":328699,"internal_node_id":"0.0-9.0","task_version":"prescreen-v0.3","browser_interactions":2},{"responses":{"01":"Yes","01_ages_6":"6","01_ages_7":"7","01_ages_8":"8","01_ages_9":"9","01_ages_10":"10","01_ages_11":"11","01_ages_12":"12","01_ages_13":"13","01_ages_14":"14","01_ages_15":"15","01_ages_16":"16","01_ages_17":"17","01_ages_18":"18","02":"Yes","02_ages_6":"6","02_ages_7":"7","02_ages_8":"8","02_ages_9":"9","02_ages_10":"10","02_ages_11":"11","02_ages_12":"12","02_ages_13":"13","02_ages_14":"14","02_ages_15":"15","02_ages_16":"16","02_ages_17":"17","02_ages_18":"18","03":"Yes","03_ages_6":"6","03_ages_7":"7","03_ages_8":"8","03_ages_9":"9","03_ages_10":"10","03_ages_11":"11","03_ages_12":"12","03_ages_13":"13","03_ages_14":"14","04":"Yes","04_ages_6":"6","04_ages_7":"7","04_ages_8":"8","04_ages_9":"9","04_ages_10":"10","04_ages_11":"11","04_ages_12":"12","04_ages_13":"13","04_ages_14":"14","05":"Yes","05_ages_6":"6","05_ages_7":"7","05_ages_8":"8","05_ages_9":"9","05_ages_10":"10","05_ages_11":"11","05_ages_12":"12","05_ages_13":"13","05_ages_14":"14","05_ages_15":"15","06":"Yes","06_ages_6":"6","06_ages_7":"7","06_ages_8":"8","06_ages_9":"9","06_ages_10":"10","06_ages_11":"11","06_ages_12":"12","06_ages_13":"13","06_ages_14":"14","07":"Yes","07_ages_1":"1","07_ages_2":"2","07_ages_3":"3","07_ages_4":"4","07_ages_5":"5","07_ages_6":"6","07_ages_7":"7","07_ages_8":"8","07_ages_9":"9","07_ages_10":"10","07_ages_11":"11","07_ages_12":"12","07_ages_13":"13","08":"No"},"rt":97931,"item_order":[0,1,2,3,4,5,6,7],"radio_events":[2544.600000023842,12967.899999976158,23174.69999998808,34129.10000002384,43618.10000002384,76246.30000001192,83551.80000001192,96675.60000002384],"checkbox_events":[4692.100000023842,4975.399999976158,5396.800000011921,5802.600000023842,6159.5,6526,6970.899999976158,7319.600000023842,7739.600000023842,8136.399999976158,8533.5,8930.699999988079,9884.399999976158,14010.800000011921,15291.300000011921,16824.600000023842,18087.19999998808,18378.600000023842,19013.600000023842,19324.399999976158,19649.69999998808,20143.600000023842,20469.399999976158,20748.69999998808,21559.600000023842,21872.5,24189.69999998808,24864.399999976158,25363.80000001192,26290.5,26552.600000023842,26856.600000023842,27213.80000001192,27553.69999998808,28413.899999976158,29207.69999998808,30526.600000023842,30802.399999976158,31141.69999998808,35259.10000002384,35548.19999998808,36171.60000002384,36462.89999997616,36860.5,37467.39999997616,38072.30000001192,38380.69999998808,38696.69999998808,39141.30000001192,39607.39999997616,40730.69999998808,40994.39999997616,44536.69999998808,44909.5,45684.39999997616,46826.89999997616,47187.69999998808,47569.60000002384,47898,48348.60000002384,48736.80000001192,49102.60000002384,49508.39999997616,49941.60000002384,50218.39999997616,51372.39999997616,51940.69999998808,58190.89999997616,59548.69999998808,62608.60000002384,63096.60000002384,64254.19999998808,69294.39999997616,69972.39999997616,70257.80000001192,71939.89999997616,77601.5,77957.69999998808,78301.30000001192,78696.60000002384,79032.5,79373.30000001192,80586.69999998808,80926.60000002384,81429.89999997616,84565.60000002384,85720.30000001192,86002.69999998808,87044.39999997616,88012.60000002384,88383.10000002384,89104.5,90022.69999998808,90373.19999998808,90805.5,91243.30000001192,92854.30000001192,93568.19999998808],"key_events":[],"mouse_events":[2211,2544.600000023842,3866.399999976158,4692.100000023842,4975.399999976158,5396.800000011921,5802.600000023842,6159.5,6526,6970.899999976158,7319.600000023842,7739.600000023842,8136.399999976158,8533.5,8930.699999988079,9884.399999976158,12967.899999976158,14010.800000011921,14427.699999988079,14793.600000023842,15291.300000011921,15890.600000023842,16824.600000023842,17183.600000023842,18087.19999998808,18378.600000023842,19013.600000023842,19324.399999976158,19649.69999998808,20143.600000023842,20469.399999976158,20748.69999998808,21153.30000001192,21559.600000023842,21872.5,23174.69999998808,24189.69999998808,24551.600000023842,24864.399999976158,25363.80000001192,25805.600000023842,26290.5,26552.600000023842,26856.600000023842,27213.80000001192,27553.69999998808,27904.600000023842,28413.899999976158,28712.600000023842,29207.69999998808,29640.80000001192,30009.19999998808,30526.600000023842,30802.399999976158,31141.69999998808,34129.10000002384,34965,35259.10000002384,35548.19999998808,35890.39999997616,36171.60000002384,36462.89999997616,36860.5,37208.69999998808,37467.39999997616,37776.60000002384,38072.30000001192,38380.69999998808,38696.69999998808,39141.30000001192,39607.39999997616,39968.30000001192,40314.69999998808,40730.69999998808,40994.39999997616,43618.10000002384,44536.69999998808,44909.5,45231.80000001192,45684.39999997616,45988.69999998808,46541.80000001192,46826.89999997616,47187.69999998808,47569.60000002384,47898,48348.60000002384,48736.80000001192,49102.60000002384,49508.39999997616,49941.60000002384,50218.39999997616,51372.39999997616,51940.69999998808,58190.89999997616,59548.69999998808,62122.60000002384,62608.60000002384,63096.60000002384,64254.19999998808,69294.39999997616,69653.5,69972.39999997616,70257.80000001192,71939.89999997616,76246.30000001192,77601.5,77957.69999998808,78301.30000001192,78696.60000002384,79032.5,79373.30000001192,79828.19999998808,80149.89999997616,80586.69999998808,80926.60000002384,81429.89999997616,83551.80000001192,84565.60000002384,85319.60000002384,85720.30000001192,86002.69999998808,86439.5,87044.39999997616,87372,88012.60000002384,88383.10000002384,89104.5,89520.60000002384,90022.69999998808,90373.19999998808,90805.5,91243.30000001192,92854.30000001192,93568.19999998808,96372.30000001192,96675.60000002384,97928.10000002384],"honeypot":0,"survey":"mace","page":2,"trial_type":"survey-mace","trial_index":10,"time_elapsed":426637,"internal_node_id":"0.0-10.0","task_version":"prescreen-v0.3","browser_interactions":0},{"responses":{"01":"Yes","01_ages_1":"1","01_ages_2":"2","01_ages_3":"3","01_ages_4":"4","01_ages_5":"5","01_ages_6":"6","01_ages_7":"7","01_ages_8":"8","01_ages_9":"9","01_ages_10":"10","01_ages_11":"11","01_ages_12":"12","01_ages_13":"13","01_ages_14":"14","01_ages_15":"15","02":"Yes","02_ages_1":"1","02_ages_2":"2","02_ages_3":"3","02_ages_4":"4","02_ages_5":"5","02_ages_6":"6","02_ages_7":"7","02_ages_8":"8","02_ages_9":"9","02_ages_10":"10","02_ages_11":"11","02_ages_12":"12","02_ages_13":"13","02_ages_14":"14","02_ages_15":"15","03":"Yes","03_ages_1":"1","03_ages_2":"2","03_ages_3":"3","03_ages_4":"4","03_ages_5":"5","03_ages_6":"6","03_ages_7":"7","03_ages_8":"8","03_ages_9":"9","03_ages_10":"10","03_ages_11":"11","03_ages_12":"12","03_ages_13":"13","03_ages_14":"14","03_ages_15":"15","04":"Yes","04_ages_1":"1","04_ages_2":"2","04_ages_3":"3","04_ages_4":"4","04_ages_5":"5","04_ages_6":"6","04_ages_7":"7","04_ages_8":"8","04_ages_9":"9","04_ages_10":"10","04_ages_11":"11","04_ages_12":"12","04_ages_13":"13","04_ages_14":"14","04_ages_15":"15"},"rt":53169.60000002384,"item_order":[0,1,2,3],"radio_events":[4236.300000011921,18793.600000023842,33492.80000001192,42804.5],"checkbox_events":[6463.400000035763,6767.300000011921,8026.699999988079,8338.300000011921,9256.199999988079,9535.400000035763,11197.5,11488.400000035763,12114.100000023842,12498.400000035763,12870.100000023842,13356.300000011921,14366.199999988079,14730.5,15114.300000011921,19719.5,20074.400000035763,20758.30000001192,21113.400000035763,21544.19999998808,23500.30000001192,23803.19999998808,24630.5,24918.5,26762.400000035763,27834.600000023842,28645.30000001192,28982.30000001192,29764.400000035763,30062.100000023842,34342.40000003576,34785.19999998808,35127.10000002384,35618.30000001192,36636.19999998808,37027.40000003576,37722.30000001192,38014.80000001192,38878,39159.60000002384,39548.30000001192,39921.40000003576,40316.19999998808,40695.10000002384,41014.10000002384,45082.5,46856.40000003576,47154.80000001192,47559.40000003576,47922.5,48288.19999998808,48630.30000001192,48995.19999998808,49336.10000002384,50018.30000001192,50373.60000002384,50715.40000003576,51126.69999998808,51660.30000001192,52120.69999998808],"key_events":[],"mouse_events":[4236.300000011921,6463.400000035763,6767.300000011921,7136.100000023842,7721.199999988079,8026.699999988079,8338.300000011921,8695.5,9256.199999988079,9535.400000035763,9946.5,10298.100000023842,10748.300000011921,11197.5,11488.400000035763,12114.100000023842,12498.400000035763,12870.100000023842,13356.300000011921,13841.5,14366.199999988079,14730.5,15114.300000011921,18793.600000023842,19719.5,20074.400000035763,20390,20758.30000001192,21113.400000035763,21544.19999998808,21913.400000035763,22496.19999998808,22828.30000001192,23161.100000023842,23500.30000001192,23803.19999998808,24164.600000023842,24630.5,24918.5,25305.19999998808,25809.5,26306.19999998808,26762.400000035763,27102.400000035763,27510.30000001192,27834.600000023842,28181.30000001192,28645.30000001192,28982.30000001192,29462.400000035763,29764.400000035763,30062.100000023842,33492.80000001192,34342.40000003576,34785.19999998808,35127.10000002384,35618.30000001192,35888.19999998808,36315.10000002384,36636.19999998808,37027.40000003576,37410.40000003576,37722.30000001192,38014.80000001192,38373.40000003576,38878,39159.60000002384,39548.30000001192,39921.40000003576,40316.19999998808,40695.10000002384,41014.10000002384,42804.5,44770.40000003576,45082.5,45390.40000003576,46856.40000003576,47154.80000001192,47559.40000003576,47922.5,48288.19999998808,48630.30000001192,48995.19999998808,49336.10000002384,49711.30000001192,50018.30000001192,50373.60000002384,50715.40000003576,51126.69999998808,51660.30000001192,52120.69999998808,53168.60000002384],"honeypot":0,"survey":"mace","page":3,"trial_type":"survey-mace","trial_index":11,"time_elapsed":479812,"internal_node_id":"0.0-11.0","task_version":"prescreen-v0.3","browser_interactions":0},{"responses":{"01":"No","02":"Yes","02_ages_14":"14"},"rt":17689.5,"item_order":[0,1],"radio_events":[4471.699999988079,5604.800000011921,13107.699999988079],"checkbox_events":[14818],"key_events":[],"mouse_events":[4194.099999964237,4471.699999988079,5004.699999988079,5604.800000011921,13107.699999988079,14818,17688.80000001192],"honeypot":0,"survey":"mace","page":4,"trial_type":"survey-mace","trial_index":12,"time_elapsed":497505,"internal_node_id":"0.0-12.0","task_version":"prescreen-v0.3","browser_interactions":0},{"responses":{"01":"No","02":"No","03":"No","04":"No","05":"No"},"rt":16613.900000035763,"item_order":[0,1,2,3,4],"radio_events":[7942.700000047684,10480.200000047684,12116.200000047684,13737.5,15857.300000011921],"checkbox_events":[],"key_events":[],"mouse_events":[7942.700000047684,10480.200000047684,12116.200000047684,13737.5,15857.300000011921,16612.200000047684],"honeypot":0,"survey":"mace","page":5,"trial_type":"survey-mace","trial_index":13,"time_elapsed":514123,"internal_node_id":"0.0-13.0","task_version":"prescreen-v0.3","browser_interactions":0},{"responses":{"01":"Yes","01_ages_7":"7","01_ages_8":"8","01_ages_9":"9","01_ages_10":"10","01_ages_11":"11","01_ages_12":"12","01_ages_13":"13","01_ages_14":"14","01_ages_15":"15","01_ages_16":"16","01_ages_17":"17","01_ages_18":"18","02":"Yes","02_ages_8":"8","02_ages_9":"9","02_ages_10":"10","02_ages_11":"11","02_ages_12":"12","02_ages_13":"13","02_ages_14":"14","02_ages_15":"15","02_ages_16":"16","02_ages_17":"17","02_ages_18":"18","03":"Yes","03_ages_7":"7","03_ages_8":"8","03_ages_9":"9","03_ages_10":"10","03_ages_11":"11","03_ages_12":"12","03_ages_13":"13","03_ages_14":"14","03_ages_15":"15","03_ages_16":"16","03_ages_17":"17","03_ages_18":"18","04":"No","05":"Yes","05_ages_14":"14","05_ages_15":"15","05_ages_16":"16","05_ages_17":"17","05_ages_18":"18"},"rt":44927.19999998808,"item_order":[0,1,2,3,4],"radio_events":[3857.900000035763,13480.800000011921,22719.600000023842,32637.600000023842,35563.69999998808],"checkbox_events":[6603.699999988079,6943,7294.100000023842,7620.300000011921,7988.699999988079,8595.199999988079,8918.400000035763,10194.5,10473.5,10847.600000023842,11147.600000023842,11498.400000035763,14276.100000023842,15439.699999988079,15700.199999988079,16053.199999988079,16389.69999998808,16684.5,17016.69999998808,17667.600000023842,17945.400000035763,18257.400000035763,19202.600000023842,19963.69999998808,20233.400000035763,23940.19999998808,24227.19999998808,25105.19999998808,25404.100000023842,25749.19999998808,26135.900000035763,26804.19999998808,27418.30000001192,28191.5,28496.19999998808,29135.30000001192,29432.400000035763,36853.30000001192,37139.5,38225,39014.40000003576,39823.90000003576,40093.40000003576,40408.80000001192,40770.30000001192,41943.10000002384,42477.5,42799.40000003576,43324.30000001192,43643.19999998808],"key_events":[],"mouse_events":[2808.800000011921,3534.5,3857.900000035763,6603.699999988079,6943,7294.100000023842,7620.300000011921,7988.699999988079,8341.100000023842,8595.199999988079,8918.400000035763,9423.699999988079,9720.300000011921,10194.5,10473.5,10847.600000023842,11147.600000023842,11498.400000035763,12725.100000023842,13480.800000011921,14276.100000023842,15439.699999988079,15700.199999988079,16053.199999988079,16389.69999998808,16684.5,17016.69999998808,17379.400000035763,17667.600000023842,17945.400000035763,18257.400000035763,18527,18809.30000001192,19202.600000023842,19486.69999998808,19963.69999998808,20233.400000035763,21968.5,22719.600000023842,23940.19999998808,24227.19999998808,24576.30000001192,25105.19999998808,25404.100000023842,25749.19999998808,26135.900000035763,26460.19999998808,26804.19999998808,27080.30000001192,27418.30000001192,27943.600000023842,28191.5,28496.19999998808,28792.30000001192,29135.30000001192,29432.400000035763,32637.600000023842,35259.60000002384,35563.69999998808,36371.19999998808,36853.30000001192,37139.5,37591.69999998808,37913.10000002384,38225,38481.30000001192,39014.40000003576,39416,39823.90000003576,40093.40000003576,40408.80000001192,40770.30000001192,41943.10000002384,42477.5,42799.40000003576,43324.30000001192,43643.19999998808,44925.60000002384],"honeypot":0,"survey":"mace","page":6,"trial_type":"survey-mace","trial_index":14,"time_elapsed":559054,"internal_node_id":"0.0-14.0","task_version":"prescreen-v0.3","browser_interactions":0},{"responses":{"01":"No","01_ages_13":"13","01_ages_14":"14","01_ages_15":"15","01_ages_16":"16","02":"Yes","02_ages_13":"13","02_ages_14":"14","02_ages_15":"15","02_ages_16":"16","03":"Yes","03_ages_14":"14","03_ages_15":"15","03_ages_16":"16","03_ages_17":"17","04":"Yes","04_ages_15":"15","04_ages_16":"16","04_ages_17":"17","05":"Yes","05_ages_14":"14","05_ages_15":"15","05_ages_16":"16","06":"No","07":"No"},"rt":71159.70000004768,"item_order":[0,1,2,3,4,5,6],"radio_events":[2707,7741.900000035763,13473.300000011921,47764,60641.200000047684,63759.80000001192,68892.90000003576,70826.70000004768],"checkbox_events":[4760.900000035763,5070.600000023842,5845.800000011921,6083.400000035763,10139.600000023842,10457.600000023842,10794.600000023842,11156.800000011921,11512.300000011921,16784.700000047684,17146.80000001192,22586.80000001192,23056.900000035763,23588.80000001192,24777.400000035763,25117.5,25811.80000001192,26059.80000001192,27830.900000035763,28281.900000035763,29407.100000023842,29679.5,30016.900000035763,32105.600000023842,32437.900000035763,33329.700000047684,33600.80000001192,37135.30000001192,38268.5,43274.90000003576,43956,49032.40000003576,50394.90000003576,51151.5,52253.80000001192,52855,55369.40000003576,58517.10000002384,58868.80000001192,65179.5,66421.70000004768,66808.90000003576],"key_events":[],"mouse_events":[2335.800000011921,2707,4760.900000035763,5070.600000023842,5393.5,5845.800000011921,6083.400000035763,7741.900000035763,10139.600000023842,10457.600000023842,10794.600000023842,11156.800000011921,11512.300000011921,11890.400000035763,13473.300000011921,16784.700000047684,17146.80000001192,22586.80000001192,23056.900000035763,23588.80000001192,24072.900000035763,24777.400000035763,25117.5,25811.80000001192,26059.80000001192,26419.5,26766.80000001192,27291.30000001192,27558,27830.900000035763,28281.900000035763,28779.400000035763,29058.900000035763,29407.100000023842,29679.5,30016.900000035763,32105.600000023842,32437.900000035763,32736.400000035763,33048.700000047684,33329.700000047684,33600.80000001192,33961.5,34329.30000001192,37135.30000001192,38268.5,43274.90000003576,43672,43956,47150.5,47764,49032.40000003576,50394.90000003576,51151.5,52253.80000001192,52855,55369.40000003576,56037.90000003576,58517.10000002384,58868.80000001192,59327.10000002384,59760.5,60641.200000047684,63759.80000001192,65179.5,65627.20000004768,66153.5,66421.70000004768,66808.90000003576,68892.90000003576,70299.40000003576,70826.70000004768,71157.70000004768],"honeypot":0,"survey":"mace","page":7,"trial_type":"survey-mace","trial_index":15,"time_elapsed":630220,"internal_node_id":"0.0-15.0","task_version":"prescreen-v0.3","browser_interactions":0},{"responses":{"01":"Yes","01_ages_13":"13","01_ages_14":"14","01_ages_15":"15","01_ages_16":"16","01_ages_17":"17","01_ages_18":"18","02":"Yes","02_ages_1":"1","02_ages_2":"2","02_ages_3":"3","02_ages_4":"4","02_ages_5":"5","02_ages_6":"6","02_ages_7":"7","02_ages_8":"8","02_ages_9":"9","02_ages_10":"10","02_ages_11":"11","02_ages_12":"12","02_ages_13":"13","02_ages_14":"14","02_ages_15":"15","02_ages_16":"16","02_ages_17":"17","02_ages_18":"18","03":"Yes","03_ages_7":"7","03_ages_8":"8","03_ages_9":"9","03_ages_10":"10","03_ages_11":"11","03_ages_12":"12","03_ages_13":"13","03_ages_14":"14","03_ages_15":"15","03_ages_16":"16","03_ages_17":"17","03_ages_18":"18","04":"Yes","04_ages_7":"7","04_ages_8":"8","04_ages_9":"9","04_ages_10":"10","04_ages_11":"11","04_ages_12":"12","04_ages_13":"13","04_ages_14":"14","04_ages_15":"15","04_ages_16":"16","04_ages_17":"17","04_ages_18":"18"},"rt":60057,"item_order":[0,1,2,3],"radio_events":[6451.400000035763,19683.900000035763,32845.10000002384,47194.5],"checkbox_events":[13223.300000011921,14204,14480.100000023842,15198.200000047684,15574,18235.100000023842,21367.200000047684,21758.200000047684,22276.100000023842,22640.30000001192,22998.400000035763,23377.700000047684,23709.700000047684,24071.700000047684,24927.200000047684,25206.200000047684,25622.30000001192,26364.200000047684,27009.400000035763,27296,27689.400000035763,28126.30000001192,28460.200000047684,28768.100000023842,35295.10000002384,35564.90000003576,35910.90000003576,36247.90000003576,36578,36932.30000001192,37335.10000002384,37799.200000047684,38644.40000003576,38926.200000047684,39678.90000003576,39941.10000002384,54068.40000003576,54540.10000002384,54879.30000001192,55194.40000003576,55513,56937.30000001192,57690.5,58008.30000001192,58379.90000003576,58719.30000001192,59042.40000003576,59418.40000003576],"key_events":[],"mouse_events":[6451.400000035763,13223.300000011921,13740.200000047684,14204,14480.100000023842,14939.200000047684,15198.200000047684,15574,15957.300000011921,18235.100000023842,19683.900000035763,21033.900000035763,21367.200000047684,21758.200000047684,22276.100000023842,22640.30000001192,22998.400000035763,23377.700000047684,23709.700000047684,24071.700000047684,24463.80000001192,24927.200000047684,25206.200000047684,25622.30000001192,26020.100000023842,26364.200000047684,26699.200000047684,27009.400000035763,27296,27689.400000035763,28126.30000001192,28460.200000047684,28768.100000023842,31079,31606.30000001192,31980.100000023842,32557,32845.10000002384,35295.10000002384,35564.90000003576,35910.90000003576,36247.90000003576,36578,36932.30000001192,37335.10000002384,37799.200000047684,38164.30000001192,38644.40000003576,38926.200000047684,39323,39678.90000003576,39941.10000002384,47194.5,49393,54068.40000003576,54540.10000002384,54879.30000001192,55194.40000003576,55513,55925.200000047684,56368.80000001192,56617,56937.30000001192,57213,57690.5,58008.30000001192,58379.90000003576,58719.30000001192,59042.40000003576,59418.40000003576,60055.40000003576],"honeypot":0,"survey":"mace","page":8,"trial_type":"survey-mace","trial_index":16,"time_elapsed":690282,"internal_node_id":"0.0-16.0","task_version":"prescreen-v0.3","browser_interactions":0},{"responses":{"01":"Yes","01_ages_1":"1","01_ages_2":"2","01_ages_3":"3","01_ages_4":"4","01_ages_5":"5","01_ages_6":"6","01_ages_7":"7","01_ages_8":"8","01_ages_9":"9","01_ages_10":"10","01_ages_11":"11","01_ages_12":"12","01_ages_13":"13","01_ages_14":"14","01_ages_15":"15","01_ages_16":"16","01_ages_17":"17","01_ages_18":"18","02":"Yes","02_ages_1":"1","02_ages_2":"2","02_ages_3":"3","02_ages_4":"4","02_ages_5":"5","02_ages_6":"6","02_ages_7":"7","02_ages_8":"8","02_ages_9":"9","02_ages_10":"10","02_ages_11":"11","02_ages_12":"12","02_ages_13":"13","02_ages_14":"14","02_ages_15":"15","02_ages_16":"16","02_ages_17":"17","02_ages_18":"18","03":"Yes","03_ages_1":"1","03_ages_2":"2","03_ages_3":"3","03_ages_4":"4","03_ages_5":"5","03_ages_6":"6","03_ages_7":"7","03_ages_8":"8","03_ages_9":"9","03_ages_10":"10","03_ages_11":"11","03_ages_12":"12","03_ages_13":"13","03_ages_14":"14","03_ages_15":"15","03_ages_16":"16","03_ages_17":"17","03_ages_18":"18","04":"No"},"rt":56998.80000001192,"item_order":[0,1,2,3],"radio_events":[3025.800000011921,9787.900000035763,28409.80000001192,40026.80000001192,51737.80000001192,54600.40000003576],"checkbox_events":[15198.5,15644.700000047684,16930.400000035763,17678.700000047684,17970.5,18857.900000035763,19293.80000001192,19890.80000001192,20156.5,20508.600000023842,20732.400000035763,20994.900000035763,21375.30000001192,21867.700000047684,23983.200000047684,24306.600000023842,24738.80000001192,25077.5,25397.900000035763,25734.400000035763,29399.200000047684,29734.900000035763,30017.900000035763,30339.900000035763,31386.700000047684,31782.80000001192,32056.5,32447.400000035763,32948.10000002384,33668.40000003576,33929.80000001192,34338.60000002384,34692.700000047684,35228.5,35629.80000001192,36026.40000003576,36386.60000002384,36678.5,40856.5,41154.700000047684,41458.5,41838,42188.40000003576,43034.40000003576,43323.10000002384,44030.5,44321.5,45139.200000047684,45399.60000002384,46066,46375.80000001192,47005.700000047684,47317,47845.700000047684,48406.700000047684,48788.200000047684],"key_events":[],"mouse_events":[3025.800000011921,9370.600000023842,9787.900000035763,15198.5,15644.700000047684,16301.600000023842,16546.600000023842,16930.400000035763,17206.600000023842,17678.700000047684,17970.5,18311.5,18622.5,18857.900000035763,19293.80000001192,19605.30000001192,19890.80000001192,20156.5,20508.600000023842,20732.400000035763,20994.900000035763,21375.30000001192,21867.700000047684,23211.5,23726,23983.200000047684,24306.600000023842,24738.80000001192,25077.5,25397.900000035763,25734.400000035763,28409.80000001192,29399.200000047684,29734.900000035763,30017.900000035763,30339.900000035763,30691.600000023842,31049.80000001192,31386.700000047684,31782.80000001192,32056.5,32447.400000035763,32948.10000002384,33272.40000003576,33668.40000003576,33929.80000001192,34338.60000002384,34692.700000047684,35059.80000001192,35228.5,35629.80000001192,36026.40000003576,36386.60000002384,36678.5,39075.80000001192,39705.700000047684,40026.80000001192,40856.5,41154.700000047684,41458.5,41838,42188.40000003576,42517.5,43034.40000003576,43323.10000002384,43725.30000001192,44030.5,44321.5,44704.80000001192,45139.200000047684,45399.60000002384,45796.80000001192,46066,46375.80000001192,46773.60000002384,47005.700000047684,47317,47616.5,47845.700000047684,48128.700000047684,48406.700000047684,48788.200000047684,51138.80000001192,51737.80000001192,54600.40000003576,56058.700000047684,56997.40000003576],"honeypot":0,"survey":"mace","page":9,"trial_type":"survey-mace","trial_index":17,"time_elapsed":747286,"internal_node_id":"0.0-17.0","task_version":"prescreen-v0.3","browser_interactions":0},{"responses":{"01":"Yes","01_ages_13":"13","01_ages_14":"14","01_ages_15":"15","01_ages_16":"16","01_ages_17":"17","01_ages_18":"18","02":"No","03":"Yes","03_ages_13":"13","03_ages_14":"14","03_ages_15":"15","03_ages_16":"16","03_ages_17":"17","03_ages_18":"18","04":"Yes","04_ages_6":"6","04_ages_7":"7","04_ages_8":"8","04_ages_9":"9","04_ages_10":"10","04_ages_11":"11","04_ages_12":"12","04_ages_13":"13","04_ages_14":"14","04_ages_15":"15","04_ages_16":"16","04_ages_17":"17","04_ages_18":"18","05":"Yes","05_ages_7":"7","05_ages_8":"8","05_ages_9":"9","05_ages_10":"10","05_ages_11":"11","05_ages_12":"12","05_ages_13":"13","05_ages_14":"14","05_ages_15":"15","05_ages_16":"16","05_ages_17":"17","05_ages_18":"18","06":"Yes","06_ages_17":"17","07":"No","08":"No"},"rt":46544.69999998808,"item_order":[0,1,2,3,4,5,6,7],"radio_events":[2723.699999988079,12732.399999976158,13408,19048,31105.80000001192,41230.30000001192,44056.69999998808,46056.39999997616],"checkbox_events":[5178.5,5470.300000011921,5784.5,6603.099999964237,6869.699999988079,8184.699999988079,15289.599999964237,15593.699999988079,15933.899999976158,16462.80000001192,16796.899999976158,17332.599999964237,20599.80000001192,20922.80000001192,21227.899999976158,21626,21979.599999964237,22373.69999998808,22669.899999976158,23263.69999998808,23623.899999976158,24006.5,24923.5,25354,26021.69999998808,34576.09999996424,35360.69999998808,35687.5,36050.69999998808,36511.89999997616,36823.09999996424,37216.39999997616,37500.39999997616,37813,38129.69999998808,39190.5,39441.80000001192,42210.19999998808],"key_events":[],"mouse_events":[2723.699999988079,5178.5,5470.300000011921,5784.5,6092.300000011921,6603.099999964237,6869.699999988079,7210.099999964237,7736.399999976158,8184.699999988079,12732.399999976158,13408,15289.599999964237,15593.699999988079,15933.899999976158,16217.5,16462.80000001192,16796.899999976158,17332.599999964237,19048,20599.80000001192,20922.80000001192,21227.899999976158,21626,21979.599999964237,22373.69999998808,22669.899999976158,23006.5,23263.69999998808,23623.899999976158,24006.5,24352.899999976158,24657.399999976158,24923.5,25354,25776.69999998808,26021.69999998808,28777.399999976158,31105.80000001192,34576.09999996424,34827.89999997616,35110.30000001192,35360.69999998808,35687.5,36050.69999998808,36511.89999997616,36823.09999996424,37216.39999997616,37500.39999997616,37813,38129.69999998808,38492.80000001192,38784.89999997616,39190.5,39441.80000001192,41230.30000001192,42210.19999998808,44056.69999998808,45653.69999998808,46056.39999997616,46542.30000001192],"honeypot":0,"survey":"mace","page":10,"trial_type":"survey-mace","trial_index":18,"time_elapsed":793837,"internal_node_id":"0.0-18.0","task_version":"prescreen-v0.3","browser_interactions":0,"instructed":0},{"rt":14694.300000011921,"trial_type":"mental-health-alert","trial_index":19,"time_elapsed":808535,"internal_node_id":"0.0-19.0","task_version":"prescreen-v0.3","interactions":"[{\"event\":\"blur\",\"trial\":1,\"time\":9654},{\"event\":\"focus\",\"trial\":1,\"time\":11312},{\"event\":\"blur\",\"trial\":9,\"time\":288423},{\"event\":\"focus\",\"trial\":9,\"time\":300491}]"}]