[{"view_history":[{"page_index":0,"viewing_time":1972},{"page_index":1,"viewing_time":2398},{"page_index":2,"viewing_time":2321},{"page_index":3,"viewing_time":1046}],"rt":7738,"trial_type":"instructions","trial_index":0,"time_elapsed":7742,"internal_node_id":"0.0-0.0","task_version":"prescreen-v0.3"},{"rt":14858,"responses":{"age":"27","gender-categorical":"Male","gender-free-response":"","ethnicity":"Not Hispanic or Latino","race":["White"],"education":"Master degree or higher","siblings":"2"},"trial_type":"survey-demo","trial_index":1,"time_elapsed":22610,"internal_node_id":"0.0-1.0","task_version":"prescreen-v0.3"},{"responses":{"Q20":"0","Q17":"0","Q08":"0","Q16":"1","Q05":"1","Q03":"1","Q06":"0","Q11":"2","Q14":"1","Q15":"1","Q10":"1","Q12":"1","Q01":"1","Q09":"1","Q19":"1","Q07":"1","Q18":"1","Q13":"2","Q04":"1","Q21":"3","Q02":"1"},"rt":72916,"item_order":[19,16,7,15,4,2,5,10,13,14,9,11,0,8,18,6,17,12,3,20,1],"radio_events":[2294,7810,8403,8437,8631,10459,13858,17163,24211,27313,28274,29650,32791,36471,38667,41879,44301,47638,47832,48074,51622,51850,54880,55129,58538,58780,62843,65960,71335],"key_events":[],"mouse_events":[2294,7122,7810,8403,8437,8631,10459,12538,13858,15890,16609,17163,18905,18954,19148,21030,21056,21233,22570,24211,26313,27313,28274,29650,32791,33901,35596,36471,37002,37712,37785,37980,38667,39393,39933,40158,41879,44301,47638,47832,48074,48707,48981,51622,51850,52403,54880,55129,58538,58780,61694,62843,65960,66914,71335,72916],"straightlining":0.6666666666666666,"zigzagging":0.25,"honeypot":0,"survey":"sns","trial_type":"survey-template","trial_index":2,"time_elapsed":95532,"internal_node_id":"0.0-2.0","task_version":"prescreen-v0.3","browser_interactions":0,"infrequency":0},{"responses":{"Q09":"2","Q03":"2","Q01":"3","Q12":"1","Q02":"1","Q04":"3","Q07":"3","Q05":"2","Q08":"2","Q10":"2","Q13":"0","Q06":"2","Q11":"1"},"rt":111766,"item_order":[8,2,0,11,1,3,6,4,7,9,12,5,10],"radio_events":[71923,74901,77472,79034,80128,82488,83676,83957,90254,94020,96826,99013,100137,101544,104053,106201,107038,109202,110632],"key_events":[],"mouse_events":[71923,74901,77472,79034,80128,82488,83676,83957,88317,88388,88581,89450,89507,89700,90254,94020,96826,99013,100137,101544,104053,106201,107038,108538,109202,110632,111766],"straightlining":0.46153846153846156,"zigzagging":0.25,"honeypot":0,"survey":"bisbas","trial_type":"survey-template","trial_index":3,"time_elapsed":207303,"internal_node_id":"0.0-3.0","task_version":"prescreen-v0.3","browser_interactions":4,"infrequency":0},{"responses":{"Q01":"3","Q02":"3","Q03":"3"},"rt":10761,"radio_events":[4744,6737,8112,9892],"key_events":[],"mouse_events":[4744,6737,8112,9892,10761],"survey":"map","page":1,"trial_type":"survey-map","trial_index":4,"time_elapsed":218069,"internal_node_id":"0.0-4.0","task_version":"prescreen-v0.3","browser_interactions":0},{"responses":{"Q04":"3","Q05":"3","Q06":"3"},"rt":9170,"radio_events":[5044,6889,8546],"key_events":[],"mouse_events":[1661,1848,2068,2520,5044,6177,6889,7686,8546,9170],"survey":"map","page":2,"trial_type":"survey-map","trial_index":5,"time_elapsed":227241,"internal_node_id":"0.0-5.0","task_version":"prescreen-v0.3","browser_interactions":0},{"responses":{"Q07":"1","Q08":"3","Q09":"0"},"rt":9812,"radio_events":[3702,4295,5724,8295],"key_events":[],"mouse_events":[1490,1654,1866,2287,3702,4295,5724,7772,8295,9812],"survey":"map","page":3,"trial_type":"survey-map","trial_index":6,"time_elapsed":237055,"internal_node_id":"0.0-6.0","task_version":"prescreen-v0.3","browser_interactions":0},{"responses":{"Q10":"3","Q11":"2","Q12":"1","Q13":"1","Q16":"0","Q14":"4","Q15":"2"},"rt":23514,"radio_events":[5021,6248,13100,15248,16232,20185,21281,22468,22516,22647],"key_events":[],"mouse_events":[3114,3715,3779,3981,5021,6248,9607,10146,10989,11062,11255,12389,13100,13693,14371,14438,14631,15248,16232,20185,21281,22468,22516,22647,23514],"survey":"map","page":4,"trial_type":"survey-map","trial_index":7,"time_elapsed":260571,"internal_node_id":"0.0-7.0","task_version":"prescreen-v0.3","browser_interactions":2,"infrequency":0},{"view_history":[{"page_index":0,"viewing_time":2912},{"page_index":1,"viewing_time":18571}],"rt":21483,"trial_type":"instructions","trial_index":8,"time_elapsed":282056,"internal_node_id":"0.0-8.0","task_version":"prescreen-v0.3"},{"responses":{"01":"No","02":"No","03":"No","04":"No","05":"No","06":"No"},"rt":19876,"item_order":[0,1,2,3,4,5],"radio_events":[5708,9068,11506,12990,14123,15287,16873],"checkbox_events":[],"key_events":[],"mouse_events":[0,2185,2435,2647,3107,5708,9068,11506,12990,14123,15287,16061,16873,19876],"honeypot":0,"survey":"mace","page":1,"trial_type":"survey-mace","trial_index":9,"time_elapsed":301945,"internal_node_id":"0.0-9.0","task_version":"prescreen-v0.3","browser_interactions":0},{"responses":{"01":"No","02":"No","03":"Yes","03_ages_7":"7","03_ages_8":"8","03_ages_9":"9","04":"No","05":"No","06":"No","07":"No","08":"No"},"rt":30399,"item_order":[0,1,2,3,4,5,6,7],"radio_events":[2324,4793,5707,18403,19771,22927,23661,24333],"checkbox_events":[11083,11583,13294,27458,29083],"key_events":[],"mouse_events":[2324,3450,4793,5707,11083,11583,13294,18403,19771,22927,23661,24333,27458,29083,30399],"honeypot":0,"survey":"mace","page":2,"trial_type":"survey-mace","trial_index":10,"time_elapsed":332355,"internal_node_id":"0.0-10.0","task_version":"prescreen-v0.3","browser_interactions":0},{"responses":{"01":"No","02":"No","03":"No","04":"No"},"rt":9286,"item_order":[0,1,2,3],"radio_events":[4308,5198,7879,8442],"checkbox_events":[],"key_events":[],"mouse_events":[2808,3371,4308,5198,5706,6371,7206,7879,8442,9286],"honeypot":0,"survey":"mace","page":3,"trial_type":"survey-mace","trial_index":11,"time_elapsed":341649,"internal_node_id":"0.0-11.0","task_version":"prescreen-v0.3","browser_interactions":0},{"responses":{"01":"No","02":"No"},"rt":3909,"item_order":[0,1],"radio_events":[1493,3112],"checkbox_events":[],"key_events":[],"mouse_events":[1493,2227,3112,3909],"honeypot":0,"survey":"mace","page":4,"trial_type":"survey-mace","trial_index":12,"time_elapsed":345562,"internal_node_id":"0.0-12.0","task_version":"prescreen-v0.3","browser_interactions":0},{"responses":{"01":"No","02":"No","03":"No","04":"No","05":"No"},"rt":9720,"item_order":[0,1,2,3,4],"radio_events":[2782,3766,6203,7281,8813],"checkbox_events":[],"key_events":[],"mouse_events":[2782,3766,4327,5078,5609,6203,6735,7281,8180,8813,9720],"honeypot":0,"survey":"mace","page":5,"trial_type":"survey-mace","trial_index":13,"time_elapsed":355290,"internal_node_id":"0.0-13.0","task_version":"prescreen-v0.3","browser_interactions":0},{"responses":{"01":"No","02":"No","03":"No","04":"No","05":"No"},"rt":16907,"item_order":[0,1,2,3,4],"radio_events":[1953,2961,4421,5351,6610],"checkbox_events":[],"key_events":[],"mouse_events":[1953,2961,3930,4421,5351,5968,6610,16907],"honeypot":0,"survey":"mace","page":6,"trial_type":"survey-mace","trial_index":14,"time_elapsed":372204,"internal_node_id":"0.0-14.0","task_version":"prescreen-v0.3","browser_interactions":0},{"responses":{"01":"No","02":"No","03":"No","04":"No","05":"No","06":"No","07":"No"},"rt":9968,"item_order":[0,1,2,3,4,5,6],"radio_events":[2693,4114,4700,5967,7583,8645,9481],"checkbox_events":[],"key_events":[],"mouse_events":[2693,4114,4700,5285,5967,6474,7583,8067,8645,9481,9968],"honeypot":0,"survey":"mace","page":7,"trial_type":"survey-mace","trial_index":15,"time_elapsed":382181,"internal_node_id":"0.0-15.0","task_version":"prescreen-v0.3","browser_interactions":0},{"responses":{"01":"No","02":"No","03":"No","04":"No"},"rt":14562,"item_order":[0,1,2,3],"radio_events":[3342,8748,12873,14046],"checkbox_events":[],"key_events":[],"mouse_events":[3342,7514,8748,10764,11055,11428,12233,12873,14046,14562],"honeypot":0,"survey":"mace","page":8,"trial_type":"survey-mace","trial_index":16,"time_elapsed":396750,"internal_node_id":"0.0-16.0","task_version":"prescreen-v0.3","browser_interactions":0},{"responses":{"01":"Yes","01_ages_1":"1","01_ages_2":"2","01_ages_3":"3","01_ages_4":"4","01_ages_5":"5","01_ages_6":"6","01_ages_7":"7","01_ages_8":"8","01_ages_9":"9","01_ages_10":"10","01_ages_11":"11","01_ages_12":"12","01_ages_13":"13","01_ages_14":"14","01_ages_15":"15","01_ages_16":"16","01_ages_17":"17","01_ages_18":"18","02":"Yes","02_ages_1":"1","02_ages_2":"2","02_ages_3":"3","02_ages_4":"4","02_ages_5":"5","02_ages_6":"6","02_ages_7":"7","02_ages_8":"8","02_ages_9":"9","02_ages_10":"10","03":"Yes","03_ages_1":"1","03_ages_2":"2","03_ages_3":"3","03_ages_4":"4","03_ages_5":"5","03_ages_6":"6","03_ages_7":"7","03_ages_8":"8","03_ages_9":"9","03_ages_10":"10","03_ages_11":"11","03_ages_12":"12","03_ages_13":"13","03_ages_14":"14","03_ages_15":"15","03_ages_16":"16","03_ages_17":"17","03_ages_18":"18","04":"Yes","04_ages_1":"1","04_ages_2":"2","04_ages_3":"3","04_ages_4":"4","04_ages_5":"5","04_ages_6":"6","04_ages_7":"7","04_ages_8":"8","04_ages_9":"9","04_ages_10":"10","04_ages_11":"11","04_ages_12":"12","04_ages_13":"13","04_ages_14":"14","04_ages_15":"15","04_ages_16":"16","04_ages_17":"17","04_ages_18":"18"},"rt":67812,"item_order":[0,1,2,3],"radio_events":[4712,26953,34853,52776],"checkbox_events":[7892,8805,9236,9830,10907,11361,11923,12704,14813,15766,17704,19345,19844,22462,23313,23799,24290,24861,27970,28461,29329,29884,30399,30946,31446,32071,33197,33682,36533,37267,38477,39392,39845,40384,40908,41409,42455,42995,43487,44282,44791,45721,47104,47527,48690,50425,55081,56919,57581,58426,58879,59379,59824,60325,60824,61301,61731,62208,62785,64240,64693,65121,66177,66678],"key_events":[],"mouse_events":[4712,7892,8352,8805,9236,9830,10424,10907,11361,11923,12704,13548,14049,14813,15766,17118,17704,18213,18891,19345,19844,22462,23313,23799,24290,24861,26953,27970,28461,29329,29884,30399,30946,31446,32071,32549,33197,33682,34853,36110,36533,37267,37767,38477,38947,39392,39845,40384,40908,41409,41947,42455,42995,43487,44282,44791,45277,45721,46353,46402,46542,47104,47527,48027,48690,49440,49498,49667,50425,51948,52776,54519,55081,56097,56919,57581,58426,58879,59379,59824,60325,60824,61301,61731,62208,62785,63401,63451,63630,64240,64693,65121,65560,66177,66678,67811],"honeypot":0,"survey":"mace","page":9,"trial_type":"survey-mace","trial_index":17,"time_elapsed":464570,"internal_node_id":"0.0-17.0","task_version":"prescreen-v0.3","browser_interactions":0},{"responses":{"01":"No","02":"No","03":"Yes","03_ages_10":"10","03_ages_11":"11","03_ages_12":"12","03_ages_13":"13","03_ages_14":"14","03_ages_15":"15","03_ages_16":"16","03_ages_17":"17","03_ages_18":"18","04":"Yes","04_ages_10":"10","04_ages_11":"11","04_ages_12":"12","04_ages_13":"13","04_ages_14":"14","04_ages_15":"15","04_ages_16":"16","04_ages_17":"17","04_ages_18":"18","05":"No","06":"Yes","06_ages_17":"17","07":"Yes","07_ages_1":"1","07_ages_18":"18","08":"Yes","08_ages_1":"1","08_ages_18":"18"},"rt":44826,"item_order":[0,1,2,3,4,5,6,7],"radio_events":[5133,5892,7086,18563,26712,28939,29005,29197,33425,34573],"checkbox_events":[8540,9095,9813,10258,11189,11493,12064,12539,13064,15283,16244,19470,20618,21110,21798,22276,22822,24244,24783,25753,30925,40386,41690,42760,44127],"key_events":[],"mouse_events":[3836,5133,5892,7086,8540,9095,9813,10258,10720,11189,11493,12064,12539,13064,13986,14704,15283,16244,17549,18563,19470,19994,20618,21110,21798,22276,22822,23346,24244,24783,25753,26712,28166,28939,29005,29197,30925,32377,33425,34573,36606,39379,40386,41690,42760,44127,44826],"honeypot":0,"survey":"mace","page":10,"trial_type":"survey-mace","trial_index":18,"time_elapsed":509414,"internal_node_id":"0.0-18.0","task_version":"prescreen-v0.3","browser_interactions":0,"instructed":0},{"rt":128775,"trial_type":"mental-health-alert","trial_index":19,"time_elapsed":638193,"internal_node_id":"0.0-19.0","task_version":"prescreen-v0.3","interactions":"[{\"event\":\"focus\",\"trial\":0,\"time\":1},{\"event\":\"blur\",\"trial\":3,\"time\":97083},{\"event\":\"focus\",\"trial\":3,\"time\":97169},{\"event\":\"blur\",\"trial\":3,\"time\":98996},{\"event\":\"focus\",\"trial\":3,\"time\":164853},{\"event\":\"blur\",\"trial\":7,\"time\":238730},{\"event\":\"focus\",\"trial\":7,\"time\":238816},{\"event\":\"blur\",\"trial\":8,\"time\":264601},{\"event\":\"focus\",\"trial\":8,\"time\":264688},{\"event\":\"blur\",\"trial\":8,\"time\":266905},{\"event\":\"focus\",\"trial\":8,\"time\":280606},{\"event\":\"blur\",\"trial\":19,\"time\":513995},{\"event\":\"focus\",\"trial\":19,\"time\":570783},{\"event\":\"blur\",\"trial\":19,\"time\":573722},{\"event\":\"focus\",\"trial\":19,\"time\":635222},{\"event\":\"blur\",\"trial\":19,\"time\":635882},{\"event\":\"focus\",\"trial\":19,\"time\":636954}]"}]