[{"view_history":[{"page_index":0,"viewing_time":6376.600000023842},{"page_index":1,"viewing_time":2625.899999976158},{"page_index":2,"viewing_time":4070.5},{"page_index":3,"viewing_time":823.5}],"rt":13897.5,"trial_type":"instructions","trial_index":0,"time_elapsed":13918,"internal_node_id":"0.0-0.0","task_version":"prescreen-v0.3"},{"rt":19498.69999998808,"responses":{"age":"20","gender-categorical":"Female","gender-free-response":"","ethnicity":"Hispanic or Latino","race":["White"],"education":"Some college"},"trial_type":"survey-demo","trial_index":1,"time_elapsed":33424,"internal_node_id":"0.0-1.0","task_version":"prescreen-v0.3"},{"responses":{"Q17":"2","Q11":"3","Q08":"2","Q01":"3","Q13":"3","Q16":"1","Q12":"2","Q14":"2","Q05":"1","Q09":"1","Q02":"2","Q03":"2","Q21":"3","Q04":"2","Q06":"0","Q18":"1","Q10":"3","Q19":"1","Q07":"1","Q15":"2","Q20":"2"},"rt":106697.69999998808,"item_order":[16,10,7,0,12,15,11,13,4,8,1,2,20,3,5,17,9,18,6,14,19],"radio_events":[9018.100000023842,11282.600000023842,14683,16579.80000001192,21276.400000035763,26083.5,29852.69999998808,33726.40000003576,39253.60000002384,44046.60000002384,48464.60000002384,52343.30000001192,56767.69999998808,63833.19999998808,69953.90000003576,74786.80000001192,78459.90000003576,88867.80000001192,93988.60000002384,99854.10000002384,102774.40000003576],"key_events":[],"mouse_events":[8362.199999988079,9018.100000023842,11282.600000023842,14243.600000023842,14683,16579.80000001192,21276.400000035763,26083.5,29852.69999998808,33726.40000003576,39253.60000002384,44046.60000002384,48464.60000002384,51768.19999998808,52343.30000001192,56767.69999998808,63833.19999998808,69953.90000003576,74786.80000001192,78459.90000003576,88867.80000001192,93988.60000002384,99854.10000002384,102774.40000003576,106694.60000002384],"straightlining":0.42857142857142855,"zigzagging":0.5,"honeypot":0,"survey":"sns","trial_type":"survey-template","trial_index":2,"time_elapsed":140130,"internal_node_id":"0.0-2.0","task_version":"prescreen-v0.3","browser_interactions":0,"infrequency":0},{"responses":{"Q12":"1","Q11":"2","Q06":"2","Q08":"2","Q02":"3","Q03":"3","Q05":"3","Q09":"2","Q01":"3","Q13":"0","Q10":"2","Q07":"3","Q04":"3"},"rt":64092.5,"item_order":[11,10,5,7,1,2,4,8,0,12,9,6,3],"radio_events":[10947.799999952316,19901,24029.899999976158,27421.599999964237,29278.599999964237,32999.39999997616,38327.799999952316,44528.89999997616,46767.89999997616,49104.19999998808,54113.89999997616,59009.299999952316,62730.299999952316],"key_events":[],"mouse_events":[10947.799999952316,19901,24029.899999976158,27421.599999964237,29278.599999964237,32999.39999997616,37480,38327.799999952316,44528.89999997616,46767.89999997616,49104.19999998808,54113.89999997616,58377.69999998808,59009.299999952316,62730.299999952316,64091],"straightlining":0.46153846153846156,"zigzagging":0.5,"honeypot":0,"survey":"bisbas","trial_type":"survey-template","trial_index":3,"time_elapsed":204232,"internal_node_id":"0.0-3.0","task_version":"prescreen-v0.3","browser_interactions":0,"infrequency":0},{"responses":{"Q01":"1","Q02":"2","Q03":"2"},"rt":25248.30000001192,"radio_events":[8870.700000047684,17127.600000023842,24136.700000047684],"key_events":[],"mouse_events":[8870.700000047684,16096.600000023842,17127.600000023842,24136.700000047684,25247.900000035763],"survey":"map","page":1,"trial_type":"survey-map","trial_index":4,"time_elapsed":229486,"internal_node_id":"0.0-4.0","task_version":"prescreen-v0.3","browser_interactions":0},{"responses":{"Q04":"3","Q05":"3","Q06":"1"},"rt":24448.099999964237,"radio_events":[5717,10005.5,18854],"key_events":[],"mouse_events":[5717,10005.5,18854,24447.5],"survey":"map","page":2,"trial_type":"survey-map","trial_index":5,"time_elapsed":253938,"internal_node_id":"0.0-5.0","task_version":"prescreen-v0.3","browser_interactions":0},{"responses":{"Q07":"2","Q08":"0","Q09":"3"},"rt":32805.799999952316,"radio_events":[17370.299999952316,24730.899999976158,30948.69999998808],"key_events":[],"mouse_events":[17370.299999952316,24730.899999976158,30948.69999998808,32805.19999998808],"survey":"map","page":3,"trial_type":"survey-map","trial_index":6,"time_elapsed":286751,"internal_node_id":"0.0-6.0","task_version":"prescreen-v0.3","browser_interactions":0},{"responses":{"Q10":"2","Q11":"0","Q12":"1","Q13":"3","Q16":"0","Q14":"3","Q15":"2"},"rt":46304.299999952316,"radio_events":[5105.899999976158,15458.899999976158,20395.799999952316,30877.19999998808,34421.39999997616,42477.89999997616,45446.69999998808],"key_events":[],"mouse_events":[5105.899999976158,14642.899999976158,15458.899999976158,20395.799999952316,29988.5,30877.19999998808,34421.39999997616,42477.89999997616,45446.69999998808,46303],"survey":"map","page":4,"trial_type":"survey-map","trial_index":7,"time_elapsed":333061,"internal_node_id":"0.0-7.0","task_version":"prescreen-v0.3","browser_interactions":0,"infrequency":0},{"view_history":[{"page_index":0,"viewing_time":2832.899999976158},{"page_index":1,"viewing_time":6969.100000023842}],"rt":9802.399999976158,"trial_type":"instructions","trial_index":8,"time_elapsed":342868,"internal_node_id":"0.0-8.0","task_version":"prescreen-v0.3"},{"responses":{"01":"Yes","01_ages_4":"4","01_ages_5":"5","01_ages_6":"6","01_ages_7":"7","01_ages_8":"8","01_ages_9":"9","01_ages_10":"10","01_ages_11":"11","01_ages_12":"12","01_ages_13":"13","01_ages_14":"14","01_ages_15":"15","01_ages_16":"16","01_ages_17":"17","01_ages_18":"18","02":"Yes","02_ages_5":"5","02_ages_6":"6","02_ages_7":"7","02_ages_8":"8","02_ages_9":"9","02_ages_10":"10","02_ages_11":"11","02_ages_12":"12","02_ages_13":"13","02_ages_14":"14","02_ages_15":"15","02_ages_16":"16","02_ages_17":"17","02_ages_18":"18","03":"Yes","03_ages_7":"7","03_ages_8":"8","03_ages_9":"9","03_ages_10":"10","03_ages_11":"11","03_ages_12":"12","03_ages_13":"13","03_ages_14":"14","03_ages_15":"15","03_ages_16":"16","03_ages_17":"17","04":"No","05":"No","06":"Yes","06_ages_4":"4","06_ages_5":"5","06_ages_6":"6","06_ages_7":"7","06_ages_14":"14"},"rt":148224.09999996424,"item_order":[0,1,2,3,4,5],"radio_events":[12284.599999964237,42540.89999997616,60806.19999998808,95890.39999997616,99442.69999998808,104443.09999996424],"checkbox_events":[23181.19999998808,23725,24285.30000001192,25557.19999998808,25997.19999998808,26685.599999964237,27141.69999998808,27613.80000001192,28165.5,28885.599999964237,29221.69999998808,29869.80000001192,30206.899999976158,30894.30000001192,31405.30000001192,49284,49820.19999998808,50283.39999997616,51076.19999998808,51756.19999998808,52148.30000001192,53020.09999996424,54092.39999997616,54645.30000001192,55180.59999996424,55580.69999998808,56020.69999998808,56581.09999996424,57139.69999998808,70886.80000001192,71398.19999998808,71862.59999996424,72295.09999996424,72718.69999998808,73174.30000001192,75391.80000001192,77847.5,91337.19999998808,91849.59999996424,92233.69999998808,112973.80000001192,141682.80000001192,143194.69999998808,145059.89999997616,145714.39999997616],"key_events":[],"mouse_events":[22.19999998807907,12284.599999964237,23181.19999998808,23725,24285.30000001192,24684.5,25557.19999998808,25997.19999998808,26364.899999976158,26685.599999964237,27141.69999998808,27613.80000001192,28165.5,28885.599999964237,29221.69999998808,29869.80000001192,30206.899999976158,30894.30000001192,31405.30000001192,42540.89999997616,49284,49820.19999998808,50283.39999997616,51076.19999998808,51756.19999998808,52148.30000001192,53020.09999996424,54092.39999997616,54645.30000001192,55180.59999996424,55580.69999998808,56020.69999998808,56581.09999996424,57139.69999998808,60806.19999998808,70886.80000001192,71398.19999998808,71862.59999996424,72295.09999996424,72718.69999998808,73174.30000001192,75391.80000001192,77847.5,91337.19999998808,91849.59999996424,92233.69999998808,95890.39999997616,99442.69999998808,104443.09999996424,112973.80000001192,141682.80000001192,142257.89999997616,143194.69999998808,145059.89999997616,145714.39999997616,148220.30000001192],"honeypot":0,"survey":"mace","page":1,"trial_type":"survey-mace","trial_index":9,"time_elapsed":491101,"internal_node_id":"0.0-9.0","task_version":"prescreen-v0.3","browser_interactions":0},{"responses":{"01":"Yes","01_ages_14":"14","02":"No","03":"Yes","03_ages_4":"4","03_ages_5":"5","03_ages_6":"6","03_ages_7":"7","03_ages_8":"8","03_ages_14":"14","04":"Yes","04_ages_14":"14","05":"Yes","05_ages_4":"4","05_ages_5":"5","05_ages_6":"6","05_ages_7":"7","05_ages_8":"8","06":"Yes","06_ages_13":"13","06_ages_14":"14","06_ages_15":"15","06_ages_16":"16","06_ages_17":"17","06_ages_18":"18","07":"Yes","07_ages_14":"14","08":"No"},"rt":102354.39999997616,"item_order":[0,1,2,3,4,5,6,7],"radio_events":[4385.5,27781.099999964237,30989.899999976158,51503.5,69202.89999997616,77810.19999998808,93244.69999998808,101133.69999998808],"checkbox_events":[9178.399999976158,9666.300000011921,10554.199999988079,32317.19999998808,36670.30000001192,37036.80000001192,37485.80000001192,37997.69999998808,43309.89999997616,53808.5,70713.80000001192,71018.80000001192,71386,71754.19999998808,72193.69999998808,79938.80000001192,80434.80000001192,80995,85683,86053.5,86444,94428.19999998808],"key_events":[],"mouse_events":[4385.5,9178.399999976158,9666.300000011921,10554.199999988079,27781.099999964237,30989.899999976158,32317.19999998808,36670.30000001192,37036.80000001192,37485.80000001192,37997.69999998808,43309.89999997616,51503.5,53808.5,69202.89999997616,70713.80000001192,71018.80000001192,71386,71754.19999998808,72193.69999998808,77810.19999998808,79243,79938.80000001192,80434.80000001192,80995,85683,86053.5,86444,93244.69999998808,94428.19999998808,100045.80000001192,100493.39999997616,101133.69999998808,102349.39999997616],"honeypot":0,"survey":"mace","page":2,"trial_type":"survey-mace","trial_index":10,"time_elapsed":593465,"internal_node_id":"0.0-10.0","task_version":"prescreen-v0.3","browser_interactions":0},{"responses":{"01":"Yes","01_ages_4":"4","01_ages_5":"5","01_ages_6":"6","01_ages_7":"7","02":"No","03":"No","04":"No"},"rt":25775.900000035763,"item_order":[0,1,2,3],"radio_events":[9330.700000047684,19355.900000035763,21783,23822.900000035763],"checkbox_events":[10691.100000023842,11266.900000035763,11506.200000047684,15404.200000047684],"key_events":[],"mouse_events":[9330.700000047684,10691.100000023842,11266.900000035763,11506.200000047684,15404.200000047684,19355.900000035763,21783,23822.900000035763,25774.30000001192],"honeypot":0,"survey":"mace","page":3,"trial_type":"survey-mace","trial_index":11,"time_elapsed":619250,"internal_node_id":"0.0-11.0","task_version":"prescreen-v0.3","browser_interactions":0},{"responses":{"01":"No","02":"No"},"rt":8931.800000011921,"item_order":[0,1],"radio_events":[4010.5,5234.800000011921],"checkbox_events":[],"key_events":[],"mouse_events":[4010.5,5234.800000011921,8930.400000035763],"honeypot":0,"survey":"mace","page":4,"trial_type":"survey-mace","trial_index":12,"time_elapsed":628186,"internal_node_id":"0.0-12.0","task_version":"prescreen-v0.3","browser_interactions":0},{"responses":{"01":"Yes","01_ages_13":"13","01_ages_14":"14","01_ages_15":"15","02":"No","03":"No","04":"Yes","04_ages_13":"13","04_ages_14":"14","04_ages_15":"15","05":"No"},"rt":72227.89999997616,"item_order":[0,1,2,3,4],"radio_events":[19605.799999952316,37662.69999998808,48119.5,50399.89999997616,70785.89999997616],"checkbox_events":[29477.399999976158,30717.69999998808,31093.5,51272.89999997616,51609.89999997616,52063.89999997616],"key_events":[],"mouse_events":[19605.799999952316,29477.399999976158,30717.69999998808,31093.5,37662.69999998808,48119.5,49656.59999996424,50399.89999997616,51272.89999997616,51609.89999997616,52063.89999997616,70785.89999997616,72226.39999997616],"honeypot":0,"survey":"mace","page":5,"trial_type":"survey-mace","trial_index":13,"time_elapsed":700420,"internal_node_id":"0.0-13.0","task_version":"prescreen-v0.3","browser_interactions":0},{"responses":{"01":"Yes","01_ages_5":"5","01_ages_6":"6","01_ages_7":"7","01_ages_8":"8","01_ages_9":"9","01_ages_10":"10","01_ages_11":"11","02":"Yes","02_ages_5":"5","02_ages_6":"6","02_ages_7":"7","02_ages_8":"8","02_ages_9":"9","02_ages_10":"10","02_ages_11":"11","02_ages_12":"12","02_ages_13":"13","02_ages_14":"14","03":"No","04":"Yes","04_ages_6":"6","04_ages_7":"7","04_ages_8":"8","04_ages_9":"9","04_ages_10":"10","04_ages_11":"11","04_ages_12":"12","04_ages_13":"13","04_ages_14":"14","05":"No"},"rt":80599.39999997616,"item_order":[0,1,2,3,4],"radio_events":[8050.300000011921,36142.30000001192,57664.60000002384,62890.60000002384,79875],"checkbox_events":[11763.399999976158,12235,12609.800000011921,14194.800000011921,16091,16635.399999976158,21515.899999976158,27381.399999976158,37110.69999998808,37510.39999997616,38462.10000002384,39254.10000002384,40174,41111,41735.30000001192,42102.80000001192,42613.60000002384,43086.19999998808,49303.89999997616,49943.60000002384,50879.89999997616,68409,68905.80000001192,69338.5,69812.39999997616,70554.10000002384,71546,74979.19999998808,75371.19999998808,75826.19999998808],"key_events":[],"mouse_events":[8050.300000011921,11763.399999976158,12235,12609.800000011921,14194.800000011921,16091,16635.399999976158,21515.899999976158,27381.399999976158,35726.10000002384,36142.30000001192,37110.69999998808,37510.39999997616,38462.10000002384,39254.10000002384,40174,41111,41735.30000001192,42102.80000001192,42613.60000002384,43086.19999998808,49303.89999997616,49943.60000002384,50280.19999998808,50879.89999997616,57664.60000002384,62361.39999997616,62890.60000002384,68409,68905.80000001192,69338.5,69812.39999997616,70554.10000002384,71114.19999998808,71546,74979.19999998808,75371.19999998808,75826.19999998808,79875,80596.10000002384],"honeypot":0,"survey":"mace","page":6,"trial_type":"survey-mace","trial_index":14,"time_elapsed":781026,"internal_node_id":"0.0-14.0","task_version":"prescreen-v0.3","browser_interactions":0},{"responses":{"01":"No","02":"No","03":"No","04":"No","05":"No","06":"No","07":"No"},"rt":32642.200000047684,"item_order":[0,1,2,3,4,5,6],"radio_events":[4090.900000035763,7459,13412,15307.600000023842,20700.80000001192,24397.80000001192,25102.200000047684],"checkbox_events":[],"key_events":[],"mouse_events":[4090.900000035763,7459,13412,15307.600000023842,20700.80000001192,24397.80000001192,25102.200000047684,32638.80000001192],"honeypot":0,"survey":"mace","page":7,"trial_type":"survey-mace","trial_index":15,"time_elapsed":813677,"internal_node_id":"0.0-15.0","task_version":"prescreen-v0.3","browser_interactions":0},{"responses":{"01":"Yes","01_ages_5":"5","01_ages_6":"6","01_ages_7":"7","01_ages_8":"8","01_ages_9":"9","01_ages_10":"10","01_ages_11":"11","01_ages_12":"12","01_ages_13":"13","01_ages_14":"14","01_ages_15":"15","01_ages_16":"16","02":"No","03":"No","04":"Yes","04_ages_5":"5","04_ages_6":"6","04_ages_7":"7","04_ages_8":"8","04_ages_9":"9","04_ages_10":"10","04_ages_11":"11","04_ages_12":"12","04_ages_13":"13","04_ages_14":"14","04_ages_15":"15","04_ages_16":"16"},"rt":58798.19999998808,"item_order":[0,1,2,3],"radio_events":[19985.5,37257.10000002384,44585.39999997616,48443.5],"checkbox_events":[23777.899999976158,24192.399999976158,24737.399999976158,25529.69999998808,25929.69999998808,26529.899999976158,27617.69999998808,28002.19999998808,28361.899999976158,28833.80000001192,29338.399999976158,31257.5,31898.600000023842,35248.19999998808,49866.19999998808,50530.69999998808,51306.69999998808,51851.30000001192,52427.5,53347,53939.60000002384,54491.69999998808,55484,55922.60000002384,56747.80000001192,57339.10000002384],"key_events":[],"mouse_events":[19985.5,23777.899999976158,24192.399999976158,24737.399999976158,25089.600000023842,25529.69999998808,25929.69999998808,26529.899999976158,27617.69999998808,28002.19999998808,28361.899999976158,28833.80000001192,29338.399999976158,31257.5,31898.600000023842,35248.19999998808,37257.10000002384,44585.39999997616,48443.5,49866.19999998808,50530.69999998808,51306.69999998808,51851.30000001192,52427.5,52994.5,53347,53939.60000002384,54491.69999998808,55484,55922.60000002384,56747.80000001192,57339.10000002384,58795.5],"honeypot":0,"survey":"mace","page":8,"trial_type":"survey-mace","trial_index":16,"time_elapsed":872482,"internal_node_id":"0.0-16.0","task_version":"prescreen-v0.3","browser_interactions":0},{"responses":{"01":"No","02":"No","03":"Yes","03_ages_1":"1","03_ages_2":"2","03_ages_3":"3","03_ages_4":"4","03_ages_5":"5","03_ages_6":"6","03_ages_7":"7","03_ages_8":"8","03_ages_9":"9","03_ages_10":"10","03_ages_11":"11","03_ages_12":"12","03_ages_13":"13","03_ages_14":"14","03_ages_15":"15","03_ages_16":"16","03_ages_17":"17","03_ages_18":"18","04":"Yes","04_ages_1":"1","04_ages_2":"2","04_ages_3":"3","04_ages_4":"4","04_ages_5":"5","04_ages_6":"6","04_ages_7":"7","04_ages_8":"8","04_ages_9":"9","04_ages_10":"10","04_ages_11":"11","04_ages_12":"12","04_ages_13":"13","04_ages_14":"14","04_ages_15":"15","04_ages_16":"16","04_ages_17":"17","04_ages_18":"18"},"rt":87268.20000004768,"item_order":[0,1,2,3],"radio_events":[31386.900000035763,41884.5,44804.10000002384,46820.5,65191.30000001192],"checkbox_events":[49965,50780.40000003576,51468.700000047684,52182,52804.200000047684,53197.200000047684,53629.30000001192,54485.90000003576,55109.700000047684,55605.700000047684,56077.80000001192,56669.60000002384,57317.80000001192,57918,59005.30000001192,59749,60277.90000003576,60797.700000047684,71359.30000001192,75519.80000001192,76272.5,76576.90000003576,77576.70000004768,78864.40000003576,79304.80000001192,80432.30000001192,81032.70000004768,81416.30000001192,81832.40000003576,82240.80000001192,82600.5,83048.90000003576,83416.90000003576,83816.5,85497.5,85865.30000001192],"key_events":[],"mouse_events":[31386.900000035763,41884.5,44804.10000002384,46820.5,49965,50780.40000003576,51468.700000047684,52182,52804.200000047684,53197.200000047684,53629.30000001192,54101.60000002384,54485.90000003576,55109.700000047684,55605.700000047684,56077.80000001192,56669.60000002384,57317.80000001192,57918,59005.30000001192,59749,60277.90000003576,60797.700000047684,65191.30000001192,71359.30000001192,75519.80000001192,76272.5,76576.90000003576,76985.20000004768,77576.70000004768,78864.40000003576,79304.80000001192,80432.30000001192,81032.70000004768,81416.30000001192,81832.40000003576,82240.80000001192,82600.5,83048.90000003576,83416.90000003576,83816.5,84225.40000003576,85064.80000001192,85497.5,85865.30000001192,87266.30000001192],"honeypot":0,"survey":"mace","page":9,"trial_type":"survey-mace","trial_index":17,"time_elapsed":959759,"internal_node_id":"0.0-17.0","task_version":"prescreen-v0.3","browser_interactions":0},{"responses":{"01":"No","02":"No","03":"No","04":"Yes","04_ages_7":"7","05":"Yes","05_ages_4":"4","05_ages_5":"5","05_ages_6":"6","05_ages_7":"7","05_ages_8":"8","05_ages_9":"9","05_ages_10":"10","05_ages_11":"11","05_ages_12":"12","05_ages_13":"13","05_ages_14":"14","05_ages_15":"15","05_ages_16":"16","05_ages_17":"17","05_ages_18":"18","06":"Yes","06_ages_17":"17","07":"Yes","07_ages_1":"1","07_ages_2":"2","07_ages_3":"3","07_ages_4":"4","07_ages_5":"5","07_ages_6":"6","07_ages_7":"7","07_ages_8":"8","07_ages_9":"9","07_ages_10":"10","07_ages_11":"11","07_ages_12":"12","07_ages_13":"13","07_ages_14":"14","07_ages_15":"15","07_ages_16":"16","07_ages_17":"17","07_ages_18":"18","08":"Yes","08_ages_1":"1","08_ages_2":"2","08_ages_3":"3","08_ages_4":"4","08_ages_5":"5","08_ages_6":"6","08_ages_7":"7","08_ages_8":"8","08_ages_9":"9","08_ages_10":"10","08_ages_11":"11","08_ages_12":"12","08_ages_13":"13","08_ages_14":"14","08_ages_15":"15","08_ages_16":"16","08_ages_17":"17","08_ages_18":"18"},"rt":99823.69999998808,"item_order":[0,1,2,3,4,5,6,7],"radio_events":[5919.100000023842,13241.100000023842,31443.19999998808,32402.899999976158,40348.80000001192,50053.5,63759.69999998808,68687.39999997616,87314.5],"checkbox_events":[17296.80000001192,29145.80000001192,41507.69999998808,52704,53256.39999997616,53952.39999997616,54889.10000002384,55617.5,56081.60000002384,56481.60000002384,57541.60000002384,57957.19999998808,58469.10000002384,59533.39999997616,60005.10000002384,60725.60000002384,61294.60000002384,62197.89999997616,65110.89999997616,70703.39999997616,71095.10000002384,71655.5,72039.19999998808,72775.19999998808,73303.39999997616,73776.69999998808,74279.39999997616,74935.30000001192,76183.10000002384,76607.30000001192,77032,77919.39999997616,78408.39999997616,78937.80000001192,79487.39999997616,80200.5,80720.89999997616,88449.19999998808,89849.5,90329.80000001192,90905.60000002384,91641.39999997616,92273.30000001192,92746,93177.60000002384,93625.30000001192,94153,94809.80000001192,95266.39999997616,96490.69999998808,96930.10000002384,97394,97866.69999998808,98603,99202.19999998808],"key_events":[],"mouse_events":[5919.100000023842,8447.800000011921,13241.100000023842,17296.80000001192,29145.80000001192,31443.19999998808,32402.899999976158,40348.80000001192,41507.69999998808,50053.5,52704,53256.39999997616,53952.39999997616,54889.10000002384,55617.5,56081.60000002384,56481.60000002384,57541.60000002384,57957.19999998808,58469.10000002384,59533.39999997616,60005.10000002384,60725.60000002384,61294.60000002384,61733.60000002384,62197.89999997616,63759.69999998808,65110.89999997616,68687.39999997616,69799.60000002384,70703.39999997616,71095.10000002384,71655.5,72039.19999998808,72472.60000002384,72775.19999998808,73303.39999997616,73776.69999998808,74279.39999997616,74935.30000001192,76183.10000002384,76607.30000001192,77032,77919.39999997616,78408.39999997616,78937.80000001192,79487.39999997616,80200.5,80720.89999997616,87314.5,88449.19999998808,89849.5,90329.80000001192,90905.60000002384,91273.60000002384,91641.39999997616,92273.30000001192,92746,93177.60000002384,93625.30000001192,94153,94809.80000001192,95266.39999997616,96490.69999998808,96930.10000002384,97394,97866.69999998808,98603,99202.19999998808,99818.80000001192],"honeypot":0,"survey":"mace","page":10,"trial_type":"survey-mace","trial_index":18,"time_elapsed":1059591,"internal_node_id":"0.0-18.0","task_version":"prescreen-v0.3","browser_interactions":2,"instructed":0},{"rt":5483.399999976158,"trial_type":"mental-health-alert","trial_index":19,"time_elapsed":1065081,"internal_node_id":"0.0-19.0","task_version":"prescreen-v0.3","interactions":"[{\"event\":\"blur\",\"trial\":18,\"time\":986402},{\"event\":\"focus\",\"trial\":18,\"time\":987557}]"}]