[{"view_history":[{"page_index":0,"viewing_time":3088.600000023842},{"page_index":1,"viewing_time":2227.5},{"page_index":2,"viewing_time":2571.699999988079},{"page_index":3,"viewing_time":756.3000000119209}],"rt":8644.699999988079,"trial_type":"instructions","trial_index":0,"time_elapsed":8659,"internal_node_id":"0.0-0.0","task_version":"prescreen-v0.3"},{"rt":9333.799999952316,"responses":{"age":"18","gender-categorical":"Male","gender-free-response":"","ethnicity":"Hispanic or Latino","race":["Rather not say"],"education":"High school"},"trial_type":"survey-demo","trial_index":1,"time_elapsed":18003,"internal_node_id":"0.0-1.0","task_version":"prescreen-v0.3"},{"responses":{"Q15":"2","Q08":"2","Q04":"1","Q03":"0","Q05":"3","Q11":"0","Q09":"0","Q07":"2","Q19":"1","Q21":"3","Q13":"0","Q18":"0","Q01":"0","Q06":"1","Q16":"0","Q14":"1","Q02":"0","Q17":"0","Q12":"1","Q20":"2","Q10":"0"},"rt":97165.69999998808,"item_order":[14,7,3,2,4,10,8,6,18,20,12,17,0,5,15,13,1,16,11,19,9],"radio_events":[5409.400000035763,8306.5,11268.100000023842,14784.100000023842,18783.80000001192,20620.19999998808,23305.30000001192,30109.400000035763,38575.40000003576,40548.10000002384,44763.40000003576,48414.19999998808,50141.30000001192,54258.30000001192,65994.30000001192,72115.69999998808,74058,82818,88007.69999998808,90475.90000003576,96098.90000003576],"key_events":[],"mouse_events":[5409.400000035763,8306.5,11268.100000023842,13338.199999988079,14784.100000023842,18783.80000001192,20620.19999998808,23305.30000001192,28886,30109.400000035763,38575.40000003576,40548.10000002384,44763.40000003576,48414.19999998808,50141.30000001192,54258.30000001192,65994.30000001192,72115.69999998808,74058,82818,88007.69999998808,90475.90000003576,95034,96098.90000003576,97164.19999998808],"straightlining":0.47619047619047616,"zigzagging":0.6,"honeypot":0,"survey":"sns","trial_type":"survey-template","trial_index":2,"time_elapsed":115176,"internal_node_id":"0.0-2.0","task_version":"prescreen-v0.3","browser_interactions":4,"infrequency":0},{"responses":{"Q07":"3","Q13":"0","Q04":"2","Q09":"2","Q12":"1","Q05":"3","Q01":"3","Q03":"2","Q06":"3","Q02":"0","Q11":"2","Q10":"2","Q08":"3"},"rt":42661.5,"item_order":[6,12,3,8,11,4,0,2,5,1,10,9,7],"radio_events":[4960.100000023842,7959.899999976158,12030.800000011921,14506.100000023842,18173.5,20935,22030.399999976158,26313.5,30384,32911.80000001192,38147.60000002384,40599.69999998808,42248],"key_events":[],"mouse_events":[4960.100000023842,7959.899999976158,12030.800000011921,14506.100000023842,18173.5,20935,22030.399999976158,26313.5,30384,32911.80000001192,38147.60000002384,40599.69999998808,42248,42660.69999998808],"straightlining":0.38461538461538464,"zigzagging":0.5,"honeypot":0,"survey":"bisbas","trial_type":"survey-template","trial_index":3,"time_elapsed":157843,"internal_node_id":"0.0-3.0","task_version":"prescreen-v0.3","browser_interactions":0,"infrequency":0},{"responses":{"Q01":"3","Q02":"2","Q03":"1"},"rt":16968.100000023842,"radio_events":[5657.300000011921,11672.600000023842,16353],"key_events":[],"mouse_events":[5657.300000011921,11672.600000023842,16353,16967.19999998808],"survey":"map","page":1,"trial_type":"survey-map","trial_index":4,"time_elapsed":174817,"internal_node_id":"0.0-4.0","task_version":"prescreen-v0.3","browser_interactions":0},{"responses":{"Q04":"0","Q05":"0","Q06":"0"},"rt":7103.300000011921,"radio_events":[3667.300000011921,5010.400000035763,6366.600000023842],"key_events":[],"mouse_events":[3667.300000011921,5010.400000035763,6366.600000023842,7102.600000023842],"survey":"map","page":2,"trial_type":"survey-map","trial_index":5,"time_elapsed":181927,"internal_node_id":"0.0-5.0","task_version":"prescreen-v0.3","browser_interactions":0},{"responses":{"Q07":"4","Q08":"4","Q09":"3"},"rt":9758.199999988079,"radio_events":[3644.300000011921,6487.199999988079,9352.300000011921],"key_events":[],"mouse_events":[3644.300000011921,6487.199999988079,8663.400000035763,9352.300000011921,9757.5],"survey":"map","page":3,"trial_type":"survey-map","trial_index":6,"time_elapsed":191692,"internal_node_id":"0.0-6.0","task_version":"prescreen-v0.3","browser_interactions":0},{"responses":{"Q10":"3","Q11":"0","Q12":"4","Q13":"4","Q16":"0","Q14":"3","Q15":"2"},"rt":30833.100000023842,"radio_events":[5685,9987.900000035763,12433.800000011921,15411.600000023842,22686.700000047684,25925.100000023842,30028.80000001192],"key_events":[],"mouse_events":[5685,9987.900000035763,12433.800000011921,15411.600000023842,22686.700000047684,25925.100000023842,30028.80000001192,30831.700000047684],"survey":"map","page":4,"trial_type":"survey-map","trial_index":7,"time_elapsed":222533,"internal_node_id":"0.0-7.0","task_version":"prescreen-v0.3","browser_interactions":0,"infrequency":0},{"view_history":[{"page_index":0,"viewing_time":1109.2000000476837},{"page_index":1,"viewing_time":3486.7999999523163}],"rt":4597.800000011921,"trial_type":"instructions","trial_index":8,"time_elapsed":227136,"internal_node_id":"0.0-8.0","task_version":"prescreen-v0.3"},{"responses":{"01":"Yes","01_ages_6":"6","01_ages_7":"7","01_ages_8":"8","01_ages_9":"9","01_ages_10":"10","01_ages_11":"11","01_ages_12":"12","01_ages_13":"13","01_ages_14":"14","01_ages_15":"15","01_ages_16":"16","01_ages_17":"17","01_ages_18":"18","02":"No","03":"No","04":"No","05":"No","06":"No"},"rt":31563.100000023842,"item_order":[0,1,2,3,4,5],"radio_events":[7860.900000035763,20377.100000023842,22964.400000035763,25859.19999998808,27240,28229,31139.30000001192],"checkbox_events":[10530,11002.300000011921,11473,11893.400000035763,12464.300000011921,12840.600000023842,14009.800000011921,14503.800000011921,15674,16440.69999998808,16851.19999998808,17174.5,17542],"key_events":[],"mouse_events":[2.199999988079071,7860.900000035763,10530,11002.300000011921,11473,11893.400000035763,12464.300000011921,12840.600000023842,13243.5,13523,14009.800000011921,14503.800000011921,15674,16440.69999998808,16851.19999998808,17174.5,17542,20377.100000023842,22964.400000035763,25859.19999998808,27240,28229,31139.30000001192,31559.69999998808],"honeypot":0,"survey":"mace","page":1,"trial_type":"survey-mace","trial_index":9,"time_elapsed":258708,"internal_node_id":"0.0-9.0","task_version":"prescreen-v0.3","browser_interactions":0},{"responses":{"01":"Yes","01_ages_5":"5","01_ages_6":"6","01_ages_7":"7","01_ages_8":"8","01_ages_9":"9","01_ages_10":"10","01_ages_11":"11","01_ages_12":"12","01_ages_13":"13","01_ages_14":"14","02":"No","03":"Yes","03_ages_6":"6","03_ages_7":"7","03_ages_8":"8","03_ages_9":"9","03_ages_10":"10","03_ages_11":"11","03_ages_12":"12","03_ages_13":"13","03_ages_14":"14","03_ages_15":"15","04":"No","05":"Yes","05_ages_8":"8","05_ages_9":"9","05_ages_10":"10","05_ages_11":"11","05_ages_12":"12","06":"No","07":"No","08":"No"},"rt":38063.19999998808,"item_order":[0,1,2,3,4,5,6,7],"radio_events":[2446.800000011921,12175.099999964237,14109.199999988079,23994.399999976158,26739.19999998808,35430.80000001192,35866.09999996424,37689.19999998808],"checkbox_events":[4262.5,4898.800000011921,5197,5484.5,6759.300000011921,7238.5,7996.199999988079,8326.5,9009.599999964237,10577,15759.899999976158,16095.199999988079,17071.19999998808,17408.399999976158,17700.69999998808,18548.899999976158,19134.899999976158,20341.399999976158,20752.80000001192,21525.599999964237,27729.399999976158,28149.19999998808,28892.599999964237,30975.5,33287],"key_events":[],"mouse_events":[2446.800000011921,4262.5,4591.099999964237,4898.800000011921,5197,5484.5,5835.899999976158,6114.899999976158,6759.300000011921,7238.5,7583.599999964237,7996.199999988079,8326.5,8686.300000011921,9009.599999964237,10577,12175.099999964237,14109.199999988079,14887.300000011921,15759.899999976158,16095.199999988079,16478.399999976158,17071.19999998808,17408.399999976158,17700.69999998808,18060.69999998808,18548.899999976158,18840.899999976158,19134.899999976158,19478.399999976158,20341.399999976158,20752.80000001192,21525.599999964237,23994.399999976158,26363.399999976158,26739.19999998808,27729.399999976158,28149.19999998808,28539.899999976158,28892.599999964237,29318.399999976158,29641,30286.599999964237,30975.5,31500.19999998808,33287,34080.80000001192,35430.80000001192,35866.09999996424,37036.80000001192,37689.19999998808,38057.09999996424],"honeypot":0,"survey":"mace","page":2,"trial_type":"survey-mace","trial_index":10,"time_elapsed":296781,"internal_node_id":"0.0-10.0","task_version":"prescreen-v0.3","browser_interactions":0},{"responses":{"01":"Yes","01_ages_8":"8","01_ages_9":"9","01_ages_10":"10","01_ages_11":"11","01_ages_12":"12","01_ages_13":"13","01_ages_14":"14","01_ages_15":"15","01_ages_16":"16","01_ages_17":"17","02":"No","03":"No","04":"No"},"rt":16211.599999964237,"item_order":[0,1,2,3],"radio_events":[2406.099999964237,13568.699999988079,14737.5,15682.399999976158],"checkbox_events":[4995.599999964237,5340.199999988079,6262.799999952316,6599.899999976158,6944.099999964237,7598.299999952316,7942.899999976158,8582.199999988079,9630.5,9974.899999976158],"key_events":[],"mouse_events":[2406.099999964237,4995.599999964237,5340.199999988079,5678.199999988079,6262.799999952316,6599.899999976158,6944.099999964237,7359,7598.299999952316,7942.899999976158,8265.699999988079,8582.199999988079,8978.899999976158,9359.799999952316,9630.5,9974.899999976158,13568.699999988079,14476.5,14737.5,15337.399999976158,15682.399999976158,16209.399999976158],"honeypot":0,"survey":"mace","page":3,"trial_type":"survey-mace","trial_index":11,"time_elapsed":313000,"internal_node_id":"0.0-11.0","task_version":"prescreen-v0.3","browser_interactions":0},{"responses":{"01":"No","02":"No"},"rt":5857.600000023842,"item_order":[0,1],"radio_events":[4700.399999976158,5301.100000023842],"checkbox_events":[],"key_events":[],"mouse_events":[4700.399999976158,5301.100000023842,5856.800000011921],"honeypot":0,"survey":"mace","page":4,"trial_type":"survey-mace","trial_index":12,"time_elapsed":318862,"internal_node_id":"0.0-12.0","task_version":"prescreen-v0.3","browser_interactions":0},{"responses":{"01":"No","02":"No","03":"No","04":"No","05":"No"},"rt":8333.399999976158,"item_order":[0,1,2,3,4],"radio_events":[3038.099999964237,4336.399999976158,5514.399999976158,6705.699999988079,7913.699999988079],"checkbox_events":[],"key_events":[],"mouse_events":[3038.099999964237,3748.899999976158,4336.399999976158,5514.399999976158,6705.699999988079,7386.899999976158,7913.699999988079,8331.599999964237],"honeypot":0,"survey":"mace","page":5,"trial_type":"survey-mace","trial_index":13,"time_elapsed":327201,"internal_node_id":"0.0-13.0","task_version":"prescreen-v0.3","browser_interactions":0},{"responses":{"01":"Yes","01_ages_12":"12","01_ages_13":"13","01_ages_14":"14","02":"No","03":"Yes","03_ages_15":"15","03_ages_16":"16","03_ages_17":"17","03_ages_18":"18","04":"Yes","04_ages_15":"15","04_ages_16":"16","04_ages_17":"17","04_ages_18":"18","05":"No"},"rt":40753.80000001192,"item_order":[0,1,2,3,4],"radio_events":[12299.199999988079,18040.099999964237,19668,24902.5,40194.69999998808],"checkbox_events":[12858.699999988079,13322.899999976158,14200.099999964237,21827.399999976158,22562.30000001192,22907.599999964237,23755.19999998808,26403.19999998808,26815.69999998808,27631.599999964237,27976.599999964237],"key_events":[],"mouse_events":[12299.199999988079,12858.699999988079,13322.899999976158,13698.199999988079,14200.099999964237,18040.099999964237,19668,21458.399999976158,21827.399999976158,22209.19999998808,22562.30000001192,22907.599999964237,23273.80000001192,23755.19999998808,24902.5,26403.19999998808,26815.69999998808,27204.69999998808,27631.599999964237,27976.599999964237,40194.69999998808,40750],"honeypot":0,"survey":"mace","page":6,"trial_type":"survey-mace","trial_index":14,"time_elapsed":367960,"internal_node_id":"0.0-14.0","task_version":"prescreen-v0.3","browser_interactions":2},{"responses":{"01":"No","02":"No","03":"No","04":"No","05":"No","06":"No","07":"No"},"rt":10269.399999976158,"item_order":[0,1,2,3,4,5,6],"radio_events":[2724.199999988079,4432.600000023842,5354.399999976158,6809.100000023842,7944,9051.699999988079,9796.399999976158],"checkbox_events":[],"key_events":[],"mouse_events":[2724.199999988079,4432.600000023842,5354.399999976158,6809.100000023842,7944,8513.399999976158,9051.699999988079,9796.399999976158,10266.600000023842],"honeypot":0,"survey":"mace","page":7,"trial_type":"survey-mace","trial_index":15,"time_elapsed":378240,"internal_node_id":"0.0-15.0","task_version":"prescreen-v0.3","browser_interactions":0},{"responses":{"01":"No","02":"No","03":"No","04":"No"},"rt":13526.400000035763,"item_order":[0,1,2,3],"radio_events":[7147.800000011921,9195,11213.100000023842,13118.5],"checkbox_events":[],"key_events":[],"mouse_events":[7147.800000011921,9195,11213.100000023842,12239.800000011921,13118.5,13522.600000023842],"honeypot":0,"survey":"mace","page":8,"trial_type":"survey-mace","trial_index":16,"time_elapsed":391773,"internal_node_id":"0.0-16.0","task_version":"prescreen-v0.3","browser_interactions":0},{"responses":{"01":"Yes","01_ages_1":"1","01_ages_2":"2","01_ages_3":"3","01_ages_4":"4","01_ages_5":"5","01_ages_6":"6","01_ages_7":"7","01_ages_8":"8","01_ages_9":"9","01_ages_10":"10","01_ages_11":"11","01_ages_12":"12","01_ages_13":"13","01_ages_14":"14","01_ages_15":"15","01_ages_16":"16","01_ages_17":"17","01_ages_18":"18","02":"Yes","02_ages_4":"4","02_ages_5":"5","02_ages_6":"6","02_ages_7":"7","02_ages_8":"8","02_ages_9":"9","02_ages_10":"10","02_ages_11":"11","02_ages_12":"12","02_ages_13":"13","02_ages_14":"14","02_ages_15":"15","02_ages_16":"16","02_ages_17":"17","02_ages_18":"18","03":"Yes","03_ages_4":"4","03_ages_5":"5","03_ages_6":"6","03_ages_7":"7","03_ages_8":"8","03_ages_9":"9","03_ages_10":"10","03_ages_11":"11","03_ages_12":"12","03_ages_13":"13","03_ages_14":"14","03_ages_15":"15","03_ages_16":"16","03_ages_17":"17","03_ages_18":"18","04":"Yes","04_ages_1":"1","04_ages_2":"2","04_ages_3":"3","04_ages_4":"4","04_ages_5":"5","04_ages_6":"6","04_ages_7":"7","04_ages_8":"8","04_ages_9":"9","04_ages_10":"10","04_ages_11":"11","04_ages_12":"12","04_ages_13":"13","04_ages_14":"14","04_ages_15":"15","04_ages_16":"16","04_ages_17":"17","04_ages_18":"18"},"rt":68135.80000001192,"item_order":[0,1,2,3],"radio_events":[3435.900000035763,32733.200000047684,42593.5,55435.200000047684],"checkbox_events":[5358.400000035763,5680.900000035763,6692.5,7000.700000047684,8597.200000047684,9071.200000047684,9459.400000035763,10134.300000011921,10988.600000023842,11425.200000047684,14973.300000011921,15280.700000047684,15602.200000047684,16179.600000023842,16480.30000001192,17042.900000035763,17386.900000035763,17687.600000023842,34424,34725.80000001192,35597.200000047684,35897.40000003576,36670.30000001192,37157.5,37509.30000001192,38126.5,38477.200000047684,38957.90000003576,39557.700000047684,39962.80000001192,40495.90000003576,40996.80000001192,41492.90000003576,43464.10000002384,44891.200000047684,45632.700000047684,46006.90000003576,46385.60000002384,46767.90000003576,47138.80000001192,47822.30000001192,48136.5,48670.60000002384,49345.200000047684,50246.200000047684,50516,50889.5,51782.30000001192,57003.60000002384,57632.90000003576,58413.30000001192,59192.60000002384,59583.200000047684,59942.30000001192,61015.200000047684,61399.700000047684,61997.90000003576,62401.60000002384,63025.5,63348.5,64863.60000002384,65332.5,65709.40000003576,66309.90000003576,66872.80000001192,67225.70000004768],"key_events":[],"mouse_events":[2890.2000000476837,3435.900000035763,5358.400000035763,5680.900000035763,5949.700000047684,6272,6692.5,7000.700000047684,7346,7629.300000011921,8101,8597.200000047684,9071.200000047684,9459.400000035763,9864.900000035763,10134.300000011921,10538.600000023842,10988.600000023842,11425.200000047684,14973.300000011921,15280.700000047684,15602.200000047684,15888.200000047684,16179.600000023842,16480.30000001192,17042.900000035763,17386.900000035763,17687.600000023842,32253.30000001192,32733.200000047684,33902.60000002384,34424,34725.80000001192,35033.60000002384,35597.200000047684,35897.40000003576,36234.5,36670.30000001192,37157.5,37509.30000001192,38126.5,38477.200000047684,38957.90000003576,39557.700000047684,39962.80000001192,40495.90000003576,40996.80000001192,41492.90000003576,42593.5,43464.10000002384,43750.700000047684,44267.700000047684,44666.200000047684,44891.200000047684,45257,45632.700000047684,46006.90000003576,46385.60000002384,46767.90000003576,47138.80000001192,47611.80000001192,47822.30000001192,48136.5,48446.60000002384,48670.60000002384,49151.30000001192,49345.200000047684,49674,49959.5,50246.200000047684,50516,50889.5,51213,51504.60000002384,51782.30000001192,55435.200000047684,56558.40000003576,57003.60000002384,57378.700000047684,57632.90000003576,58413.30000001192,58930.30000001192,59192.60000002384,59583.200000047684,59942.30000001192,60722.30000001192,61015.200000047684,61399.700000047684,61712.700000047684,61997.90000003576,62401.60000002384,62801.80000001192,63025.5,63348.5,63843,64517.5,64863.60000002384,65332.5,65709.40000003576,66309.90000003576,66872.80000001192,67225.70000004768,67445.10000002384,68133.20000004768],"honeypot":0,"survey":"mace","page":9,"trial_type":"survey-mace","trial_index":17,"time_elapsed":459916,"internal_node_id":"0.0-17.0","task_version":"prescreen-v0.3","browser_interactions":2},{"responses":{"01":"No","02":"No","03":"No","04":"No","05":"No","06":"Yes","06_ages_17":"17","07":"Yes","07_ages_2":"2","07_ages_3":"3","07_ages_4":"4","07_ages_5":"5","07_ages_6":"6","07_ages_7":"7","07_ages_8":"8","07_ages_9":"9","07_ages_10":"10","07_ages_11":"11","07_ages_12":"12","07_ages_13":"13","07_ages_14":"14","07_ages_15":"15","07_ages_16":"16","07_ages_17":"17","07_ages_18":"18","08":"Yes","08_ages_1":"1","08_ages_2":"2","08_ages_3":"3","08_ages_4":"4","08_ages_5":"5","08_ages_6":"6","08_ages_7":"7","08_ages_8":"8","08_ages_9":"9","08_ages_10":"10","08_ages_11":"11","08_ages_12":"12","08_ages_13":"13","08_ages_14":"14","08_ages_15":"15","08_ages_16":"16","08_ages_17":"17","08_ages_18":"18"},"rt":45171.80000001192,"item_order":[0,1,2,3,4,5,6,7],"radio_events":[2807.400000035763,3766.600000023842,4920.600000023842,7448.5,13815.600000023842,15481,21834.69999998808,22965.5],"checkbox_events":[16397.100000023842,25133.900000035763,25448.30000001192,25882.100000023842,26273.600000023842,26664.100000023842,27024.600000023842,27354.80000001192,27968.900000035763,28329.19999998808,29369.600000023842,29799.400000035763,30616.69999998808,31094.5,31959,32221.69999998808,32715.900000035763,33720.69999998808,35229.30000001192,35498.80000001192,35806.90000003576,36122,36496.19999998808,37104,37464.10000002384,38019.10000002384,38431,38729.30000001192,39339.40000003576,40223.60000002384,40598.69999998808,41078.80000001192,41828.69999998808,42225.40000003576,42608.69999998808,43171.10000002384,43643.60000002384,44176.10000002384],"key_events":[],"mouse_events":[2807.400000035763,3766.600000023842,4920.600000023842,7448.5,13815.600000023842,15189.699999988079,15481,16397.100000023842,18172.600000023842,21834.69999998808,22965.5,24526.30000001192,25133.900000035763,25448.30000001192,25688.69999998808,25882.100000023842,26080,26273.600000023842,26446.600000023842,26664.100000023842,27024.600000023842,27354.80000001192,27661.900000035763,27968.900000035763,28329.19999998808,28665.80000001192,29369.600000023842,29799.400000035763,30159.30000001192,30616.69999998808,31094.5,31411.100000023842,31959,32221.69999998808,32715.900000035763,33720.69999998808,35229.30000001192,35498.80000001192,35806.90000003576,36122,36496.19999998808,36870.80000001192,37104,37464.10000002384,37800.90000003576,38019.10000002384,38431,38729.30000001192,39339.40000003576,39714.5,40223.60000002384,40598.69999998808,41078.80000001192,41497.40000003576,41828.69999998808,42225.40000003576,42608.69999998808,42858.10000002384,43171.10000002384,43643.60000002384,44176.10000002384,45167.10000002384],"honeypot":0,"survey":"mace","page":10,"trial_type":"survey-mace","trial_index":18,"time_elapsed":505100,"internal_node_id":"0.0-18.0","task_version":"prescreen-v0.3","browser_interactions":0,"instructed":0},{"rt":3168.199999988079,"trial_type":"mental-health-alert","trial_index":19,"time_elapsed":508272,"internal_node_id":"0.0-19.0","task_version":"prescreen-v0.3","interactions":"[{\"event\":\"blur\",\"trial\":2,\"time\":73269},{\"event\":\"focus\",\"trial\":2,\"time\":79199},{\"event\":\"blur\",\"trial\":2,\"time\":92874},{\"event\":\"focus\",\"trial\":2,\"time\":96968},{\"event\":\"blur\",\"trial\":14,\"time\":357331},{\"event\":\"focus\",\"trial\":14,\"time\":365355},{\"event\":\"blur\",\"trial\":17,\"time\":410217},{\"event\":\"focus\",\"trial\":17,\"time\":416803}]"}]