[{"view_history":[{"page_index":0,"viewing_time":4687},{"page_index":1,"viewing_time":1708.1000000238419},{"page_index":2,"viewing_time":5159.700000047684},{"page_index":3,"viewing_time":1206}],"rt":12762,"trial_type":"instructions","trial_index":0,"time_elapsed":12789,"internal_node_id":"0.0-0.0","task_version":"prescreen-v0.3"},{"rt":17599.600000023842,"responses":{"age":"30","gender-categorical":"Male","gender-free-response":"","ethnicity":"Not Hispanic or Latino","race":["White"],"education":"Bachelor degree","siblings":"3"},"trial_type":"survey-demo","trial_index":1,"time_elapsed":30415,"internal_node_id":"0.0-1.0","task_version":"prescreen-v0.3"},{"responses":{"Q04":"1","Q03":"1","Q14":"2","Q20":"0","Q02":"0","Q19":"0","Q06":"2","Q11":"0","Q08":"2","Q13":"1","Q18":"1","Q10":"0","Q17":"0","Q01":"0","Q16":"1","Q21":"3","Q05":"1","Q12":"2","Q15":"1","Q09":"1","Q07":"0"},"rt":296594.89999997616,"item_order":[3,2,13,19,1,18,5,10,7,12,17,9,16,0,15,20,4,11,14,8,6],"radio_events":[6195.5,8809.699999928474,13497.099999904633,16731.299999952316,19484.099999904633,23136.599999904633,28371,82690.79999995232,87934.79999995232,91454.5,95312.69999992847,99120.89999997616,103272.59999990463,104754.59999990463,222670.69999992847,226089,267763.5,270782.59999990463,272744.7999999523,285650.7999999523,288450.59999990463,289356.89999997616,294978.5],"key_events":[6195.5,8809.699999928474,13497.099999904633,16731.299999952316,19484.099999904633,23136.599999904633,28371,82690.79999995232,87934.79999995232,91454.5,95312.69999992847,99120.89999997616,103272.59999990463,104754.59999990463,206121.09999990463,222670.69999992847,226089,267763.5,270782.59999990463,272145.2999999523,272744.7999999523,285650.7999999523,288450.59999990463,289356.89999997616,294978.5,296591.6999999285],"mouse_events":[],"straightlining":0.38095238095238093,"zigzagging":0.35,"honeypot":0,"survey":"sns","trial_type":"survey-template","trial_index":2,"time_elapsed":327038,"internal_node_id":"0.0-2.0","task_version":"prescreen-v0.3","browser_interactions":0,"infrequency":0},{"responses":{"Q04":"2","Q13":"0","Q10":"1","Q08":"3","Q11":"1","Q01":"2","Q05":"3","Q06":"3","Q09":"2","Q07":"3","Q03":"3","Q12":"0","Q02":"1"},"rt":107715.20000004768,"item_order":[3,12,9,7,10,0,4,5,8,6,2,11,1],"radio_events":[4892.700000047684,8196.200000047684,11285.300000071526,15223.899999976158,17276.300000071526,21438.100000023842,23616,25905.300000071526,29344.399999976158,78554,82159.39999997616,84666.5,96117.39999997616,97227,98143.30000007153,103698.70000004768,106402.30000007153],"key_events":[4892.700000047684,8196.200000047684,11285.300000071526,15223.899999976158,17276.300000071526,21438.100000023842,23616,25905.300000071526,28584.700000047684,29344.399999976158,78056.10000002384,78554,82159.39999997616,84666.5,96117.39999997616,97227,98143.30000007153,102671.80000007153,103698.70000004768,106402.30000007153,107712.89999997616],"mouse_events":[],"straightlining":0.38461538461538464,"zigzagging":0.5833333333333334,"honeypot":0,"survey":"bisbas","trial_type":"survey-template","trial_index":3,"time_elapsed":434763,"internal_node_id":"0.0-3.0","task_version":"prescreen-v0.3","browser_interactions":0,"infrequency":0},{"responses":{"Q01":"4","Q02":"3","Q03":"3"},"rt":18133.5,"radio_events":[6131.599999904633,9897.799999952316,17441],"key_events":[6131.599999904633,9897.799999952316,15922.799999952316,17441,18132.899999976158],"mouse_events":[],"survey":"map","page":1,"trial_type":"survey-map","trial_index":4,"time_elapsed":452906,"internal_node_id":"0.0-4.0","task_version":"prescreen-v0.3","browser_interactions":0},{"responses":{"Q04":"3","Q05":"3","Q06":"3"},"rt":9975.199999928474,"radio_events":[5809.699999928474,8656.799999952316,9276.199999928474],"key_events":[5809.699999928474,8656.799999952316,9276.199999928474,9974.5],"mouse_events":[],"survey":"map","page":2,"trial_type":"survey-map","trial_index":5,"time_elapsed":462890,"internal_node_id":"0.0-5.0","task_version":"prescreen-v0.3","browser_interactions":0},{"responses":{"Q07":"4","Q08":"4","Q09":"1"},"rt":91004.5,"radio_events":[82806.79999995232,87326.89999997616,90178.19999992847],"key_events":[82140,82806.79999995232,87326.89999997616,90178.19999992847,91003.39999997616],"mouse_events":[],"survey":"map","page":3,"trial_type":"survey-map","trial_index":6,"time_elapsed":553904,"internal_node_id":"0.0-6.0","task_version":"prescreen-v0.3","browser_interactions":0},{"responses":{"Q10":"3","Q11":"2","Q12":"4","Q13":"4","Q16":"0","Q14":"3","Q15":"2"},"rt":40930.89999997616,"radio_events":[5131.699999928474,11451.600000023842,18737.100000023842,24121.5,30319.699999928474,34710.299999952316,35608.89999997616,40281.10000002384],"key_events":[5131.699999928474,11451.600000023842,18737.100000023842,24121.5,30319.699999928474,34710.299999952316,35608.89999997616,40281.10000002384,40929.39999997616],"mouse_events":[],"survey":"map","page":4,"trial_type":"survey-map","trial_index":7,"time_elapsed":594846,"internal_node_id":"0.0-7.0","task_version":"prescreen-v0.3","browser_interactions":0,"infrequency":0},{"view_history":[{"page_index":0,"viewing_time":5487.599999904633},{"page_index":1,"viewing_time":4903.700000047684}],"rt":10392.799999952316,"trial_type":"instructions","trial_index":8,"time_elapsed":605250,"internal_node_id":"0.0-8.0","task_version":"prescreen-v0.3"},{"responses":{"01":"Yes","01_ages_8":"8","01_ages_9":"9","01_ages_10":"10","01_ages_11":"11","01_ages_12":"12","01_ages_13":"13","01_ages_14":"14","01_ages_15":"15","01_ages_16":"16","01_ages_17":"17","01_ages_18":"18","02":"No","03":"No","04":"No","05":"No","06":"No"},"rt":48657,"item_order":[0,1,2,3,4,5],"radio_events":[12148.700000047684,35002.10000002384,38201.200000047684,39877.799999952316,41911.799999952316,45827.10000002384],"checkbox_events":[20144.399999976158,20861.899999976158,21327.100000023842,21752.5,22402.399999976158,22731.799999952316,23138.899999976158,23508.899999976158,24466.299999952316,25330.899999976158,25683.700000047684],"key_events":[0.10000002384185791,12148.700000047684,20144.399999976158,20861.899999976158,21327.100000023842,21752.5,22402.399999976158,22731.799999952316,23138.899999976158,23508.899999976158,24466.299999952316,24983.600000023842,25330.899999976158,25683.700000047684,35002.10000002384,38201.200000047684,39877.799999952316,41911.799999952316,45827.10000002384,48654.299999952316],"mouse_events":[],"honeypot":0,"survey":"mace","page":1,"trial_type":"survey-mace","trial_index":9,"time_elapsed":653923,"internal_node_id":"0.0-9.0","task_version":"prescreen-v0.3","browser_interactions":0},{"responses":{"01":"No","02":"No","03":"No","04":"No","05":"No","06":"No","07":"No","08":"No"},"rt":25435.100000023842,"item_order":[0,1,2,3,4,5,6,7],"radio_events":[2865.100000023842,7057.299999952316,9578.899999976158,11720.5,15903.100000023842,18033.899999976158,19747.199999928474,22927],"checkbox_events":[],"key_events":[2865.100000023842,5135.799999952316,7057.299999952316,9578.899999976158,11720.5,15903.100000023842,18033.899999976158,19747.199999928474,22927,25428.399999976158],"mouse_events":[],"honeypot":0,"survey":"mace","page":2,"trial_type":"survey-mace","trial_index":10,"time_elapsed":679368,"internal_node_id":"0.0-10.0","task_version":"prescreen-v0.3","browser_interactions":0},{"responses":{"01":"No","02":"No","03":"No","04":"No"},"rt":42968.699999928474,"item_order":[0,1,2,3],"radio_events":[4727.600000023842,37659.10000002384,40231.799999952316,42231.60000002384],"checkbox_events":[],"key_events":[4727.600000023842,37659.10000002384,40231.799999952316,42231.60000002384,42964.89999997616],"mouse_events":[],"honeypot":0,"survey":"mace","page":3,"trial_type":"survey-mace","trial_index":11,"time_elapsed":722343,"internal_node_id":"0.0-11.0","task_version":"prescreen-v0.3","browser_interactions":0},{"responses":{"01":"No","02":"No"},"rt":7987.200000047684,"item_order":[0,1],"radio_events":[3745.7999999523163,6938.299999952316],"checkbox_events":[],"key_events":[3745.7999999523163,6938.299999952316,7985.700000047684],"mouse_events":[],"honeypot":0,"survey":"mace","page":4,"trial_type":"survey-mace","trial_index":12,"time_elapsed":730340,"internal_node_id":"0.0-12.0","task_version":"prescreen-v0.3","browser_interactions":0},{"responses":{"01":"No","02":"No","03":"No","04":"No","05":"No"},"rt":24375.800000071526,"item_order":[0,1,2,3,4],"radio_events":[12811,17023.800000071526,18533.700000047684,19711.5,23539.600000023842],"checkbox_events":[],"key_events":[12811,16276.800000071526,16681.900000095367,17023.800000071526,17917.400000095367,18533.700000047684,19711.5,20643.200000047684,22512,23539.600000023842,24373.100000023842],"mouse_events":[],"honeypot":0,"survey":"mace","page":5,"trial_type":"survey-mace","trial_index":13,"time_elapsed":754724,"internal_node_id":"0.0-13.0","task_version":"prescreen-v0.3","browser_interactions":0},{"responses":{"01":"Yes","01_ages_8":"8","01_ages_9":"9","01_ages_10":"10","01_ages_11":"11","01_ages_12":"12","02":"Yes","02_ages_11":"11","02_ages_12":"12","02_ages_13":"13","02_ages_14":"14","02_ages_15":"15","03":"Yes","03_ages_14":"14","03_ages_15":"15","03_ages_16":"16","04":"No","05":"No"},"rt":36240.39999997616,"item_order":[0,1,2,3,4],"radio_events":[4141.799999952316,12443.699999928474,24307.199999928474,32329.399999976158,35314.799999952316],"checkbox_events":[7813.699999928474,8195,8558.899999976158,9267.599999904633,9611.699999928474,19102.299999952316,19523.199999928474,20139.599999904633,20515.299999952316,21115.099999904633,26141.899999976158,26467.399999976158,27007.199999928474],"key_events":[4141.799999952316,7813.699999928474,8195,8558.899999976158,9267.599999904633,9611.699999928474,12443.699999928474,19102.299999952316,19523.199999928474,20139.599999904633,20515.299999952316,21115.099999904633,24307.199999928474,26141.899999976158,26467.399999976158,27007.199999928474,32329.399999976158,35314.799999952316,36237.39999997616],"mouse_events":[],"honeypot":0,"survey":"mace","page":6,"trial_type":"survey-mace","trial_index":14,"time_elapsed":790974,"internal_node_id":"0.0-14.0","task_version":"prescreen-v0.3","browser_interactions":0},{"responses":{"01":"No","02":"No","03":"No","04":"No","05":"No","06":"No","07":"No"},"rt":21588.899999976158,"item_order":[0,1,2,3,4,5,6],"radio_events":[3742.100000023842,12891.600000023842,15609.700000047684,16702.100000023842,18165.700000047684,19799.399999976158,20559.100000023842],"checkbox_events":[],"key_events":[3742.100000023842,12891.600000023842,15609.700000047684,16702.100000023842,17607.899999976158,18165.700000047684,19207.700000047684,19799.399999976158,20559.100000023842,21586.299999952316],"mouse_events":[],"honeypot":0,"survey":"mace","page":7,"trial_type":"survey-mace","trial_index":15,"time_elapsed":812572,"internal_node_id":"0.0-15.0","task_version":"prescreen-v0.3","browser_interactions":0},{"responses":{"01":"No","02":"Yes","02_ages_12":"12","02_ages_13":"13","02_ages_14":"14","03":"Yes","03_ages_7":"7","03_ages_8":"8","03_ages_9":"9","03_ages_10":"10","03_ages_11":"11","03_ages_12":"12","03_ages_13":"13","03_ages_14":"14","03_ages_15":"15","03_ages_16":"16","03_ages_17":"17","03_ages_18":"18","04":"No"},"rt":43729.60000002384,"item_order":[0,1,2,3],"radio_events":[14603.899999976158,16937.700000047684,18249.600000023842,20857,30730.800000071526,42266.700000047684],"checkbox_events":[25875.600000023842,26221.700000047684,26577.800000071526,31681,32605.100000023842,33173,33616.89999997616,34079.300000071526,34475,35219.200000047684,35861.39999997616,36631.800000071526,37196.300000071526,37661.300000071526,38210.89999997616],"key_events":[14603.899999976158,16937.700000047684,18249.600000023842,20857,25875.600000023842,26221.700000047684,26577.800000071526,30373.300000071526,30730.800000071526,31681,32605.100000023842,33173,33616.89999997616,34079.300000071526,34475,35219.200000047684,35861.39999997616,36631.800000071526,37196.300000071526,37661.300000071526,38210.89999997616,42266.700000047684,43727.800000071526],"mouse_events":[],"honeypot":0,"survey":"mace","page":8,"trial_type":"survey-mace","trial_index":16,"time_elapsed":856307,"internal_node_id":"0.0-16.0","task_version":"prescreen-v0.3","browser_interactions":0},{"responses":{"01":"Yes","01_ages_2":"2","01_ages_3":"3","01_ages_4":"4","01_ages_5":"5","01_ages_6":"6","01_ages_7":"7","01_ages_8":"8","01_ages_9":"9","01_ages_10":"10","01_ages_17":"17","01_ages_18":"18","02":"Yes","02_ages_2":"2","02_ages_3":"3","02_ages_4":"4","02_ages_5":"5","02_ages_6":"6","02_ages_7":"7","02_ages_8":"8","02_ages_9":"9","02_ages_10":"10","02_ages_11":"11","02_ages_16":"16","02_ages_17":"17","03":"Yes","03_ages_2":"2","03_ages_3":"3","03_ages_4":"4","03_ages_5":"5","03_ages_6":"6","03_ages_7":"7","03_ages_8":"8","03_ages_9":"9","03_ages_10":"10","03_ages_11":"11","03_ages_12":"12","03_ages_13":"13","03_ages_14":"14","04":"Yes","04_ages_9":"9","04_ages_12":"12","04_ages_15":"15"},"rt":80839.10000002384,"item_order":[0,1,2,3],"radio_events":[4227.100000023842,23963.600000023842,60023.5,72746.10000002384],"checkbox_events":[9323,9655.399999976158,10173.300000071526,10641.100000023842,11721.399999976158,12757.200000047684,13833.600000023842,14471.200000047684,14967.300000071526,17165.5,17613.300000071526,25273.300000071526,25615.5,26131,27195.800000071526,27548,27953.5,28481.700000047684,28913.5,29514.200000047684,30774.300000071526,33083.200000047684,33615.10000002384,61394,61703.39999997616,62354.89999997616,62703.200000047684,63572.89999997616,64085.10000002384,64707.5,65003.5,65374.200000047684,65846.30000007153,67184.10000002384,69454.10000002384,70360,77242.39999997616,78264.89999997616,79838.89999997616],"key_events":[4227.100000023842,9323,9655.399999976158,10173.300000071526,10641.100000023842,11062.200000047684,11721.399999976158,12133.600000023842,12757.200000047684,13213.200000047684,13833.600000023842,14149.800000071526,14471.200000047684,14967.300000071526,17165.5,17613.300000071526,23963.600000023842,25273.300000071526,25615.5,26131,26487,27195.800000071526,27548,27953.5,28481.700000047684,28913.5,29514.200000047684,30774.300000071526,33083.200000047684,33615.10000002384,60023.5,61394,61703.39999997616,62041.60000002384,62354.89999997616,62703.200000047684,63247.700000047684,63572.89999997616,64085.10000002384,64443.300000071526,64707.5,65003.5,65374.200000047684,65846.30000007153,67184.10000002384,69454.10000002384,69952.10000002384,70360,72746.10000002384,75173.89999997616,77242.39999997616,78264.89999997616,79838.89999997616,80828.70000004768],"mouse_events":[],"honeypot":0,"survey":"mace","page":9,"trial_type":"survey-mace","trial_index":17,"time_elapsed":937165,"internal_node_id":"0.0-17.0","task_version":"prescreen-v0.3","browser_interactions":0},{"responses":{"01":"No","02":"No","03":"No","04":"No","05":"No","06":"Yes","06_ages_17":"17","07":"Yes","07_ages_12":"12","07_ages_13":"13","07_ages_14":"14","08":"Yes","08_ages_7":"7","08_ages_8":"8","08_ages_9":"9","08_ages_12":"12"},"rt":40844.299999952316,"item_order":[0,1,2,3,4,5,6,7],"radio_events":[2495.2999999523163,4157.5,6320.600000023842,7724.199999928474,10049.199999928474,11430.199999928474,22175.399999976158,36270],"checkbox_events":[13087.299999952316,32182.100000023842,32812.5,33665.89999997616,37885.699999928474,38257.699999928474,38750.699999928474,39764],"key_events":[2495.2999999523163,4157.5,6320.600000023842,7724.199999928474,10049.199999928474,11430.199999928474,13087.299999952316,22175.399999976158,32182.100000023842,32812.5,33665.89999997616,36270,37885.699999928474,38257.699999928474,38750.699999928474,39764,40840.199999928474],"mouse_events":[],"honeypot":0,"survey":"mace","page":10,"trial_type":"survey-mace","trial_index":18,"time_elapsed":978034,"internal_node_id":"0.0-18.0","task_version":"prescreen-v0.3","browser_interactions":0,"instructed":0},{"rt":2338.3000000715256,"trial_type":"mental-health-alert","trial_index":19,"time_elapsed":980378,"internal_node_id":"0.0-19.0","task_version":"prescreen-v0.3","interactions":"[]"}]