[{"view_history":[{"page_index":0,"viewing_time":4606.0999999996275},{"page_index":1,"viewing_time":2912},{"page_index":2,"viewing_time":2159.7000000001863},{"page_index":3,"viewing_time":680.2000000001863}],"rt":10358.299999999814,"trial_type":"instructions","trial_index":0,"time_elapsed":10369,"internal_node_id":"0.0-0.0","task_version":"prescreen-v0.3"},{"rt":14219.30000000028,"responses":{"age":"40","gender-categorical":"Male","gender-free-response":"","ethnicity":"Not Hispanic or Latino","race":["White"],"education":"Associate degree","siblings":"2"},"trial_type":"survey-demo","trial_index":1,"time_elapsed":24594,"internal_node_id":"0.0-1.0","task_version":"prescreen-v0.3"},{"responses":{"Q06":"1","Q10":"0","Q16":"0","Q19":"1","Q08":"2","Q18":"1","Q11":"2","Q12":"2","Q03":"1","Q04":"2","Q01":"2","Q02":"1","Q13":"3","Q14":"1","Q21":"3","Q20":"0","Q07":"0","Q17":"2","Q09":"1","Q15":"2","Q05":"0"},"rt":76370.3999999999,"item_order":[5,9,15,18,7,17,10,11,2,3,0,1,12,13,20,19,6,16,8,14,4],"radio_events":[3178.2999999998137,7546,10393.799999999814,17849.899999999907,19785.5,23193.299999999814,24042.399999999907,27465.5,30977,34553,35065.299999999814,40312.799999999814,41481,42968.700000000186,48104.5,57896.10000000009,58776.10000000009,63951.89999999991,65575.8999999999,67679.8999999999,73543.5,74367.5],"key_events":[],"mouse_events":[3178.2999999998137,7546,10393.799999999814,17849.899999999907,19785.5,23193.299999999814,24042.399999999907,26929.5,27465.5,28329.5,30193.700000000186,30977,32913.700000000186,34553,35065.299999999814,40312.799999999814,41481,42968.700000000186,48104.5,57896.10000000009,58776.10000000009,63951.89999999991,65575.8999999999,67679.8999999999,73543.5,74367.5,76367.6000000001],"straightlining":0.3333333333333333,"zigzagging":0.55,"honeypot":0,"survey":"sns","trial_type":"survey-template","trial_index":2,"time_elapsed":100971,"internal_node_id":"0.0-2.0","task_version":"prescreen-v0.3","browser_interactions":0,"infrequency":0},{"responses":{"Q12":"1","Q11":"1","Q07":"1","Q13":"0","Q03":"2","Q02":"2","Q01":"3","Q08":"2","Q06":"3","Q09":"1","Q04":"3","Q10":"1","Q05":"2"},"rt":37248.80000000028,"item_order":[11,10,6,12,2,1,0,7,5,8,3,9,4],"radio_events":[2768.8000000002794,6272.300000000279,10528.30000000028,11384.100000000093,14136.100000000093,15528.200000000186,16328.200000000186,21376,22519.80000000028,24231.700000000186,26367.700000000186,28159.700000000186,32847.39999999991,36471.39999999991],"key_events":[],"mouse_events":[2768.8000000002794,6272.300000000279,9648.200000000186,10528.30000000028,11384.100000000093,14136.100000000093,14744.200000000186,15528.200000000186,16328.200000000186,21376,22519.80000000028,24231.700000000186,26367.700000000186,28159.700000000186,32847.39999999991,36471.39999999991,37247.10000000009],"straightlining":0.38461538461538464,"zigzagging":0.4166666666666667,"honeypot":0,"survey":"bisbas","trial_type":"survey-template","trial_index":3,"time_elapsed":138225,"internal_node_id":"0.0-3.0","task_version":"prescreen-v0.3","browser_interactions":0,"infrequency":0},{"responses":{"Q01":"2","Q02":"2","Q03":"2"},"rt":11604.399999999907,"radio_events":[3891.100000000093,5811.299999999814,8154.899999999907],"key_events":[],"mouse_events":[3891.100000000093,5811.299999999814,8154.899999999907,10186.600000000093,11603.100000000093],"survey":"map","page":1,"trial_type":"survey-map","trial_index":4,"time_elapsed":149833,"internal_node_id":"0.0-4.0","task_version":"prescreen-v0.3","browser_interactions":0},{"responses":{"Q04":"2","Q05":"1","Q06":"1"},"rt":10819.799999999814,"radio_events":[4771.199999999721,6115.399999999907,7779.399999999907],"key_events":[],"mouse_events":[1555.2999999998137,3939.2999999998137,4771.199999999721,6115.399999999907,7779.399999999907,10819.099999999627],"survey":"map","page":2,"trial_type":"survey-map","trial_index":5,"time_elapsed":160655,"internal_node_id":"0.0-5.0","task_version":"prescreen-v0.3","browser_interactions":2},{"responses":{"Q07":"2","Q08":"2","Q09":"2"},"rt":13877.5,"radio_events":[7652.899999999907,8277.19999999972,9701,12972.600000000093],"key_events":[],"mouse_events":[869.1999999997206,7652.899999999907,8277.19999999972,9701,12972.600000000093,13876.799999999814],"survey":"map","page":3,"trial_type":"survey-map","trial_index":6,"time_elapsed":174535,"internal_node_id":"0.0-6.0","task_version":"prescreen-v0.3","browser_interactions":0},{"responses":{"Q10":"2","Q11":"1","Q12":"2","Q13":"2","Q16":"0","Q14":"2","Q15":"2"},"rt":25157.299999999814,"radio_events":[4044.6999999997206,4756.5,9036.69999999972,15444.19999999972,16300.100000000093,20684.100000000093,22940.100000000093],"key_events":[],"mouse_events":[892.5,4044.6999999997206,4756.5,8412.399999999907,9036.69999999972,15444.19999999972,16300.100000000093,20684.100000000093,22940.100000000093,25155.799999999814],"survey":"map","page":4,"trial_type":"survey-map","trial_index":7,"time_elapsed":199695,"internal_node_id":"0.0-7.0","task_version":"prescreen-v0.3","browser_interactions":0,"infrequency":0},{"view_history":[{"page_index":0,"viewing_time":1788.2000000001863},{"page_index":1,"viewing_time":3103.899999999907}],"rt":4892.5,"trial_type":"instructions","trial_index":8,"time_elapsed":204589,"internal_node_id":"0.0-8.0","task_version":"prescreen-v0.3"},{"responses":{"01":"No","02":"No","03":"No","04":"No","05":"No","06":"No"},"rt":22715.30000000028,"item_order":[0,1,2,3,4,5],"radio_events":[4288.600000000093,12616,17599.80000000028,18327.700000000186,19623.899999999907,20919.700000000186,21479.80000000028],"checkbox_events":[],"key_events":[],"mouse_events":[0.10000000009313226,1544.2000000001863,4288.600000000093,12616,17599.80000000028,18327.700000000186,19623.899999999907,20919.700000000186,21479.80000000028,22711.600000000093],"honeypot":0,"survey":"mace","page":1,"trial_type":"survey-mace","trial_index":9,"time_elapsed":227315,"internal_node_id":"0.0-9.0","task_version":"prescreen-v0.3","browser_interactions":2},{"responses":{"01":"No","02":"No","03":"Yes","03_ages_3":"3","03_ages_4":"4","03_ages_5":"5","04":"No","05":"No","06":"No","07":"No","08":"No"},"rt":35411.299999999814,"item_order":[0,1,2,3,4,5,6,7],"radio_events":[1479.1999999997206,3175.2999999998137,7063.0999999996275,15254.69999999972,18342.599999999627,19398.69999999972,20070.599999999627,20550.599999999627],"checkbox_events":[14310.899999999907,24446.69999999972,24958.299999999814,25518.399999999907,27974.19999999972],"key_events":[],"mouse_events":[1479.1999999997206,2439.0999999996275,3175.2999999998137,7063.0999999996275,14310.899999999907,15254.69999999972,18342.599999999627,19398.69999999972,20070.599999999627,20550.599999999627,24446.69999999972,24958.299999999814,25518.399999999907,27974.19999999972,35406.39999999991],"honeypot":0,"survey":"mace","page":2,"trial_type":"survey-mace","trial_index":10,"time_elapsed":262731,"internal_node_id":"0.0-10.0","task_version":"prescreen-v0.3","browser_interactions":0},{"responses":{"01":"No","02":"No","03":"No","04":"No"},"rt":5448.5,"item_order":[0,1,2,3],"radio_events":[2247.100000000093,2998.2000000001863,3942.5,4702.100000000093],"checkbox_events":[],"key_events":[],"mouse_events":[2247.100000000093,2998.2000000001863,3942.5,4702.100000000093,5446.100000000093],"honeypot":0,"survey":"mace","page":3,"trial_type":"survey-mace","trial_index":11,"time_elapsed":268183,"internal_node_id":"0.0-11.0","task_version":"prescreen-v0.3","browser_interactions":0},{"responses":{"01":"No","02":"No"},"rt":2948.2999999998137,"item_order":[0,1],"radio_events":[1690.7999999998137,2322.899999999907],"checkbox_events":[],"key_events":[],"mouse_events":[1690.7999999998137,2322.899999999907,2946.7999999998137],"honeypot":0,"survey":"mace","page":4,"trial_type":"survey-mace","trial_index":12,"time_elapsed":271134,"internal_node_id":"0.0-12.0","task_version":"prescreen-v0.3","browser_interactions":0},{"responses":{"01":"No","02":"No","03":"No","04":"No","05":"No"},"rt":11751.399999999907,"item_order":[0,1,2,3,4],"radio_events":[5419.399999999907,6147.299999999814,8547.600000000093,10482.899999999907,10987.100000000093],"checkbox_events":[],"key_events":[],"mouse_events":[5419.399999999907,6147.299999999814,8547.600000000093,10482.899999999907,10987.100000000093,11747],"honeypot":0,"survey":"mace","page":5,"trial_type":"survey-mace","trial_index":13,"time_elapsed":282891,"internal_node_id":"0.0-13.0","task_version":"prescreen-v0.3","browser_interactions":0},{"responses":{"01":"Yes","01_ages_5":"5","01_ages_6":"6","01_ages_7":"7","01_ages_8":"8","01_ages_9":"9","01_ages_10":"10","01_ages_11":"11","01_ages_12":"12","01_ages_13":"13","01_ages_14":"14","01_ages_15":"15","01_ages_16":"16","02":"Yes","02_ages_5":"5","02_ages_6":"6","02_ages_7":"7","02_ages_8":"8","02_ages_9":"9","02_ages_10":"10","02_ages_11":"11","02_ages_12":"12","02_ages_13":"13","02_ages_14":"14","02_ages_15":"15","02_ages_16":"16","03":"Yes","03_ages_5":"5","03_ages_6":"6","03_ages_7":"7","03_ages_8":"8","03_ages_9":"9","03_ages_10":"10","03_ages_11":"11","03_ages_12":"12","03_ages_13":"13","03_ages_14":"14","03_ages_15":"15","03_ages_16":"16","04":"Yes","04_ages_5":"5","04_ages_6":"6","04_ages_7":"7","04_ages_8":"8","04_ages_9":"9","04_ages_10":"10","04_ages_11":"11","04_ages_12":"12","04_ages_13":"13","04_ages_14":"14","04_ages_15":"15","04_ages_16":"16","05":"Yes","05_ages_10":"10","05_ages_11":"11","05_ages_12":"12","05_ages_13":"13","05_ages_14":"14","05_ages_15":"15","05_ages_16":"16"},"rt":73783.40000000037,"item_order":[0,1,2,3,4],"radio_events":[5557.800000000279,21244.900000000373,30460.700000000186,41812.10000000009,42940.10000000009],"checkbox_events":[8813.600000000093,9149.5,10485.400000000373,11741.30000000028,12405.200000000186,12741.30000000028,13157.30000000028,13869.100000000093,14325.200000000186,14989,15485.200000000186,19789.200000000186,22109.200000000186,22532.80000000028,23140.80000000028,23508.900000000373,24172.80000000028,25212.700000000186,25557.200000000186,26260.80000000028,26668.600000000093,27053.100000000093,27692.80000000028,28236.80000000028,31612.80000000028,32820.700000000186,33372.5,33813,34332.700000000186,35516.5,36084.5,36612.30000000028,37068.40000000037,37604.30000000028,38444.200000000186,38940.30000000028,43950.200000000186,44972.10000000009,45380.10000000009,45860.200000000186,46740.40000000037,47299.90000000037,47836.200000000186,48395.90000000037,48803.90000000037,49308,49907.700000000186,50499.90000000037,68283.6000000001,68963.30000000028,69563.30000000028,69979.30000000028,70467.1000000001,70947.30000000028,71363.40000000037],"key_events":[],"mouse_events":[5557.800000000279,8813.600000000093,9149.5,9629.30000000028,10485.400000000373,10957.30000000028,11741.30000000028,12077.30000000028,12405.200000000186,12741.30000000028,13157.30000000028,13869.100000000093,14325.200000000186,14989,15485.200000000186,19789.200000000186,21244.900000000373,22109.200000000186,22532.80000000028,23140.80000000028,23508.900000000373,24172.80000000028,25212.700000000186,25557.200000000186,25924.900000000373,26260.80000000028,26668.600000000093,27053.100000000093,27692.80000000028,28236.80000000028,30460.700000000186,31612.80000000028,32820.700000000186,33372.5,33813,34332.700000000186,34900.700000000186,35516.5,36084.5,36612.30000000028,37068.40000000037,37604.30000000028,38444.200000000186,38940.30000000028,41812.10000000009,42940.10000000009,43950.200000000186,44372,44972.10000000009,45380.10000000009,45860.200000000186,46740.40000000037,47299.90000000037,47836.200000000186,48395.90000000037,48803.90000000037,49308,49907.700000000186,50499.90000000037,68283.6000000001,68963.30000000028,69563.30000000028,69979.30000000028,70467.1000000001,70947.30000000028,71363.40000000037,73780],"honeypot":0,"survey":"mace","page":6,"trial_type":"survey-mace","trial_index":14,"time_elapsed":356680,"internal_node_id":"0.0-14.0","task_version":"prescreen-v0.3","browser_interactions":0},{"responses":{"01":"No","02":"No","03":"Yes","03_ages_15":"15","04":"Yes","04_ages_15":"15","05":"No","06":"No","07":"No"},"rt":23362.900000000373,"item_order":[0,1,2,3,4,5,6],"radio_events":[7622.800000000279,8470.80000000028,14230.30000000028,17767.100000000093,18382.400000000373,18910.5,22118.5],"checkbox_events":[9502.80000000028,15094.400000000373],"key_events":[],"mouse_events":[7622.800000000279,8470.80000000028,9502.80000000028,14230.30000000028,15094.400000000373,17767.100000000093,18382.400000000373,18910.5,22118.5,23358.5],"honeypot":0,"survey":"mace","page":7,"trial_type":"survey-mace","trial_index":15,"time_elapsed":380047,"internal_node_id":"0.0-15.0","task_version":"prescreen-v0.3","browser_interactions":0},{"responses":{"01":"Yes","01_ages_15":"15","01_ages_16":"16","01_ages_17":"17","02":"Yes","02_ages_7":"7","02_ages_8":"8","02_ages_9":"9","02_ages_10":"10","02_ages_11":"11","02_ages_12":"12","02_ages_13":"13","02_ages_14":"14","03":"No","04":"No"},"rt":34337,"item_order":[0,1,2,3],"radio_events":[10903.100000000093,20518.700000000186,33382.39999999991,33878.200000000186],"checkbox_events":[21742.700000000186,22094.600000000093,22582.700000000186,26926.600000000093,27302.799999999814,27806.5,28998.5,29486.399999999907,29862.700000000186,30294.299999999814,32166.399999999907],"key_events":[],"mouse_events":[10279.200000000186,10903.100000000093,20518.700000000186,21742.700000000186,22094.600000000093,22582.700000000186,26926.600000000093,27302.799999999814,27806.5,28390.5,28998.5,29486.399999999907,29862.700000000186,30294.299999999814,32166.399999999907,33382.39999999991,33878.200000000186,34334.39999999991],"honeypot":0,"survey":"mace","page":8,"trial_type":"survey-mace","trial_index":16,"time_elapsed":414389,"internal_node_id":"0.0-16.0","task_version":"prescreen-v0.3","browser_interactions":0},{"responses":{"01":"Yes","01_ages_1":"1","01_ages_2":"2","01_ages_3":"3","01_ages_4":"4","01_ages_5":"5","01_ages_6":"6","01_ages_7":"7","01_ages_8":"8","01_ages_9":"9","01_ages_10":"10","01_ages_11":"11","01_ages_12":"12","01_ages_13":"13","01_ages_14":"14","01_ages_15":"15","01_ages_16":"16","01_ages_17":"17","01_ages_18":"18","02":"Yes","02_ages_1":"1","02_ages_2":"2","02_ages_3":"3","02_ages_4":"4","02_ages_5":"5","02_ages_6":"6","02_ages_7":"7","02_ages_8":"8","02_ages_9":"9","02_ages_10":"10","02_ages_11":"11","02_ages_12":"12","02_ages_13":"13","02_ages_14":"14","02_ages_15":"15","02_ages_16":"16","02_ages_17":"17","02_ages_18":"18","03":"Yes","03_ages_1":"1","03_ages_2":"2","03_ages_3":"3","03_ages_4":"4","03_ages_5":"5","03_ages_6":"6","03_ages_7":"7","03_ages_8":"8","03_ages_9":"9","03_ages_10":"10","03_ages_11":"11","03_ages_12":"12","03_ages_13":"13","03_ages_14":"14","03_ages_15":"15","03_ages_16":"16","03_ages_17":"17","03_ages_18":"18","04":"Yes","04_ages_1":"1","04_ages_2":"2","04_ages_3":"3","04_ages_4":"4","04_ages_5":"5","04_ages_6":"6","04_ages_7":"7","04_ages_8":"8","04_ages_9":"9","04_ages_10":"10","04_ages_11":"11","04_ages_12":"12","04_ages_13":"13","04_ages_14":"14","04_ages_15":"15","04_ages_16":"16","04_ages_17":"17","04_ages_18":"18"},"rt":57570.5,"item_order":[0,1,2,3],"radio_events":[2425.9000000003725,15905.400000000373,33616.90000000037,37184.60000000009],"checkbox_events":[4754.100000000093,5273.9000000003725,6378.200000000186,6738,7457.700000000186,8145.9000000003725,8521.700000000186,9145.700000000186,9569.600000000093,10225.600000000093,10609.600000000093,11257.600000000093,11721.900000000373,12162,12585.5,13017.5,13745.5,14505.700000000186,16881.5,21393.200000000186,22441,23033,23395,24129.100000000093,24673,25345.200000000186,25713,26121.100000000093,26600.900000000373,27184.900000000373,27745,28457,29233,29817,30409,31216.80000000028,34736.80000000028,35224.700000000186,35736.80000000028,36200.60000000009,37952.60000000009,38696.5,39648.5,40432.40000000037,40832.5,41336.60000000009,42136.5,42528.60000000009,43088.5,43544.5,44032.5,44560.60000000009,45088.60000000009,45616.40000000037,46808.30000000028,47256.200000000186,47768.10000000009,48224.200000000186,49224.200000000186,49592.10000000009,50192.40000000037,50592.10000000009,51353.80000000028,51728.10000000009,52264,52912,53440.10000000009,54096.200000000186,54576.200000000186,55368,55823.90000000037,56407.90000000037],"key_events":[],"mouse_events":[2425.9000000003725,4754.100000000093,5273.9000000003725,5785.800000000279,6378.200000000186,6738,7457.700000000186,8145.9000000003725,8521.700000000186,9145.700000000186,9569.600000000093,10225.600000000093,10609.600000000093,11257.600000000093,11721.900000000373,12162,12585.5,13017.5,13745.5,14505.700000000186,15905.400000000373,16881.5,21393.200000000186,21705,22441,23033,23395,24129.100000000093,24673,25345.200000000186,25713,26121.100000000093,26600.900000000373,27184.900000000373,27745,28457,28880.900000000373,29233,29817,30409,31216.80000000028,33616.90000000037,34736.80000000028,35224.700000000186,35736.80000000028,36200.60000000009,37184.60000000009,37952.60000000009,38696.5,39648.5,40432.40000000037,40832.5,41336.60000000009,42136.5,42528.60000000009,43088.5,43544.5,44032.5,44560.60000000009,45088.60000000009,45616.40000000037,46808.30000000028,47256.200000000186,47768.10000000009,48224.200000000186,48840.10000000009,49224.200000000186,49592.10000000009,50192.40000000037,50592.10000000009,51353.80000000028,51728.10000000009,52264,52912,53440.10000000009,54096.200000000186,54576.200000000186,55368,55823.90000000037,56407.90000000037,57568.10000000009],"honeypot":0,"survey":"mace","page":9,"trial_type":"survey-mace","trial_index":17,"time_elapsed":471964,"internal_node_id":"0.0-17.0","task_version":"prescreen-v0.3","browser_interactions":6},{"responses":{"01":"No","02":"No","03":"No","04":"No","05":"No","06":"Yes","06_ages_17":"17","07":"Yes","07_ages_1":"1","07_ages_2":"2","07_ages_3":"3","07_ages_4":"4","07_ages_5":"5","07_ages_6":"6","07_ages_7":"7","07_ages_8":"8","07_ages_9":"9","07_ages_10":"10","07_ages_11":"11","07_ages_12":"12","07_ages_13":"13","07_ages_14":"14","07_ages_15":"15","07_ages_16":"16","07_ages_17":"17","07_ages_18":"18","08":"No"},"rt":34596.40000000037,"item_order":[0,1,2,3,4,5,6,7],"radio_events":[2553.2000000001863,3112.8000000002794,3840.9000000003725,4912.9000000003725,7048.700000000186,8896.600000000093,12720.600000000093,14192.30000000028,33799.700000000186],"checkbox_events":[9816.600000000093,17920.30000000028,18400.30000000028,18792.200000000186,19688.5,20328.100000000093,20680.100000000093,21072.100000000093,21656.200000000186,22280,22792.100000000093,23512.200000000186,23960.100000000093,24400.100000000093,24976,25648.100000000093,26063.900000000373,26496.100000000093,27064.100000000093],"key_events":[],"mouse_events":[2553.2000000001863,3112.8000000002794,3840.9000000003725,4912.9000000003725,7048.700000000186,7856.700000000186,8896.600000000093,9816.600000000093,12720.600000000093,14192.30000000028,17920.30000000028,18400.30000000028,18792.200000000186,19688.5,20328.100000000093,20680.100000000093,21072.100000000093,21656.200000000186,22280,22792.100000000093,23512.200000000186,23960.100000000093,24400.100000000093,24976,25648.100000000093,26063.900000000373,26496.100000000093,27064.100000000093,33799.700000000186,34591.700000000186],"honeypot":0,"survey":"mace","page":10,"trial_type":"survey-mace","trial_index":18,"time_elapsed":506566,"internal_node_id":"0.0-18.0","task_version":"prescreen-v0.3","browser_interactions":0,"instructed":0},{"rt":6688,"trial_type":"mental-health-alert","trial_index":19,"time_elapsed":513256,"internal_node_id":"0.0-19.0","task_version":"prescreen-v0.3","interactions":"[{\"event\":\"focus\",\"trial\":0,\"time\":2178},{\"event\":\"blur\",\"trial\":1,\"time\":11234},{\"event\":\"focus\",\"trial\":1,\"time\":11951},{\"event\":\"blur\",\"trial\":1,\"time\":19084},{\"event\":\"focus\",\"trial\":1,\"time\":21309},{\"event\":\"blur\",\"trial\":5,\"time\":150287},{\"event\":\"focus\",\"trial\":5,\"time\":151357},{\"event\":\"blur\",\"trial\":9,\"time\":205109},{\"event\":\"focus\",\"trial\":9,\"time\":206075},{\"event\":\"blur\",\"trial\":17,\"time\":433291},{\"event\":\"focus\",\"trial\":17,\"time\":434299},{\"event\":\"focus\",\"trial\":17,\"time\":434299},{\"event\":\"blur\",\"trial\":17,\"time\":434715},{\"event\":\"focus\",\"trial\":17,\"time\":435728},{\"event\":\"focus\",\"trial\":17,\"time\":435728},{\"event\":\"blur\",\"trial\":19,\"time\":508520},{\"event\":\"focus\",\"trial\":19,\"time\":509350}]"}]