[{"view_history":[{"page_index":0,"viewing_time":5276.5999999940395},{"page_index":1,"viewing_time":6645.70000000298},{"page_index":2,"viewing_time":4354.20000000298},{"page_index":3,"viewing_time":2005.7999999970198}],"rt":18283.89999999106,"trial_type":"instructions","trial_index":0,"time_elapsed":18300,"internal_node_id":"0.0-0.0","task_version":"prescreen-v0.3"},{"rt":32743.79999999702,"responses":{"age":"74","gender-categorical":"Male","gender-free-response":"","ethnicity":"Not Hispanic or Latino","race":["White"],"education":"High school","siblings":"2"},"trial_type":"survey-demo","trial_index":1,"time_elapsed":51053,"internal_node_id":"0.0-1.0","task_version":"prescreen-v0.3"},{"responses":{"Q07":"0","Q02":"3","Q16":"2","Q21":"3","Q14":"2","Q11":"3","Q08":"3","Q10":"1","Q06":"3","Q15":"2","Q13":"2","Q09":"3","Q12":"2","Q05":"2","Q20":"1","Q04":"3","Q18":"0","Q19":"2","Q17":"0","Q01":"2","Q03":"1"},"rt":231046.90000000596,"item_order":[6,1,15,20,13,10,7,9,5,14,12,8,11,4,19,3,17,18,16,0,2],"radio_events":[10809.10000000894,25589,37106.79999999702,41620.10000000894,49525.10000000894,53410.29999999702,57504.90000000596,70008.40000000596,78971.60000000894,88089.10000000894,103490.90000000596,109622.79999999702,122687.60000000894,134391.20000000298,153581,161846.5,171602.40000000596,188489.70000000298,192422.60000000894,200327.10000000894,206256.20000000298,228080.29999999702],"key_events":[],"mouse_events":[10809.10000000894,17819.79999999702,19411.60000000894,25589,37106.79999999702,41620.10000000894,49525.10000000894,53410.29999999702,57504.90000000596,70008.40000000596,78971.60000000894,88089.10000000894,103490.90000000596,109622.79999999702,119930.29999999702,122687.60000000894,134391.20000000298,150797.90000000596,153581,161846.5,171602.40000000596,180013.40000000596,186956.60000000894,188489.70000000298,192422.60000000894,200327.10000000894,206256.20000000298,207920.79999999702,211096.40000000596,213803.70000000298,215162.60000000894,215390.29999999702,215737.5,217776.10000000894,228080.29999999702,231043.40000000596],"straightlining":0.38095238095238093,"zigzagging":0.55,"honeypot":0,"survey":"sns","trial_type":"survey-template","trial_index":2,"time_elapsed":282109,"internal_node_id":"0.0-2.0","task_version":"prescreen-v0.3","browser_interactions":0,"infrequency":0},{"responses":{"Q12":"2","Q08":"0","Q10":"2","Q02":"3","Q07":"0","Q04":"3","Q09":"2","Q06":"2","Q13":"0","Q05":"2","Q03":"3","Q11":"1","Q01":"3"},"rt":97135.40000000596,"item_order":[11,7,9,1,6,3,8,5,12,4,2,10,0],"radio_events":[9344.10000000894,17813.40000000596,24798.60000000894,28254.40000000596,32260.80000001192,40140.10000000894,43786.5,44865.20000000298,53764,59910.30000001192,74153.80000001192,82177.30000001192,89772.20000000298,95519.70000000298],"key_events":[],"mouse_events":[9344.10000000894,17813.40000000596,24798.60000000894,28254.40000000596,32260.80000001192,40140.10000000894,43786.5,44865.20000000298,53764,59910.30000001192,74153.80000001192,82177.30000001192,89772.20000000298,93894.40000000596,95519.70000000298,97133.40000000596],"straightlining":0.38461538461538464,"zigzagging":0.4166666666666667,"honeypot":0,"survey":"bisbas","trial_type":"survey-template","trial_index":3,"time_elapsed":379250,"internal_node_id":"0.0-3.0","task_version":"prescreen-v0.3","browser_interactions":0,"infrequency":0},{"responses":{"Q01":"2","Q02":"3","Q03":"1"},"rt":35832.5,"radio_events":[14304.10000000894,21978.70000000298,34271.40000000596],"key_events":[],"mouse_events":[14304.10000000894,21978.70000000298,33070.90000000596,34271.40000000596,35831.40000000596],"survey":"map","page":1,"trial_type":"survey-map","trial_index":4,"time_elapsed":415089,"internal_node_id":"0.0-4.0","task_version":"prescreen-v0.3","browser_interactions":0},{"responses":{"Q04":"0","Q05":"0","Q06":"2"},"rt":32219.20000000298,"radio_events":[11787.90000000596,14548.79999999702,21583.59999999404,30519],"key_events":[],"mouse_events":[11787.90000000596,14548.79999999702,20232.40000000596,21583.59999999404,30519,32218.20000000298],"survey":"map","page":2,"trial_type":"survey-map","trial_index":5,"time_elapsed":447312,"internal_node_id":"0.0-5.0","task_version":"prescreen-v0.3","browser_interactions":0},{"responses":{"Q07":"2","Q08":"0","Q09":"0"},"rt":31574,"radio_events":[15413.70000000298,21616.40000000596,29666.29999999702],"key_events":[],"mouse_events":[15413.70000000298,21616.40000000596,27848.09999999404,29666.29999999702,31573.09999999404],"survey":"map","page":3,"trial_type":"survey-map","trial_index":6,"time_elapsed":478889,"internal_node_id":"0.0-6.0","task_version":"prescreen-v0.3","browser_interactions":0},{"responses":{"Q10":"0","Q11":"0","Q12":"0","Q13":"0","Q16":"0","Q14":"1","Q15":"0"},"rt":98760.09999999404,"radio_events":[8403.79999999702,23003.09999999404,36361.29999999702,61857.70000000298,74814.89999999106,88211.89999999106,97108.09999999404],"key_events":[],"mouse_events":[8403.79999999702,23003.09999999404,36361.29999999702,61857.70000000298,74814.89999999106,86642.20000000298,88211.89999999106,97108.09999999404,98758.39999999106],"survey":"map","page":4,"trial_type":"survey-map","trial_index":7,"time_elapsed":577653,"internal_node_id":"0.0-7.0","task_version":"prescreen-v0.3","browser_interactions":0,"infrequency":0},{"view_history":[{"page_index":0,"viewing_time":3894.4000000059605},{"page_index":1,"viewing_time":6636.70000000298}],"rt":10532.800000011921,"trial_type":"instructions","trial_index":8,"time_elapsed":588188,"internal_node_id":"0.0-8.0","task_version":"prescreen-v0.3"},{"responses":{"01":"No","02":"No","03":"No","04":"No","05":"No","06":"No"},"rt":41847.89999999106,"item_order":[0,1,2,3,4,5],"radio_events":[13521.59999999404,17637.79999999702,29488.29999999702,31764.39999999106,33970.09999999404,40553.20000000298],"checkbox_events":[],"key_events":[],"mouse_events":[0.20000000298023224,13521.59999999404,17637.79999999702,29488.29999999702,31764.39999999106,33970.09999999404,40553.20000000298,41843.09999999404],"honeypot":0,"survey":"mace","page":1,"trial_type":"survey-mace","trial_index":9,"time_elapsed":630048,"internal_node_id":"0.0-9.0","task_version":"prescreen-v0.3","browser_interactions":0},{"responses":{"01":"No","02":"No","03":"Yes","03_ages_5":"5","03_ages_6":"6","03_ages_7":"7","03_ages_8":"8","03_ages_9":"9","03_ages_10":"10","04":"No","05":"Yes","05_ages_5":"5","05_ages_6":"6","05_ages_7":"7","05_ages_8":"8","05_ages_9":"9","05_ages_10":"10","06":"No","07":"No","08":"No"},"rt":85387.59999999404,"item_order":[0,1,2,3,4,5,6,7],"radio_events":[6738.5,12351.09999999404,16454.59999999404,52132.79999999702,55450.09999999404,75135.29999999702,77578.29999999702,83846.20000000298],"checkbox_events":[32135.79999999702,34981.29999999702,36995.09999999404,38587.59999999404,40213.40000000596,41859.09999999404,63639.5,64762.90000000596,65845.29999999702,67335.29999999702,68747.79999999702,70250.90000000596],"key_events":[],"mouse_events":[6738.5,12351.09999999404,16454.59999999404,32135.79999999702,33415,34981.29999999702,36995.09999999404,38141.79999999702,38587.59999999404,40213.40000000596,41859.09999999404,47331.59999999404,52132.79999999702,55450.09999999404,63639.5,64762.90000000596,65845.29999999702,67335.29999999702,68747.79999999702,70250.90000000596,75135.29999999702,77578.29999999702,83846.20000000298,85381.5],"honeypot":0,"survey":"mace","page":2,"trial_type":"survey-mace","trial_index":10,"time_elapsed":715442,"internal_node_id":"0.0-10.0","task_version":"prescreen-v0.3","browser_interactions":0},{"responses":{"01":"No","02":"No","03":"No","04":"No"},"rt":19300.20000000298,"item_order":[0,1,2,3],"radio_events":[7401.29999999702,15052.89999999106,16310.70000000298,17943.09999999404],"checkbox_events":[],"key_events":[],"mouse_events":[7401.29999999702,15052.89999999106,16310.70000000298,17943.09999999404,19296.89999999106],"honeypot":0,"survey":"mace","page":3,"trial_type":"survey-mace","trial_index":11,"time_elapsed":734747,"internal_node_id":"0.0-11.0","task_version":"prescreen-v0.3","browser_interactions":0},{"responses":{"01":"No","02":"No"},"rt":13196,"item_order":[0,1],"radio_events":[6378.5,11584.39999999106],"checkbox_events":[],"key_events":[],"mouse_events":[6378.5,9556.5,11584.39999999106,13194.29999999702],"honeypot":0,"survey":"mace","page":4,"trial_type":"survey-mace","trial_index":12,"time_elapsed":747946,"internal_node_id":"0.0-12.0","task_version":"prescreen-v0.3","browser_interactions":0},{"responses":{"01":"No","02":"No","03":"No","04":"No","05":"No"},"rt":39190.69999998808,"item_order":[0,1,2,3,4],"radio_events":[18141.89999999106,22808.5,27024.89999999106,31176.59999999404,36496.29999999702],"checkbox_events":[],"key_events":[],"mouse_events":[18141.89999999106,22808.5,27024.89999999106,31176.59999999404,36496.29999999702,39186.79999999702],"honeypot":0,"survey":"mace","page":5,"trial_type":"survey-mace","trial_index":13,"time_elapsed":787142,"internal_node_id":"0.0-13.0","task_version":"prescreen-v0.3","browser_interactions":0},{"responses":{"01":"No","02":"No","03":"No","04":"No","05":"No"},"rt":50906.20000000298,"item_order":[0,1,2,3,4],"radio_events":[19047.5,28690.40000000596,32630.90000000596,38139.5,39497.20000000298],"checkbox_events":[],"key_events":[],"mouse_events":[19047.5,25217.20000000298,28690.40000000596,30154.79999999702,31588,32630.90000000596,34005.79999999702,34849.90000000596,38139.5,39497.20000000298,50902.29999999702],"honeypot":0,"survey":"mace","page":6,"trial_type":"survey-mace","trial_index":14,"time_elapsed":838053,"internal_node_id":"0.0-14.0","task_version":"prescreen-v0.3","browser_interactions":0},{"responses":{"01":"No","02":"No","03":"No","04":"No","05":"No","06":"No","07":"No"},"rt":33061.70000000298,"item_order":[0,1,2,3,4,5,6],"radio_events":[4509.79999999702,7775.20000000298,12902.90000000596,14734.5,21376.70000000298,27676.40000000596,31753.70000000298],"checkbox_events":[],"key_events":[],"mouse_events":[4509.79999999702,7775.20000000298,12902.90000000596,14734.5,19805,21376.70000000298,23832.70000000298,27676.40000000596,29524.59999999404,31753.70000000298,33056.09999999404],"honeypot":0,"survey":"mace","page":7,"trial_type":"survey-mace","trial_index":15,"time_elapsed":871121,"internal_node_id":"0.0-15.0","task_version":"prescreen-v0.3","browser_interactions":0},{"responses":{"01":"No","02":"No","03":"No","04":"No"},"rt":49259.09999999404,"item_order":[0,1,2,3],"radio_events":[16527.29999999702,26971.69999998808,31663.09999999404,47831.29999999702],"checkbox_events":[],"key_events":[],"mouse_events":[16527.29999999702,26971.69999998808,31663.09999999404,47831.29999999702,49255.69999998808],"honeypot":0,"survey":"mace","page":8,"trial_type":"survey-mace","trial_index":16,"time_elapsed":920385,"internal_node_id":"0.0-16.0","task_version":"prescreen-v0.3","browser_interactions":0},{"responses":{"01":"Yes","01_ages_1":"1","01_ages_2":"2","01_ages_3":"3","01_ages_4":"4","01_ages_5":"5","01_ages_6":"6","01_ages_7":"7","01_ages_8":"8","01_ages_9":"9","01_ages_10":"10","01_ages_11":"11","01_ages_12":"12","01_ages_13":"13","01_ages_14":"14","01_ages_15":"15","01_ages_16":"16","01_ages_17":"17","01_ages_18":"18","02":"Yes","02_ages_1":"1","02_ages_2":"2","02_ages_3":"3","02_ages_4":"4","02_ages_5":"5","02_ages_6":"6","02_ages_7":"7","02_ages_8":"8","02_ages_9":"9","02_ages_10":"10","02_ages_11":"11","02_ages_12":"12","02_ages_13":"13","02_ages_14":"14","02_ages_15":"15","02_ages_16":"16","02_ages_17":"17","02_ages_18":"18","03":"Yes","03_ages_1":"1","03_ages_2":"2","03_ages_3":"3","03_ages_4":"4","03_ages_5":"5","03_ages_6":"6","03_ages_7":"7","03_ages_8":"8","03_ages_9":"9","03_ages_10":"10","03_ages_11":"11","03_ages_12":"12","03_ages_13":"13","03_ages_14":"14","03_ages_15":"15","03_ages_16":"16","03_ages_17":"17","03_ages_18":"18","04":"Yes","04_ages_1":"1","04_ages_2":"2","04_ages_3":"3","04_ages_4":"4","04_ages_5":"5","04_ages_6":"6","04_ages_7":"7","04_ages_8":"8","04_ages_9":"9","04_ages_10":"10","04_ages_11":"11","04_ages_12":"12","04_ages_13":"13","04_ages_14":"14","04_ages_15":"15","04_ages_16":"16","04_ages_17":"17","04_ages_18":"18"},"rt":216049.59999999404,"item_order":[0,1,2,3],"radio_events":[8584.79999999702,64965.59999999404,108635.5,158126],"checkbox_events":[18971.29999999702,29395,31852.5,33574.90000000596,34715.79999999702,37436.90000000596,40479,41919,43237.79999999702,44382.59999999404,46380.40000000596,48282.20000000298,49828.09999999404,51559.5,53228.79999999702,54514.5,55932.20000000298,57536,67747.90000000596,68864.09999999404,70385.79999999702,71730.79999999702,74719.70000000298,75885.40000000596,77053.59999999404,78055.90000000596,82625,86507.40000000596,88210.40000000596,90970.70000000298,92605.40000000596,93784.90000000596,95072.59999999404,96112.90000000596,97213.79999999702,98270.40000000596,99403.09999999404,100522.29999999702,101625.5,115297.70000000298,117081.59999999404,118330.40000000596,118556.5,120772.70000000298,123609.5,125566.5,127831.40000000596,129325.40000000596,130882.09999999404,132241.79999999702,133421.70000000298,134977.59999999404,136561.90000000596,137726,143129.59999999404,144902.79999999702,164469.20000000298,165912.70000000298,168377.79999999702,169579.5,171303.90000000596,172707.09999999404,173823.59999999404,176586.70000000298,183623.5,184983.09999999404,187439.90000000596,187664.20000000298,188474.79999999702,188697.59999999404,189713.09999999404,191062,192152.09999999404,193802.59999999404,195472.29999999702,196834.20000000298,199162.29999999702,200342,202456,204168.90000000596,207037.79999999702,208579.70000000298,210487.90000000596,211927.70000000298],"key_events":[],"mouse_events":[8584.79999999702,18971.29999999702,27996.40000000596,29395,30570.79999999702,31852.5,33574.90000000596,34715.79999999702,36021.20000000298,37436.90000000596,40479,41919,43237.79999999702,44382.59999999404,45355.79999999702,46380.40000000596,48282.20000000298,49828.09999999404,51559.5,53228.79999999702,54514.5,55932.20000000298,57536,64965.59999999404,67747.90000000596,68864.09999999404,70385.79999999702,71730.79999999702,73331,74719.70000000298,75885.40000000596,77053.59999999404,78055.90000000596,82625,86507.40000000596,88210.40000000596,90970.70000000298,92605.40000000596,93784.90000000596,95072.59999999404,96112.90000000596,97213.79999999702,98270.40000000596,99403.09999999404,100522.29999999702,101625.5,108635.5,114874.70000000298,115297.70000000298,117081.59999999404,117891.40000000596,118330.40000000596,118556.5,119767,120772.70000000298,123609.5,125566.5,127831.40000000596,129325.40000000596,130882.09999999404,132241.79999999702,133421.70000000298,134977.59999999404,136561.90000000596,137726,143129.59999999404,144902.79999999702,158126,163274.5,164469.20000000298,165912.70000000298,168377.79999999702,169579.5,171303.90000000596,172707.09999999404,173823.59999999404,175357.59999999404,176586.70000000298,183623.5,184983.09999999404,186384.40000000596,187439.90000000596,187664.20000000298,188474.79999999702,188697.59999999404,189713.09999999404,191062,192152.09999999404,193802.59999999404,195472.29999999702,196834.20000000298,197985.20000000298,199162.29999999702,200342,202456,204168.90000000596,207037.79999999702,208579.70000000298,210487.90000000596,211927.70000000298,216046.40000000596],"honeypot":0,"survey":"mace","page":9,"trial_type":"survey-mace","trial_index":17,"time_elapsed":1136439,"internal_node_id":"0.0-17.0","task_version":"prescreen-v0.3","browser_interactions":0},{"responses":{"01":"No","02":"No","03":"No","04":"No","05":"No","06":"Yes","06_ages_17":"17","07":"Yes","07_ages_1":"1","07_ages_2":"2","07_ages_3":"3","07_ages_4":"4","07_ages_5":"5","07_ages_6":"6","07_ages_7":"7","07_ages_8":"8","07_ages_9":"9","07_ages_10":"10","07_ages_11":"11","07_ages_12":"12","07_ages_13":"13","07_ages_14":"14","07_ages_15":"15","07_ages_16":"16","07_ages_17":"17","07_ages_18":"18","08":"Yes","08_ages_1":"1","08_ages_2":"2","08_ages_3":"3","08_ages_4":"4","08_ages_5":"5","08_ages_6":"6","08_ages_7":"7","08_ages_8":"8","08_ages_9":"9","08_ages_10":"10","08_ages_11":"11","08_ages_12":"12","08_ages_13":"13","08_ages_14":"14","08_ages_15":"15","08_ages_16":"16","08_ages_17":"17","08_ages_18":"18"},"rt":115301.39999999106,"item_order":[0,1,2,3,4,5,6,7],"radio_events":[8971.29999999702,12406.20000000298,16598.39999999106,19982.09999999404,25800.70000000298,29039.39999999106,42757.09999999404,77597.70000000298],"checkbox_events":[35983.59999999404,45055.59999999404,47069.09999999404,47544.5,48985.20000000298,50960.29999999702,52125.5,53608.70000000298,54748.09999999404,56007.79999999702,57681.20000000298,58795.39999999106,60495.39999999106,61547,62780.79999999702,64530.39999999106,65845.59999999404,67302.39999999106,69015.89999999106,70712.20000000298,75366.59999999404,84639.20000000298,85785.89999999106,87322.70000000298,89062.09999999404,90119.29999999702,91432.70000000298,93058.79999999702,94550.70000000298,96285.5,97514,99129,101029.5,102505.29999999702,104284.39999999106,106008,107432.89999999106,109018.89999999106,110900.29999999702],"key_events":[],"mouse_events":[8971.29999999702,12406.20000000298,16598.39999999106,19982.09999999404,25800.70000000298,29039.39999999106,31247.5,35983.59999999404,42757.09999999404,45055.59999999404,47069.09999999404,47544.5,48985.20000000298,50960.29999999702,52125.5,53608.70000000298,54748.09999999404,56007.79999999702,57681.20000000298,58795.39999999106,60495.39999999106,61547,62780.79999999702,64530.39999999106,65845.59999999404,67302.39999999106,69015.89999999106,70712.20000000298,72041.70000000298,72507.20000000298,74107.20000000298,75366.59999999404,77597.70000000298,83439.5,84639.20000000298,85785.89999999106,87322.70000000298,89062.09999999404,90119.29999999702,91432.70000000298,93058.79999999702,94550.70000000298,96285.5,97514,99129,101029.5,102505.29999999702,104284.39999999106,106008,107432.89999999106,109018.89999999106,110900.29999999702,115295],"honeypot":0,"survey":"mace","page":10,"trial_type":"survey-mace","trial_index":18,"time_elapsed":1251747,"internal_node_id":"0.0-18.0","task_version":"prescreen-v0.3","browser_interactions":0,"instructed":0},{"rt":5311.600000008941,"trial_type":"mental-health-alert","trial_index":19,"time_elapsed":1257062,"internal_node_id":"0.0-19.0","task_version":"prescreen-v0.3","interactions":"[]"}]