[{"view_history":[{"page_index":0,"viewing_time":6199.899999991059},{"page_index":1,"viewing_time":6589.79999999702},{"page_index":2,"viewing_time":2314.2000000029802},{"page_index":3,"viewing_time":1885.7999999970198}],"rt":16992.19999998808,"trial_type":"instructions","trial_index":0,"time_elapsed":17046,"internal_node_id":"0.0-0.0","task_version":"prescreen-v0.3"},{"rt":29833.59999999404,"responses":{"age":"25","gender-categorical":"Female","gender-free-response":"","ethnicity":"Hispanic or Latino","race":["Rather not say"],"education":"Associate degree"},"trial_type":"survey-demo","trial_index":1,"time_elapsed":46903,"internal_node_id":"0.0-1.0","task_version":"prescreen-v0.3"},{"responses":{"Q13":"2","Q10":"3","Q05":"1","Q07":"0","Q17":"1","Q12":"2","Q14":"3","Q19":"1","Q06":"0","Q08":"3","Q15":"3","Q04":"2","Q18":"1","Q03":"2","Q20":"1","Q01":"2","Q09":"2","Q11":"3","Q16":"3","Q02":"1","Q21":"3"},"rt":193870.20000000298,"item_order":[12,9,4,6,16,11,13,18,5,7,14,3,17,2,19,0,8,10,15,1,20],"radio_events":[11435.40000000596,20694.79999999702,38323,58019.79999999702,63782.09999999404,74251.5,79019.70000000298,90912.70000000298,104020.20000000298,109474,116338.40000000596,126179.20000000298,131452.20000000298,148732,155047.5,157884.5,160319.20000000298,166113.29999999702,174938.20000000298,180844.40000000596,185593.90000000596,192341],"key_events":[],"mouse_events":[11435.40000000596,20694.79999999702,38323,58019.79999999702,63782.09999999404,74251.5,78525.20000000298,79019.70000000298,90912.70000000298,104020.20000000298,109474,116338.40000000596,126179.20000000298,131452.20000000298,148732,155047.5,157884.5,160319.20000000298,166113.29999999702,174938.20000000298,180844.40000000596,185593.90000000596,191731.20000000298,192341,193862.90000000596],"straightlining":0.3333333333333333,"zigzagging":0.65,"honeypot":0,"survey":"sns","trial_type":"survey-template","trial_index":2,"time_elapsed":240806,"internal_node_id":"0.0-2.0","task_version":"prescreen-v0.3","browser_interactions":0,"infrequency":0},{"responses":{"Q11":"2","Q03":"1","Q05":"2","Q01":"2","Q04":"1","Q07":"2","Q09":"2","Q10":"1","Q02":"2","Q08":"2","Q12":"1","Q13":"0","Q06":"2"},"rt":104143.79999999702,"item_order":[10,2,4,0,3,6,8,9,1,7,11,12,5],"radio_events":[29775.09999999404,38020.09999999404,43025.59999999404,44925.5,50455,57812.89999999106,70805.29999999702,79495.79999999702,82854.5,88160.5,91802.09999999404,98379.39999999106,103384.09999999404],"key_events":[],"mouse_events":[29775.09999999404,38020.09999999404,43025.59999999404,44925.5,50455,57812.89999999106,70097.70000000298,70805.29999999702,79495.79999999702,82854.5,88160.5,91802.09999999404,98379.39999999106,103384.09999999404,104138.29999999702],"straightlining":0.6153846153846154,"zigzagging":0.6666666666666666,"honeypot":0,"survey":"bisbas","trial_type":"survey-template","trial_index":3,"time_elapsed":344967,"internal_node_id":"0.0-3.0","task_version":"prescreen-v0.3","browser_interactions":0,"infrequency":0},{"responses":{"Q01":"2","Q02":"3","Q03":"1"},"rt":34620.89999999106,"radio_events":[23532.79999999702,25128.59999999404,33471.39999999106],"key_events":[],"mouse_events":[23532.79999999702,25128.59999999404,33471.39999999106,34616.29999999702],"survey":"map","page":1,"trial_type":"survey-map","trial_index":4,"time_elapsed":379606,"internal_node_id":"0.0-4.0","task_version":"prescreen-v0.3","browser_interactions":0},{"responses":{"Q04":"2","Q05":"2","Q06":"2"},"rt":14182.20000000298,"radio_events":[9438.5,10486.90000000596,13287.90000000596],"key_events":[],"mouse_events":[9438.5,10486.90000000596,13287.90000000596,14177.79999999702],"survey":"map","page":2,"trial_type":"survey-map","trial_index":5,"time_elapsed":393808,"internal_node_id":"0.0-5.0","task_version":"prescreen-v0.3","browser_interactions":0},{"responses":{"Q07":"1","Q08":"4","Q09":"1"},"rt":15825.40000000596,"radio_events":[8897.800000011921,13325.40000000596,14981.40000000596],"key_events":[],"mouse_events":[8897.800000011921,13325.40000000596,14981.40000000596,15822.5],"survey":"map","page":3,"trial_type":"survey-map","trial_index":6,"time_elapsed":409652,"internal_node_id":"0.0-6.0","task_version":"prescreen-v0.3","browser_interactions":0},{"responses":{"Q10":"0","Q11":"0","Q12":"0","Q13":"0","Q16":"0","Q14":"0","Q15":"0"},"rt":34415.90000000596,"radio_events":[8782.10000000894,12697.800000011921,16861.5,22256.70000000298,26860.20000000298,30026.20000000298,33424.60000000894],"key_events":[],"mouse_events":[8782.10000000894,12697.800000011921,15729.10000000894,16569.30000001192,16861.5,22256.70000000298,26860.20000000298,30026.20000000298,33424.60000000894,34411.90000000596],"survey":"map","page":4,"trial_type":"survey-map","trial_index":7,"time_elapsed":444086,"internal_node_id":"0.0-7.0","task_version":"prescreen-v0.3","browser_interactions":0,"infrequency":0},{"view_history":[{"page_index":0,"viewing_time":1734.5999999940395},{"page_index":1,"viewing_time":9185.90000000596}],"rt":10921.79999999702,"trial_type":"instructions","trial_index":8,"time_elapsed":455026,"internal_node_id":"0.0-8.0","task_version":"prescreen-v0.3"},{"responses":{"01":"Yes","01_ages_5":"5","01_ages_6":"6","01_ages_7":"7","01_ages_8":"8","01_ages_9":"9","01_ages_10":"10","01_ages_11":"11","01_ages_12":"12","01_ages_13":"13","02":"Yes","02_ages_5":"5","02_ages_6":"6","02_ages_7":"7","02_ages_8":"8","02_ages_9":"9","02_ages_10":"10","02_ages_11":"11","02_ages_12":"12","02_ages_13":"13","02_ages_14":"14","02_ages_15":"15","02_ages_16":"16","02_ages_17":"17","02_ages_18":"18","03":"No","04":"Yes","04_ages_2":"2","04_ages_3":"3","04_ages_4":"4","04_ages_5":"5","04_ages_6":"6","04_ages_7":"7","05":"No","06":"No"},"rt":83615.39999999106,"item_order":[0,1,2,3,4,5],"radio_events":[11688.89999999106,35536.29999999702,60355.69999998808,66325.69999998808,76809.59999999404,82944.79999999702],"checkbox_events":[22677.59999999404,23260.89999999106,23821.69999998808,24389.59999999404,24857.89999999106,25343.59999999404,25917.19999998808,26879.09999999404,27913.79999999702,38399,39921.09999999404,40420.59999999404,41188.5,41651.59999999404,42260.29999999702,42809.89999999106,43430.39999999106,44064.29999999702,44757.39999999106,46097.59999999404,46840.79999999702,47340.69999998808,48216.79999999702,67822.89999999106,68725.09999999404,69248.29999999702,69845,70862.29999999702,72744.79999999702],"key_events":[],"mouse_events":[0.5,11688.89999999106,22677.59999999404,23260.89999999106,23821.69999998808,24389.59999999404,24857.89999999106,25343.59999999404,25917.19999998808,26879.09999999404,27341.59999999404,27913.79999999702,35536.29999999702,38399,39070,39921.09999999404,40420.59999999404,41188.5,41651.59999999404,42260.29999999702,42809.89999999106,43430.39999999106,44064.29999999702,44757.39999999106,46097.59999999404,46840.79999999702,47340.69999998808,48216.79999999702,60355.69999998808,66325.69999998808,67822.89999999106,68725.09999999404,69248.29999999702,69845,70862.29999999702,71794.29999999702,72744.79999999702,76809.59999999404,82944.79999999702,83605.69999998808],"honeypot":0,"survey":"mace","page":1,"trial_type":"survey-mace","trial_index":9,"time_elapsed":538659,"internal_node_id":"0.0-9.0","task_version":"prescreen-v0.3","browser_interactions":0},{"responses":{"01":"No","02":"No","03":"Yes","03_ages_6":"6","03_ages_8":"8","04":"No","05":"No","06":"No","07":"No","08":"No"},"rt":59539,"item_order":[0,1,2,3,4,5,6,7],"radio_events":[5481.4000000059605,7965.70000000298,10817.40000000596,35037.20000000298,38337.70000000298,51606.20000000298,56573.20000000298,58849.90000000596],"checkbox_events":[19108.79999999702,20825.40000000596],"key_events":[],"mouse_events":[5481.4000000059605,7965.70000000298,10817.40000000596,19108.79999999702,20825.40000000596,33989.10000000894,35037.20000000298,38337.70000000298,51606.20000000298,56573.20000000298,58849.90000000596,59525.29999999702],"honeypot":0,"survey":"mace","page":2,"trial_type":"survey-mace","trial_index":10,"time_elapsed":598226,"internal_node_id":"0.0-10.0","task_version":"prescreen-v0.3","browser_interactions":0},{"responses":{"01":"No","02":"No","03":"No","04":"No"},"rt":18294.70000000298,"item_order":[0,1,2,3],"radio_events":[12024.70000000298,13814.70000000298,15473.09999999404,17518],"checkbox_events":[],"key_events":[],"mouse_events":[12024.70000000298,13814.70000000298,15473.09999999404,17518,18286],"honeypot":0,"survey":"mace","page":3,"trial_type":"survey-mace","trial_index":11,"time_elapsed":616541,"internal_node_id":"0.0-11.0","task_version":"prescreen-v0.3","browser_interactions":0},{"responses":{"01":"No","02":"No"},"rt":6592.79999999702,"item_order":[0,1],"radio_events":[4893.20000000298,5792.5],"checkbox_events":[],"key_events":[],"mouse_events":[4893.20000000298,5792.5,6589.4000000059605],"honeypot":0,"survey":"mace","page":4,"trial_type":"survey-mace","trial_index":12,"time_elapsed":623153,"internal_node_id":"0.0-12.0","task_version":"prescreen-v0.3","browser_interactions":0},{"responses":{"01":"No","02":"No","03":"No","04":"No","05":"No"},"rt":19391.29999999702,"item_order":[0,1,2,3,4],"radio_events":[6720.100000008941,9504.29999999702,13619.20000000298,16031,18479.20000000298],"checkbox_events":[],"key_events":[],"mouse_events":[6720.100000008941,9504.29999999702,13619.20000000298,16031,18479.20000000298,19380.79999999702],"honeypot":0,"survey":"mace","page":5,"trial_type":"survey-mace","trial_index":13,"time_elapsed":642567,"internal_node_id":"0.0-13.0","task_version":"prescreen-v0.3","browser_interactions":0},{"responses":{"01":"Yes","01_ages_5":"5","01_ages_6":"6","01_ages_7":"7","01_ages_8":"8","01_ages_9":"9","01_ages_10":"10","01_ages_11":"11","01_ages_12":"12","01_ages_13":"13","02":"Yes","02_ages_5":"5","02_ages_6":"6","02_ages_7":"7","02_ages_8":"8","02_ages_9":"9","02_ages_10":"10","02_ages_11":"11","02_ages_12":"12","02_ages_13":"13","02_ages_14":"14","02_ages_15":"15","02_ages_16":"16","02_ages_17":"17","02_ages_18":"18","03":"Yes","03_ages_14":"14","03_ages_15":"15","03_ages_16":"16","03_ages_17":"17","04":"Yes","04_ages_14":"14","04_ages_15":"15","04_ages_16":"16","05":"No"},"rt":64984.10000000894,"item_order":[0,1,2,3,4],"radio_events":[16079.20000000298,27979.60000000894,44189.60000000894,55800.5,64097.29999999702],"checkbox_events":[19526.40000000596,19928.29999999702,20464,21049.5,22182.10000000894,22644.5,23302.70000000298,23789.60000000894,24313.40000000596,29198,30245.29999999702,30818.5,31243.70000000298,31779.40000000596,32230.10000000894,32863.40000000596,33289.5,33801.10000000894,34227.29999999702,34776.10000000894,35434.20000000298,35907.5,36553.79999999702,49037.5,49464.79999999702,50157.20000000298,50644.20000000298,57680.60000000894,58065.5,58529.5],"key_events":[],"mouse_events":[16079.20000000298,19526.40000000596,19928.29999999702,20464,21049.5,21462.29999999702,22182.10000000894,22644.5,23302.70000000298,23789.60000000894,24313.40000000596,27504.90000000596,27979.60000000894,29198,30245.29999999702,30818.5,31243.70000000298,31779.40000000596,32230.10000000894,32863.40000000596,33289.5,33801.10000000894,34227.29999999702,34776.10000000894,35434.20000000298,35907.5,36553.79999999702,44189.60000000894,49037.5,49464.79999999702,50157.20000000298,50644.20000000298,55800.5,57680.60000000894,58065.5,58529.5,64097.29999999702,64974.40000000596],"honeypot":0,"survey":"mace","page":6,"trial_type":"survey-mace","trial_index":14,"time_elapsed":707575,"internal_node_id":"0.0-14.0","task_version":"prescreen-v0.3","browser_interactions":0},{"responses":{"01":"No","02":"No","03":"No","04":"No","05":"No","06":"No","07":"No"},"rt":32795.80000001192,"item_order":[0,1,2,3,4,5,6],"radio_events":[21818,23867.70000000298,25876.80000001192,27204.70000000298,29373.20000000298,30665.5,31882.20000000298],"checkbox_events":[],"key_events":[],"mouse_events":[21818,23867.70000000298,25876.80000001192,27204.70000000298,29373.20000000298,30665.5,31882.20000000298,32784.10000000894],"honeypot":0,"survey":"mace","page":7,"trial_type":"survey-mace","trial_index":15,"time_elapsed":740396,"internal_node_id":"0.0-15.0","task_version":"prescreen-v0.3","browser_interactions":0},{"responses":{"01":"No","02":"No","03":"Yes","03_ages_7":"7","03_ages_8":"8","03_ages_9":"9","03_ages_10":"10","03_ages_11":"11","03_ages_12":"12","03_ages_13":"13","03_ages_14":"14","03_ages_15":"15","03_ages_16":"16","03_ages_17":"17","03_ages_18":"18","04":"No"},"rt":48425.29999999702,"item_order":[0,1,2,3],"radio_events":[12706.79999999702,16417.60000000894,27474.40000000596,47793.60000000894],"checkbox_events":[29167.79999999702,29741,30227.10000000894,30849.20000000298,31518.70000000298,32164.40000000596,32676,33252.70000000298,33713.90000000596,34406.79999999702,35636.5,36208.79999999702],"key_events":[],"mouse_events":[12706.79999999702,16417.60000000894,27474.40000000596,28741,29167.79999999702,29741,30227.10000000894,30849.20000000298,31518.70000000298,32164.40000000596,32676,33252.70000000298,33713.90000000596,34406.79999999702,34941.70000000298,35636.5,36208.79999999702,47793.60000000894,48415.79999999702],"honeypot":0,"survey":"mace","page":8,"trial_type":"survey-mace","trial_index":16,"time_elapsed":788837,"internal_node_id":"0.0-16.0","task_version":"prescreen-v0.3","browser_interactions":0},{"responses":{"01":"Yes","01_ages_1":"1","01_ages_2":"2","01_ages_3":"3","01_ages_4":"4","01_ages_5":"5","01_ages_6":"6","01_ages_7":"7","01_ages_8":"8","01_ages_9":"9","01_ages_10":"10","01_ages_11":"11","01_ages_12":"12","01_ages_13":"13","01_ages_14":"14","01_ages_15":"15","01_ages_16":"16","01_ages_17":"17","01_ages_18":"18","02":"Yes","02_ages_1":"1","02_ages_2":"2","02_ages_3":"3","02_ages_4":"4","02_ages_5":"5","02_ages_6":"6","02_ages_7":"7","02_ages_8":"8","02_ages_9":"9","02_ages_10":"10","02_ages_11":"11","02_ages_12":"12","02_ages_13":"13","02_ages_14":"14","02_ages_15":"15","02_ages_16":"16","02_ages_17":"17","02_ages_18":"18","03":"Yes","03_ages_1":"1","03_ages_2":"2","03_ages_3":"3","03_ages_4":"4","03_ages_5":"5","03_ages_6":"6","03_ages_7":"7","03_ages_8":"8","03_ages_9":"9","03_ages_10":"10","03_ages_11":"11","03_ages_12":"12","03_ages_13":"13","03_ages_14":"14","03_ages_15":"15","03_ages_16":"16","03_ages_17":"17","03_ages_18":"18","04":"Yes","04_ages_1":"1","04_ages_2":"2","04_ages_3":"3","04_ages_4":"4","04_ages_5":"5","04_ages_6":"6","04_ages_7":"7","04_ages_8":"8","04_ages_9":"9","04_ages_10":"10","04_ages_11":"11","04_ages_12":"12","04_ages_13":"13","04_ages_14":"14","04_ages_15":"15","04_ages_16":"16","04_ages_17":"17","04_ages_18":"18"},"rt":75578.79999999702,"item_order":[0,1,2,3],"radio_events":[10315.89999999106,24139.19999998808,40933.79999999702,60697.59999999404],"checkbox_events":[12382.39999999106,13382.699999988079,13918.09999999404,14405.29999999702,14892,15355.699999988079,15916.09999999404,16342.39999999106,16914.59999999404,17523.79999999702,18108.5,18656.5,19241,19813.59999999404,20338.39999999106,20849,21422.79999999702,22896.5,25592.5,26088,26697.5,27281.59999999404,28207.09999999404,28657.89999999106,29175,29622.29999999702,30133.39999999106,31071,31448.19999998808,31874.59999999404,32520.39999999106,33080.19999998808,33544,34104.39999999106,35042.09999999404,35443.5,42418.79999999702,42795.5,43233.89999999106,43770.29999999702,44233,44805.89999999106,45282.5,45781.89999999106,46247.5,46749.79999999702,47169.59999999404,47682.09999999404,48644.5,49606.39999999106,50044.59999999404,50642.19999998808,51544.09999999404,53090.09999999404,62063.39999999106,62548.29999999702,63900.5,64472.79999999702,65070,65679.29999999702,66337.19999998808,66873.19999998808,67396.39999999106,68505.59999999404,68955,69540.09999999404,70052.09999999404,71014.19999998808,71490,72391.59999999404,73598,74010.89999999106],"key_events":[],"mouse_events":[10315.89999999106,12382.39999999106,12942.699999988079,13382.699999988079,13918.09999999404,14405.29999999702,14892,15355.699999988079,15916.09999999404,16342.39999999106,16914.59999999404,17523.79999999702,18108.5,18656.5,19241,19813.59999999404,20338.39999999106,20849,21422.79999999702,21946.79999999702,22896.5,24139.19999998808,25592.5,26088,26697.5,27281.59999999404,28207.09999999404,28657.89999999106,29175,29622.29999999702,30133.39999999106,30595.69999998808,31071,31448.19999998808,31874.59999999404,32520.39999999106,33080.19999998808,33544,34104.39999999106,34505.69999998808,35042.09999999404,35443.5,40933.79999999702,42418.79999999702,42795.5,43233.89999999106,43770.29999999702,44233,44805.89999999106,45282.5,45781.89999999106,46247.5,46749.79999999702,47169.59999999404,47682.09999999404,48181.79999999702,48644.5,49132.29999999702,49606.39999999106,50044.59999999404,50642.19999998808,51091.5,51544.09999999404,51994.5,53090.09999999404,60697.59999999404,62063.39999999106,62548.29999999702,63900.5,64472.79999999702,65070,65679.29999999702,66337.19999998808,66873.19999998808,67396.39999999106,68091.19999998808,68505.59999999404,68955,69540.09999999404,70052.09999999404,70562.59999999404,71014.19999998808,71490,71952.09999999404,72391.59999999404,72804.89999999106,73220,73598,74010.89999999106,75571],"honeypot":0,"survey":"mace","page":9,"trial_type":"survey-mace","trial_index":17,"time_elapsed":864436,"internal_node_id":"0.0-17.0","task_version":"prescreen-v0.3","browser_interactions":0},{"responses":{"01":"Yes","01_ages_10":"10","01_ages_11":"11","01_ages_12":"12","01_ages_13":"13","01_ages_14":"14","01_ages_15":"15","01_ages_16":"16","01_ages_17":"17","01_ages_18":"18","02":"No","03":"No","04":"No","05":"Yes","05_ages_9":"9","05_ages_10":"10","05_ages_11":"11","05_ages_12":"12","05_ages_13":"13","05_ages_14":"14","05_ages_15":"15","05_ages_16":"16","05_ages_17":"17","05_ages_18":"18","06":"Yes","06_ages_17":"17","07":"Yes","07_ages_5":"5","07_ages_6":"6","07_ages_7":"7","07_ages_8":"8","07_ages_9":"9","07_ages_10":"10","07_ages_11":"11","07_ages_12":"12","07_ages_13":"13","07_ages_14":"14","07_ages_15":"15","07_ages_16":"16","07_ages_17":"17","07_ages_18":"18","08":"No"},"rt":80036.29999999702,"item_order":[0,1,2,3,4,5,6,7],"radio_events":[8189.399999991059,17155.29999999702,20505.59999999404,28852.89999999106,33493.59999999404,44411.5,59042.79999999702,79510.19999998808],"checkbox_events":[10891.59999999404,11405.5,12195.699999988079,12706.89999999106,13122.199999988079,13647.09999999404,14168.39999999106,14734,15229,35273.09999999404,35834.19999998808,36308,37453.79999999702,37879.19999998808,38367.39999999106,38842.59999999404,39353.79999999702,39841.59999999404,40414,46165.69999998808,61645.89999999106,62448.19999998808,63106.5,63630.79999999702,64556.69999998808,65557.29999999702,66043,66639.59999999404,67200.09999999404,68445.29999999702,68880.89999999106,69503.09999999404,70404.29999999702,70781.59999999404],"key_events":[],"mouse_events":[8189.399999991059,10891.59999999404,11405.5,12195.699999988079,12706.89999999106,13122.199999988079,13647.09999999404,14168.39999999106,14734,15229,17155.29999999702,20505.59999999404,28852.89999999106,33493.59999999404,35273.09999999404,35834.19999998808,36308,37113.19999998808,37453.79999999702,37879.19999998808,38367.39999999106,38842.59999999404,39353.79999999702,39841.59999999404,40414,44411.5,46165.69999998808,59042.79999999702,61645.89999999106,62448.19999998808,63106.5,63630.79999999702,64081.59999999404,64556.69999998808,65141.89999999106,65557.29999999702,66043,66639.59999999404,67200.09999999404,68078.69999998808,68445.29999999702,68880.89999999106,69503.09999999404,69965.89999999106,70404.29999999702,70781.59999999404,79510.19999998808,80021.79999999702],"honeypot":0,"survey":"mace","page":10,"trial_type":"survey-mace","trial_index":18,"time_elapsed":944504,"internal_node_id":"0.0-18.0","task_version":"prescreen-v0.3","browser_interactions":0,"instructed":0},{"rt":9369.09999999404,"trial_type":"mental-health-alert","trial_index":19,"time_elapsed":953887,"internal_node_id":"0.0-19.0","task_version":"prescreen-v0.3","interactions":"[]"}]