[{"view_history":[{"page_index":0,"viewing_time":15554},{"page_index":1,"viewing_time":15288},{"page_index":2,"viewing_time":85400},{"page_index":3,"viewing_time":1051}],"rt":117293,"trial_type":"instructions","trial_index":0,"time_elapsed":117299,"internal_node_id":"0.0-0.0","task_version":"prescreen-v0.3"},{"rt":76404,"responses":{"age":"30","gender-categorical":"Female","gender-free-response":"","ethnicity":"Not Hispanic or Latino","race":["Black or African American"],"education":"Some college"},"trial_type":"survey-demo","trial_index":1,"time_elapsed":193719,"internal_node_id":"0.0-1.0","task_version":"prescreen-v0.3"},{"responses":{"Q10":"1","Q09":"1","Q02":"1","Q06":"1","Q15":"1","Q05":"1","Q04":"1","Q18":"1","Q21":"3","Q12":"1","Q03":"1","Q19":"1","Q07":"1","Q11":"1","Q20":"2","Q14":"1","Q17":"1","Q13":"1","Q16":"1","Q01":"2","Q08":"2"},"rt":156344,"item_order":[9,8,1,5,14,4,3,17,20,11,2,18,6,10,19,13,16,12,15,0,7],"radio_events":[9103,27308,32964,35677,46921,47419,56281,64044,65042,70187,71953,75573,79226,94285,97277,100567,110730,129729,137854,142800,154158],"key_events":[],"mouse_events":[8379,9103,27308,32964,34598,35677,46921,47419,56281,60359,60861,61438,64044,65042,69548,70187,71310,71953,73195,73836,74970,75573,79226,94285,97277,100567,109267,110730,129729,137854,141835,142317,142800,144123,152390,153102,153591,154158,156344],"straightlining":0.8095238095238095,"zigzagging":0.15,"honeypot":0,"survey":"sns","trial_type":"survey-template","trial_index":2,"time_elapsed":350076,"internal_node_id":"0.0-2.0","task_version":"prescreen-v0.3","browser_interactions":0,"infrequency":0},{"responses":{"Q11":"2","Q12":"2","Q07":"2","Q10":"2","Q02":"1","Q08":"2","Q03":"2","Q04":"2","Q01":"2","Q13":"2","Q06":"2","Q09":"2","Q05":"2"},"rt":141223,"item_order":[10,11,6,9,1,7,2,3,0,12,5,8,4],"radio_events":[5352,6423,8720,9355,13290,15751,16922,35965,38484,41182,61259,108053,109426],"key_events":[],"mouse_events":[4863,5352,6423,8720,9355,13290,14210,15751,16316,16922,35002,35619,35965,38484,40824,41182,61259,107347,108053,108931,109426,141222],"straightlining":0.9230769230769231,"zigzagging":0.16666666666666666,"honeypot":0,"survey":"bisbas","trial_type":"survey-template","trial_index":3,"time_elapsed":491305,"internal_node_id":"0.0-3.0","task_version":"prescreen-v0.3","browser_interactions":0,"infrequency":1},{"responses":{"Q01":"2","Q02":"2","Q03":"2"},"rt":11248,"radio_events":[4130,5040,5699],"key_events":[],"mouse_events":[3529,4130,5040,5699,11247],"survey":"map","page":1,"trial_type":"survey-map","trial_index":4,"time_elapsed":502560,"internal_node_id":"0.0-4.0","task_version":"prescreen-v0.3","browser_interactions":0},{"responses":{"Q04":"3","Q05":"3","Q06":"3"},"rt":16501,"radio_events":[4389,5857,11634,15395],"key_events":[],"mouse_events":[4389,5857,8912,11634,14442,14874,15395,16501],"survey":"map","page":2,"trial_type":"survey-map","trial_index":5,"time_elapsed":519065,"internal_node_id":"0.0-5.0","task_version":"prescreen-v0.3","browser_interactions":0},{"responses":{"Q07":"3","Q08":"3","Q09":"3"},"rt":30754,"radio_events":[8537,9679,26361],"key_events":[],"mouse_events":[8537,9679,26361,30753],"survey":"map","page":3,"trial_type":"survey-map","trial_index":6,"time_elapsed":549826,"internal_node_id":"0.0-6.0","task_version":"prescreen-v0.3","browser_interactions":0},{"responses":{"Q10":"1","Q11":"2","Q12":"2","Q13":"2","Q16":"0","Q14":"3","Q15":"3"},"rt":37114,"radio_events":[3535,9156,10599,12505,13547,14886,26334,31628,35761],"key_events":[],"mouse_events":[3535,6364,9156,10599,12505,13547,14886,24916,25445,25740,26334,31628,35761,37114],"survey":"map","page":4,"trial_type":"survey-map","trial_index":7,"time_elapsed":586952,"internal_node_id":"0.0-7.0","task_version":"prescreen-v0.3","browser_interactions":0,"infrequency":0},{"view_history":[{"page_index":0,"viewing_time":1649},{"page_index":1,"viewing_time":3512}],"rt":5161,"trial_type":"instructions","trial_index":8,"time_elapsed":592115,"internal_node_id":"0.0-8.0","task_version":"prescreen-v0.3"},{"responses":{"01":"No","02":"No","03":"No","04":"No","05":"No","06":"No"},"rt":101764,"item_order":[0,1,2,3,4,5],"radio_events":[13311,74633,80598,84139,86936,88577],"checkbox_events":[],"key_events":[],"mouse_events":[0,12716,13311,74633,80598,84139,86936,88577,101763],"honeypot":0,"survey":"mace","page":1,"trial_type":"survey-mace","trial_index":9,"time_elapsed":693894,"internal_node_id":"0.0-9.0","task_version":"prescreen-v0.3","browser_interactions":0},{"responses":{"01":"No","02":"No","03":"No","04":"No","05":"No","06":"No","07":"No","08":"No"},"rt":94808,"item_order":[0,1,2,3,4,5,6,7],"radio_events":[73116,75507,77069,78159,81758,83042,85409,86806,90096],"checkbox_events":[],"key_events":[],"mouse_events":[73116,74499,75507,77069,78159,81758,83042,85409,86806,90096,94807],"honeypot":0,"survey":"mace","page":2,"trial_type":"survey-mace","trial_index":10,"time_elapsed":788751,"internal_node_id":"0.0-10.0","task_version":"prescreen-v0.3","browser_interactions":0},{"responses":{"01":"No","02":"No","03":"No","04":"No"},"rt":162630,"item_order":[0,1,2,3],"radio_events":[57683,59538,147688,149962],"checkbox_events":[],"key_events":[],"mouse_events":[57683,58675,59538,147688,149052,149962,162630],"honeypot":0,"survey":"mace","page":3,"trial_type":"survey-mace","trial_index":11,"time_elapsed":951394,"internal_node_id":"0.0-11.0","task_version":"prescreen-v0.3","browser_interactions":0},{"responses":{"01":"No","02":"No"},"rt":13100,"item_order":[0,1],"radio_events":[7491,12122],"checkbox_events":[],"key_events":[],"mouse_events":[6253,6761,7129,7491,8305,12122,13098],"honeypot":0,"survey":"mace","page":4,"trial_type":"survey-mace","trial_index":12,"time_elapsed":964504,"internal_node_id":"0.0-12.0","task_version":"prescreen-v0.3","browser_interactions":0},{"responses":{"01":"No","02":"No","03":"No","04":"No","05":"No"},"rt":40345,"item_order":[0,1,2,3,4],"radio_events":[24828,26250,31316,37867,39453],"checkbox_events":[],"key_events":[],"mouse_events":[22894,23794,24828,26250,31316,37867,39453,40345],"honeypot":0,"survey":"mace","page":5,"trial_type":"survey-mace","trial_index":13,"time_elapsed":1004874,"internal_node_id":"0.0-13.0","task_version":"prescreen-v0.3","browser_interactions":0},{"responses":{"01":"No","02":"No","03":"No","04":"No","05":"No"},"rt":14610,"item_order":[0,1,2,3,4],"radio_events":[5959,7089,8032,9163,10733],"checkbox_events":[],"key_events":[],"mouse_events":[4857,5959,7089,8032,9163,10733,14610],"honeypot":0,"survey":"mace","page":6,"trial_type":"survey-mace","trial_index":14,"time_elapsed":1019489,"internal_node_id":"0.0-14.0","task_version":"prescreen-v0.3","browser_interactions":0},{"responses":{"01":"No","02":"No","03":"No","04":"No","05":"No","06":"No","07":"No"},"rt":25028,"item_order":[0,1,2,3,4,5,6],"radio_events":[1639,2777,3599,5479,7483,8358,9195],"checkbox_events":[],"key_events":[],"mouse_events":[1639,2777,3599,5479,7483,8358,9195,25028],"honeypot":0,"survey":"mace","page":7,"trial_type":"survey-mace","trial_index":15,"time_elapsed":1044528,"internal_node_id":"0.0-15.0","task_version":"prescreen-v0.3","browser_interactions":0},{"responses":{"01":"Yes","01_ages_6":"6","02":"Yes","02_ages_6":"6","02_ages_7":"7","02_ages_10":"10","03":"No","04":"No"},"rt":61089,"item_order":[0,1,2,3],"radio_events":[4729,22917,38144,58878,59993],"checkbox_events":[41724,44681,45840,51502],"key_events":[],"mouse_events":[4729,22438,22917,38144,41724,44681,45840,51502,58304,58878,59993,61088],"honeypot":0,"survey":"mace","page":8,"trial_type":"survey-mace","trial_index":16,"time_elapsed":1105628,"internal_node_id":"0.0-16.0","task_version":"prescreen-v0.3","browser_interactions":0},{"responses":{"01":"No","02":"No","03":"No","04":"No"},"rt":143982,"item_order":[0,1,2,3],"radio_events":[9182,10594,11731,12888],"checkbox_events":[],"key_events":[],"mouse_events":[9182,10594,11731,12888,143982],"honeypot":0,"survey":"mace","page":9,"trial_type":"survey-mace","trial_index":17,"time_elapsed":1249625,"internal_node_id":"0.0-17.0","task_version":"prescreen-v0.3","browser_interactions":2},{"responses":{"01":"Yes","01_ages_4":"4","01_ages_5":"5","01_ages_6":"6","01_ages_7":"7","01_ages_8":"8","01_ages_9":"9","01_ages_10":"10","01_ages_11":"11","01_ages_12":"12","01_ages_13":"13","01_ages_14":"14","01_ages_15":"15","01_ages_16":"16","01_ages_17":"17","01_ages_18":"18","02":"Yes","02_ages_14":"14","03":"Yes","03_ages_16":"16","03_ages_17":"17","03_ages_18":"18","04":"Yes","04_ages_11":"11","04_ages_12":"12","04_ages_13":"13","04_ages_14":"14","04_ages_15":"15","04_ages_16":"16","04_ages_17":"17","04_ages_18":"18","05":"No","06":"Yes","06_ages_17":"17","07":"No","08":"No"},"rt":68073,"item_order":[0,1,2,3,4,5,6,7],"radio_events":[3993,22923,29693,41132,53216,55903,64206,67243],"checkbox_events":[6036,7002,7952,8870,9624,10389,10863,11684,12859,13728,14278,14958,15615,16140,16826,25237,31083,32505,33375,42760,43360,43894,44543,46022,46882,47597,48301,57485],"key_events":[],"mouse_events":[3993,5737,6036,7002,7952,8514,8870,9624,10389,10863,11684,12859,13728,14278,14958,15615,16140,16826,22923,25237,29693,31083,32505,33375,40534,41132,42760,43360,43894,44543,46022,46882,47597,48301,53216,55903,57485,64206,67243,68073],"honeypot":0,"survey":"mace","page":10,"trial_type":"survey-mace","trial_index":18,"time_elapsed":1317733,"internal_node_id":"0.0-18.0","task_version":"prescreen-v0.3","browser_interactions":0,"instructed":0},{"rt":4336,"trial_type":"mental-health-alert","trial_index":19,"time_elapsed":1322072,"internal_node_id":"0.0-19.0","task_version":"prescreen-v0.3","interactions":"[{\"event\":\"blur\",\"trial\":0,\"time\":33524},{\"event\":\"focus\",\"trial\":0,\"time\":114176},{\"event\":\"blur\",\"trial\":17,\"time\":1124227},{\"event\":\"focus\",\"trial\":17,\"time\":1247539}]"}]