[{"view_history":[{"page_index":0,"viewing_time":6246},{"page_index":1,"viewing_time":6299},{"page_index":2,"viewing_time":4509.000000000004},{"page_index":3,"viewing_time":1477.9999999999964}],"rt":18532,"trial_type":"instructions","trial_index":0,"time_elapsed":18541,"internal_node_id":"0.0-0.0","task_version":"prescreen-v0.3"},{"rt":14636,"responses":{"age":"26","gender-categorical":"Female","gender-free-response":"","ethnicity":"Not Hispanic or Latino","race":["White"],"education":"Master degree or higher"},"trial_type":"survey-demo","trial_index":1,"time_elapsed":33184,"internal_node_id":"0.0-1.0","task_version":"prescreen-v0.3"},{"responses":{"Q14":"1","Q15":"2","Q03":"0","Q19":"2","Q07":"3","Q05":"0","Q06":"1","Q02":"1","Q21":"3","Q13":"1","Q16":"2","Q12":"1","Q20":"0","Q11":"1","Q01":"1","Q18":"1","Q09":"2","Q04":"1","Q08":"1","Q17":"1","Q10":"0"},"rt":116756,"item_order":[13,14,2,18,6,4,5,1,20,12,15,11,19,10,0,17,8,3,7,16,9],"radio_events":[16000.000000000007,22507,26538,33777,41542,47725,53672,60780,65598,71983.00000000001,76923,81546,84579,86414,91825,95296.00000000001,100585,106497,109854,113287,115833.00000000003],"key_events":[],"mouse_events":[16000.000000000007,22507,26538,33777,41542,47725,53672,60780,65598,71983.00000000001,76923,81546,84579,86414,90924,91825,95296.00000000001,100585,106497,109854,113287,115833.00000000003,116743],"straightlining":0.5238095238095238,"zigzagging":0.55,"honeypot":0,"survey":"sns","trial_type":"survey-template","trial_index":2,"time_elapsed":149951,"internal_node_id":"0.0-2.0","task_version":"prescreen-v0.3","browser_interactions":0,"infrequency":0},{"responses":{"Q01":"2","Q08":"3","Q06":"3","Q04":"2","Q13":"0","Q03":"2","Q05":"2","Q09":"2","Q12":"2","Q07":"2","Q10":"2","Q11":"1","Q02":"1"},"rt":70189,"item_order":[0,7,5,3,12,2,4,8,11,6,9,10,1],"radio_events":[13666,21783.00000000003,25395,29665,32444.00000000003,43534,47316,52379,56011,57098,61568,65379,68996],"key_events":[],"mouse_events":[13666,21783.00000000003,25395,29665,32444.00000000003,43534,47316,52379,56011,57098,61568,65379,68996,70182.00000000003],"straightlining":0.6153846153846154,"zigzagging":0.25,"honeypot":0,"survey":"bisbas","trial_type":"survey-template","trial_index":3,"time_elapsed":220148,"internal_node_id":"0.0-3.0","task_version":"prescreen-v0.3","browser_interactions":0,"infrequency":0},{"responses":{"Q01":"3","Q02":"2","Q03":"3"},"rt":23815,"radio_events":[8203,12407,21454,23037],"key_events":[],"mouse_events":[8203,12407,21454,23037,23812],"survey":"map","page":1,"trial_type":"survey-map","trial_index":4,"time_elapsed":243970,"internal_node_id":"0.0-4.0","task_version":"prescreen-v0.3","browser_interactions":0},{"responses":{"Q04":"2","Q05":"2","Q06":"3"},"rt":17525.99999999997,"radio_events":[8544.99999999997,13899,16798],"key_events":[],"mouse_events":[8544.99999999997,13899,16798,17523.99999999997],"survey":"map","page":2,"trial_type":"survey-map","trial_index":5,"time_elapsed":261501,"internal_node_id":"0.0-5.0","task_version":"prescreen-v0.3","browser_interactions":0},{"responses":{"Q07":"3","Q08":"3","Q09":"2"},"rt":34804,"radio_events":[27373,31469,33908],"key_events":[],"mouse_events":[27373,31469,33908,34802],"survey":"map","page":3,"trial_type":"survey-map","trial_index":6,"time_elapsed":296311,"internal_node_id":"0.0-6.0","task_version":"prescreen-v0.3","browser_interactions":2},{"responses":{"Q10":"1","Q11":"1","Q12":"2","Q13":"2","Q16":"0","Q14":"1","Q15":"1"},"rt":33279,"radio_events":[4990,7020,13227,16504,19260,28643,32098],"key_events":[],"mouse_events":[4990,7020,13227,16504,19260,28643,32098,33275],"survey":"map","page":4,"trial_type":"survey-map","trial_index":7,"time_elapsed":329596,"internal_node_id":"0.0-7.0","task_version":"prescreen-v0.3","browser_interactions":0,"infrequency":0},{"view_history":[{"page_index":0,"viewing_time":1315},{"page_index":1,"viewing_time":17302}],"rt":18617,"trial_type":"instructions","trial_index":8,"time_elapsed":348217,"internal_node_id":"0.0-8.0","task_version":"prescreen-v0.3"},{"responses":{"01":"Yes","01_ages_10":"10","01_ages_13":"13","01_ages_14":"14","02":"No","03":"No","04":"No","05":"No","06":"No"},"rt":115889,"item_order":[0,1,2,3,4,5],"radio_events":[14240,104201,108533,109818.00000000006,111331,114956],"checkbox_events":[95310,96877,97708],"key_events":[],"mouse_events":[0,14240,95310,96877,97708,104201,108533,109818.00000000006,111331,114956,115881],"honeypot":0,"survey":"mace","page":1,"trial_type":"survey-mace","trial_index":9,"time_elapsed":464117,"internal_node_id":"0.0-9.0","task_version":"prescreen-v0.3","browser_interactions":3},{"responses":{"01":"No","02":"No","03":"Yes","03_ages_5":"5","03_ages_7":"7","03_ages_9":"9","04":"No","05":"Yes","05_ages_5":"5","05_ages_7":"7","05_ages_9":"9","06":"No","07":"No","08":"No"},"rt":31016,"item_order":[0,1,2,3,4,5,6,7],"radio_events":[2912,4843,7774,18896,21656,27495,28932,30247],"checkbox_events":[11449,14556,15976,23633,24664.00000000006,25403],"key_events":[],"mouse_events":[2912,4843,7774,11449,14556,15976,18896,21656,23633,24664.00000000006,25403,27495,28932,30247,31007],"honeypot":0,"survey":"mace","page":2,"trial_type":"survey-mace","trial_index":10,"time_elapsed":495141,"internal_node_id":"0.0-10.0","task_version":"prescreen-v0.3","browser_interactions":0},{"responses":{"01":"No","02":"No","03":"No","04":"No"},"rt":9998,"item_order":[0,1,2,3],"radio_events":[3401,6954,8273.000000000058,9353],"checkbox_events":[],"key_events":[],"mouse_events":[3401,6954,8273.000000000058,9353,9993],"honeypot":0,"survey":"mace","page":3,"trial_type":"survey-mace","trial_index":11,"time_elapsed":505146,"internal_node_id":"0.0-11.0","task_version":"prescreen-v0.3","browser_interactions":0},{"responses":{"01":"No","02":"No"},"rt":11341.999999999942,"item_order":[0,1],"radio_events":[1824.9999999999418,10783],"checkbox_events":[],"key_events":[],"mouse_events":[1824.9999999999418,10783,11338.999999999942],"honeypot":0,"survey":"mace","page":4,"trial_type":"survey-mace","trial_index":12,"time_elapsed":516493,"internal_node_id":"0.0-12.0","task_version":"prescreen-v0.3","browser_interactions":0},{"responses":{"01":"No","02":"No","03":"No","04":"No","05":"No"},"rt":13825.999999999942,"item_order":[0,1,2,3,4],"radio_events":[2650.999999999942,5222.999999999942,7224.999999999942,9895.999999999942,13018.999999999942],"checkbox_events":[],"key_events":[],"mouse_events":[2650.999999999942,5222.999999999942,7224.999999999942,9895.999999999942,13018.999999999942,13820.999999999942],"honeypot":0,"survey":"mace","page":5,"trial_type":"survey-mace","trial_index":13,"time_elapsed":530329,"internal_node_id":"0.0-13.0","task_version":"prescreen-v0.3","browser_interactions":0},{"responses":{"01":"No","02":"No","03":"No","04":"Yes","04_ages_16":"16","04_ages_17":"17","04_ages_18":"18","05":"No"},"rt":28553.999999999884,"item_order":[0,1,2,3,4],"radio_events":[8661.999999999884,12221.999999999884,17349.999999999884,20133.999999999884,27814.999999999884],"checkbox_events":[21878.999999999884,23233.999999999884,23946.999999999884],"key_events":[],"mouse_events":[8661.999999999884,12221.999999999884,17349.999999999884,20133.999999999884,21878.999999999884,23233.999999999884,23946.999999999884,27814.999999999884,28545.999999999884],"honeypot":0,"survey":"mace","page":6,"trial_type":"survey-mace","trial_index":14,"time_elapsed":558892,"internal_node_id":"0.0-14.0","task_version":"prescreen-v0.3","browser_interactions":0},{"responses":{"01":"No","02":"No","03":"No","04":"No","05":"No","06":"No","07":"No"},"rt":13637,"item_order":[0,1,2,3,4,5,6],"radio_events":[2977,4617.000000000116,6342,7909,10260,11940,12980],"checkbox_events":[],"key_events":[],"mouse_events":[2977,4617.000000000116,6342,7909,10260,11940,12980,13629],"honeypot":0,"survey":"mace","page":7,"trial_type":"survey-mace","trial_index":15,"time_elapsed":572537,"internal_node_id":"0.0-15.0","task_version":"prescreen-v0.3","browser_interactions":0},{"responses":{"01":"No","02":"No","03":"No","04":"No"},"rt":22052,"item_order":[0,1,2,3],"radio_events":[13544,14769,18464,21447],"checkbox_events":[],"key_events":[],"mouse_events":[13544,14769,18464,21447,22049],"honeypot":0,"survey":"mace","page":8,"trial_type":"survey-mace","trial_index":16,"time_elapsed":594597,"internal_node_id":"0.0-16.0","task_version":"prescreen-v0.3","browser_interactions":0},{"responses":{"01":"Yes","01_ages_1":"1","01_ages_2":"2","01_ages_3":"3","01_ages_4":"4","01_ages_5":"5","01_ages_6":"6","01_ages_7":"7","01_ages_8":"8","01_ages_9":"9","01_ages_10":"10","01_ages_11":"11","01_ages_12":"12","01_ages_13":"13","01_ages_14":"14","01_ages_15":"15","01_ages_16":"16","01_ages_17":"17","01_ages_18":"18","02":"Yes","02_ages_1":"1","02_ages_2":"2","02_ages_3":"3","02_ages_4":"4","02_ages_5":"5","02_ages_6":"6","02_ages_7":"7","02_ages_8":"8","02_ages_9":"9","02_ages_10":"10","02_ages_11":"11","02_ages_12":"12","02_ages_13":"13","02_ages_14":"14","02_ages_15":"15","02_ages_16":"16","02_ages_17":"17","02_ages_18":"18","03":"Yes","03_ages_1":"1","03_ages_2":"2","03_ages_3":"3","03_ages_4":"4","03_ages_5":"5","03_ages_6":"6","03_ages_7":"7","03_ages_8":"8","03_ages_9":"9","03_ages_10":"10","03_ages_11":"11","03_ages_12":"12","03_ages_13":"13","03_ages_14":"14","03_ages_15":"15","03_ages_16":"16","03_ages_17":"17","03_ages_18":"18","04":"Yes","04_ages_1":"1","04_ages_2":"2","04_ages_3":"3","04_ages_4":"4","04_ages_5":"5","04_ages_6":"6","04_ages_7":"7","04_ages_8":"8","04_ages_9":"9","04_ages_10":"10","04_ages_11":"11","04_ages_12":"12","04_ages_13":"13","04_ages_14":"14","04_ages_15":"15","04_ages_16":"16","04_ages_17":"17","04_ages_18":"18"},"rt":73337,"item_order":[0,1,2,3],"radio_events":[4158.000000000116,22427,42858,46257],"checkbox_events":[6817.000000000116,7847,8773,9537,10401,11140,12586.000000000116,13146,13787,14786,15667,16390,16983,17560,18656,19475,20153,20819,26174,26734,27417,28597,29134.000000000116,29766,30425,31147,32276,32857,33708,34390,35470,36209,37196,37813,38478,39081.00000000012,47442.00000000012,47969,48611,49354,50304,52051,52699,53484,54132,54791,55579,56212,56828,57637,58294,58871,59497,60097,61750,62326,62918.00000000012,63682.00000000012,64284,64926,65643,66196,66821,67389.00000000012,68023,68656,69428,70154,70796,71478,72143,72737],"key_events":[],"mouse_events":[4158.000000000116,6817.000000000116,7847,8773,9537,10401,11140,12002,12586.000000000116,13146,13787,14786,15667,16390,16983,17560,18152,18656,19475,20153,20819,22427,26174,26734,27417,28033.000000000116,28597,29134.000000000116,29766,30425,31147,32276,32857,33708,34390,34991,35470,36209,37196,37813,38478,39081.00000000012,42858,46257,47442.00000000012,47969,48611,49354,50304,52051,52699,53484,54132,54791,55579,56212,56828,57637,58294,58871,59497,60097,61750,62326,62918.00000000012,63682.00000000012,64284,64926,65643,66196,66821,67389.00000000012,68023,68656,69428,70154,70796,71478,72143,72737,73329],"honeypot":0,"survey":"mace","page":9,"trial_type":"survey-mace","trial_index":17,"time_elapsed":667956,"internal_node_id":"0.0-17.0","task_version":"prescreen-v0.3","browser_interactions":0},{"responses":{"01":"No","02":"No","03":"No","04":"No","05":"Yes","05_ages_16":"16","05_ages_17":"17","06":"Yes","06_ages_17":"17","07":"Yes","07_ages_1":"1","07_ages_2":"2","07_ages_3":"3","07_ages_4":"4","07_ages_5":"5","07_ages_6":"6","07_ages_7":"7","07_ages_8":"8","07_ages_9":"9","07_ages_10":"10","07_ages_11":"11","07_ages_12":"12","07_ages_13":"13","07_ages_14":"14","07_ages_15":"15","07_ages_16":"16","07_ages_17":"17","07_ages_18":"18","08":"Yes","08_ages_1":"1","08_ages_2":"2","08_ages_3":"3","08_ages_4":"4","08_ages_5":"5","08_ages_6":"6","08_ages_7":"7","08_ages_8":"8","08_ages_9":"9","08_ages_10":"10","08_ages_11":"11","08_ages_12":"12","08_ages_13":"13","08_ages_14":"14","08_ages_15":"15","08_ages_16":"16","08_ages_17":"17","08_ages_18":"18"},"rt":59413,"item_order":[0,1,2,3,4,5,6,7],"radio_events":[2903,4171,5912,8008,10415,13005,20500,27243,44425],"checkbox_events":[15437,16193.000000000116,22100,28623,29225,30053,30873,31762,32509,33361.00000000012,34060,34766,35720,36298,36874,37499,37791,38709,39334,40199,40832,41473,42123,46707,47211,47925,48677,49252,49846,50519,51187,51940,52887,54040,54632,55274,55934,56553,57316,57973,58664.00000000012],"key_events":[],"mouse_events":[2903,4171,5912,8008,10415,13005,15437,16193.000000000116,20500,22100,27243,28623,29225,30053,30873,31762,32509,33361.00000000012,34060,34766,35720,36298,36874,37499,37791,38709,39334,40199,40832,41473,42123,44425,46269,46707,47211,47925,48677,49252,49846,50519,51187,51940,52887,54040,54632,55274,55934,56553,57316,57973,58664.00000000012,59403],"honeypot":0,"survey":"mace","page":10,"trial_type":"survey-mace","trial_index":18,"time_elapsed":727379,"internal_node_id":"0.0-18.0","task_version":"prescreen-v0.3","browser_interactions":0,"instructed":0},{"rt":3438,"trial_type":"mental-health-alert","trial_index":19,"time_elapsed":730825,"internal_node_id":"0.0-19.0","task_version":"prescreen-v0.3","interactions":"[{\"event\":\"blur\",\"trial\":6,\"time\":264936},{\"event\":\"focus\",\"trial\":6,\"time\":267392},{\"event\":\"blur\",\"trial\":8,\"time\":336678},{\"event\":\"focus\",\"trial\":8,\"time\":343864},{\"event\":\"focus\",\"trial\":8,\"time\":343865},{\"event\":\"blur\",\"trial\":9,\"time\":368710},{\"event\":\"focus\",\"trial\":9,\"time\":434681},{\"event\":\"focus\",\"trial\":9,\"time\":434687}]"}]