[{"view_history":[{"page_index":0,"viewing_time":6727.699999988079},{"page_index":1,"viewing_time":3416.800000011921},{"page_index":2,"viewing_time":3684.199999988079},{"page_index":3,"viewing_time":1200.9000000059605}],"rt":15030.09999999404,"trial_type":"instructions","trial_index":0,"time_elapsed":15039,"internal_node_id":"0.0-0.0","task_version":"prescreen-v0.3"},{"rt":18502.40000000596,"responses":{"age":"33","gender-categorical":"Male","gender-free-response":"","ethnicity":"Not Hispanic or Latino","race":["White"],"education":"Some college"},"trial_type":"survey-demo","trial_index":1,"time_elapsed":33544,"internal_node_id":"0.0-1.0","task_version":"prescreen-v0.3"},{"responses":{"Q09":"2","Q11":"2","Q12":"1","Q19":"2","Q03":"3","Q02":"1","Q21":"3","Q15":"2","Q10":"1","Q07":"1","Q14":"2","Q04":"3","Q16":"1","Q20":"0","Q13":"1","Q18":"1","Q08":"2","Q17":"2","Q01":"2","Q06":"1","Q05":"1"},"rt":92636,"item_order":[8,10,11,18,2,1,20,14,9,6,13,3,15,19,12,17,7,16,0,5,4],"radio_events":[9727.899999976158,12504.899999976158,16754.79999998212,22052.69999998808,24005.79999998212,27035.79999998212,30511.69999998808,37935.79999998212,41935.79999998212,48305.69999998808,54351.69999998808,56813.79999998212,60892.59999999404,62180.69999998808,65273.59999999404,70222.59999999404,77384.59999999404,79993.59999999404,81662.59999999404,84930.59999999404,92094.59999999404],"key_events":[],"mouse_events":[2022.699999988079,2215.7999999821186,8238.59999999404,8444.899999976158,9727.899999976158,12504.899999976158,14851.59999999404,15091.799999982119,15984.5,16190.799999982119,16754.79999998212,18750.5,18957.79999998212,22052.69999998808,23712.69999998808,24005.79999998212,25753.399999976158,25957.79999998212,27035.79999998212,28812.5,29013.69999998808,30165.79999998212,30511.69999998808,34981.69999998808,35698.79999998212,36984.59999999404,37202.79999998212,37935.79999998212,39854.5,40071.79999998212,41935.79999998212,45683.5,45970.89999997616,47528.69999998808,48305.69999998808,51482.69999998808,51699.69999998808,53942.59999999404,54351.69999998808,55784.89999997616,56813.79999998212,59346.5,59565.79999998212,60421.79999998212,60892.59999999404,62180.69999998808,64407.69999998808,64589.69999998808,65273.59999999404,67652.5,69469.69999998808,70222.59999999404,72368.5,72699.79999998212,77117.69999998808,77384.59999999404,78794.89999997616,79010.79999998212,79649.59999999404,79993.59999999404,81662.59999999404,83686.5,83877.69999998808,84930.59999999404,87606.5,87801.79999998212,92094.59999999404,92634.69999998808],"straightlining":0.42857142857142855,"zigzagging":0.55,"honeypot":0,"survey":"sns","trial_type":"survey-template","trial_index":2,"time_elapsed":126184,"internal_node_id":"0.0-2.0","task_version":"prescreen-v0.3","browser_interactions":0,"infrequency":0},{"responses":{"Q11":"2","Q09":"1","Q06":"3","Q04":"2","Q03":"2","Q13":"0","Q02":"2","Q07":"3","Q05":"3","Q08":"2","Q12":"1","Q01":"2","Q10":"2"},"rt":45432.09999999404,"item_order":[10,8,5,3,2,12,1,6,4,7,11,0,9],"radio_events":[6537.300000011921,11584.200000017881,15908.200000017881,19136.20000001788,21866.30000001192,24227.30000001192,27818.09999999404,30204.30000001192,32702.30000001192,33448.5,37353.30000001192,39867.20000001788,41560.20000001788,44820.30000001192],"key_events":[],"mouse_events":[3894.2000000178814,4159.4000000059605,6537.300000011921,11584.200000017881,15253.300000011921,15908.200000017881,17994.09999999404,18197.40000000596,19136.20000001788,20918.20000001788,21116.40000000596,21866.30000001192,24227.30000001192,26891.40000000596,27079.5,27818.09999999404,30204.30000001192,31395.20000001788,31599.30000001192,32273.40000000596,32702.30000001192,33448.5,35127.20000001788,35332.30000001192,37353.30000001192,38930.20000001788,39084.30000001192,39867.20000001788,40944.5,41560.20000001788,42192.30000001192,43164.5,43481.30000001192,44406.40000000596,44820.30000001192,45431.20000001788],"straightlining":0.5384615384615384,"zigzagging":0.5,"honeypot":0,"survey":"bisbas","trial_type":"survey-template","trial_index":3,"time_elapsed":171618,"internal_node_id":"0.0-3.0","task_version":"prescreen-v0.3","browser_interactions":0,"infrequency":0},{"responses":{"Q01":"2","Q02":"1","Q03":"2"},"rt":27221.79999998212,"radio_events":[8674.40000000596,13756.40000000596,18022.40000000596,24387.5,26156.5],"key_events":[],"mouse_events":[2414.4000000059605,2580.5,4843.4000000059605,5030.4000000059605,6025.299999982119,6390.4000000059605,7595.5,7843.4000000059605,8674.40000000596,13450.299999982119,13756.40000000596,18022.40000000596,20737.29999998212,21847.5,22986.69999998808,23176.59999999404,23788.79999998212,24387.5,25236.29999998212,25912.29999998212,26156.5,27221.40000000596],"survey":"map","page":1,"trial_type":"survey-map","trial_index":4,"time_elapsed":198843,"internal_node_id":"0.0-4.0","task_version":"prescreen-v0.3","browser_interactions":0},{"responses":{"Q04":"3","Q05":"4","Q06":"3"},"rt":68867.40000000596,"radio_events":[5195.200000017881,15092.40000000596,18408.100000023842],"key_events":[],"mouse_events":[2531,2714,3452.600000023842,3642.300000011921,5195.200000017881,15092.40000000596,16489,16642.40000000596,18408.100000023842,67237.90000000596,67411,68867],"survey":"map","page":2,"trial_type":"survey-map","trial_index":5,"time_elapsed":267711,"internal_node_id":"0.0-5.0","task_version":"prescreen-v0.3","browser_interactions":2},{"responses":{"Q07":"2","Q08":"0","Q09":"2"},"rt":17385.59999999404,"radio_events":[4482.199999988079,9003.300000011921,16586.09999999404],"key_events":[],"mouse_events":[2063.0999999940395,2272.199999988079,3113,3377.4000000059605,4482.199999988079,6920.199999988079,7106.199999988079,9003.300000011921,11117.09999999404,11303.199999988079,12545.199999988079,12752.40000000596,14297,14502.5,15570.09999999404,15767.199999988079,16586.09999999404,17385.19999998808],"survey":"map","page":3,"trial_type":"survey-map","trial_index":6,"time_elapsed":285098,"internal_node_id":"0.0-6.0","task_version":"prescreen-v0.3","browser_interactions":0},{"responses":{"Q10":"1","Q11":"1","Q12":"2","Q13":"4","Q16":"0","Q14":"4","Q15":"4"},"rt":35863.5,"radio_events":[10630,13730,16870.20000001788,23815.100000023842,26541,32696,35056.90000000596],"key_events":[],"mouse_events":[3181.300000011921,5511.9000000059605,5745.300000011921,7856.100000023842,8076.100000023842,9516.5,9727.100000023842,10307.300000011921,10630,12711.800000011921,12887.90000000596,13730,15429,15628,16870.20000001788,19060.90000000596,19298,21059.30000001192,21318.100000023842,22543.40000000596,22753,23815.100000023842,25616.90000000596,25806.20000001788,26541,28869.80000001192,29078,30211,30412.100000023842,31510.90000000596,32696,34178.80000001192,34354.10000002384,35056.90000000596,35862.80000001192],"survey":"map","page":4,"trial_type":"survey-map","trial_index":7,"time_elapsed":320963,"internal_node_id":"0.0-7.0","task_version":"prescreen-v0.3","browser_interactions":0,"infrequency":0},{"view_history":[{"page_index":0,"viewing_time":2119.0999999940395},{"page_index":1,"viewing_time":3838}],"rt":5957.5999999940395,"trial_type":"instructions","trial_index":8,"time_elapsed":326922,"internal_node_id":"0.0-8.0","task_version":"prescreen-v0.3"},{"responses":{"01":"No","02":"No","03":"No","04":"No","05":"No","06":"No"},"rt":69420.79999998212,"item_order":[0,1,2,3,4,5],"radio_events":[54087,57202,60208.89999997616,61966.89999997616,63667.89999997616,66472.79999998212],"checkbox_events":[],"key_events":[],"mouse_events":[0.09999999403953552,43052.79999998212,45185.89999997616,45368.89999997616,46784.59999999404,46992,48250.69999998808,48439,50993,51188.79999998212,52396.69999998808,52592.09999999404,54087,55537.79999998212,56075.09999999404,57202,58919.69999998808,59094.79999998212,60208.89999997616,61209.09999999404,61966.89999997616,62757.89999997616,63667.89999997616,65079.59999999404,65243.79999998212,66472.79999998212,69419.09999999404],"honeypot":0,"survey":"mace","page":1,"trial_type":"survey-mace","trial_index":9,"time_elapsed":396347,"internal_node_id":"0.0-9.0","task_version":"prescreen-v0.3","browser_interactions":2},{"responses":{"01":"No","02":"No","03":"Yes","03_ages_5":"5","03_ages_6":"6","04":"Yes","04_ages_5":"5","04_ages_6":"6","05":"Yes","05_ages_5":"5","05_ages_6":"6","06":"No","07":"No","08":"No"},"rt":126518.80000001192,"item_order":[0,1,2,3,4,5,6,7],"radio_events":[104598.40000000596,107457.5,108954.30000001192,117501.5,120608.19999998808,123451.80000001192,124618.40000000596,125877.19999998808],"checkbox_events":[111540.80000001192,113739.90000000596,118495.59999999404,118745.40000000596,121335.5,121555.40000000596],"key_events":[],"mouse_events":[51724.69999998808,104598.40000000596,107457.5,108954.30000001192,111540.80000001192,113739.90000000596,117501.5,118495.59999999404,118745.40000000596,120608.19999998808,121335.5,121555.40000000596,123451.80000001192,124284.5,124618.40000000596,125593.40000000596,125877.19999998808,126516.69999998808],"honeypot":0,"survey":"mace","page":2,"trial_type":"survey-mace","trial_index":10,"time_elapsed":522870,"internal_node_id":"0.0-10.0","task_version":"prescreen-v0.3","browser_interactions":4},{"responses":{"01":"No","02":"No","03":"No","04":"No"},"rt":12695.59999999404,"item_order":[0,1,2,3],"radio_events":[7581.300000011921,10964.300000011921,11377.09999999404,11933.200000017881],"checkbox_events":[],"key_events":[],"mouse_events":[3328.4000000059605,3526.2000000178814,5816.0999999940395,6059.200000017881,7581.300000011921,8721.09999999404,8907.300000011921,9801.300000011921,10964.300000011921,11377.09999999404,11933.200000017881,12694.40000000596],"honeypot":0,"survey":"mace","page":3,"trial_type":"survey-mace","trial_index":11,"time_elapsed":535568,"internal_node_id":"0.0-11.0","task_version":"prescreen-v0.3","browser_interactions":0},{"responses":{"01":"No","02":"No"},"rt":6371.0999999940395,"item_order":[0,1],"radio_events":[4674.5,5858.5999999940395],"checkbox_events":[],"key_events":[],"mouse_events":[1520.5,1726.4000000059605,3269.2999999821186,3446.5,4674.5,5858.5999999940395,6370.5999999940395],"honeypot":0,"survey":"mace","page":4,"trial_type":"survey-mace","trial_index":12,"time_elapsed":541941,"internal_node_id":"0.0-12.0","task_version":"prescreen-v0.3","browser_interactions":0},{"responses":{"01":"No","02":"No","03":"No","04":"No","05":"No"},"rt":18164.80000001192,"item_order":[0,1,2,3,4],"radio_events":[10587.40000000596,13542.200000017881,16523.20000001788,16953,17572.30000001192],"checkbox_events":[],"key_events":[],"mouse_events":[2136.2000000178814,2933.2000000178814,4291,4579,5107.100000023842,9811.200000017881,10587.40000000596,13542.200000017881,14862.200000017881,15264.200000017881,15784.100000023842,16523.20000001788,16953,17572.30000001192,18163.20000001788],"honeypot":0,"survey":"mace","page":5,"trial_type":"survey-mace","trial_index":13,"time_elapsed":560109,"internal_node_id":"0.0-13.0","task_version":"prescreen-v0.3","browser_interactions":0},{"responses":{"01":"Yes","01_ages_6":"6","01_ages_7":"7","01_ages_8":"8","01_ages_9":"9","01_ages_10":"10","01_ages_11":"11","01_ages_12":"12","01_ages_13":"13","01_ages_14":"14","01_ages_15":"15","01_ages_16":"16","01_ages_17":"17","01_ages_18":"18","02":"Yes","02_ages_8":"8","02_ages_9":"9","02_ages_10":"10","02_ages_11":"11","02_ages_12":"12","02_ages_13":"13","02_ages_14":"14","02_ages_15":"15","02_ages_16":"16","02_ages_17":"17","02_ages_18":"18","03":"Yes","03_ages_12":"12","03_ages_13":"13","03_ages_14":"14","03_ages_15":"15","03_ages_16":"16","03_ages_17":"17","03_ages_18":"18","04":"No","05":"No"},"rt":129174.40000000596,"item_order":[0,1,2,3,4],"radio_events":[34079.70000001788,56037.60000002384,120953.70000001788,125897.60000002384,128245.70000001788],"checkbox_events":[42902.90000000596,44871.90000000596,45578.80000001192,46047.60000002384,46389.80000001192,46677.70000001788,47001.60000002384,47496.70000001788,47809,48384.80000001192,49015.70000001788,50336.70000001788,50638.90000000596,58191.70000001788,58552.70000001788,60248.60000002384,61032.60000002384,61371.70000001788,61933.70000001788,62836.70000001788,63153.80000001192,63763.70000001788,64218.90000000596,64596.60000002384,65015.70000001788,65286.70000001788,65928.70000001788,66200.70000001788,66510.90000000596,66757.60000002384,122205.60000002384,122523.5,122948.70000001788,123410.80000001192,123755.60000002384,124013.70000001788,124624.60000002384],"key_events":[],"mouse_events":[31534.5,31701.70000001788,32424.600000023842,32574.70000001788,34079.70000001788,42902.90000000596,44871.90000000596,45578.80000001192,46047.60000002384,46389.80000001192,46677.70000001788,47001.60000002384,47496.70000001788,47809,48076.80000001192,48384.80000001192,49015.70000001788,50336.70000001788,50638.90000000596,52381.40000000596,52573.80000001192,55770.60000002384,56037.60000002384,58191.70000001788,58552.70000001788,59613.80000001192,60248.60000002384,61032.60000002384,61371.70000001788,61933.70000001788,62836.70000001788,63153.80000001192,63763.70000001788,64218.90000000596,64596.60000002384,65015.70000001788,65286.70000001788,65576.60000002384,65928.70000001788,66200.70000001788,66510.90000000596,66757.60000002384,120953.70000001788,122205.60000002384,122523.5,122948.70000001788,123410.80000001192,123755.60000002384,124013.70000001788,124278.60000002384,124624.60000002384,125897.60000002384,127800.20000001788,128245.70000001788,129172.90000000596],"honeypot":0,"survey":"mace","page":6,"trial_type":"survey-mace","trial_index":14,"time_elapsed":689286,"internal_node_id":"0.0-14.0","task_version":"prescreen-v0.3","browser_interactions":4},{"responses":{"01":"No","02":"No","03":"Yes","03_ages_12":"12","03_ages_13":"13","03_ages_14":"14","03_ages_15":"15","03_ages_16":"16","03_ages_17":"17","04":"No","05":"No","06":"No","07":"No"},"rt":40241.69999998808,"item_order":[0,1,2,3,4,5,6],"radio_events":[16928.40000000596,19699.59999999404,22082.69999998808,27629.40000000596,29420.40000000596,31184.09999999404,34257.59999999404],"checkbox_events":[23305.29999998212,23808.40000000596,24302.5,36121.5,37962.40000000596,38424.40000000596],"key_events":[],"mouse_events":[14342.199999988079,14556.299999982119,15841.199999988079,16061.40000000596,16928.40000000596,18420.09999999404,18621.40000000596,19699.59999999404,20758.29999998212,20983.29999998212,22082.69999998808,23305.29999998212,23808.40000000596,24302.5,25820.40000000596,26046.40000000596,27629.40000000596,28421.29999998212,29420.40000000596,31184.09999999404,32236.40000000596,34257.59999999404,36121.5,37459.40000000596,37962.40000000596,38424.40000000596,40239.59999999404],"honeypot":0,"survey":"mace","page":7,"trial_type":"survey-mace","trial_index":15,"time_elapsed":729531,"internal_node_id":"0.0-15.0","task_version":"prescreen-v0.3","browser_interactions":2},{"responses":{"01":"No","02":"No","03":"No","04":"No"},"rt":15585.90000000596,"item_order":[0,1,2,3],"radio_events":[6578.699999988079,10623.799999982119,13264.799999982119,15108.5],"checkbox_events":[],"key_events":[],"mouse_events":[3635.7999999821186,3871.9000000059605,5085.5999999940395,5305.699999988079,6578.699999988079,9280.5,9477.799999982119,10623.799999982119,13264.799999982119,14151.5,14348.699999988079,15108.5,15584.59999999404],"honeypot":0,"survey":"mace","page":8,"trial_type":"survey-mace","trial_index":16,"time_elapsed":745119,"internal_node_id":"0.0-16.0","task_version":"prescreen-v0.3","browser_interactions":0},{"responses":{"01":"Yes","01_ages_1":"1","01_ages_2":"2","01_ages_3":"3","01_ages_4":"4","01_ages_5":"5","01_ages_6":"6","01_ages_7":"7","01_ages_8":"8","01_ages_9":"9","01_ages_10":"10","01_ages_11":"11","01_ages_12":"12","01_ages_13":"13","01_ages_14":"14","01_ages_15":"15","01_ages_16":"16","01_ages_17":"17","01_ages_18":"18","02":"Yes","02_ages_1":"1","02_ages_2":"2","02_ages_3":"3","02_ages_4":"4","02_ages_5":"5","02_ages_6":"6","02_ages_7":"7","02_ages_8":"8","02_ages_9":"9","02_ages_10":"10","02_ages_11":"11","02_ages_12":"12","02_ages_13":"13","02_ages_14":"14","02_ages_15":"15","02_ages_16":"16","02_ages_17":"17","02_ages_18":"18","03":"Yes","03_ages_1":"1","03_ages_2":"2","03_ages_3":"3","03_ages_4":"4","03_ages_5":"5","03_ages_6":"6","03_ages_7":"7","03_ages_8":"8","03_ages_9":"9","03_ages_10":"10","03_ages_11":"11","03_ages_12":"12","03_ages_13":"13","03_ages_14":"14","03_ages_15":"15","03_ages_16":"16","03_ages_17":"17","03_ages_18":"18","04":"Yes","04_ages_1":"1","04_ages_2":"2","04_ages_3":"3","04_ages_4":"4","04_ages_5":"5","04_ages_6":"6","04_ages_7":"7","04_ages_8":"8","04_ages_9":"9","04_ages_10":"10","04_ages_11":"11","04_ages_12":"12","04_ages_13":"13","04_ages_14":"14","04_ages_15":"15","04_ages_16":"16","04_ages_17":"17","04_ages_18":"18"},"rt":50432.09999999404,"item_order":[0,1,2,3],"radio_events":[2898.5999999940395,20386.59999999404,29651.5,42469.30000001192],"checkbox_events":[7366.5999999940395,8220.59999999404,8572.5,10051.699999988079,10422.59999999404,11018.59999999404,11467.699999988079,12201.699999988079,12560.699999988079,12869.800000011921,13123.59999999404,13432.699999988079,14197.699999988079,14494.5,14839.59999999404,15482.5,15826.800000011921,16519.69999998808,21384.59999999404,21678.40000000596,22008.69999998808,22292.5,22606.59999999404,23028.59999999404,23321.80000001192,23634.69999998808,23913.59999999404,24666.59999999404,24966.59999999404,25239.69999998808,25597.59999999404,25866.59999999404,26160.59999999404,26738.59999999404,27265.59999999404,27871.69999998808,30602.59999999404,31418.59999999404,31710.69999998808,32249.59999999404,32732.5,33024.5,33744.69999998808,34294.80000001192,34758.5,35065.59999999404,35405.59999999404,35719.59999999404,36356.59999999404,36677.59999999404,37238.59999999404,37573.59999999404,37912.59999999404,38197.69999998808,43380.5,43725.59999999404,44115.40000000596,44617.59999999404,45027.40000000596,45362.59999999404,45767.59999999404,46153.69999998808,46540.59999999404,47223.5,47542.5,47844.5,48167.59999999404,48599.59999999404,48910.5,49249.5,49591.5,49964.5],"key_events":[],"mouse_events":[1812.699999988079,2008.699999988079,2898.5999999940395,7366.5999999940395,7817.5999999940395,8220.59999999404,8572.5,8982.59999999404,10051.699999988079,10422.59999999404,11018.59999999404,11467.699999988079,11923.300000011921,12201.699999988079,12560.699999988079,12869.800000011921,13123.59999999404,13432.699999988079,13716.699999988079,13922.59999999404,14197.699999988079,14494.5,14839.59999999404,15482.5,15826.800000011921,16191.699999988079,16519.69999998808,18904.40000000596,19102.59999999404,20386.59999999404,21384.59999999404,21678.40000000596,22008.69999998808,22292.5,22606.59999999404,23028.59999999404,23321.80000001192,23634.69999998808,23913.59999999404,24198.59999999404,24666.59999999404,24966.59999999404,25239.69999998808,25597.59999999404,25866.59999999404,26160.59999999404,26439.59999999404,26738.59999999404,27265.59999999404,27871.69999998808,29651.5,30602.59999999404,30896.59999999404,31418.59999999404,31710.69999998808,31993.59999999404,32249.59999999404,32732.5,33024.5,33345.59999999404,33744.69999998808,34041.59999999404,34294.80000001192,34758.5,35065.59999999404,35405.59999999404,35719.59999999404,36014.5,36356.59999999404,36677.59999999404,36945.5,37238.59999999404,37573.59999999404,37912.59999999404,38197.69999998808,40837.5,41042.69999998808,42469.30000001192,43380.5,43725.59999999404,44115.40000000596,44617.59999999404,45027.40000000596,45362.59999999404,45767.59999999404,46153.69999998808,46540.59999999404,46838.5,47223.5,47542.5,47844.5,48167.59999999404,48599.59999999404,48910.5,49249.5,49591.5,49964.5,50430.90000000596],"honeypot":0,"survey":"mace","page":9,"trial_type":"survey-mace","trial_index":17,"time_elapsed":795554,"internal_node_id":"0.0-17.0","task_version":"prescreen-v0.3","browser_interactions":0},{"responses":{"01":"No","02":"No","03":"No","04":"Yes","04_ages_1":"1","04_ages_2":"2","04_ages_3":"3","04_ages_4":"4","04_ages_5":"5","04_ages_6":"6","04_ages_7":"7","04_ages_8":"8","04_ages_9":"9","04_ages_10":"10","04_ages_11":"11","04_ages_12":"12","04_ages_13":"13","04_ages_14":"14","04_ages_15":"15","04_ages_16":"16","04_ages_17":"17","04_ages_18":"18","05":"No","06":"Yes","06_ages_17":"17","07":"Yes","07_ages_1":"1","07_ages_2":"2","07_ages_3":"3","07_ages_4":"4","07_ages_5":"5","07_ages_6":"6","07_ages_7":"7","07_ages_8":"8","07_ages_9":"9","07_ages_10":"10","07_ages_11":"11","07_ages_12":"12","07_ages_13":"13","07_ages_14":"14","07_ages_15":"15","07_ages_16":"16","07_ages_17":"17","07_ages_18":"18","08":"Yes","08_ages_1":"1","08_ages_2":"2","08_ages_3":"3","08_ages_4":"4","08_ages_5":"5","08_ages_6":"6","08_ages_7":"7","08_ages_8":"8","08_ages_9":"9","08_ages_10":"10","08_ages_11":"11","08_ages_12":"12","08_ages_13":"13","08_ages_14":"14","08_ages_15":"15","08_ages_16":"16","08_ages_17":"17","08_ages_18":"18"},"rt":49764.20000001788,"item_order":[0,1,2,3,4,5,6,7],"radio_events":[3356,4757.200000017881,6314.700000017881,8118.100000023842,23893.90000000596,24952.70000001788,29117,40076.70000001788],"checkbox_events":[11227.90000000596,12368.90000000596,13733.800000011921,14169.800000011921,15041,15921.90000000596,16954,17242.70000001788,17585,18397.90000000596,18773.90000000596,19350.80000001192,19612.90000000596,19929.20000001788,20618.90000000596,21348.90000000596,21646.80000001192,22022.90000000596,26216.80000001192,30091.90000000596,30411.90000000596,30741.90000000596,31071.80000001192,31872.90000000596,32197.80000001192,32860.80000001192,33159.70000001788,33721.70000001788,34045.70000001788,34352.80000001192,34705.80000001192,35056.80000001192,35827.80000001192,36680.90000000596,37093.80000001192,37454.70000001788,37769.80000001192,41026.80000001192,41311.70000001788,41677.80000001192,42221.90000000596,42517.70000001788,42870.80000001192,43431.80000001192,43698.90000000596,44068.70000001788,44659.80000001192,45157,45453.90000000596,46326.70000001788,46649.80000001192,47423.70000001788,48155.70000001788,48502.60000002384,48946.80000001192],"key_events":[],"mouse_events":[2356.600000023842,2542.9000000059605,3356,4757.200000017881,6314.700000017881,8118.100000023842,11227.90000000596,11665.800000011921,12368.90000000596,13397.90000000596,13733.800000011921,14169.800000011921,14621.90000000596,15041,15472,15921.90000000596,16954,17242.70000001788,17585,17900.90000000596,18397.90000000596,18773.90000000596,19084.90000000596,19350.80000001192,19612.90000000596,19929.20000001788,20618.90000000596,21025,21348.90000000596,21646.80000001192,22022.90000000596,23893.90000000596,24952.70000001788,25878.80000001192,26216.80000001192,29117,30091.90000000596,30411.90000000596,30741.90000000596,31071.80000001192,31393.80000001192,31872.90000000596,32197.80000001192,32520.100000023842,32860.80000001192,33159.70000001788,33454,33721.70000001788,34045.70000001788,34352.80000001192,34705.80000001192,35056.80000001192,35475.80000001192,35827.80000001192,36090.90000000596,36399.70000001788,36680.90000000596,37093.80000001192,37454.70000001788,37769.80000001192,40076.70000001788,41026.80000001192,41311.70000001788,41677.80000001192,41981.80000001192,42221.90000000596,42517.70000001788,42870.80000001192,43176.90000000596,43431.80000001192,43698.90000000596,44068.70000001788,44392,44659.80000001192,45157,45453.90000000596,45763.80000001192,46326.70000001788,46649.80000001192,46962.80000001192,47423.70000001788,47888.80000001192,48155.70000001788,48502.60000002384,48946.80000001192,49762],"honeypot":0,"survey":"mace","page":10,"trial_type":"survey-mace","trial_index":18,"time_elapsed":845322,"internal_node_id":"0.0-18.0","task_version":"prescreen-v0.3","browser_interactions":0,"instructed":0},{"rt":44700.09999999404,"trial_type":"mental-health-alert","trial_index":19,"time_elapsed":890024,"internal_node_id":"0.0-19.0","task_version":"prescreen-v0.3","interactions":"[{\"event\":\"blur\",\"trial\":0,\"time\":797},{\"event\":\"focus\",\"trial\":0,\"time\":5396},{\"event\":\"blur\",\"trial\":5,\"time\":220087},{\"event\":\"focus\",\"trial\":5,\"time\":265747},{\"event\":\"blur\",\"trial\":9,\"time\":330276},{\"event\":\"focus\",\"trial\":9,\"time\":369893},{\"event\":\"blur\",\"trial\":10,\"time\":398431},{\"event\":\"focus\",\"trial\":10,\"time\":447994},{\"event\":\"blur\",\"trial\":10,\"time\":450470},{\"event\":\"focus\",\"trial\":10,\"time\":500885},{\"event\":\"blur\",\"trial\":14,\"time\":564244},{\"event\":\"focus\",\"trial\":14,\"time\":591323},{\"event\":\"blur\",\"trial\":14,\"time\":628207},{\"event\":\"focus\",\"trial\":14,\"time\":681003},{\"event\":\"blur\",\"trial\":15,\"time\":691010},{\"event\":\"focus\",\"trial\":15,\"time\":703308},{\"event\":\"blur\",\"trial\":19,\"time\":846666},{\"event\":\"focus\",\"trial\":19,\"time\":886579}]"}]