[{"view_history":[{"page_index":0,"viewing_time":4575},{"page_index":1,"viewing_time":1015},{"page_index":2,"viewing_time":1017},{"page_index":3,"viewing_time":1014}],"rt":7621,"trial_type":"instructions","trial_index":0,"time_elapsed":7627,"internal_node_id":"0.0-0.0","task_version":"prescreen-v0.3"},{"rt":33410,"responses":{"age":"38","gender-categorical":"Male","gender-free-response":"","ethnicity":"Not Hispanic or Latino","race":["White"],"education":"Master degree or higher"},"trial_type":"survey-demo","trial_index":1,"time_elapsed":41049,"internal_node_id":"0.0-1.0","task_version":"prescreen-v0.3"},{"responses":{"Q13":"2","Q20":"1","Q21":"2","Q16":"2","Q05":"1","Q14":"3","Q18":"2","Q09":"1","Q03":"2","Q08":"3","Q02":"2","Q15":"1","Q19":"2","Q01":"3","Q11":"2","Q06":"3","Q17":"1","Q10":"2","Q07":"2","Q12":"3","Q04":"2"},"rt":132235,"item_order":[12,19,20,15,4,13,17,8,2,7,1,14,18,0,10,5,16,9,6,11,3],"radio_events":[5422,8349,12506,18298,20754,22689,25078,85464,89058,93870,95283,96722,98990,102051,103439,106341,109260,112534,114297,118501,122465,124120,129667],"key_events":[],"mouse_events":[5422,8349,11688,12506,17676,18298,20754,22689,25078,85464,86855,87380,87815,89058,93870,95283,96722,98990,102051,103439,106341,109260,112534,114297,118501,121175,122465,124120,125252,129667,132235],"straightlining":0.5238095238095238,"zigzagging":0.8,"honeypot":0,"survey":"sns","trial_type":"survey-template","trial_index":2,"time_elapsed":173292,"internal_node_id":"0.0-2.0","task_version":"prescreen-v0.3","browser_interactions":2,"infrequency":0.5},{"responses":{"Q10":"2","Q09":"3","Q03":"2","Q13":"1","Q07":"2","Q06":"3","Q04":"2","Q05":"2","Q02":"3","Q08":"1","Q12":"2","Q01":"1","Q11":"2"},"rt":65446,"item_order":[9,8,2,12,6,5,3,4,1,7,11,0,10],"radio_events":[20199,22103,24109,26997,29056,33246,34844,36530,37794,38574,39872,41280,42164,61706],"key_events":[],"mouse_events":[20199,22103,24109,26997,29056,30651,32632,33246,34844,36530,37794,38574,39872,41280,42164,61706,65446],"straightlining":0.5384615384615384,"zigzagging":0.8333333333333334,"honeypot":0,"survey":"bisbas","trial_type":"survey-template","trial_index":3,"time_elapsed":238745,"internal_node_id":"0.0-3.0","task_version":"prescreen-v0.3","browser_interactions":2,"infrequency":0.5},{"responses":{"Q01":"3","Q02":"2","Q03":"3"},"rt":12599,"radio_events":[4483,5241,6396],"key_events":[],"mouse_events":[2785,4483,5241,6396,12598],"survey":"map","page":1,"trial_type":"survey-map","trial_index":4,"time_elapsed":251349,"internal_node_id":"0.0-4.0","task_version":"prescreen-v0.3","browser_interactions":0},{"responses":{"Q04":"3","Q05":"4","Q06":"3"},"rt":11173,"radio_events":[1304,2209,3357,4220],"key_events":[],"mouse_events":[1304,2209,2934,3357,4220,11173],"survey":"map","page":2,"trial_type":"survey-map","trial_index":5,"time_elapsed":262525,"internal_node_id":"0.0-5.0","task_version":"prescreen-v0.3","browser_interactions":0},{"responses":{"Q07":"3","Q08":"2","Q09":"3"},"rt":12482,"radio_events":[2547,3839,4579],"key_events":[],"mouse_events":[2547,3839,4579,12482],"survey":"map","page":3,"trial_type":"survey-map","trial_index":6,"time_elapsed":275009,"internal_node_id":"0.0-6.0","task_version":"prescreen-v0.3","browser_interactions":0},{"responses":{"Q10":"4","Q11":"3","Q12":"4","Q13":"2","Q16":"3","Q14":"2","Q15":"3"},"rt":27664,"radio_events":[1798,2450,3363,6370,7236,8062,9367],"key_events":[],"mouse_events":[1798,2450,3363,6370,7236,8062,8535,9367,27664],"survey":"map","page":4,"trial_type":"survey-map","trial_index":7,"time_elapsed":302676,"internal_node_id":"0.0-7.0","task_version":"prescreen-v0.3","browser_interactions":2,"infrequency":1},{"view_history":[{"page_index":0,"viewing_time":710127},{"page_index":1,"viewing_time":786}],"rt":710914,"trial_type":"instructions","trial_index":8,"time_elapsed":1013592,"internal_node_id":"0.0-8.0","task_version":"prescreen-v0.3"},{"responses":{"01":"Yes","01_ages_15":"15","02":"Yes","02_ages_18":"18","03":"No","04":"Yes","04_ages_15":"15","05":"Yes","05_ages_10":"10","06":"Yes","06_ages_15":"15"},"rt":15773,"item_order":[0,1,2,3,4,5],"radio_events":[1595,4477,6884,8096,10676,13430],"checkbox_events":[3334,5389,9597,12179,14499],"key_events":[],"mouse_events":[1,1595,2840,3334,4477,5389,6884,8096,9054,9597,10676,12179,13430,14499,15773],"honeypot":0,"survey":"mace","page":1,"trial_type":"survey-mace","trial_index":9,"time_elapsed":1029395,"internal_node_id":"0.0-9.0","task_version":"prescreen-v0.3","browser_interactions":0},{"responses":{"01":"Yes","01_ages_17":"17","02":"Yes","02_ages_15":"15","03":"Yes","03_ages_10":"10","04":"No","05":"Yes","05_ages_13":"13","06":"Yes","06_ages_15":"15","07":"Yes","07_ages_18":"18","08":"No"},"rt":24590,"item_order":[0,1,2,3,4,5,6,7],"radio_events":[1965,6152,9983,13276,14680,17806,19852,23872],"checkbox_events":[4546,8056,10864,15798,19036,21073],"key_events":[],"mouse_events":[1448,1965,4546,6152,8056,9983,10864,13276,14680,15420,15798,17018,17806,18616,19036,19852,21073,23872,24590],"honeypot":0,"survey":"mace","page":2,"trial_type":"survey-mace","trial_index":10,"time_elapsed":1053997,"internal_node_id":"0.0-10.0","task_version":"prescreen-v0.3","browser_interactions":0},{"responses":{"01":"Yes","01_ages_18":"18","02":"Yes","02_ages_14":"14","03":"Yes","03_ages_15":"15","04":"Yes","04_ages_18":"18"},"rt":16589,"item_order":[0,1,2,3],"radio_events":[6730,9136,11680,14478],"checkbox_events":[7831,10442,13356,15848],"key_events":[],"mouse_events":[6730,7831,9136,10034,10442,11680,13356,14478,15848,16589],"honeypot":0,"survey":"mace","page":3,"trial_type":"survey-mace","trial_index":11,"time_elapsed":1070597,"internal_node_id":"0.0-11.0","task_version":"prescreen-v0.3","browser_interactions":2},{"responses":{"01":"Yes","01_ages_18":"18","02":"No"},"rt":6447,"item_order":[0,1],"radio_events":[3456,5540],"checkbox_events":[4368],"key_events":[],"mouse_events":[2139,3456,4368,5540,6447],"honeypot":0,"survey":"mace","page":4,"trial_type":"survey-mace","trial_index":12,"time_elapsed":1077052,"internal_node_id":"0.0-12.0","task_version":"prescreen-v0.3","browser_interactions":0},{"responses":{"01":"Yes","01_ages_15":"15","02":"Yes","02_ages_18":"18","03":"Yes","03_ages_14":"14","04":"Yes","04_ages_9":"9","05":"Yes","05_ages_13":"13"},"rt":28592,"item_order":[0,1,2,3,4],"radio_events":[14802,16824,20183,22946,26196],"checkbox_events":[15824,18657,21792,24245,27278],"key_events":[],"mouse_events":[14802,15824,16824,17752,18657,20183,21792,22946,24245,26196,27278,28592],"honeypot":0,"survey":"mace","page":5,"trial_type":"survey-mace","trial_index":13,"time_elapsed":1105652,"internal_node_id":"0.0-13.0","task_version":"prescreen-v0.3","browser_interactions":2},{"responses":{"01":"Yes","01_ages_15":"15","02":"Yes","02_ages_17":"17","03":"Yes","03_ages_10":"10","04":"Yes","04_ages_14":"14","05":"Yes","05_ages_16":"16"},"rt":13681,"item_order":[0,1,2,3,4],"radio_events":[1728,3654,5788,8634,10979],"checkbox_events":[2932,4542,7693,9957,12481],"key_events":[],"mouse_events":[1728,2932,3654,4542,5788,6518,7693,8634,9534,9957,10979,12481,13681],"honeypot":0,"survey":"mace","page":6,"trial_type":"survey-mace","trial_index":14,"time_elapsed":1119343,"internal_node_id":"0.0-14.0","task_version":"prescreen-v0.3","browser_interactions":0},{"responses":{"01":"Yes","01_ages_13":"13","02":"Yes","02_ages_9":"9","03":"Yes","03_ages_15":"15","04":"Yes","04_ages_10":"10","05":"Yes","05_ages_16":"16","06":"Yes","06_ages_12":"12","07":"Yes","07_ages_15":"15"},"rt":23691,"item_order":[0,1,2,3,4,5,6],"radio_events":[1622,4335,6878,10765,13531,15801,19732],"checkbox_events":[2969,5429,9430,12082,14570,17275,22636],"key_events":[],"mouse_events":[1622,2969,3833,4335,5429,6878,7712,8848,9430,10199,10765,12082,13531,14570,15801,16676,17275,18345,19732,20644,22201,22636,23691],"honeypot":0,"survey":"mace","page":7,"trial_type":"survey-mace","trial_index":15,"time_elapsed":1143050,"internal_node_id":"0.0-15.0","task_version":"prescreen-v0.3","browser_interactions":0},{"responses":{"01":"Yes","01_ages_14":"14","02":"Yes","02_ages_11":"11","03":"Yes","03_ages_16":"16","04":"Yes","04_ages_13":"13"},"rt":10839,"item_order":[0,1,2,3],"radio_events":[1695,4612,6548,8532],"checkbox_events":[3135,5542,7385,9735],"key_events":[],"mouse_events":[1695,2552,3135,4612,5542,6548,7385,8532,9735,10839],"honeypot":0,"survey":"mace","page":8,"trial_type":"survey-mace","trial_index":16,"time_elapsed":1153898,"internal_node_id":"0.0-16.0","task_version":"prescreen-v0.3","browser_interactions":0},{"responses":{"01":"Yes","01_ages_12":"12","02":"Yes","02_ages_16":"16","03":"Yes","03_ages_12":"12","04":"Yes","04_ages_14":"14"},"rt":12431,"item_order":[0,1,2,3],"radio_events":[3143,5001,8220,10061],"checkbox_events":[4167,6742,8948,11164],"key_events":[],"mouse_events":[2611,3143,4167,5001,6142,6742,8220,8948,10061,11164,12431],"honeypot":0,"survey":"mace","page":9,"trial_type":"survey-mace","trial_index":17,"time_elapsed":1166339,"internal_node_id":"0.0-17.0","task_version":"prescreen-v0.3","browser_interactions":0},{"responses":{"01":"No","02":"Yes","02_ages_15":"15","03":"Yes","03_ages_15":"15","04":"Yes","04_ages_11":"11","05":"Yes","05_ages_16":"16","06":"Yes","06_ages_17":"17","07":"Yes","07_ages_13":"13","08":"Yes","08_ages_16":"16"},"rt":29568,"item_order":[0,1,2,3,4,5,6,7],"radio_events":[2741,4432,6910,9003,11900,13902,17810,20667],"checkbox_events":[5605,8209,9923,12781,15591,19526,22045],"key_events":[],"mouse_events":[2240,2741,4432,5605,6910,7848,8209,9003,9923,11900,12781,13902,15591,17810,18463,18872,19526,20667,21662,22045,29568],"honeypot":0,"survey":"mace","page":10,"trial_type":"survey-mace","trial_index":18,"time_elapsed":1195921,"internal_node_id":"0.0-18.0","task_version":"prescreen-v0.3","browser_interactions":0,"instructed":0},{"rt":833315,"trial_type":"mental-health-alert","trial_index":19,"time_elapsed":2029247,"internal_node_id":"0.0-19.0","task_version":"prescreen-v0.3","interactions":"[{\"event\":\"focus\",\"trial\":0,\"time\":2},{\"event\":\"blur\",\"trial\":1,\"time\":21437},{\"event\":\"focus\",\"trial\":1,\"time\":33603},{\"event\":\"blur\",\"trial\":2,\"time\":67766},{\"event\":\"focus\",\"trial\":2,\"time\":123454},{\"event\":\"blur\",\"trial\":3,\"time\":178105},{\"event\":\"focus\",\"trial\":3,\"time\":191106},{\"event\":\"blur\",\"trial\":7,\"time\":286656},{\"event\":\"focus\",\"trial\":7,\"time\":288876},{\"event\":\"blur\",\"trial\":8,\"time\":305110},{\"event\":\"focus\",\"trial\":8,\"time\":1011684},{\"event\":\"blur\",\"trial\":11,\"time\":1056216},{\"event\":\"focus\",\"trial\":11,\"time\":1059503},{\"event\":\"blur\",\"trial\":13,\"time\":1082590},{\"event\":\"focus\",\"trial\":13,\"time\":1089147},{\"event\":\"blur\",\"trial\":19,\"time\":1199301},{\"event\":\"focus\",\"trial\":19,\"time\":2026099},{\"event\":\"blur\",\"trial\":19,\"time\":2026924},{\"event\":\"focus\",\"trial\":19,\"time\":2027980}]"}]