[{"view_history":[{"page_index":0,"viewing_time":1678.5999999940395},{"page_index":1,"viewing_time":3157.699999988079},{"page_index":2,"viewing_time":3478.4000000059605},{"page_index":3,"viewing_time":921.0999999940395}],"rt":9236.799999982119,"trial_type":"instructions","trial_index":0,"time_elapsed":9251,"internal_node_id":"0.0-0.0","task_version":"prescreen-v0.3"},{"rt":8140.699999988079,"responses":{"age":"20","gender-categorical":"Female","gender-free-response":"","ethnicity":"Not Hispanic or Latino","race":["White"],"education":"Some college"},"trial_type":"survey-demo","trial_index":1,"time_elapsed":17401,"internal_node_id":"0.0-1.0","task_version":"prescreen-v0.3"},{"responses":{"Q10":"2","Q11":"3","Q21":"3","Q17":"0","Q16":"1","Q12":"1","Q15":"1","Q06":"0","Q02":"0","Q18":"1","Q04":"0","Q05":"2","Q19":"1","Q13":"0","Q14":"0","Q01":"0","Q07":"1","Q20":"1","Q09":"2","Q08":"1","Q03":"1"},"rt":66104.80000001192,"item_order":[9,10,20,16,15,11,14,5,1,17,3,4,18,12,13,0,6,19,8,7,2],"radio_events":[4035.300000011921,6030.600000023842,9337.200000017881,12993.200000017881,15831.200000017881,18821,21050,32652.20000001788,34248,36700.40000000596,38998,40570.30000001192,45253.40000000596,46989.40000000596,50468,51861.20000001788,53319.10000002384,54060,58435.80000001192,59559.40000000596,61644.80000001192,63437,64765,65359.5],"key_events":[],"mouse_events":[4035.300000011921,6030.600000023842,9337.200000017881,12993.200000017881,15831.200000017881,18821,21050,32652.20000001788,34248,36700.40000000596,38998,40570.30000001192,45253.40000000596,46989.40000000596,50468,51299.5,51861.20000001788,53319.10000002384,54060,58435.80000001192,59559.40000000596,61644.80000001192,63437,64765,65359.5,66101.20000001788],"straightlining":0.42857142857142855,"zigzagging":0.55,"honeypot":0,"survey":"sns","trial_type":"survey-template","trial_index":2,"time_elapsed":83518,"internal_node_id":"0.0-2.0","task_version":"prescreen-v0.3","browser_interactions":0,"infrequency":0},{"responses":{"Q08":"2","Q02":"2","Q05":"3","Q03":"2","Q06":"3","Q04":"2","Q12":"1","Q09":"2","Q07":"3","Q13":"0","Q11":"2","Q10":"2","Q01":"2"},"rt":39345.5,"item_order":[7,1,4,2,5,3,11,8,6,12,10,9,0],"radio_events":[5579.5999999940395,7612.9000000059605,11116.59999999404,13804.200000017881,15645.800000011921,17429.80000001192,20330.30000001192,22847.30000001192,27058.80000001192,29136.5,35364.90000000596,37810.80000001192,38797.70000001788],"key_events":[],"mouse_events":[5579.5999999940395,7612.9000000059605,11116.59999999404,13804.200000017881,15645.800000011921,17429.80000001192,20330.30000001192,22847.30000001192,27058.80000001192,29136.5,35364.90000000596,37810.80000001192,38797.70000001788,39343.5],"straightlining":0.6153846153846154,"zigzagging":0.6666666666666666,"honeypot":0,"survey":"bisbas","trial_type":"survey-template","trial_index":3,"time_elapsed":122867,"internal_node_id":"0.0-3.0","task_version":"prescreen-v0.3","browser_interactions":0,"infrequency":0},{"responses":{"Q01":"2","Q02":"2","Q03":"3"},"rt":10160.600000023842,"radio_events":[3779.600000023842,7158.9000000059605,9646.40000000596],"key_events":[],"mouse_events":[3779.600000023842,7158.9000000059605,9646.40000000596,10159.5],"survey":"map","page":1,"trial_type":"survey-map","trial_index":4,"time_elapsed":133032,"internal_node_id":"0.0-4.0","task_version":"prescreen-v0.3","browser_interactions":0},{"responses":{"Q04":"2","Q05":"2","Q06":"2"},"rt":11883.5,"radio_events":[2970.2000000178814,8965.5,11401.300000011921],"key_events":[],"mouse_events":[2970.2000000178814,8965.5,11401.300000011921,11882.40000000596],"survey":"map","page":2,"trial_type":"survey-map","trial_index":5,"time_elapsed":144918,"internal_node_id":"0.0-5.0","task_version":"prescreen-v0.3","browser_interactions":0},{"responses":{"Q07":"2","Q08":"0","Q09":"3"},"rt":11200,"radio_events":[5186.5999999940395,7671.699999988079,10628.5],"key_events":[],"mouse_events":[5186.5999999940395,7671.699999988079,8952.09999999404,9593.799999982119,10628.5,11198.799999982119],"survey":"map","page":3,"trial_type":"survey-map","trial_index":6,"time_elapsed":156120,"internal_node_id":"0.0-6.0","task_version":"prescreen-v0.3","browser_interactions":0},{"responses":{"Q10":"4","Q11":"3","Q12":"4","Q13":"4","Q16":"0","Q14":"3","Q15":"3"},"rt":21024.09999999404,"radio_events":[3360.399999976158,5176.899999976158,7669.5,11164,14097.09999999404,18569.79999998212,20321.399999976158],"key_events":[],"mouse_events":[3360.399999976158,5176.899999976158,7669.5,11164,14097.09999999404,18569.79999998212,19881.29999998212,20321.399999976158,21022.19999998808],"survey":"map","page":4,"trial_type":"survey-map","trial_index":7,"time_elapsed":177148,"internal_node_id":"0.0-7.0","task_version":"prescreen-v0.3","browser_interactions":0,"infrequency":0},{"view_history":[{"page_index":0,"viewing_time":1637.300000011921},{"page_index":1,"viewing_time":3377.5}],"rt":5015.200000017881,"trial_type":"instructions","trial_index":8,"time_elapsed":182165,"internal_node_id":"0.0-8.0","task_version":"prescreen-v0.3"},{"responses":{"01":"No","02":"No","03":"No","04":"No","05":"No","06":"No"},"rt":15793.200000017881,"item_order":[0,1,2,3,4,5],"radio_events":[3557.5,7296.4000000059605,12648.90000000596,13398.40000000596,14074.59999999404,14864.800000011921],"checkbox_events":[],"key_events":[],"mouse_events":[0.20000001788139343,3557.5,7296.4000000059605,12648.90000000596,13398.40000000596,14074.59999999404,14864.800000011921,15362,15785.90000000596],"honeypot":0,"survey":"mace","page":1,"trial_type":"survey-mace","trial_index":9,"time_elapsed":197964,"internal_node_id":"0.0-9.0","task_version":"prescreen-v0.3","browser_interactions":0},{"responses":{"01":"No","02":"No","03":"Yes","03_ages_2":"2","03_ages_3":"3","03_ages_4":"4","03_ages_5":"5","03_ages_6":"6","04":"Yes","04_ages_2":"2","04_ages_3":"3","04_ages_4":"4","04_ages_5":"5","04_ages_6":"6","05":"No","06":"No","07":"No","08":"No"},"rt":23287,"item_order":[0,1,2,3,4,5,6,7],"radio_events":[1763.7000000178814,3979.9000000059605,8264.800000011921,15596.90000000596,20802.40000000596,21413.30000001192,22277,22838.90000000596],"checkbox_events":[11475.700000017881,11858.09999999404,12395.300000011921,13356.300000011921,14635.200000017881,16575.20000001788,16925.20000001788,17372.59999999404,17714.90000000596,18122.09999999404],"key_events":[],"mouse_events":[1763.7000000178814,2529.7000000178814,3979.9000000059605,6269.200000017881,8264.800000011921,11475.700000017881,11858.09999999404,12395.300000011921,12778.300000011921,13356.300000011921,14635.200000017881,15596.90000000596,16575.20000001788,16925.20000001788,17372.59999999404,17714.90000000596,18122.09999999404,20802.40000000596,21413.30000001192,22277,22838.90000000596,23279],"honeypot":0,"survey":"mace","page":2,"trial_type":"survey-mace","trial_index":10,"time_elapsed":221256,"internal_node_id":"0.0-10.0","task_version":"prescreen-v0.3","browser_interactions":0},{"responses":{"01":"No","02":"No","03":"No","04":"No"},"rt":7828.5999999940395,"item_order":[0,1,2,3],"radio_events":[1862.5,3637.5999999940395,6138.299999982119,6684.5],"checkbox_events":[],"key_events":[],"mouse_events":[1862.5,3637.5999999940395,4525.9000000059605,5503.199999988079,6138.299999982119,6684.5,7824.9000000059605],"honeypot":0,"survey":"mace","page":3,"trial_type":"survey-mace","trial_index":11,"time_elapsed":229089,"internal_node_id":"0.0-11.0","task_version":"prescreen-v0.3","browser_interactions":0},{"responses":{"01":"No","02":"No"},"rt":11984.800000011921,"item_order":[0,1],"radio_events":[1768.4000000059605,10086.09999999404],"checkbox_events":[],"key_events":[],"mouse_events":[1768.4000000059605,10086.09999999404,11983],"honeypot":0,"survey":"mace","page":4,"trial_type":"survey-mace","trial_index":12,"time_elapsed":241076,"internal_node_id":"0.0-12.0","task_version":"prescreen-v0.3","browser_interactions":0},{"responses":{"01":"No","02":"No","03":"No","04":"No","05":"No"},"rt":8577.699999988079,"item_order":[0,1,2,3,4],"radio_events":[3896.9000000059605,4540.0999999940395,5762.299999982119,6870.0999999940395,7831.5],"checkbox_events":[],"key_events":[],"mouse_events":[3896.9000000059605,4540.0999999940395,5762.299999982119,6870.0999999940395,7831.5,8572.59999999404],"honeypot":0,"survey":"mace","page":5,"trial_type":"survey-mace","trial_index":13,"time_elapsed":249659,"internal_node_id":"0.0-13.0","task_version":"prescreen-v0.3","browser_interactions":0},{"responses":{"01":"No","02":"No","03":"No","04":"No","05":"No"},"rt":9296.40000000596,"item_order":[0,1,2,3,4],"radio_events":[1888.4000000059605,2622,4537.4000000059605,6549.0999999940395,7852],"checkbox_events":[],"key_events":[],"mouse_events":[1888.4000000059605,2622,3608,4537.4000000059605,5563.4000000059605,6549.0999999940395,7852,9291.699999988079],"honeypot":0,"survey":"mace","page":6,"trial_type":"survey-mace","trial_index":14,"time_elapsed":258960,"internal_node_id":"0.0-14.0","task_version":"prescreen-v0.3","browser_interactions":0},{"responses":{"01":"No","02":"No","03":"No","04":"No","05":"No","06":"No","07":"No"},"rt":8990.09999999404,"item_order":[0,1,2,3,4,5,6],"radio_events":[1321.3999999761581,2518.0999999940395,4310.5999999940395,5141.399999976158,6020.5999999940395,7120.899999976158,7789.199999988079],"checkbox_events":[],"key_events":[],"mouse_events":[1321.3999999761581,2518.0999999940395,3178,4310.5999999940395,5141.399999976158,6020.5999999940395,7120.899999976158,7789.199999988079,8555.299999982119,8985.799999982119],"honeypot":0,"survey":"mace","page":7,"trial_type":"survey-mace","trial_index":15,"time_elapsed":267955,"internal_node_id":"0.0-15.0","task_version":"prescreen-v0.3","browser_interactions":0},{"responses":{"01":"No","02":"No","03":"No","04":"No"},"rt":6708.799999982119,"item_order":[0,1,2,3],"radio_events":[1825.7999999821186,3528.5,4758.0999999940395,5923.299999982119],"checkbox_events":[],"key_events":[],"mouse_events":[1825.7999999821186,3528.5,4758.0999999940395,5923.299999982119,6705.199999988079],"honeypot":0,"survey":"mace","page":8,"trial_type":"survey-mace","trial_index":16,"time_elapsed":274668,"internal_node_id":"0.0-16.0","task_version":"prescreen-v0.3","browser_interactions":0},{"responses":{"01":"Yes","01_ages_1":"1","01_ages_2":"2","01_ages_3":"3","01_ages_4":"4","01_ages_5":"5","01_ages_6":"6","01_ages_7":"7","01_ages_8":"8","01_ages_9":"9","01_ages_10":"10","01_ages_11":"11","01_ages_12":"12","01_ages_13":"13","01_ages_14":"14","01_ages_15":"15","01_ages_16":"16","01_ages_17":"17","01_ages_18":"18","02":"Yes","02_ages_1":"1","02_ages_2":"2","02_ages_3":"3","02_ages_4":"4","02_ages_5":"5","02_ages_6":"6","02_ages_7":"7","02_ages_8":"8","02_ages_9":"9","02_ages_10":"10","02_ages_11":"11","02_ages_12":"12","02_ages_13":"13","02_ages_14":"14","02_ages_15":"15","02_ages_16":"16","02_ages_17":"17","02_ages_18":"18","03":"Yes","03_ages_1":"1","03_ages_2":"2","03_ages_3":"3","03_ages_4":"4","03_ages_5":"5","03_ages_6":"6","03_ages_7":"7","03_ages_8":"8","03_ages_9":"9","03_ages_10":"10","03_ages_11":"11","03_ages_12":"12","03_ages_13":"13","03_ages_14":"14","03_ages_15":"15","03_ages_16":"16","03_ages_17":"17","03_ages_18":"18","04":"Yes","04_ages_1":"1","04_ages_2":"2","04_ages_3":"3","04_ages_4":"4","04_ages_5":"5","04_ages_6":"6","04_ages_7":"7","04_ages_8":"8","04_ages_9":"9","04_ages_10":"10","04_ages_11":"11","04_ages_12":"12","04_ages_13":"13","04_ages_14":"14","04_ages_15":"15","04_ages_16":"16","04_ages_17":"17","04_ages_18":"18"},"rt":61963.90000000596,"item_order":[0,1,2,3],"radio_events":[3902.800000011921,24555.30000001192,37117.10000002384,39749.20000001788],"checkbox_events":[7186.800000011921,7822.200000017881,8229.300000011921,8750.600000023842,9108.800000011921,9499.5,9980.40000000596,10999,11357.300000011921,12741.90000000596,13508.100000023842,14330.90000000596,14829.700000017881,15723.90000000596,20131.20000001788,20538.40000000596,21524.20000001788,22013.20000001788,25703.70000001788,26225.70000001788,26624.5,27047.80000001192,27675.80000001192,28058.600000023842,28482.100000023842,29174.90000000596,30030.100000023842,30429,31227.90000000596,31724.600000023842,32196.20000001788,32955.5,33850.70000001788,34543.10000002384,34974.90000000596,35699.70000001788,41590.20000001788,42299.20000001788,42860.90000000596,43276.60000002384,43700.60000002384,44286.70000001788,44718.5,45394.40000000596,45832.10000002384,46266.70000001788,47317.20000001788,47749.20000001788,48265.90000000596,49167.10000002384,49606.70000001788,50014.70000001788,50804.10000002384,51187.60000002384,52213.30000001192,52661.90000000596,53126.60000002384,53729.70000001788,54210,54714.80000001192,55268.70000001788,55856.10000002384,56588.10000002384,56962.80000001192,57329.5,57916.70000001788,58291,58730.90000000596,59195.20000001788,59797.90000000596,60726.60000002384,61167],"key_events":[],"mouse_events":[3902.800000011921,7186.800000011921,7822.200000017881,8229.300000011921,8750.600000023842,9108.800000011921,9499.5,9980.40000000596,10339,10999,11357.300000011921,11772.700000017881,12375.300000011921,12741.90000000596,13508.100000023842,13964.800000011921,14330.90000000596,14829.700000017881,15211.100000023842,15723.90000000596,16261.5,20131.20000001788,20538.40000000596,20969.600000023842,21524.20000001788,22013.20000001788,24555.30000001192,25703.70000001788,26225.70000001788,26624.5,27047.80000001192,27675.80000001192,28058.600000023842,28482.100000023842,29174.90000000596,29573.90000000596,30030.100000023842,30429,31227.90000000596,31724.600000023842,32196.20000001788,32955.5,33305.30000001192,33850.70000001788,34543.10000002384,34974.90000000596,35699.70000001788,36619.90000000596,37117.10000002384,39749.20000001788,41590.20000001788,41916.10000002384,42299.20000001788,42860.90000000596,43276.60000002384,43700.60000002384,44286.70000001788,44718.5,45394.40000000596,45832.10000002384,46266.70000001788,46893.80000001192,47317.20000001788,47749.20000001788,48265.90000000596,48580.60000002384,49167.10000002384,49606.70000001788,50014.70000001788,50804.10000002384,51187.60000002384,52213.30000001192,52661.90000000596,53126.60000002384,53729.70000001788,54210,54714.80000001192,55268.70000001788,55856.10000002384,56221.70000001788,56588.10000002384,56962.80000001192,57329.5,57916.70000001788,58291,58730.90000000596,59195.20000001788,59797.90000000596,60384.30000001192,60726.60000002384,61167,61957.70000001788],"honeypot":0,"survey":"mace","page":9,"trial_type":"survey-mace","trial_index":17,"time_elapsed":336637,"internal_node_id":"0.0-17.0","task_version":"prescreen-v0.3","browser_interactions":0},{"responses":{"01":"No","02":"No","03":"No","04":"No","05":"No","06":"Yes","06_ages_17":"17","07":"Yes","07_ages_12":"12","07_ages_13":"13","07_ages_14":"14","07_ages_15":"15","07_ages_16":"16","07_ages_17":"17","07_ages_18":"18","08":"Yes","08_ages_12":"12","08_ages_13":"13","08_ages_14":"14","08_ages_15":"15","08_ages_16":"16","08_ages_17":"17","08_ages_18":"18"},"rt":26828.29999998212,"item_order":[0,1,2,3,4,5,6,7],"radio_events":[1918.699999988079,2644.199999988079,3507.699999988079,4460.699999988079,6057.5,7605.5999999940395,13014.59999999404,13471],"checkbox_events":[9267.299999982119,19011.09999999404,19410.09999999404,19809.90000000596,20347.40000000596,20681.09999999404,21137,21552.79999998212,22457,23067.90000000596,23450.90000000596,23837.19999998808,24542.90000000596,25781.09999999404,26326.59999999404],"key_events":[],"mouse_events":[1918.699999988079,2644.199999988079,3507.699999988079,4460.699999988079,5120.699999988079,6057.5,7605.5999999940395,9267.299999982119,13014.59999999404,13471,19011.09999999404,19410.09999999404,19809.90000000596,20347.40000000596,20681.09999999404,21137,21552.79999998212,22457,23067.90000000596,23450.90000000596,23837.19999998808,24135.40000000596,24542.90000000596,24999.5,25471.59999999404,25781.09999999404,26326.59999999404,26823.29999998212],"honeypot":0,"survey":"mace","page":10,"trial_type":"survey-mace","trial_index":18,"time_elapsed":363470,"internal_node_id":"0.0-18.0","task_version":"prescreen-v0.3","browser_interactions":0,"instructed":0},{"rt":2588.7999999821186,"trial_type":"mental-health-alert","trial_index":19,"time_elapsed":366060,"internal_node_id":"0.0-19.0","task_version":"prescreen-v0.3","interactions":"[]"}]