[{"view_history":[{"page_index":0,"viewing_time":3762.2000000476837},{"page_index":1,"viewing_time":2035},{"page_index":2,"viewing_time":2516.7999999523163},{"page_index":3,"viewing_time":1243.8000000715256}],"rt":9558.600000023842,"trial_type":"instructions","trial_index":0,"time_elapsed":9577,"internal_node_id":"0.0-0.0","task_version":"prescreen-v0.3"},{"rt":16651.799999952316,"responses":{"age":"23","gender-categorical":"Male","gender-free-response":"","ethnicity":"Not Hispanic or Latino","race":["Asian"],"education":"Bachelor degree","siblings":"3"},"trial_type":"survey-demo","trial_index":1,"time_elapsed":26235,"internal_node_id":"0.0-1.0","task_version":"prescreen-v0.3"},{"responses":{"Q11":"3","Q01":"2","Q08":"2","Q04":"2","Q05":"2","Q19":"1","Q06":"1","Q18":"1","Q10":"1","Q09":"3","Q17":"2","Q16":"1","Q20":"1","Q21":"3","Q02":"2","Q13":"3","Q14":"2","Q07":"1","Q12":"2","Q03":"1","Q15":"3"},"rt":93213.89999997616,"item_order":[10,0,7,3,4,18,5,17,9,8,16,15,19,20,1,12,13,6,11,2,14],"radio_events":[2826.6999999284744,6365.399999976158,9778.799999952316,11523.199999928474,23771.100000023842,29747,34120.299999952316,37709.299999952316,40662,41650.699999928474,43341,44067.199999928474,48867,51263.89999997616,55018.89999997616,60813.799999952316,63655.299999952316,65098.89999997616,69284.60000002384,72314.60000002384,73521.89999997616,77186.89999997616,81075.69999992847,89728.79999995232,90497.79999995232],"key_events":[],"mouse_events":[2826.6999999284744,5503.399999976158,6031,6365.399999976158,9298.399999976158,9778.799999952316,11523.199999928474,23117.199999928474,23771.100000023842,26648.100000023842,29747,33075.299999952316,33614.799999952316,34120.299999952316,37141.10000002384,37709.299999952316,40271,40662,41152.199999928474,41650.699999928474,43064.60000002384,43341,44067.199999928474,48486.89999997616,48867,50923.5,51263.89999997616,54253,55018.89999997616,59941.60000002384,60813.799999952316,63043.299999952316,63299.799999952316,63655.299999952316,65098.89999997616,68889.10000002384,69284.60000002384,72314.60000002384,73521.89999997616,77186.89999997616,80068,80435.89999997616,81075.69999992847,82201.60000002384,89728.79999995232,90129.19999992847,90497.79999995232,93211.89999997616],"straightlining":0.38095238095238093,"zigzagging":0.5,"honeypot":0,"survey":"sns","trial_type":"survey-template","trial_index":2,"time_elapsed":119455,"internal_node_id":"0.0-2.0","task_version":"prescreen-v0.3","browser_interactions":0,"infrequency":0},{"responses":{"Q07":"3","Q13":"0","Q05":"2","Q09":"1","Q10":"1","Q02":"3","Q06":"2","Q08":"2","Q11":"1","Q04":"3","Q12":"1","Q03":"3","Q01":"3"},"rt":45515.39999997616,"item_order":[6,12,4,8,9,1,5,7,10,3,11,2,0],"radio_events":[5148.399999976158,6509.799999952316,9006.899999976158,12586.399999976158,15127.599999904633,17208.399999976158,19437.599999904633,21662.099999904633,24511.5,25613.5,28789,30290.199999928474,36736.299999952316,37722.299999952316,39812.199999928474,42850,44548.699999928474],"key_events":[],"mouse_events":[5148.399999976158,5439.699999928474,5710.399999976158,6141.399999976158,6509.799999952316,9006.899999976158,11864.299999952316,12253.199999928474,12586.399999976158,15127.599999904633,17208.399999976158,17825.099999904633,19105.5,19437.599999904633,21662.099999904633,23866.399999976158,24511.5,24957.299999952316,25279.399999976158,25613.5,28789,30290.199999928474,35986.39999997616,36736.299999952316,37722.299999952316,39812.199999928474,42850,44243.39999997616,44548.699999928474,45514.199999928474],"straightlining":0.38461538461538464,"zigzagging":0.3333333333333333,"honeypot":0,"survey":"bisbas","trial_type":"survey-template","trial_index":3,"time_elapsed":164973,"internal_node_id":"0.0-3.0","task_version":"prescreen-v0.3","browser_interactions":0,"infrequency":0},{"responses":{"Q01":"1","Q02":"1","Q03":"1"},"rt":16492.399999976158,"radio_events":[5448.100000023842,7729.399999976158,11737.700000047684,15816.200000047684],"key_events":[],"mouse_events":[5448.100000023842,6682.800000071526,7058.700000047684,7729.399999976158,11385.100000023842,11737.700000047684,12013.300000071526,15408.600000023842,15816.200000047684,16491.300000071526],"survey":"map","page":1,"trial_type":"survey-map","trial_index":4,"time_elapsed":181469,"internal_node_id":"0.0-4.0","task_version":"prescreen-v0.3","browser_interactions":0},{"responses":{"Q04":"3","Q05":"2","Q06":"2"},"rt":12183.5,"radio_events":[3335.6999999284744,6142.099999904633,9704.199999928474,11606.699999928474],"key_events":[],"mouse_events":[3335.6999999284744,6142.099999904633,9173.199999928474,9704.199999928474,11007.599999904633,11311.299999952316,11606.699999928474,12183],"survey":"map","page":2,"trial_type":"survey-map","trial_index":5,"time_elapsed":193655,"internal_node_id":"0.0-5.0","task_version":"prescreen-v0.3","browser_interactions":0},{"responses":{"Q07":"2","Q08":"0","Q09":"2"},"rt":19196.400000095367,"radio_events":[6526.700000047684,9871.800000071526,13606.5,14912.800000071526,15504,16522.700000047684,18695.600000023842],"key_events":[],"mouse_events":[5748.700000047684,6149.800000071526,6526.700000047684,9871.800000071526,12985.300000071526,13606.5,14912.800000071526,15504,16522.700000047684,18020.5,18695.600000023842,19195.800000071526],"survey":"map","page":3,"trial_type":"survey-map","trial_index":6,"time_elapsed":212853,"internal_node_id":"0.0-6.0","task_version":"prescreen-v0.3","browser_interactions":0},{"responses":{"Q10":"1","Q11":"1","Q12":"1","Q13":"2","Q16":"0","Q14":"2","Q15":"3"},"rt":35488.39999997616,"radio_events":[4213.200000047684,7131.399999976158,10701,21880,25735.100000023842,31020.5,35066.799999952316],"key_events":[],"mouse_events":[4213.200000047684,6431.600000023842,6801.899999976158,7131.399999976158,10088.899999976158,10701,21252.5,21546.5,21880,25306.899999976158,25735.100000023842,29418.899999976158,29983.799999952316,30274.600000023842,30480.200000047684,31020.5,33897.700000047684,34492.299999952316,35066.799999952316,35487.5],"survey":"map","page":4,"trial_type":"survey-map","trial_index":7,"time_elapsed":248344,"internal_node_id":"0.0-7.0","task_version":"prescreen-v0.3","browser_interactions":0,"infrequency":0},{"view_history":[{"page_index":0,"viewing_time":2215},{"page_index":1,"viewing_time":3916.4000000953674}],"rt":6132.300000071526,"trial_type":"instructions","trial_index":8,"time_elapsed":254478,"internal_node_id":"0.0-8.0","task_version":"prescreen-v0.3"},{"responses":{"01":"No","02":"No","03":"Yes","03_ages_6":"6","03_ages_7":"7","03_ages_8":"8","03_ages_9":"9","04":"No","05":"No","06":"Yes","06_ages_6":"6","06_ages_7":"7","06_ages_8":"8"},"rt":62893.299999952316,"item_order":[0,1,2,3,4,5],"radio_events":[8292,14672.899999976158,16999.899999976158,33480.59999990463,41197.09999990463,50514.5,52820.5],"checkbox_events":[22342.799999952316,22691.099999904633,23084.899999976158,24197.699999928474,25056,25573.399999976158,26040.899999976158,26365.899999976158,35744.09999990463,37696,53870.5,54200.59999990463,54503.59999990463,54866.59999990463,56527.5,58223.5,59270.59999990463],"key_events":[],"mouse_events":[0.09999990463256836,8292,14672.899999976158,16999.899999976158,22342.799999952316,22691.099999904633,23084.899999976158,23409.899999976158,24197.699999928474,24704.799999952316,25056,25573.399999976158,26040.899999976158,26365.899999976158,33480.59999990463,35744.09999990463,36024.39999997616,36576.699999928474,37696,39672.699999928474,41197.09999990463,48859.799999952316,50514.5,52820.5,53870.5,54200.59999990463,54503.59999990463,54866.59999990463,55944.699999928474,56527.5,58223.5,59270.59999990463,62890.5],"honeypot":0,"survey":"mace","page":1,"trial_type":"survey-mace","trial_index":9,"time_elapsed":317381,"internal_node_id":"0.0-9.0","task_version":"prescreen-v0.3","browser_interactions":0},{"responses":{"01":"No","02":"No","03":"Yes","03_ages_4":"4","03_ages_5":"5","03_ages_6":"6","04":"No","05":"Yes","05_ages_4":"4","05_ages_5":"5","05_ages_6":"6","06":"No","07":"No","08":"No"},"rt":35329,"item_order":[0,1,2,3,4,5,6,7],"radio_events":[3572.7000000476837,6337.799999952316,8711.399999976158,20236.700000047684,22229.700000047684,25631.600000023842,26949,28400.5],"checkbox_events":[9787.100000023842,10493.700000047684,10789.799999952316,11495.600000023842,13383.799999952316,14411.700000047684,14946.5,15831.299999952316,17528.600000023842,22931.399999976158,23327.600000023842,23879.5],"key_events":[],"mouse_events":[3572.7000000476837,6337.799999952316,7791.700000047684,8191.600000023842,8711.399999976158,9787.100000023842,10106.299999952316,10493.700000047684,10789.799999952316,11115.5,11495.600000023842,12339.899999976158,13050.200000047684,13383.799999952316,14411.700000047684,14946.5,15250.600000023842,15831.299999952316,17528.600000023842,20236.700000047684,22229.700000047684,22931.399999976158,23327.600000023842,23879.5,25631.600000023842,26949,28400.5,35325.39999997616],"honeypot":0,"survey":"mace","page":2,"trial_type":"survey-mace","trial_index":10,"time_elapsed":352715,"internal_node_id":"0.0-10.0","task_version":"prescreen-v0.3","browser_interactions":0},{"responses":{"01":"No","02":"No","03":"No","04":"No"},"rt":12804.899999976158,"item_order":[0,1,2,3],"radio_events":[5185,8694.799999952316,9981.599999904633,11457.799999952316],"checkbox_events":[],"key_events":[],"mouse_events":[5185,8694.799999952316,9981.599999904633,10702.799999952316,11086.5,11457.799999952316,12802.899999976158],"honeypot":0,"survey":"mace","page":3,"trial_type":"survey-mace","trial_index":11,"time_elapsed":365523,"internal_node_id":"0.0-11.0","task_version":"prescreen-v0.3","browser_interactions":0},{"responses":{"01":"No","02":"No"},"rt":9907.299999952316,"item_order":[0,1],"radio_events":[6739.099999904633,7863.099999904633],"checkbox_events":[],"key_events":[],"mouse_events":[6739.099999904633,7863.099999904633,9906.299999952316],"honeypot":0,"survey":"mace","page":4,"trial_type":"survey-mace","trial_index":12,"time_elapsed":375433,"internal_node_id":"0.0-12.0","task_version":"prescreen-v0.3","browser_interactions":0},{"responses":{"01":"Yes","01_ages_5":"5","01_ages_6":"6","01_ages_7":"7","02":"No","03":"No","04":"Yes","04_ages_5":"5","04_ages_6":"6","04_ages_7":"7","05":"No"},"rt":39598.799999952316,"item_order":[0,1,2,3,4],"radio_events":[12382.799999952316,22323.600000023842,24978.5,28605.799999952316,36747.5],"checkbox_events":[14542.700000047684,16167.700000047684,16866.899999976158,17410.5,17872.899999976158,18361.600000023842,29523.899999976158,29815.700000047684,30144.299999952316,30889.700000047684,32331.600000023842,33148.60000002384],"key_events":[],"mouse_events":[12382.799999952316,14542.700000047684,15003.100000023842,15468.200000047684,16167.700000047684,16866.899999976158,17410.5,17872.899999976158,18361.600000023842,22323.600000023842,24577.700000047684,24978.5,28605.799999952316,29523.899999976158,29815.700000047684,30144.299999952316,30517.200000047684,30889.700000047684,32331.600000023842,33148.60000002384,36747.5,39596.60000002384],"honeypot":0,"survey":"mace","page":5,"trial_type":"survey-mace","trial_index":13,"time_elapsed":415035,"internal_node_id":"0.0-13.0","task_version":"prescreen-v0.3","browser_interactions":2},{"responses":{"01":"Yes","01_ages_6":"6","01_ages_7":"7","01_ages_8":"8","01_ages_9":"9","02":"Yes","02_ages_9":"9","02_ages_10":"10","02_ages_11":"11","02_ages_12":"12","03":"Yes","03_ages_9":"9","03_ages_10":"10","03_ages_11":"11","04":"No","05":"Yes","05_ages_6":"6","05_ages_7":"7","05_ages_8":"8"},"rt":42542.09999990463,"item_order":[0,1,2,3,4],"radio_events":[5599.799999952316,20071.199999928474,30431.699999928474,34892,37935,38851.09999990463],"checkbox_events":[9537,9849.5,10229.699999928474,11681.399999976158,12319.399999976158,12610,12929.299999952316,13253.399999976158,21991.199999928474,22595.299999952316,23442.899999976158,24185.099999904633,25422.599999904633,26328.599999904633,31461.699999928474,32615.299999952316,32993.09999990463,40271.799999952316,40648.199999928474,41226.199999928474],"key_events":[],"mouse_events":[5599.799999952316,9537,9849.5,10229.699999928474,10627.5,10938.199999928474,11681.399999976158,12319.399999976158,12610,12929.299999952316,13253.399999976158,20071.199999928474,21991.199999928474,22300.5,22595.299999952316,22987.899999976158,23442.899999976158,23798.199999928474,24185.099999904633,25422.599999904633,26328.599999904633,30431.699999928474,31461.699999928474,31860,32286.299999952316,32615.299999952316,32993.09999990463,34892,37615,37935,38851.09999990463,40271.799999952316,40648.199999928474,41226.199999928474,42539.89999997616],"honeypot":0,"survey":"mace","page":6,"trial_type":"survey-mace","trial_index":14,"time_elapsed":457580,"internal_node_id":"0.0-14.0","task_version":"prescreen-v0.3","browser_interactions":0},{"responses":{"01":"No","02":"No","03":"Yes","03_ages_9":"9","03_ages_10":"10","03_ages_11":"11","04":"No","05":"No","06":"No","07":"No"},"rt":53570.799999952316,"item_order":[0,1,2,3,4,5,6],"radio_events":[5572,7799,39260.5,44869.5,46301.699999928474,46832.60000002384,49469.799999952316,50706.60000002384,51665.699999928474],"checkbox_events":[40432.299999952316,41714.89999997616,42005.10000002384,42382.5,44135.299999952316],"key_events":[],"mouse_events":[5572,7799,39260.5,40432.299999952316,40868.10000002384,41329.39999997616,41714.89999997616,42005.10000002384,42382.5,44135.299999952316,44869.5,46301.699999928474,46832.60000002384,49469.799999952316,50706.60000002384,51179.60000002384,51665.699999928474,53567.799999952316],"honeypot":0,"survey":"mace","page":7,"trial_type":"survey-mace","trial_index":15,"time_elapsed":511155,"internal_node_id":"0.0-15.0","task_version":"prescreen-v0.3","browser_interactions":0},{"responses":{"01":"No","02":"Yes","02_ages_5":"5","02_ages_6":"6","02_ages_7":"7","02_ages_8":"8","03":"No","04":"No"},"rt":101979.60000002384,"item_order":[0,1,2,3],"radio_events":[90323.79999995232,91363.89999997616,99079.39999997616,99916.10000002384],"checkbox_events":[94051.19999992847,94460.79999995232,95055.89999997616,95395],"key_events":[],"mouse_events":[88386.10000002384,89262.79999995232,90323.79999995232,91005,91363.89999997616,94051.19999992847,94460.79999995232,94735.10000002384,95055.89999997616,95395,98142.60000002384,99079.39999997616,99916.10000002384,101977.79999995232],"honeypot":0,"survey":"mace","page":8,"trial_type":"survey-mace","trial_index":16,"time_elapsed":613138,"internal_node_id":"0.0-16.0","task_version":"prescreen-v0.3","browser_interactions":2},{"responses":{"01":"Yes","01_ages_4":"4","01_ages_5":"5","01_ages_6":"6","01_ages_7":"7","01_ages_8":"8","01_ages_9":"9","01_ages_10":"10","01_ages_11":"11","01_ages_12":"12","01_ages_13":"13","01_ages_14":"14","01_ages_15":"15","01_ages_16":"16","01_ages_17":"17","01_ages_18":"18","02":"Yes","02_ages_4":"4","02_ages_5":"5","02_ages_6":"6","02_ages_7":"7","02_ages_8":"8","02_ages_9":"9","02_ages_10":"10","02_ages_11":"11","02_ages_12":"12","02_ages_13":"13","02_ages_14":"14","02_ages_15":"15","02_ages_16":"16","02_ages_17":"17","02_ages_18":"18","03":"Yes","03_ages_4":"4","03_ages_5":"5","03_ages_6":"6","03_ages_7":"7","03_ages_8":"8","03_ages_9":"9","03_ages_10":"10","03_ages_11":"11","03_ages_12":"12","03_ages_13":"13","03_ages_14":"14","03_ages_15":"15","03_ages_16":"16","03_ages_17":"17","04":"Yes","04_ages_4":"4","04_ages_5":"5","04_ages_6":"6","04_ages_7":"7","04_ages_8":"8","04_ages_9":"9","04_ages_10":"10","04_ages_15":"15","04_ages_16":"16","04_ages_17":"17"},"rt":48119.299999952316,"item_order":[0,1,2,3],"radio_events":[3753.5999999046326,18395.799999952316,27355.5,37181.09999990463],"checkbox_events":[6740.799999952316,7079.599999904633,7502.299999952316,7831.299999952316,8155.099999904633,9930.099999904633,10288.399999976158,10601,11001,12244.099999904633,12565.099999904633,12823.299999952316,13355.899999976158,13892.199999928474,14129.699999928474,14713.199999928474,15035.699999928474,15350.199999928474,15963.399999976158,16358.899999976158,16680.099999904633,19206.799999952316,19495.399999976158,19789,20456.799999952316,20887.5,21228.399999976158,21536.199999928474,21905.099999904633,22193.899999976158,23781.099999904633,24119.299999952316,24630.899999976158,25339.299999952316,25638.399999976158,26040,28453.099999904633,29062.099999904633,29468,29751.099999904633,30746.399999976158,31311,31597.099999904633,31886.099999904633,32232.099999904633,32539,32840.09999990463,33129.09999990463,33424.5,34372.799999952316,39016.39999997616,39288.199999928474,39601.89999997616,39914.799999952316,40603.199999928474,41247,42463.799999952316,44556.799999952316,44879.699999928474,45804.199999928474],"key_events":[],"mouse_events":[3753.5999999046326,6740.799999952316,7079.599999904633,7502.299999952316,7831.299999952316,8155.099999904633,8488.299999952316,9930.099999904633,10288.399999976158,10601,11001,11556.299999952316,12244.099999904633,12565.099999904633,12823.299999952316,13355.899999976158,13624.899999976158,13892.199999928474,14129.699999928474,14418.799999952316,14713.199999928474,15035.699999928474,15350.199999928474,15663.899999976158,15963.399999976158,16358.899999976158,16680.099999904633,18395.799999952316,19206.799999952316,19495.399999976158,19789,20096.099999904633,20456.799999952316,20887.5,21228.399999976158,21536.199999928474,21905.099999904633,22193.899999976158,22478.099999904633,22788,23087.099999904633,23485,23781.099999904633,24119.299999952316,24630.899999976158,24984.099999904633,25339.299999952316,25638.399999976158,26040,27355.5,28133.599999904633,28453.099999904633,28746.199999928474,29062.099999904633,29468,29751.099999904633,30067,30746.399999976158,31025.899999976158,31311,31597.099999904633,31886.099999904633,32232.099999904633,32539,32840.09999990463,33129.09999990463,33424.5,33807.39999997616,34086.5,34372.799999952316,34707,36264.89999997616,36843.799999952316,37181.09999990463,38209.699999928474,38556.299999952316,39016.39999997616,39288.199999928474,39601.89999997616,39914.799999952316,40240.09999990463,40603.199999928474,41247,42463.799999952316,44556.799999952316,44879.699999928474,45245.799999952316,45804.199999928474,48117.39999997616],"honeypot":0,"survey":"mace","page":9,"trial_type":"survey-mace","trial_index":17,"time_elapsed":661260,"internal_node_id":"0.0-17.0","task_version":"prescreen-v0.3","browser_interactions":0},{"responses":{"01":"No","02":"No","03":"No","04":"No","05":"Yes","05_ages_13":"13","05_ages_14":"14","05_ages_15":"15","05_ages_16":"16","06":"Yes","06_ages_17":"17","07":"Yes","07_ages_11":"11","07_ages_12":"12","07_ages_13":"13","07_ages_14":"14","07_ages_15":"15","07_ages_16":"16","07_ages_17":"17","07_ages_18":"18","08":"Yes","08_ages_14":"14","08_ages_15":"15","08_ages_16":"16"},"rt":45472.5,"item_order":[0,1,2,3,4,5,6,7],"radio_events":[4414.5,4923,8334.299999952316,8806.399999976158,10548.399999976158,12958.099999904633,18597.099999904633,22203.199999928474,37195],"checkbox_events":[15041.199999928474,15382.399999976158,15744.5,16849.699999928474,19997.399999976158,25860.299999952316,26166.799999952316,26472.399999976158,27821.099999904633,30953.099999904633,31280.299999952316,31955.299999952316,32743.099999904633,41419.89999997616,44569,44886.699999928474],"key_events":[],"mouse_events":[4414.5,4923,5805.599999904633,7841.099999904633,8334.299999952316,8806.399999976158,10548.399999976158,12958.099999904633,14755.5,15041.199999928474,15382.399999976158,15744.5,16456.099999904633,16849.699999928474,18597.099999904633,19997.399999976158,22203.199999928474,25860.299999952316,26166.799999952316,26472.399999976158,27821.099999904633,30643.099999904633,30953.099999904633,31280.299999952316,31641.899999976158,31955.299999952316,32398.399999976158,32743.099999904633,37195,39074.5,41054,41419.89999997616,44569,44886.699999928474,45469],"honeypot":0,"survey":"mace","page":10,"trial_type":"survey-mace","trial_index":18,"time_elapsed":706737,"internal_node_id":"0.0-18.0","task_version":"prescreen-v0.3","browser_interactions":0,"instructed":0},{"rt":4653,"trial_type":"mental-health-alert","trial_index":19,"time_elapsed":711392,"internal_node_id":"0.0-19.0","task_version":"prescreen-v0.3","interactions":"[{\"event\":\"blur\",\"trial\":13,\"time\":413255},{\"event\":\"focus\",\"trial\":13,\"time\":413541},{\"event\":\"blur\",\"trial\":16,\"time\":549284},{\"event\":\"focus\",\"trial\":16,\"time\":599439}]"}]