[{"view_history":[{"page_index":0,"viewing_time":3303.699999988079},{"page_index":1,"viewing_time":4827.100000023842},{"page_index":2,"viewing_time":2915.599999964237},{"page_index":3,"viewing_time":1042.7000000476837}],"rt":12090.600000023842,"trial_type":"instructions","trial_index":0,"time_elapsed":12100,"internal_node_id":"0.0-0.0","task_version":"prescreen-v0.3"},{"rt":19115.399999976158,"responses":{"age":"22","gender-categorical":"Female","gender-free-response":"","ethnicity":"Not Hispanic or Latino","race":["White"],"education":"Bachelor degree"},"trial_type":"survey-demo","trial_index":1,"time_elapsed":31223,"internal_node_id":"0.0-1.0","task_version":"prescreen-v0.3"},{"responses":{"Q15":"2","Q08":"2","Q10":"0","Q09":"1","Q18":"3","Q07":"1","Q13":"3","Q11":"0","Q02":"1","Q12":"2","Q05":"2","Q14":"3","Q21":"3","Q04":"1","Q06":"1","Q01":"1","Q19":"1","Q20":"1","Q03":"0","Q17":"0","Q16":"3"},"rt":84254.69999998808,"item_order":[14,7,9,8,17,6,12,10,1,11,4,13,20,3,5,0,18,19,2,16,15],"radio_events":[7757,10046.399999976158,11874.5,12967.299999952316,18764.299999952316,22063.599999964237,27385.099999964237,32784.39999997616,35080,37871.299999952316,41927.5,45024.799999952316,49972.09999996424,51445.09999996424,56813.89999997616,60291.19999998808,61981.59999996424,66863.89999997616,69216.29999995232,70615.19999998808,73051.59999996424,79891.39999997616,82713.39999997616,83651.5],"key_events":[],"mouse_events":[7271.899999976158,7757,10046.399999976158,11874.5,12967.299999952316,18215.299999952316,18764.299999952316,22063.599999964237,26292.599999964237,27385.099999964237,32292.69999998808,32784.39999997616,35080,37871.299999952316,41927.5,45024.799999952316,49972.09999996424,51445.09999996424,56813.89999997616,60291.19999998808,61981.59999996424,66863.89999997616,69216.29999995232,70615.19999998808,73051.59999996424,79891.39999997616,82713.39999997616,83651.5,84250.29999995232],"straightlining":0.38095238095238093,"zigzagging":0.35,"honeypot":0,"survey":"sns","trial_type":"survey-template","trial_index":2,"time_elapsed":115490,"internal_node_id":"0.0-2.0","task_version":"prescreen-v0.3","browser_interactions":0,"infrequency":0},{"responses":{"Q12":"2","Q01":"2","Q08":"2","Q13":"0","Q05":"2","Q02":"3","Q07":"3","Q06":"3","Q09":"1","Q10":"2","Q04":"3","Q11":"1","Q03":"3"},"rt":72022.19999998808,"item_order":[11,0,7,12,4,1,6,5,8,9,3,10,2],"radio_events":[31656.80000001192,36715.19999998808,37911.5,39589.30000001192,44459.19999998808,46674.69999998808,48348.5,50102.80000001192,53750.10000002384,57649.5,58481.30000001192,60615.40000003576,62798.69999998808,65023.40000003576,67295.30000001192,71510.10000002384],"key_events":[],"mouse_events":[31656.80000001192,36715.19999998808,37911.5,39589.30000001192,44459.19999998808,46674.69999998808,48348.5,49642.90000003576,50102.80000001192,53750.10000002384,57649.5,58481.30000001192,60615.40000003576,62798.69999998808,64587.90000003576,65023.40000003576,67295.30000001192,71510.10000002384,72019.80000001192],"straightlining":0.38461538461538464,"zigzagging":0.25,"honeypot":0,"survey":"bisbas","trial_type":"survey-template","trial_index":3,"time_elapsed":187534,"internal_node_id":"0.0-3.0","task_version":"prescreen-v0.3","browser_interactions":2,"infrequency":0},{"responses":{"Q01":"4","Q02":"3","Q03":"4"},"rt":13674.899999976158,"radio_events":[5441.099999964237,9007.699999988079,12928.199999988079],"key_events":[],"mouse_events":[5441.099999964237,8482.899999976158,9007.699999988079,12928.199999988079,13673.299999952316],"survey":"map","page":1,"trial_type":"survey-map","trial_index":4,"time_elapsed":201220,"internal_node_id":"0.0-4.0","task_version":"prescreen-v0.3","browser_interactions":0},{"responses":{"Q04":"3","Q05":"2","Q06":"2"},"rt":9094.699999988079,"radio_events":[5315.800000011921,6884.5,8375],"key_events":[],"mouse_events":[5315.800000011921,6884.5,8375,9092.800000011921],"survey":"map","page":2,"trial_type":"survey-map","trial_index":5,"time_elapsed":210325,"internal_node_id":"0.0-5.0","task_version":"prescreen-v0.3","browser_interactions":0},{"responses":{"Q07":"4","Q08":"4","Q09":"4"},"rt":11124.400000035763,"radio_events":[5687.5,8461.700000047684,10499.100000023842],"key_events":[],"mouse_events":[5687.5,8461.700000047684,10499.100000023842,11122.900000035763],"survey":"map","page":3,"trial_type":"survey-map","trial_index":6,"time_elapsed":221459,"internal_node_id":"0.0-6.0","task_version":"prescreen-v0.3","browser_interactions":0},{"responses":{"Q10":"4","Q11":"4","Q12":"1","Q13":"1","Q16":"0","Q14":"1","Q15":"1"},"rt":31085.5,"radio_events":[5170.699999988079,6466,9305,10452.800000011921,14713.600000023842,19815,28073.899999976158,30240.5],"key_events":[],"mouse_events":[5170.699999988079,6466,9305,10452.800000011921,14713.600000023842,19815,28073.899999976158,30240.5,31083],"survey":"map","page":4,"trial_type":"survey-map","trial_index":7,"time_elapsed":252554,"internal_node_id":"0.0-7.0","task_version":"prescreen-v0.3","browser_interactions":0,"infrequency":0},{"view_history":[{"page_index":0,"viewing_time":2421.899999976158},{"page_index":1,"viewing_time":4840}],"rt":7263.800000011921,"trial_type":"instructions","trial_index":8,"time_elapsed":259825,"internal_node_id":"0.0-8.0","task_version":"prescreen-v0.3"},{"responses":{"01":"No","02":"Yes","02_ages_5":"5","02_ages_6":"6","02_ages_7":"7","02_ages_8":"8","02_ages_9":"9","02_ages_10":"10","02_ages_11":"11","02_ages_12":"12","02_ages_13":"13","02_ages_14":"14","02_ages_15":"15","02_ages_16":"16","02_ages_17":"17","02_ages_18":"18","03":"Yes","03_ages_6":"6","03_ages_7":"7","03_ages_8":"8","03_ages_9":"9","03_ages_10":"10","03_ages_11":"11","03_ages_12":"12","03_ages_13":"13","03_ages_14":"14","03_ages_15":"15","03_ages_16":"16","03_ages_17":"17","03_ages_18":"18","04":"No","05":"No","06":"No"},"rt":63765,"item_order":[0,1,2,3,4,5],"radio_events":[5323.799999952316,16779.399999976158,25665.19999998808,27106,42095.799999952316,47302.19999998808,49364.89999997616,63006.69999998808],"checkbox_events":[30573,31390.099999964237,31777.5,32213.399999976158,33240.59999996424,33710.39999997616,34446.799999952316,35046.09999996424,35933.39999997616,36524.69999998808,37003,38368.59999996424,39323.19999998808,51663.69999998808,52437.69999998808,52955.59999996424,53424.39999997616,53925.299999952316,54370.19999998808,54831.39999997616,55373,55825.299999952316,56270.69999998808,56691.39999997616,57605.09999996424,58097.299999952316,58551.5],"key_events":[],"mouse_events":[0,4769.799999952316,5323.799999952316,16779.399999976158,25665.19999998808,27106,30573,31390.099999964237,31777.5,32213.399999976158,32643.399999976158,33240.59999996424,33710.39999997616,34446.799999952316,35046.09999996424,35522.5,35933.39999997616,36524.69999998808,37003,37745.89999997616,38368.59999996424,38813.39999997616,39323.19999998808,42095.799999952316,43455.39999997616,46881.89999997616,47302.19999998808,49364.89999997616,51663.69999998808,52129.69999998808,52437.69999998808,52955.59999996424,53424.39999997616,53925.299999952316,54370.19999998808,54831.39999997616,55373,55825.299999952316,56270.69999998808,56691.39999997616,57167.39999997616,57605.09999996424,58097.299999952316,58551.5,59867.59999996424,62520,63006.69999998808,63759.09999996424],"honeypot":0,"survey":"mace","page":1,"trial_type":"survey-mace","trial_index":9,"time_elapsed":323603,"internal_node_id":"0.0-9.0","task_version":"prescreen-v0.3","browser_interactions":0},{"responses":{"01":"No","02":"No","03":"Yes","03_ages_6":"6","03_ages_7":"7","03_ages_8":"8","03_ages_9":"9","03_ages_10":"10","03_ages_11":"11","03_ages_12":"12","04":"No","05":"No","06":"No","07":"No","08":"No"},"rt":42531.700000047684,"item_order":[0,1,2,3,4,5,6,7],"radio_events":[11327.700000047684,12367.600000023842,14406.600000023842,30535.900000035763,34667.40000003576,38030.700000047684,39914.700000047684,41799],"checkbox_events":[24657.30000001192,25142.600000023842,25950,26499,26880,27599.200000047684,27971.400000035763],"key_events":[],"mouse_events":[11327.700000047684,12367.600000023842,14406.600000023842,24657.30000001192,25142.600000023842,25521.400000035763,25950,26499,26880,27599.200000047684,27971.400000035763,30535.900000035763,34667.40000003576,38030.700000047684,39914.700000047684,41799,42526.60000002384],"honeypot":0,"survey":"mace","page":2,"trial_type":"survey-mace","trial_index":10,"time_elapsed":366144,"internal_node_id":"0.0-10.0","task_version":"prescreen-v0.3","browser_interactions":0},{"responses":{"01":"No","02":"No","03":"No","04":"No"},"rt":18005.100000023842,"item_order":[0,1,2,3],"radio_events":[14226.100000023842,15164.5,16216.5,17244.30000001192],"checkbox_events":[],"key_events":[],"mouse_events":[14226.100000023842,15164.5,16216.5,17244.30000001192,18003],"honeypot":0,"survey":"mace","page":3,"trial_type":"survey-mace","trial_index":11,"time_elapsed":384156,"internal_node_id":"0.0-11.0","task_version":"prescreen-v0.3","browser_interactions":0},{"responses":{"01":"No","02":"No"},"rt":8437.699999988079,"item_order":[0,1],"radio_events":[6109.300000011921,7781.699999988079],"checkbox_events":[],"key_events":[],"mouse_events":[6109.300000011921,7781.699999988079,8435.899999976158],"honeypot":0,"survey":"mace","page":4,"trial_type":"survey-mace","trial_index":12,"time_elapsed":392600,"internal_node_id":"0.0-12.0","task_version":"prescreen-v0.3","browser_interactions":0},{"responses":{"01":"No","02":"No","03":"No","04":"No","05":"No"},"rt":16969.30000001192,"item_order":[0,1,2,3,4],"radio_events":[9263.5,10145.900000035763,12347.600000023842,14433.699999988079,16300.600000023842],"checkbox_events":[],"key_events":[],"mouse_events":[9263.5,10145.900000035763,12347.600000023842,14433.699999988079,16300.600000023842,16964.80000001192],"honeypot":0,"survey":"mace","page":5,"trial_type":"survey-mace","trial_index":13,"time_elapsed":409579,"internal_node_id":"0.0-13.0","task_version":"prescreen-v0.3","browser_interactions":0},{"responses":{"01":"Yes","01_ages_7":"7","01_ages_8":"8","01_ages_9":"9","01_ages_10":"10","01_ages_11":"11","01_ages_12":"12","01_ages_13":"13","02":"Yes","02_ages_8":"8","02_ages_9":"9","02_ages_10":"10","02_ages_11":"11","02_ages_12":"12","02_ages_13":"13","02_ages_14":"14","02_ages_15":"15","03":"Yes","03_ages_12":"12","03_ages_13":"13","03_ages_14":"14","03_ages_15":"15","04":"Yes","04_ages_6":"6","04_ages_7":"7","04_ages_8":"8","04_ages_9":"9","04_ages_10":"10","04_ages_11":"11","04_ages_12":"12","04_ages_13":"13","04_ages_14":"14","04_ages_15":"15","04_ages_16":"16","04_ages_17":"17","04_ages_18":"18","05":"No"},"rt":40350.60000002384,"item_order":[0,1,2,3,4],"radio_events":[6500.100000023842,13940.800000011921,22675.5,29120.80000001192,39496.10000002384],"checkbox_events":[8700.100000023842,9564.699999988079,10172,10770.399999976158,11247.699999988079,11773.100000023842,12445.300000011921,15630.300000011921,16147.5,16536.600000023842,17224.100000023842,18300.5,18784.80000001192,19319.19999998808,19763.80000001192,24656.19999998808,25230.399999976158,25650.100000023842,26274,30042.80000001192,30431.399999976158,30933.5,31320.19999998808,31894.69999998808,32371.899999976158,33269.19999998808,33631.89999997616,34473.80000001192,34951.30000001192,35581.5,36034.69999998808,36713.5],"key_events":[],"mouse_events":[6500.100000023842,8700.100000023842,9184.899999976158,9564.699999988079,10172,10770.399999976158,11247.699999988079,11773.100000023842,12445.300000011921,13940.800000011921,15630.300000011921,16147.5,16536.600000023842,17224.100000023842,17791.19999998808,18300.5,18784.80000001192,19319.19999998808,19763.80000001192,22675.5,24656.19999998808,25230.399999976158,25650.100000023842,26274,28797.5,29120.80000001192,30042.80000001192,30431.399999976158,30933.5,31320.19999998808,31894.69999998808,32371.899999976158,32889.80000001192,33269.19999998808,33631.89999997616,34473.80000001192,34951.30000001192,35581.5,36034.69999998808,36713.5,39496.10000002384,40345.69999998808],"honeypot":0,"survey":"mace","page":6,"trial_type":"survey-mace","trial_index":14,"time_elapsed":449937,"internal_node_id":"0.0-14.0","task_version":"prescreen-v0.3","browser_interactions":0},{"responses":{"01":"No","02":"No","03":"No","04":"No","05":"No","06":"No","07":"No"},"rt":11215.399999976158,"item_order":[0,1,2,3,4,5,6],"radio_events":[2991.899999976158,4033.199999988079,5734.300000011921,7691.300000011921,8667.699999988079,9841.399999976158,10787.199999988079],"checkbox_events":[],"key_events":[],"mouse_events":[2991.899999976158,4033.199999988079,5734.300000011921,7691.300000011921,8667.699999988079,9841.399999976158,10787.199999988079,11208.800000011921],"honeypot":0,"survey":"mace","page":7,"trial_type":"survey-mace","trial_index":15,"time_elapsed":461163,"internal_node_id":"0.0-15.0","task_version":"prescreen-v0.3","browser_interactions":0},{"responses":{"01":"No","02":"Yes","02_ages_6":"6","02_ages_7":"7","02_ages_8":"8","02_ages_9":"9","02_ages_10":"10","02_ages_11":"11","02_ages_12":"12","02_ages_13":"13","02_ages_14":"14","02_ages_15":"15","02_ages_16":"16","02_ages_17":"17","02_ages_18":"18","03":"Yes","03_ages_6":"6","03_ages_7":"7","03_ages_8":"8","03_ages_9":"9","03_ages_10":"10","03_ages_11":"11","03_ages_12":"12","03_ages_13":"13","03_ages_14":"14","03_ages_15":"15","03_ages_16":"16","03_ages_17":"17","04":"Yes","04_ages_6":"6","04_ages_7":"7","04_ages_8":"8","04_ages_9":"9","04_ages_10":"10","04_ages_11":"11","04_ages_12":"12","04_ages_13":"13","04_ages_14":"14","04_ages_15":"15","04_ages_16":"16","04_ages_17":"17","04_ages_18":"18"},"rt":42791.10000002384,"item_order":[0,1,2,3],"radio_events":[5446.100000023842,7232.600000023842,24147.100000023842,34255.700000047684],"checkbox_events":[16027.800000011921,16472.400000035763,17768,18672.100000023842,19020.700000047684,19520.30000001192,20103.200000047684,20597.30000001192,21001.5,21575.200000047684,22107.900000035763,22700.5,23169,25498.30000001192,25942.80000001192,26388.100000023842,27615.30000001192,28093.600000023842,29274.400000035763,29686.400000035763,30082,30721.200000047684,31166.30000001192,31732.80000001192,32225.900000035763,35515.60000002384,36067.60000002384,36802.60000002384,37190.700000047684,37685.10000002384,38167.700000047684,38655,39132,39673.40000003576,40231.80000001192,40772.60000002384,41525.60000002384,42368.10000002384],"key_events":[],"mouse_events":[5446.100000023842,7232.600000023842,15445.900000035763,16027.800000011921,16472.400000035763,17768,18672.100000023842,19020.700000047684,19520.30000001192,20103.200000047684,20597.30000001192,21001.5,21575.200000047684,22107.900000035763,22700.5,23169,24147.100000023842,25498.30000001192,25942.80000001192,26388.100000023842,27615.30000001192,28093.600000023842,28742.600000023842,29274.400000035763,29686.400000035763,30082,30721.200000047684,31166.30000001192,31732.80000001192,32225.900000035763,32637.400000035763,34255.700000047684,35515.60000002384,36067.60000002384,36802.60000002384,37190.700000047684,37685.10000002384,38167.700000047684,38655,39132,39673.40000003576,40231.80000001192,40772.60000002384,41525.60000002384,42368.10000002384,42787.700000047684],"honeypot":0,"survey":"mace","page":8,"trial_type":"survey-mace","trial_index":16,"time_elapsed":503963,"internal_node_id":"0.0-16.0","task_version":"prescreen-v0.3","browser_interactions":0},{"responses":{"01":"Yes","01_ages_1":"1","01_ages_2":"2","01_ages_3":"3","01_ages_4":"4","01_ages_5":"5","01_ages_6":"6","01_ages_7":"7","01_ages_8":"8","01_ages_9":"9","01_ages_10":"10","01_ages_11":"11","01_ages_12":"12","01_ages_13":"13","01_ages_14":"14","01_ages_15":"15","01_ages_16":"16","01_ages_17":"17","01_ages_18":"18","02":"Yes","02_ages_1":"1","02_ages_2":"2","02_ages_3":"3","02_ages_4":"4","02_ages_5":"5","02_ages_6":"6","02_ages_7":"7","02_ages_8":"8","02_ages_9":"9","02_ages_10":"10","02_ages_11":"11","02_ages_12":"12","02_ages_13":"13","02_ages_14":"14","02_ages_15":"15","02_ages_16":"16","02_ages_17":"17","02_ages_18":"18","03":"Yes","03_ages_1":"1","03_ages_2":"2","03_ages_3":"3","03_ages_4":"4","03_ages_5":"5","03_ages_6":"6","03_ages_7":"7","03_ages_8":"8","03_ages_9":"9","03_ages_10":"10","03_ages_11":"11","03_ages_12":"12","03_ages_13":"13","03_ages_14":"14","03_ages_15":"15","03_ages_16":"16","03_ages_17":"17","03_ages_18":"18","04":"Yes","04_ages_1":"1","04_ages_2":"2","04_ages_3":"3","04_ages_4":"4","04_ages_5":"5","04_ages_6":"6","04_ages_7":"7","04_ages_8":"8","04_ages_9":"9","04_ages_10":"10","04_ages_11":"11","04_ages_12":"12","04_ages_13":"13","04_ages_14":"14","04_ages_15":"15","04_ages_16":"16","04_ages_17":"17","04_ages_18":"18"},"rt":61164.89999997616,"item_order":[0,1,2,3],"radio_events":[7818.099999964237,22665.099999964237,23505.099999964237,26732.399999976158],"checkbox_events":[9129.599999964237,9548.5,9912.799999952316,10842.599999964237,11213.399999976158,11731.899999976158,12223.299999952316,12693.099999964237,13188.099999964237,14051.299999952316,14795.899999976158,15742.799999952316,16632,17263.69999998808,17821.19999998808,18354.5,18888.5,19534.399999976158,27889.599999964237,28293.399999976158,28754.899999976158,29223.69999998808,29667.399999976158,30152.399999976158,30679.799999952316,31173.099999964237,31634.599999964237,32102.799999952316,32718.19999998808,33177.89999997616,33720.299999952316,34246.59999996424,34787.799999952316,35289.09999996424,35790.69999998808,36276.89999997616,40925.19999998808,41322.59999996424,41727.19999998808,42188.39999997616,43061.19999998808,43465.19999998808,43918.39999997616,44332.19999998808,44792.59999996424,45544.59999996424,46021.59999996424,46611.69999998808,47080.69999998808,48043.39999997616,48528.19999998808,49112,49669.299999952316,50267.19999998808,51212.09999996424,51916.89999997616,52515.19999998808,53154,53635.19999998808,54124.5,55046.89999997616,55459.299999952316,56050.19999998808,56623.69999998808,57173.5,57674.299999952316,58152.299999952316,58669.799999952316,59194.59999996424,59646.09999996424,60134.299999952316,60715.299999952316],"key_events":[],"mouse_events":[7818.099999964237,9129.599999964237,9548.5,9912.799999952316,10405.699999988079,10842.599999964237,11213.399999976158,11731.899999976158,12223.299999952316,12693.099999964237,13188.099999964237,13634.099999964237,14051.299999952316,14457.699999988079,14795.899999976158,15314.599999964237,15742.799999952316,16123.599999964237,16632,17263.69999998808,17821.19999998808,18354.5,18888.5,19534.399999976158,22665.099999964237,23505.099999964237,26409.5,26732.399999976158,27889.599999964237,28293.399999976158,28754.899999976158,29223.69999998808,29667.399999976158,30152.399999976158,30679.799999952316,31173.099999964237,31634.599999964237,32102.799999952316,32718.19999998808,33177.89999997616,33720.299999952316,34246.59999996424,34787.799999952316,35289.09999996424,35790.69999998808,36276.89999997616,40925.19999998808,41322.59999996424,41727.19999998808,42188.39999997616,42632,43061.19999998808,43465.19999998808,43918.39999997616,44332.19999998808,44792.59999996424,45544.59999996424,46021.59999996424,46611.69999998808,47080.69999998808,47573.69999998808,48043.39999997616,48528.19999998808,49112,49669.299999952316,50267.19999998808,51212.09999996424,51583.5,51916.89999997616,52515.19999998808,53154,53635.19999998808,54124.5,54593.59999996424,55046.89999997616,55459.299999952316,56050.19999998808,56623.69999998808,57173.5,57674.299999952316,58152.299999952316,58669.799999952316,59194.59999996424,59646.09999996424,60134.299999952316,60715.299999952316,61160.89999997616],"honeypot":0,"survey":"mace","page":9,"trial_type":"survey-mace","trial_index":17,"time_elapsed":565137,"internal_node_id":"0.0-17.0","task_version":"prescreen-v0.3","browser_interactions":2},{"responses":{"01":"No","02":"No","03":"No","04":"No","05":"Yes","05_ages_10":"10","05_ages_11":"11","05_ages_12":"12","05_ages_13":"13","05_ages_14":"14","05_ages_15":"15","05_ages_16":"16","05_ages_17":"17","05_ages_18":"18","06":"Yes","06_ages_17":"17","07":"Yes","07_ages_1":"1","07_ages_2":"2","07_ages_3":"3","07_ages_4":"4","07_ages_5":"5","07_ages_6":"6","07_ages_7":"7","07_ages_8":"8","07_ages_9":"9","07_ages_10":"10","07_ages_11":"11","07_ages_12":"12","07_ages_13":"13","07_ages_14":"14","07_ages_15":"15","07_ages_16":"16","07_ages_17":"17","07_ages_18":"18","08":"Yes","08_ages_1":"1","08_ages_2":"2","08_ages_3":"3","08_ages_4":"4","08_ages_5":"5","08_ages_6":"6","08_ages_7":"7","08_ages_8":"8","08_ages_9":"9","08_ages_10":"10","08_ages_11":"11","08_ages_12":"12","08_ages_13":"13","08_ages_14":"14","08_ages_15":"15","08_ages_16":"16","08_ages_17":"17","08_ages_18":"18"},"rt":50553.90000003576,"item_order":[0,1,2,3,4,5,6,7],"radio_events":[3219.800000011921,3704.600000023842,6452.900000035763,9440,12009.600000023842,20510.30000001192,26535.80000001192,27805.200000047684],"checkbox_events":[14744.100000023842,15714.600000023842,16111.200000047684,16555.30000001192,16991.80000001192,17413.100000023842,17865.200000047684,18318.600000023842,18811.900000035763,21731,29600.5,30021,30490.600000023842,31413.100000023842,31791.80000001192,32326.400000035763,32827.60000002384,33302.700000047684,33816,34332.60000002384,34848.90000003576,35334.30000001192,36482.200000047684,36975.80000001192,37453.200000047684,37913.700000047684,38383.40000003576,38916.90000003576,40186.10000002384,41076.10000002384,41553.60000002384,42095.5,42855.30000001192,43364.80000001192,43850.40000003576,44529,45054.90000003576,45515.80000001192,46033.200000047684,46567.700000047684,47085,47651.200000047684,48322.5,48848.10000002384,49361.10000002384,49868.10000002384],"key_events":[],"mouse_events":[2411.2000000476837,3219.800000011921,3704.600000023842,6452.900000035763,9440,12009.600000023842,14744.100000023842,15213.300000011921,15714.600000023842,16111.200000047684,16555.30000001192,16991.80000001192,17413.100000023842,17865.200000047684,18318.600000023842,18811.900000035763,20510.30000001192,21731,26535.80000001192,27805.200000047684,29600.5,30021,30490.600000023842,30950.200000047684,31413.100000023842,31791.80000001192,32326.400000035763,32827.60000002384,33302.700000047684,33816,34332.60000002384,34848.90000003576,35334.30000001192,35852.200000047684,36482.200000047684,36975.80000001192,37453.200000047684,37913.700000047684,38383.40000003576,38916.90000003576,39862.80000001192,40186.10000002384,40607.60000002384,41076.10000002384,41553.60000002384,42095.5,42855.30000001192,43364.80000001192,43850.40000003576,44529,45054.90000003576,45515.80000001192,46033.200000047684,46567.700000047684,47085,47651.200000047684,48322.5,48848.10000002384,49361.10000002384,49868.10000002384,50547.200000047684],"honeypot":0,"survey":"mace","page":10,"trial_type":"survey-mace","trial_index":18,"time_elapsed":615700,"internal_node_id":"0.0-18.0","task_version":"prescreen-v0.3","browser_interactions":0,"instructed":0},{"rt":5561.699999988079,"trial_type":"mental-health-alert","trial_index":19,"time_elapsed":621271,"internal_node_id":"0.0-19.0","task_version":"prescreen-v0.3","interactions":"[{\"event\":\"blur\",\"trial\":3,\"time\":118862},{\"event\":\"focus\",\"trial\":3,\"time\":139200},{\"event\":\"blur\",\"trial\":17,\"time\":541086},{\"event\":\"focus\",\"trial\":17,\"time\":543158}]"}]