[{"view_history":[{"page_index":0,"viewing_time":5260.4000000003725},{"page_index":1,"viewing_time":3939.5},{"page_index":2,"viewing_time":3685.899999999441},{"page_index":3,"viewing_time":2496.4000000003725}],"rt":15382.900000000373,"trial_type":"instructions","trial_index":0,"time_elapsed":15411,"internal_node_id":"0.0-0.0","task_version":"prescreen-v0.3"},{"rt":22429.700000000186,"responses":{"age":"45","gender-categorical":"Male","gender-free-response":"","ethnicity":"Not Hispanic or Latino","race":["Asian"],"education":"Master degree or higher"},"trial_type":"survey-demo","trial_index":1,"time_elapsed":37845,"internal_node_id":"0.0-1.0","task_version":"prescreen-v0.3"},{"responses":{"Q12":"0","Q05":"2","Q14":"2","Q11":"2","Q16":"2","Q15":"2","Q01":"1","Q06":"1","Q04":"1","Q13":"2","Q08":"2","Q10":"1","Q17":"1","Q02":"1","Q09":"2","Q20":"0","Q18":"2","Q07":"2","Q03":"1","Q21":"3","Q19":"2"},"rt":131729.60000000056,"item_order":[11,4,13,10,15,14,0,5,3,12,7,9,16,1,8,19,17,6,2,20,18],"radio_events":[15057.100000000559,23071.200000000186,27827.300000000745,30607.300000000745,34651.300000000745,39489.10000000056,43085.40000000037,48197.200000000186,49917.10000000056,64479,68957,73003.20000000019,75763,79069.10000000056,82641.10000000056,88527.10000000056,94741.10000000056,102147.10000000056,108887.20000000019,110895.10000000056,113901,125639.20000000019,131197],"key_events":[],"mouse_events":[13513.400000000373,15057.100000000559,23071.200000000186,27827.300000000745,30607.300000000745,34651.300000000745,39489.10000000056,42611.5,43085.40000000037,48197.200000000186,49917.10000000056,64479,68957,73003.20000000019,75763,79069.10000000056,82641.10000000056,88527.10000000056,94741.10000000056,102147.10000000056,108887.20000000019,110895.10000000056,113901,125639.20000000019,131197,131727],"straightlining":0.5238095238095238,"zigzagging":0.3,"honeypot":0,"survey":"sns","trial_type":"survey-template","trial_index":2,"time_elapsed":169579,"internal_node_id":"0.0-2.0","task_version":"prescreen-v0.3","browser_interactions":0,"infrequency":0},{"responses":{"Q04":"2","Q05":"2","Q08":"2","Q06":"3","Q10":"3","Q13":"0","Q07":"1","Q01":"3","Q03":"3","Q12":"2","Q09":"2","Q11":"1","Q02":"1"},"rt":63570,"item_order":[3,4,7,5,9,12,6,0,2,11,8,10,1],"radio_events":[5010.9000000003725,11005.100000000559,15269,25243.200000000186,26053.299999999814,33225,39644.90000000037,44179,47254.799999999814,50293.5,52784.90000000037,59437,62382.799999999814],"key_events":[],"mouse_events":[5010.9000000003725,11005.100000000559,14046.900000000373,14612.799999999814,15269,19500.900000000373,25243.200000000186,26053.299999999814,33225,39644.90000000037,44179,47254.799999999814,50293.5,52784.90000000037,59437,62382.799999999814,63569],"straightlining":0.38461538461538464,"zigzagging":0.4166666666666667,"honeypot":0,"survey":"bisbas","trial_type":"survey-template","trial_index":3,"time_elapsed":233153,"internal_node_id":"0.0-3.0","task_version":"prescreen-v0.3","browser_interactions":0,"infrequency":0},{"responses":{"Q01":"0","Q02":"0","Q03":"0"},"rt":19988.5,"radio_events":[8402,12351.899999999441,19045.89999999944],"key_events":[],"mouse_events":[8402,12351.899999999441,19045.89999999944,19987.89999999944],"survey":"map","page":1,"trial_type":"survey-map","trial_index":4,"time_elapsed":253144,"internal_node_id":"0.0-4.0","task_version":"prescreen-v0.3","browser_interactions":0},{"responses":{"Q04":"0","Q05":"0","Q06":"0"},"rt":12674.200000000186,"radio_events":[5923.5999999996275,9037.399999999441,11891.399999999441],"key_events":[],"mouse_events":[5923.5999999996275,9037.399999999441,11891.399999999441,12673.599999999627],"survey":"map","page":2,"trial_type":"survey-map","trial_index":5,"time_elapsed":265820,"internal_node_id":"0.0-5.0","task_version":"prescreen-v0.3","browser_interactions":0},{"responses":{"Q07":"4","Q08":"4","Q09":"2"},"rt":19496.099999999627,"radio_events":[11691.700000000186,14627.599999999627,17841.799999999814],"key_events":[],"mouse_events":[11691.700000000186,14627.599999999627,17301.5,17841.799999999814,19495.599999999627],"survey":"map","page":3,"trial_type":"survey-map","trial_index":6,"time_elapsed":285318,"internal_node_id":"0.0-6.0","task_version":"prescreen-v0.3","browser_interactions":0},{"responses":{"Q10":"0","Q11":"2","Q12":"0","Q13":"2","Q16":"0","Q14":"0","Q15":"0"},"rt":64764.59999999963,"radio_events":[9781.799999999814,31267.699999999255,42547.699999999255,46989.59999999963,53561.699999999255,56881.699999999255,62726],"key_events":[],"mouse_events":[6063.5999999996275,9781.799999999814,31267.699999999255,42547.699999999255,46989.59999999963,53561.699999999255,56881.699999999255,58215.699999999255,62726,64763.799999999814],"survey":"map","page":4,"trial_type":"survey-map","trial_index":7,"time_elapsed":350085,"internal_node_id":"0.0-7.0","task_version":"prescreen-v0.3","browser_interactions":0,"infrequency":0},{"view_history":[{"page_index":0,"viewing_time":3579.7000000001863},{"page_index":1,"viewing_time":8023.799999999814}],"rt":11603.900000000373,"trial_type":"instructions","trial_index":8,"time_elapsed":361690,"internal_node_id":"0.0-8.0","task_version":"prescreen-v0.3"},{"responses":{"01":"Yes","01_ages_8":"8","01_ages_9":"9","01_ages_10":"10","01_ages_11":"11","01_ages_12":"12","01_ages_13":"13","01_ages_14":"14","01_ages_15":"15","01_ages_16":"16","01_ages_17":"17","01_ages_18":"18","02":"Yes","02_ages_13":"13","02_ages_14":"14","02_ages_15":"15","02_ages_16":"16","02_ages_17":"17","02_ages_18":"18","03":"No","04":"No","05":"No","06":"Yes","06_ages_6":"6","06_ages_8":"8","06_ages_13":"13","06_ages_14":"14","06_ages_16":"16","06_ages_17":"17","06_ages_18":"18"},"rt":58314.700000000186,"item_order":[0,1,2,3,4,5],"radio_events":[6616.299999999814,27390,36248.5,39910.200000000186,43823.90000000037,46343.90000000037],"checkbox_events":[13094.400000000373,13638.100000000559,14442.5,15018,15720.100000000559,16775.900000000373,17259.900000000373,17879.900000000373,19574.10000000056,20351.900000000373,21177.900000000373,29307.900000000373,29837.900000000373,30348.10000000056,30977.799999999814,31402.10000000056,31826.200000000186,48514.10000000056,49676,50174.10000000056,51084.10000000056,52519.90000000037,54389.799999999814,55082.10000000056,56751.90000000037,57765.799999999814],"key_events":[],"mouse_events":[0.10000000055879354,6616.299999999814,13094.400000000373,13638.100000000559,14442.5,15018,15720.100000000559,16775.900000000373,17259.900000000373,17879.900000000373,19574.10000000056,20351.900000000373,21177.900000000373,27390,29307.900000000373,29837.900000000373,30348.10000000056,30977.799999999814,31402.10000000056,31826.200000000186,36248.5,39088,39910.200000000186,43823.90000000037,46343.90000000037,48514.10000000056,49676,50174.10000000056,51084.10000000056,52519.90000000037,54389.799999999814,55082.10000000056,56751.90000000037,57765.799999999814,58312.40000000037],"honeypot":0,"survey":"mace","page":1,"trial_type":"survey-mace","trial_index":9,"time_elapsed":420009,"internal_node_id":"0.0-9.0","task_version":"prescreen-v0.3","browser_interactions":0},{"responses":{"01":"No","02":"No","03":"Yes","03_ages_16":"16","03_ages_17":"17","04":"No","05":"No","06":"No","07":"No","08":"No"},"rt":28290.39999999944,"item_order":[0,1,2,3,4,5,6,7],"radio_events":[5809.799999999814,8749.700000000186,11145.799999999814,16391.700000000186,19359.89999999944,22965.700000000186,25139.599999999627,26981.5],"checkbox_events":[12583.799999999814,13091.599999999627],"key_events":[],"mouse_events":[5809.799999999814,8749.700000000186,11145.799999999814,12583.799999999814,13091.599999999627,16391.700000000186,19359.89999999944,22965.700000000186,25139.599999999627,26981.5,28287.700000000186],"honeypot":0,"survey":"mace","page":2,"trial_type":"survey-mace","trial_index":10,"time_elapsed":448304,"internal_node_id":"0.0-10.0","task_version":"prescreen-v0.3","browser_interactions":0},{"responses":{"01":"No","02":"No","03":"Yes","03_ages_18":"18","04":"No"},"rt":20829.60000000056,"item_order":[0,1,2,3],"radio_events":[9851.900000000373,12188.100000000559,16439.900000000373,20304.10000000056],"checkbox_events":[17751.799999999814],"key_events":[],"mouse_events":[9851.900000000373,12188.100000000559,16439.900000000373,17751.799999999814,20304.10000000056,20828.200000000186],"honeypot":0,"survey":"mace","page":3,"trial_type":"survey-mace","trial_index":11,"time_elapsed":469136,"internal_node_id":"0.0-11.0","task_version":"prescreen-v0.3","browser_interactions":0},{"responses":{"01":"No","02":"No"},"rt":5136.799999999814,"item_order":[0,1],"radio_events":[2856.2999999998137,4522.0999999996275],"checkbox_events":[],"key_events":[],"mouse_events":[2856.2999999998137,4522.0999999996275,5135.899999999441],"honeypot":0,"survey":"mace","page":4,"trial_type":"survey-mace","trial_index":12,"time_elapsed":474275,"internal_node_id":"0.0-12.0","task_version":"prescreen-v0.3","browser_interactions":0},{"responses":{"01":"No","02":"No","03":"No","04":"No","05":"No"},"rt":15266.799999999814,"item_order":[0,1,2,3,4],"radio_events":[4885.200000000186,6923.100000000559,9396.799999999814,12382.900000000373,14327],"checkbox_events":[],"key_events":[],"mouse_events":[4885.200000000186,6923.100000000559,9396.799999999814,12382.900000000373,14327,15264.900000000373],"honeypot":0,"survey":"mace","page":5,"trial_type":"survey-mace","trial_index":13,"time_elapsed":489544,"internal_node_id":"0.0-13.0","task_version":"prescreen-v0.3","browser_interactions":0},{"responses":{"01":"Yes","01_ages_14":"14","01_ages_15":"15","02":"Yes","02_ages_12":"12","02_ages_13":"13","02_ages_14":"14","03":"Yes","03_ages_17":"17","03_ages_18":"18","04":"No","05":"No"},"rt":39247.299999999814,"item_order":[0,1,2,3,4],"radio_events":[6687.0999999996275,13451.400000000373,30665.099999999627,36481.299999999814,38423.299999999814],"checkbox_events":[8563.299999999814,9783.400000000373,14577.599999999627,15123.299999999814,15701.400000000373,16075.400000000373,16453.299999999814,16841.099999999627,17301.200000000186,21601.099999999627,22181.5,22655.299999999814,24491.299999999814,31845.5,32447.400000000373],"key_events":[],"mouse_events":[6687.0999999996275,8563.299999999814,9783.400000000373,13451.400000000373,14577.599999999627,15123.299999999814,15701.400000000373,16075.400000000373,16453.299999999814,16841.099999999627,17301.200000000186,21601.099999999627,22181.5,22655.299999999814,24491.299999999814,30665.099999999627,31845.5,32447.400000000373,36481.299999999814,38423.299999999814,39245.5],"honeypot":0,"survey":"mace","page":6,"trial_type":"survey-mace","trial_index":14,"time_elapsed":528794,"internal_node_id":"0.0-14.0","task_version":"prescreen-v0.3","browser_interactions":0},{"responses":{"01":"No","02":"No","03":"Yes","03_ages_13":"13","03_ages_14":"14","03_ages_15":"15","03_ages_16":"16","03_ages_17":"17","03_ages_18":"18","04":"No","05":"No","06":"No","07":"No"},"rt":25995.299999999814,"item_order":[0,1,2,3,4,5,6],"radio_events":[3985,7262.700000000186,10244.799999999814,17440.700000000186,21312.900000000373,23496.799999999814,24980.900000000373],"checkbox_events":[11876.900000000373,12306.700000000186,12704.5,13354.900000000373,13764.700000000186,14510.599999999627],"key_events":[],"mouse_events":[3985,7262.700000000186,10244.799999999814,11876.900000000373,12306.700000000186,12704.5,13354.900000000373,13764.700000000186,14510.599999999627,17440.700000000186,21312.900000000373,23496.799999999814,24980.900000000373,25992.900000000373],"honeypot":0,"survey":"mace","page":7,"trial_type":"survey-mace","trial_index":15,"time_elapsed":554793,"internal_node_id":"0.0-15.0","task_version":"prescreen-v0.3","browser_interactions":0},{"responses":{"01":"No","02":"No","03":"No","03_ages_18":"18","04":"No"},"rt":29492,"item_order":[0,1,2,3],"radio_events":[9654.5,11838.700000000186,17634.5,23928.39999999944,28622.700000000186],"checkbox_events":[19822.5],"key_events":[],"mouse_events":[9654.5,11838.700000000186,17634.5,19822.5,23928.39999999944,28622.700000000186,29490.5],"honeypot":0,"survey":"mace","page":8,"trial_type":"survey-mace","trial_index":16,"time_elapsed":584288,"internal_node_id":"0.0-16.0","task_version":"prescreen-v0.3","browser_interactions":0},{"responses":{"01":"Yes","01_ages_8":"8","01_ages_9":"9","01_ages_10":"10","01_ages_11":"11","01_ages_12":"12","01_ages_14":"14","01_ages_15":"15","02":"Yes","02_ages_13":"13","02_ages_14":"14","02_ages_15":"15","02_ages_16":"16","03":"No","04":"No"},"rt":42773.90000000037,"item_order":[0,1,2,3],"radio_events":[6200.100000000559,25628,35334.300000000745,41668.10000000056],"checkbox_events":[7314.100000000559,7864,8328.100000000559,8722.100000000559,9736.100000000559,10438.100000000559,11164.300000000745,11602.100000000559,12314.100000000559,12904.300000000745,13394.200000000186,14106.100000000559,14514,14966.100000000559,15502,15922.200000000186,17980.10000000056,18564.10000000056,19034.10000000056,19704.300000000745,20882.200000000186,27626,28016,28670.200000000186,29322.10000000056],"key_events":[],"mouse_events":[6200.100000000559,7314.100000000559,7864,8328.100000000559,8722.100000000559,9140,9736.100000000559,10438.100000000559,11164.300000000745,11602.100000000559,12314.100000000559,12904.300000000745,13394.200000000186,14106.100000000559,14514,14966.100000000559,15502,15922.200000000186,17980.10000000056,18564.10000000056,19034.10000000056,19704.300000000745,20882.200000000186,25628,27626,28016,28670.200000000186,29322.10000000056,35334.300000000745,41668.10000000056,42772.40000000037],"honeypot":0,"survey":"mace","page":9,"trial_type":"survey-mace","trial_index":17,"time_elapsed":627064,"internal_node_id":"0.0-17.0","task_version":"prescreen-v0.3","browser_interactions":0},{"responses":{"01":"No","02":"No","03":"No","04":"Yes","04_ages_16":"16","04_ages_17":"17","04_ages_18":"18","05":"Yes","05_ages_17":"17","05_ages_18":"18","06":"Yes","06_ages_17":"17","07":"Yes","07_ages_17":"17","07_ages_18":"18","08":"Yes","08_ages_17":"17","08_ages_18":"18"},"rt":52534.200000000186,"item_order":[0,1,2,3,4,5,6,7],"radio_events":[6313.299999999814,7449.4000000003725,10007.299999999814,13947.200000000186,20673.200000000186,26595.400000000373,41999.09999999963,48221.09999999963],"checkbox_events":[15061.200000000186,15551.400000000373,16695.200000000186,21773.200000000186,22943.400000000373,32057.400000000373,43201.09999999963,49267.299999999814,49665.299999999814,51371.200000000186],"key_events":[],"mouse_events":[3803.0999999996275,6313.299999999814,7449.4000000003725,10007.299999999814,13947.200000000186,15061.200000000186,15551.400000000373,16695.200000000186,20673.200000000186,21773.200000000186,22943.400000000373,26595.400000000373,32057.400000000373,41999.09999999963,43201.09999999963,48221.09999999963,49267.299999999814,49665.299999999814,50671.5,51371.200000000186,52531.5],"honeypot":0,"survey":"mace","page":10,"trial_type":"survey-mace","trial_index":18,"time_elapsed":679602,"internal_node_id":"0.0-18.0","task_version":"prescreen-v0.3","browser_interactions":0,"instructed":0},{"rt":3050.5,"trial_type":"mental-health-alert","trial_index":19,"time_elapsed":682654,"internal_node_id":"0.0-19.0","task_version":"prescreen-v0.3","interactions":"[]"}]