[{"view_history":[{"page_index":0,"viewing_time":4905},{"page_index":1,"viewing_time":4437},{"page_index":2,"viewing_time":5061},{"page_index":3,"viewing_time":1744}],"rt":16148,"trial_type":"instructions","trial_index":0,"time_elapsed":16155,"internal_node_id":"0.0-0.0","task_version":"prescreen-v0.3"},{"rt":21386,"responses":{"age":"32","gender-categorical":"Male","gender-free-response":"","ethnicity":"Not Hispanic or Latino","race":["Asian"],"education":"Associate degree","siblings":"1"},"trial_type":"survey-demo","trial_index":1,"time_elapsed":37551,"internal_node_id":"0.0-1.0","task_version":"prescreen-v0.3"},{"responses":{"Q16":"2","Q05":"0","Q20":"0","Q01":"1","Q13":"2","Q06":"1","Q21":"3","Q18":"1","Q17":"1","Q02":"0","Q12":"2","Q11":"1","Q03":"1","Q14":"1","Q15":"2","Q07":"2","Q08":"3","Q10":"1","Q19":"2","Q09":"0","Q04":"2"},"rt":135533,"item_order":[15,4,19,0,12,5,20,17,16,1,11,10,2,13,14,6,7,9,18,8,3],"radio_events":[10296.000000000007,16392,20894,25203,29645.000000000015,36162,41052,50533,55786,60499,63702,68166.00000000001,71521,77162,83764.00000000001,99254,105711,109791,119216,124114.00000000003,128824,133342],"key_events":[],"mouse_events":[10296.000000000007,16392,20894,25203,29645.000000000015,36162,41052,50533,55786,60499,63702,68166.00000000001,71521,77162,83764.00000000001,99254,105711,109791,119216,124114.00000000003,128824,133342,135519.00000000003],"straightlining":0.38095238095238093,"zigzagging":0.4,"honeypot":0,"survey":"sns","trial_type":"survey-template","trial_index":2,"time_elapsed":173113,"internal_node_id":"0.0-2.0","task_version":"prescreen-v0.3","browser_interactions":0,"infrequency":0},{"responses":{"Q01":"3","Q12":"1","Q06":"3","Q05":"3","Q08":"2","Q13":"0","Q07":"1","Q10":"2","Q09":"1","Q11":"2","Q04":"3","Q02":"3","Q03":"3"},"rt":74053.00000000003,"item_order":[0,11,5,4,7,12,6,9,8,10,3,1,2],"radio_events":[5187,11267,15672.00000000003,19626,22696.00000000003,26828,33434.00000000003,41015,49353,55376,61976.00000000003,66566,72238.00000000003],"key_events":[],"mouse_events":[5187,11267,15672.00000000003,19626,22696.00000000003,26828,33434.00000000003,41015,49353,55376,61976.00000000003,66566,71321.00000000003,72238.00000000003,74043],"straightlining":0.46153846153846156,"zigzagging":0.5,"honeypot":0,"survey":"bisbas","trial_type":"survey-template","trial_index":3,"time_elapsed":247173,"internal_node_id":"0.0-3.0","task_version":"prescreen-v0.3","browser_interactions":0,"infrequency":0},{"responses":{"Q01":"2","Q02":"2","Q03":"1"},"rt":30175,"radio_events":[7942.000000000029,14558.00000000003,17824,27116],"key_events":[],"mouse_events":[7942.000000000029,14558.00000000003,17824,27116,30171.00000000006],"survey":"map","page":1,"trial_type":"survey-map","trial_index":4,"time_elapsed":277354,"internal_node_id":"0.0-4.0","task_version":"prescreen-v0.3","browser_interactions":0},{"responses":{"Q04":"1","Q05":"2","Q06":"1"},"rt":22519,"radio_events":[5440,15221,21299],"key_events":[],"mouse_events":[5440,15221,21299,22516],"survey":"map","page":2,"trial_type":"survey-map","trial_index":5,"time_elapsed":299878,"internal_node_id":"0.0-5.0","task_version":"prescreen-v0.3","browser_interactions":0},{"responses":{"Q07":"4","Q08":"0","Q09":"1"},"rt":22577,"radio_events":[6168,12768,16771,20880.00000000006],"key_events":[],"mouse_events":[6168,12768,16771,20880.00000000006,22572],"survey":"map","page":3,"trial_type":"survey-map","trial_index":6,"time_elapsed":322459,"internal_node_id":"0.0-6.0","task_version":"prescreen-v0.3","browser_interactions":0},{"responses":{"Q10":"2","Q11":"3","Q12":"1","Q13":"1","Q16":"0","Q14":"1","Q15":"0"},"rt":45026.99999999994,"radio_events":[6287.999999999942,11694.999999999942,17553.99999999994,22830.99999999994,27257.99999999994,35344.99999999994,42344.99999999994],"key_events":[],"mouse_events":[6287.999999999942,11694.999999999942,17553.99999999994,22830.99999999994,27257.99999999994,35344.99999999994,42344.99999999994,45018.99999999994],"survey":"map","page":4,"trial_type":"survey-map","trial_index":7,"time_elapsed":367492,"internal_node_id":"0.0-7.0","task_version":"prescreen-v0.3","browser_interactions":0,"infrequency":0},{"view_history":[{"page_index":0,"viewing_time":4907},{"page_index":1,"viewing_time":4549}],"rt":9457,"trial_type":"instructions","trial_index":8,"time_elapsed":376951,"internal_node_id":"0.0-8.0","task_version":"prescreen-v0.3"},{"responses":{"01":"Yes","01_ages_12":"12","01_ages_13":"13","01_ages_14":"14","01_ages_15":"15","02":"Yes","02_ages_12":"12","02_ages_13":"13","02_ages_14":"14","02_ages_15":"15","03":"No","04":"No","05":"No","06":"No"},"rt":76977.99999999994,"item_order":[0,1,2,3,4,5],"radio_events":[19996.99999999994,43173.99999999994,61274,63474.99999999994,65118,72335.99999999994],"checkbox_events":[31151.99999999994,31908.99999999994,33126.99999999994,33904.99999999994,46816.99999999994,48344,49202,50187.99999999994],"key_events":[],"mouse_events":[0,19996.99999999994,31151.99999999994,31908.99999999994,33126.99999999994,33904.99999999994,43173.99999999994,46816.99999999994,48344,49202,50187.99999999994,61274,63474.99999999994,65118,72335.99999999994,76965.99999999994],"honeypot":0,"survey":"mace","page":1,"trial_type":"survey-mace","trial_index":9,"time_elapsed":453941,"internal_node_id":"0.0-9.0","task_version":"prescreen-v0.3","browser_interactions":0},{"responses":{"01":"Yes","01_ages_4":"4","01_ages_5":"5","01_ages_6":"6","01_ages_7":"7","01_ages_8":"8","02":"No","03":"Yes","03_ages_4":"4","03_ages_5":"5","03_ages_6":"6","03_ages_7":"7","03_ages_8":"8","04":"Yes","04_ages_4":"4","04_ages_5":"5","04_ages_6":"6","04_ages_7":"7","04_ages_8":"8","05":"Yes","05_ages_4":"4","05_ages_5":"5","05_ages_6":"6","05_ages_7":"7","06":"No","07":"No","08":"No"},"rt":81499,"item_order":[0,1,2,3,4,5,6,7],"radio_events":[24163,25983,39696,53456,64962,76489,78009,79596],"checkbox_events":[29768,31151,31921.00000000006,32642.00000000006,33893,35267.00000000006,41220,42438,46562,47664,49188,50987,54731.00000000006,55552,56266,57012,57717,66404.99999999994,66990.99999999994,67696,68341,69055.00000000006,69993.00000000006],"key_events":[],"mouse_events":[24163,25983,29768,31151,31921.00000000006,32642.00000000006,33893,35267.00000000006,39696,41220,42438,44630.00000000006,46562,47664,49188,50987,53456,54731.00000000006,55552,56266,57012,57717,64962,66404.99999999994,66990.99999999994,67696,68341,69055.00000000006,69993.00000000006,76489,78009,79596,81484],"honeypot":0,"survey":"mace","page":2,"trial_type":"survey-mace","trial_index":10,"time_elapsed":535448,"internal_node_id":"0.0-10.0","task_version":"prescreen-v0.3","browser_interactions":0},{"responses":{"01":"No","02":"No","03":"No","04":"No"},"rt":15980,"item_order":[0,1,2,3],"radio_events":[8289,9664,13134,14874],"checkbox_events":[],"key_events":[],"mouse_events":[8289,9664,13134,14874,15972],"honeypot":0,"survey":"mace","page":3,"trial_type":"survey-mace","trial_index":11,"time_elapsed":551433,"internal_node_id":"0.0-11.0","task_version":"prescreen-v0.3","browser_interactions":0},{"responses":{"01":"No","02":"No"},"rt":8528.000000000116,"item_order":[0,1],"radio_events":[4589,6517],"checkbox_events":[],"key_events":[],"mouse_events":[4589,6517,8522],"honeypot":0,"survey":"mace","page":4,"trial_type":"survey-mace","trial_index":12,"time_elapsed":559965,"internal_node_id":"0.0-12.0","task_version":"prescreen-v0.3","browser_interactions":0},{"responses":{"01":"No","02":"No","03":"No","04":"No","05":"No"},"rt":29218,"item_order":[0,1,2,3,4],"radio_events":[11789,16046,22576,25038,27839.000000000116],"checkbox_events":[],"key_events":[],"mouse_events":[11789,16046,22576,25038,27839.000000000116,29210],"honeypot":0,"survey":"mace","page":5,"trial_type":"survey-mace","trial_index":13,"time_elapsed":589191,"internal_node_id":"0.0-13.0","task_version":"prescreen-v0.3","browser_interactions":0},{"responses":{"01":"Yes","01_ages_7":"7","01_ages_8":"8","01_ages_9":"9","01_ages_10":"10","01_ages_11":"11","01_ages_12":"12","01_ages_13":"13","01_ages_14":"14","01_ages_15":"15","01_ages_16":"16","01_ages_17":"17","02":"Yes","02_ages_13":"13","02_ages_14":"14","02_ages_15":"15","02_ages_16":"16","02_ages_17":"17","03":"Yes","03_ages_13":"13","03_ages_14":"14","03_ages_15":"15","03_ages_16":"16","03_ages_17":"17","03_ages_18":"18","04":"Yes","04_ages_11":"11","04_ages_12":"12","04_ages_13":"13","04_ages_14":"14","04_ages_15":"15","04_ages_16":"16","04_ages_17":"17","04_ages_18":"18","05":"No"},"rt":66870,"item_order":[0,1,2,3,4],"radio_events":[7177,30611,39832,51802,65187],"checkbox_events":[11278,12785,13478,14216,15034,16027,17899,18821,19470,20080,20777,33394,34127,35001,35803,36436.00000000012,42329,43147,45071,45937,47192,47890,54556.00000000012,55334,55959,56536,57186.00000000012,57883.00000000012,58593,59315],"key_events":[],"mouse_events":[7177,11278,12785,13478,14216,15034,16027,17899,18821,19470,20080,20777,30611,33394,34127,35001,35803,36436.00000000012,39832,42329,43147,43941.00000000012,45071,45937,47192,47890,51802,54556.00000000012,55334,55959,56536,57186.00000000012,57883.00000000012,58593,59315,65187,66859.00000000012],"honeypot":0,"survey":"mace","page":6,"trial_type":"survey-mace","trial_index":14,"time_elapsed":656070,"internal_node_id":"0.0-14.0","task_version":"prescreen-v0.3","browser_interactions":0},{"responses":{"01":"Yes","01_ages_9":"9","01_ages_10":"10","01_ages_11":"11","02":"Yes","02_ages_9":"9","02_ages_10":"10","02_ages_11":"11","03":"Yes","03_ages_9":"9","03_ages_10":"10","03_ages_11":"11","03_ages_12":"12","04":"Yes","04_ages_10":"10","05":"No","06":"No","07":"No"},"rt":55654,"item_order":[0,1,2,3,4,5,6],"radio_events":[5431,20063,26566,38220,50580,52239,53915],"checkbox_events":[8665,9948,12808,21358.000000000116,21937,22681,28992,29593,31085,32239,41815.00000000012,43171,46045],"key_events":[],"mouse_events":[5431,8665,9948,12808,20063,21358.000000000116,21937,22681,26566,28992,29593,30419,31085,32239,38220,41815.00000000012,43171,46045,50580,52239,53915,55643],"honeypot":0,"survey":"mace","page":7,"trial_type":"survey-mace","trial_index":15,"time_elapsed":711732,"internal_node_id":"0.0-15.0","task_version":"prescreen-v0.3","browser_interactions":0},{"responses":{"01":"No","02":"No","03":"No","04":"No"},"rt":21397,"item_order":[0,1,2,3],"radio_events":[7365,10813,19386,20308],"checkbox_events":[],"key_events":[],"mouse_events":[7365,10813,19386,20308,21391],"honeypot":0,"survey":"mace","page":8,"trial_type":"survey-mace","trial_index":16,"time_elapsed":733136,"internal_node_id":"0.0-16.0","task_version":"prescreen-v0.3","browser_interactions":0},{"responses":{"01":"Yes","01_ages_1":"1","01_ages_2":"2","01_ages_3":"3","01_ages_4":"4","01_ages_5":"5","01_ages_6":"6","01_ages_7":"7","01_ages_8":"8","01_ages_9":"9","01_ages_10":"10","01_ages_11":"11","01_ages_12":"12","01_ages_13":"13","01_ages_14":"14","01_ages_15":"15","01_ages_16":"16","01_ages_17":"17","01_ages_18":"18","02":"Yes","02_ages_1":"1","02_ages_2":"2","02_ages_3":"3","02_ages_4":"4","02_ages_5":"5","02_ages_6":"6","02_ages_7":"7","02_ages_8":"8","02_ages_9":"9","02_ages_10":"10","02_ages_11":"11","02_ages_12":"12","02_ages_13":"13","02_ages_14":"14","02_ages_15":"15","02_ages_16":"16","02_ages_17":"17","02_ages_18":"18","03":"Yes","03_ages_1":"1","03_ages_2":"2","03_ages_3":"3","03_ages_4":"4","03_ages_5":"5","03_ages_6":"6","03_ages_7":"7","03_ages_8":"8","03_ages_9":"9","03_ages_10":"10","03_ages_11":"11","03_ages_12":"12","03_ages_13":"13","03_ages_14":"14","03_ages_15":"15","03_ages_16":"16","03_ages_17":"17","03_ages_18":"18","04":"Yes","04_ages_1":"1","04_ages_2":"2","04_ages_3":"3","04_ages_4":"4","04_ages_5":"5","04_ages_6":"6","04_ages_7":"7","04_ages_8":"8","04_ages_9":"9","04_ages_10":"10","04_ages_11":"11","04_ages_12":"12","04_ages_13":"13","04_ages_14":"14","04_ages_15":"15","04_ages_16":"16","04_ages_17":"17","04_ages_18":"18"},"rt":87286,"item_order":[0,1,2,3],"radio_events":[5081,29859,51797,71596],"checkbox_events":[10453,11519,13130,13772,14353.000000000116,15692,16349,16935,17512,18089,18790.000000000116,19368,20081,20771.000000000116,21524,22174,23027,23853.000000000116,31266.000000000116,31859,32485,37122.00000000012,37756,38377.00000000012,39155,40229,40839,41914,42535,43457,44098.00000000012,45341,46208,47070,47687,48473.00000000012,53369,53890,54503,55225,56588,57342,58224,58825,59510,60344,61010,61803,62509,63155,63820,64462,65207,66707,73416,73993,74482,75140,76683,77269,77910,78608,79313,79983,80600,81258,81972,82549,83142,83808,84445,86024],"key_events":[],"mouse_events":[5081,10453,11519,12144,13130,13772,14353.000000000116,15692,16349,16935,17512,18089,18790.000000000116,19368,20081,20771.000000000116,21524,22174,23027,23853.000000000116,29859,31266.000000000116,31859,32485,37122.00000000012,37756,38377.00000000012,39155,40229,40839,41914,42535,43457,44098.00000000012,45341,46208,47070,47687,48473.00000000012,51797,53369,53890,54503,55225,55883,56588,57342,58224,58825,59510,60344,61010,61803,62509,63155,63820,64462,65207,66017,66707,71596,73416,73993,74482,75140,75946,76683,77269,77910,78608,79313,79983,80600,81258,81972,82549,83142,83808,84445,85070,86024,87276.00000000012],"honeypot":0,"survey":"mace","page":9,"trial_type":"survey-mace","trial_index":17,"time_elapsed":820430,"internal_node_id":"0.0-17.0","task_version":"prescreen-v0.3","browser_interactions":0},{"responses":{"01":"No","02":"No","03":"No","04":"No","05":"No","06":"Yes","06_ages_17":"17","07":"Yes","07_ages_1":"1","07_ages_2":"2","07_ages_3":"3","07_ages_4":"4","07_ages_5":"5","07_ages_6":"6","07_ages_7":"7","07_ages_8":"8","07_ages_9":"9","07_ages_10":"10","07_ages_11":"11","07_ages_12":"12","07_ages_13":"13","07_ages_14":"14","07_ages_15":"15","07_ages_16":"16","07_ages_17":"17","07_ages_18":"18","08":"Yes","08_ages_1":"1","08_ages_2":"2","08_ages_3":"3","08_ages_4":"4","08_ages_5":"5","08_ages_6":"6","08_ages_7":"7","08_ages_8":"8","08_ages_9":"9","08_ages_10":"10","08_ages_11":"11","08_ages_12":"12","08_ages_13":"13","08_ages_14":"14","08_ages_15":"15","08_ages_16":"16","08_ages_17":"17","08_ages_18":"18"},"rt":67047,"item_order":[0,1,2,3,4,5,6,7],"radio_events":[5777.000000000116,7878.000000000116,10504,13095,19999,25788,27768,32414,50973],"checkbox_events":[29378.000000000116,33910,34527.00000000012,35201,36588,37101,38605,39246,39863,40537.00000000012,41122,41700.00000000012,42650,43243,43828,44574,45207,45957,46679,52849.00000000012,53491,54401,55403,56029,56566,57496,58105,58663,59224.00000000012,59938,60611,62379,63069,63854.00000000012,64632,65328,66164],"key_events":[],"mouse_events":[5777.000000000116,7878.000000000116,10504,13095,19999,25788,27768,29378.000000000116,32414,33910,34527.00000000012,35201,36588,37101,38605,39246,39863,40537.00000000012,41122,41700.00000000012,42650,43243,43828,44574,45207,45957,46679,50973,52849.00000000012,53491,54401,55403,56029,56566,57496,58105,58663,59224.00000000012,59938,60611,61445.00000000012,62379,63069,63854.00000000012,64632,65328,66164,67034],"honeypot":0,"survey":"mace","page":10,"trial_type":"survey-mace","trial_index":18,"time_elapsed":887485,"internal_node_id":"0.0-18.0","task_version":"prescreen-v0.3","browser_interactions":0,"instructed":0},{"rt":5553,"trial_type":"mental-health-alert","trial_index":19,"time_elapsed":893041,"internal_node_id":"0.0-19.0","task_version":"prescreen-v0.3","interactions":"[]"}]