[{"view_history":[{"page_index":0,"viewing_time":2087.1000003814697},{"page_index":1,"viewing_time":2048.0999999046326},{"page_index":2,"viewing_time":1992.1999998092651},{"page_index":3,"viewing_time":814}],"rt":6941.900000095367,"trial_type":"instructions","trial_index":0,"time_elapsed":6945,"internal_node_id":"0.0-0.0","task_version":"prescreen-v0.3"},{"rt":9424.099999904633,"responses":{"age":"27","gender-categorical":"Male","gender-free-response":"","ethnicity":"Not Hispanic or Latino","race":["Asian"],"education":"Some college","siblings":"0"},"trial_type":"survey-demo","trial_index":1,"time_elapsed":16373,"internal_node_id":"0.0-1.0","task_version":"prescreen-v0.3"},{"responses":{"Q14":"2","Q01":"1","Q03":"1","Q05":"0","Q17":"1","Q02":"1","Q04":"1","Q19":"0","Q09":"2","Q21":"3","Q20":"2","Q11":"1","Q07":"0","Q12":"1","Q08":"3","Q15":"2","Q06":"1","Q16":"1","Q10":"1","Q18":"1","Q13":"1"},"rt":104962.5,"item_order":[13,0,2,4,16,1,3,18,8,20,19,10,6,11,7,14,5,15,9,17,12],"radio_events":[8719.400000095367,9741.400000095367,10129.199999809265,11963.599999904633,19112.199999809265,20122.5,21022.599999904633,24572.699999809265,31437.599999904633,32863.59999990463,35060,39906.5,43202.5,44657,47419.199999809265,52127.7999997139,61406.40000009537,62250.699999809265,69303.2999997139,71969.59999990463,73295.90000009537,75179.90000009537,77630.2999997139,83652.7999997139,84200.7999997139],"key_events":[],"mouse_events":[6101.199999809265,6862.699999809265,7184.900000095367,7604.900000095367,8307.400000095367,8719.400000095367,9741.400000095367,10129.199999809265,11963.599999904633,12667.799999713898,18616.400000095367,18862.099999904633,19112.199999809265,20122.5,21022.599999904633,23579,24572.699999809265,26007.199999809265,28077.299999713898,30691.599999904633,31437.599999904633,32863.59999990463,35060,38798.5,39906.5,41458.5,43202.5,44657,47419.199999809265,52127.7999997139,60066.699999809265,61406.40000009537,62250.699999809265,69303.2999997139,69763.59999990463,70727.7999997139,71703.59999990463,71969.59999990463,73295.90000009537,75179.90000009537,77630.2999997139,79382.69999980927,82446.69999980927,83199,83652.7999997139,84200.7999997139,104961],"straightlining":0.5714285714285714,"zigzagging":0.55,"honeypot":0,"survey":"sns","trial_type":"survey-template","trial_index":2,"time_elapsed":121339,"internal_node_id":"0.0-2.0","task_version":"prescreen-v0.3","browser_interactions":0,"infrequency":0},{"responses":{"Q12":"1","Q06":"3","Q07":"3","Q04":"2","Q11":"2","Q13":"0","Q08":"2","Q10":"2","Q01":"3","Q09":"2","Q03":"2","Q05":"3","Q02":"2"},"rt":59400.90000009537,"item_order":[11,5,6,3,10,12,7,9,0,8,2,4,1],"radio_events":[11807,13107,16073.400000095367,17153.700000286102,18823.900000095367,20072,21440.10000038147,24734.400000095367,27200.5,29316.800000190735,31195.10000038147,35911.5,52409.300000190735,56161.60000038147,58759.90000009537],"key_events":[],"mouse_events":[10966.900000095367,11807,13107,15357.5,16073.400000095367,17153.700000286102,18073.60000038147,18823.900000095367,19572.10000038147,20072,21440.10000038147,24396.300000190735,24734.400000095367,27200.5,28520.900000095367,29050.900000095367,29316.800000190735,31195.10000038147,32409,35521.5,35911.5,51967.300000190735,52409.300000190735,55587.7000002861,56161.60000038147,56779.60000038147,57065.5,57319.7000002861,57879.7000002861,58759.90000009537,59400.10000038147],"straightlining":0.5384615384615384,"zigzagging":0.4166666666666667,"honeypot":0,"survey":"bisbas","trial_type":"survey-template","trial_index":3,"time_elapsed":180742,"internal_node_id":"0.0-3.0","task_version":"prescreen-v0.3","browser_interactions":2,"infrequency":0},{"responses":{"Q01":"4","Q02":"3","Q03":"4"},"rt":11542.200000286102,"radio_events":[6217.300000190735,8705.5,9099.5,9573.5,11069.800000190735],"key_events":[],"mouse_events":[5053.099999904633,5579.200000286102,6217.300000190735,8181.400000095367,8705.5,9099.5,9573.5,10723.599999904633,11069.800000190735,11541.700000286102],"survey":"map","page":1,"trial_type":"survey-map","trial_index":4,"time_elapsed":192287,"internal_node_id":"0.0-4.0","task_version":"prescreen-v0.3","browser_interactions":0},{"responses":{"Q04":"2","Q05":"2","Q06":"2"},"rt":15331.60000038147,"radio_events":[6202.300000190735,8238.60000038147,10278.800000190735,11358.800000190735,14647.10000038147],"key_events":[],"mouse_events":[6202.300000190735,8238.60000038147,9814.700000286102,10278.800000190735,11056.800000190735,11358.800000190735,14363.300000190735,14647.10000038147,15331.200000286102],"survey":"map","page":2,"trial_type":"survey-map","trial_index":5,"time_elapsed":207620,"internal_node_id":"0.0-5.0","task_version":"prescreen-v0.3","browser_interactions":0},{"responses":{"Q07":"3","Q08":"3","Q09":"3"},"rt":20750.5,"radio_events":[9058.800000190735,12681.300000190735,14787.400000095367,16165.599999904633,18547.699999809265,20335.900000095367],"key_events":[],"mouse_events":[9058.800000190735,12681.300000190735,14129.300000190735,14463.300000190735,14787.400000095367,16165.599999904633,17253.699999809265,17615.599999904633,18547.699999809265,20065.900000095367,20335.900000095367,20750.099999904633],"survey":"map","page":3,"trial_type":"survey-map","trial_index":6,"time_elapsed":228372,"internal_node_id":"0.0-6.0","task_version":"prescreen-v0.3","browser_interactions":0},{"responses":{"Q10":"2","Q11":"3","Q12":"4","Q13":"4","Q16":"0","Q14":"3","Q15":"3"},"rt":37804.40000009537,"radio_events":[5708.5,8228.400000095367,15137.299999713898,23004.199999809265,23328,24172.099999904633,30098.799999713898,33099.199999809265,34503.199999809265],"key_events":[],"mouse_events":[5708.5,7198.5,7878.400000095367,8228.400000095367,12872.900000095367,15137.299999713898,17683.599999904633,19319.699999809265,22602.199999809265,23004.199999809265,23328,24172.099999904633,27982.699999809265,28558.400000095367,30098.799999713898,33099.199999809265,33787.2999997139,34503.199999809265,35333.59999990463,35599.2999997139,36101.40000009537,37803.699999809265],"survey":"map","page":4,"trial_type":"survey-map","trial_index":7,"time_elapsed":266179,"internal_node_id":"0.0-7.0","task_version":"prescreen-v0.3","browser_interactions":0,"infrequency":0},{"view_history":[{"page_index":0,"viewing_time":2505.800000190735},{"page_index":1,"viewing_time":3384.199999809265}],"rt":5890.400000095367,"trial_type":"instructions","trial_index":8,"time_elapsed":272070,"internal_node_id":"0.0-8.0","task_version":"prescreen-v0.3"},{"responses":{"01":"No","01_ages_12":"12","01_ages_13":"13","01_ages_14":"14","01_ages_15":"15","01_ages_16":"16","02":"No","02_ages_12":"12","02_ages_13":"13","02_ages_14":"14","02_ages_15":"15","02_ages_16":"16","03":"No","04":"No","05":"No","06":"No"},"rt":54066.09999990463,"item_order":[0,1,2,3,4,5],"radio_events":[4863.199999809265,20424.599999904633,27219.299999713898,27363,38812.59999990463,40004.59999990463,51687.7999997139,52565.7999997139,53309.89999961853],"checkbox_events":[13660,14848,15360,16332.099999904633,17166.299999713898,21678.5,22104.699999809265,22562.599999904633,22950.599999904633,23316.699999809265],"key_events":[],"mouse_events":[0.09999990463256836,4863.199999809265,12291.89999961853,13660,14097.89999961853,14457.799999713898,14848,15360,16094.199999809265,16332.099999904633,17166.299999713898,19336.199999809265,19684.39999961853,20040.199999809265,20424.599999904633,21678.5,22104.699999809265,22562.599999904633,22950.599999904633,23316.699999809265,27219.299999713898,27363,28751.299999713898,30199.299999713898,38488.199999809265,38812.59999990463,39522.5,40004.59999990463,42462.699999809265,43724.59999990463,49917.5,50513.39999961853,51277.59999990463,51687.7999997139,52209.699999809265,52565.7999997139,53309.89999961853,54064],"honeypot":0,"survey":"mace","page":1,"trial_type":"survey-mace","trial_index":9,"time_elapsed":326141,"internal_node_id":"0.0-9.0","task_version":"prescreen-v0.3","browser_interactions":0},{"responses":{"01":"No","02":"No","03":"No","04":"No","05":"No","06":"No","07":"No","08":"No"},"rt":14986.800000190735,"item_order":[0,1,2,3,4,5,6,7],"radio_events":[2418.800000190735,2717.0999999046326,5185.400000095367,6377.599999904633,7095.699999809265,7533.599999904633,8831.5,12792.199999809265,13394.300000190735,14306.099999904633],"checkbox_events":[],"key_events":[],"mouse_events":[2418.800000190735,2717.0999999046326,4333.300000190735,5185.400000095367,6377.599999904633,7095.699999809265,7533.599999904633,8137.699999809265,8831.5,9863.900000095367,10899.800000190735,11371.900000095367,12792.199999809265,13394.300000190735,14306.099999904633,14984.099999904633],"honeypot":0,"survey":"mace","page":2,"trial_type":"survey-mace","trial_index":10,"time_elapsed":341131,"internal_node_id":"0.0-10.0","task_version":"prescreen-v0.3","browser_interactions":0},{"responses":{"01":"No","02":"No","03":"No","04":"No"},"rt":11279.599999904633,"item_order":[0,1,2,3],"radio_events":[7634.099999904633,8364.200000286102,9786,10484.200000286102],"checkbox_events":[],"key_events":[],"mouse_events":[5391.599999904633,5845.900000095367,6693.700000286102,7281.800000190735,7634.099999904633,8016,8364.200000286102,9566,9786,10484.200000286102,11278.200000286102],"honeypot":0,"survey":"mace","page":3,"trial_type":"survey-mace","trial_index":11,"time_elapsed":352413,"internal_node_id":"0.0-11.0","task_version":"prescreen-v0.3","browser_interactions":0},{"responses":{"01":"No","02":"No"},"rt":4896.099999904633,"item_order":[0,1],"radio_events":[2159.2000002861023,4529.400000095367],"checkbox_events":[],"key_events":[],"mouse_events":[24.700000286102295,1209,2159.2000002861023,3473.300000190735,4529.400000095367,4895.400000095367],"honeypot":0,"survey":"mace","page":4,"trial_type":"survey-mace","trial_index":12,"time_elapsed":357310,"internal_node_id":"0.0-12.0","task_version":"prescreen-v0.3","browser_interactions":0},{"responses":{"01":"No","02":"No","03":"No","04":"No","05":"No"},"rt":34284.199999809265,"item_order":[0,1,2,3,4],"radio_events":[18957.099999904633,21917.5,23881.699999809265,30862.599999904633,33618.59999990463],"checkbox_events":[],"key_events":[],"mouse_events":[9602,18957.099999904633,21917.5,23881.699999809265,30862.599999904633,33618.59999990463,34282.7999997139],"honeypot":0,"survey":"mace","page":5,"trial_type":"survey-mace","trial_index":13,"time_elapsed":391597,"internal_node_id":"0.0-13.0","task_version":"prescreen-v0.3","browser_interactions":0},{"responses":{"01":"Yes","01_ages_12":"12","01_ages_13":"13","01_ages_14":"14","01_ages_15":"15","01_ages_16":"16","02":"Yes","02_ages_12":"12","02_ages_13":"13","02_ages_14":"14","02_ages_15":"15","02_ages_16":"16","03":"No","04":"No","05":"No"},"rt":29043.200000286102,"item_order":[0,1,2,3,4],"radio_events":[5973.200000286102,14026.200000286102,23472.800000190735,25141.099999904633,26003],"checkbox_events":[8805.200000286102,9655.700000286102,10113.599999904633,11131.400000095367,11471.5,12183.800000190735,12461.599999904633,15336.099999904633,16014.099999904633,16298.300000190735,16630.200000286102,17020.300000190735],"key_events":[],"mouse_events":[5973.200000286102,8805.200000286102,9227.5,9655.700000286102,10113.599999904633,10507.400000095367,10847.400000095367,11131.400000095367,11471.5,11853.700000286102,12183.800000190735,12461.599999904633,14026.200000286102,15336.099999904633,15624.099999904633,16014.099999904633,16298.300000190735,16630.200000286102,17020.300000190735,22922.900000095367,23472.800000190735,24027,24426.900000095367,24741,25141.099999904633,25662.900000095367,26003,29041.599999904633],"honeypot":0,"survey":"mace","page":6,"trial_type":"survey-mace","trial_index":14,"time_elapsed":420642,"internal_node_id":"0.0-14.0","task_version":"prescreen-v0.3","browser_interactions":0},{"responses":{"01":"No","02":"No","03":"No","04":"No","05":"No","06":"No","07":"No"},"rt":12279.099999904633,"item_order":[0,1,2,3,4,5,6],"radio_events":[3942,4946.199999809265,6042.299999713898,7182.400000095367,8816.5,9178.599999904633,11106.599999904633,11644.900000095367],"checkbox_events":[],"key_events":[],"mouse_events":[2367.7999997138977,3479.7999997138977,3942,4402,4946.199999809265,5494.199999809265,6042.299999713898,6694.400000095367,7182.400000095367,7720.299999713898,7968.799999713898,8226.299999713898,8816.5,9178.599999904633,9632.599999904633,9910.599999904633,10562.599999904633,10796.5,11106.599999904633,11644.900000095367,12276.799999713898],"honeypot":0,"survey":"mace","page":7,"trial_type":"survey-mace","trial_index":15,"time_elapsed":432924,"internal_node_id":"0.0-15.0","task_version":"prescreen-v0.3","browser_interactions":0},{"responses":{"01":"No","02":"No","03":"No","04":"No"},"rt":22208.900000095367,"item_order":[0,1,2,3],"radio_events":[6186,18651.599999904633,19723.400000095367,21563.699999809265],"checkbox_events":[],"key_events":[],"mouse_events":[6186,16149.099999904633,18651.599999904633,19723.400000095367,21563.699999809265,22207.5],"honeypot":0,"survey":"mace","page":8,"trial_type":"survey-mace","trial_index":16,"time_elapsed":455135,"internal_node_id":"0.0-16.0","task_version":"prescreen-v0.3","browser_interactions":0},{"responses":{"01":"Yes","01_ages_1":"1","01_ages_2":"2","01_ages_3":"3","01_ages_4":"4","01_ages_5":"5","01_ages_6":"6","01_ages_7":"7","01_ages_8":"8","01_ages_9":"9","01_ages_10":"10","01_ages_11":"11","01_ages_12":"12","01_ages_13":"13","01_ages_14":"14","01_ages_15":"15","01_ages_16":"16","01_ages_17":"17","01_ages_18":"18","02":"Yes","02_ages_1":"1","02_ages_2":"2","02_ages_3":"3","02_ages_4":"4","02_ages_5":"5","02_ages_6":"6","02_ages_7":"7","02_ages_8":"8","02_ages_9":"9","02_ages_10":"10","02_ages_11":"11","02_ages_12":"12","02_ages_13":"13","02_ages_14":"14","02_ages_15":"15","02_ages_16":"16","02_ages_17":"17","02_ages_18":"18","03":"Yes","03_ages_1":"1","03_ages_2":"2","03_ages_3":"3","03_ages_4":"4","03_ages_5":"5","03_ages_6":"6","03_ages_7":"7","03_ages_8":"8","03_ages_9":"9","03_ages_10":"10","03_ages_11":"11","03_ages_12":"12","03_ages_13":"13","03_ages_14":"14","03_ages_15":"15","03_ages_16":"16","03_ages_17":"17","03_ages_18":"18","04":"Yes","04_ages_1":"1","04_ages_2":"2","04_ages_3":"3","04_ages_4":"4","04_ages_5":"5","04_ages_6":"6","04_ages_7":"7","04_ages_8":"8","04_ages_9":"9","04_ages_10":"10","04_ages_11":"11","04_ages_12":"12","04_ages_13":"13","04_ages_14":"14","04_ages_15":"15","04_ages_16":"16","04_ages_17":"17","04_ages_18":"18"},"rt":71481.5,"item_order":[0,1,2,3],"radio_events":[7343.099999904633,26661.200000286102,44581.2000002861,56030.40000009537],"checkbox_events":[12081.700000286102,13081.900000095367,14052.099999904633,14806.099999904633,15946.400000095367,16422,17306.400000095367,17666.5,17992.400000095367,18900.300000190735,19660.599999904633,19990.400000095367,21450.700000286102,21832.800000190735,22494.599999904633,22908.800000190735,23219,23499,27891.5,28335.5,28975.400000095367,30935,31555,34544,35054.2000002861,35662.09999990463,36088.300000190735,36842.300000190735,37122.2000002861,37750.300000190735,38312.5,38614.59999990463,38978.59999990463,39316.59999990463,39928.800000190735,40734.800000190735,41046.59999990463,41544.90000009537,45461.2000002861,46329.2000002861,46667.40000009537,46991.5,47343.40000009537,47665.300000190735,47989.300000190735,48329.5,49031.7000002861,49459.40000009537,50437.7000002861,50887.7000002861,51500,51795.90000009537,52120,52697.90000009537,53082,53436,58596.59999990463,59114.5,59448.59999990463,61170.7000002861,61508.800000190735,63345,63709,64345.09999990463,65039.2000002861,65353.300000190735,65795.40000009537,66327.40000009537,67003.40000009537,67981.40000009537,69631.5,70123.7000002861,70529.90000009537,71003.7000002861],"key_events":[30935,31555,32325],"mouse_events":[7343.099999904633,10403.599999904633,11013.5,12081.700000286102,13081.900000095367,14052.099999904633,14806.099999904633,15207.900000095367,15655.900000095367,15946.400000095367,16422,16978.099999904633,17306.400000095367,17666.5,17992.400000095367,18368.300000190735,18900.300000190735,19350.400000095367,19660.599999904633,19990.400000095367,20662.800000190735,20972.5,21450.700000286102,21832.800000190735,22146.599999904633,22494.599999904633,22908.800000190735,23219,23499,25865,26661.200000286102,27557.200000286102,27891.5,28335.5,28649.300000190735,28975.400000095367,34544,35054.2000002861,35392,35662.09999990463,35866.2000002861,36088.300000190735,36568.2000002861,36842.300000190735,37122.2000002861,37496.59999990463,37750.300000190735,38052.5,38312.5,38614.59999990463,38978.59999990463,39316.59999990463,39626.7000002861,39928.800000190735,40388.40000009537,40734.800000190735,41046.59999990463,41544.90000009537,43295.09999990463,44194.90000009537,44581.2000002861,45461.2000002861,45805.09999990463,46329.2000002861,46667.40000009537,46991.5,47343.40000009537,47665.300000190735,47989.300000190735,48329.5,48663.5,49031.7000002861,49459.40000009537,49807.7000002861,50131.59999990463,50437.7000002861,50887.7000002861,51197.800000190735,51500,51795.90000009537,52120,52697.90000009537,53082,53436,56030.40000009537,57366.300000190735,57710.300000190735,58134.300000190735,58596.59999990463,59114.5,59448.59999990463,59930.800000190735,60356.5,60682.7000002861,61170.7000002861,61508.800000190735,61869,62352.7000002861,62616.800000190735,63012.800000190735,63345,63709,64043.09999990463,64345.09999990463,64665.2000002861,65039.2000002861,65353.300000190735,65795.40000009537,66327.40000009537,66673.2000002861,67003.40000009537,67391.5,67981.40000009537,68955.7000002861,69267.40000009537,69631.5,70123.7000002861,70529.90000009537,71003.7000002861,71480.09999990463],"honeypot":0,"survey":"mace","page":9,"trial_type":"survey-mace","trial_index":17,"time_elapsed":526619,"internal_node_id":"0.0-17.0","task_version":"prescreen-v0.3","browser_interactions":0},{"responses":{"01":"No","02":"No","03":"Yes","03_ages_15":"15","03_ages_16":"16","03_ages_17":"17","03_ages_18":"18","04":"Yes","04_ages_15":"15","04_ages_16":"16","04_ages_17":"17","04_ages_18":"18","05":"Yes","05_ages_7":"7","05_ages_8":"8","05_ages_9":"9","05_ages_10":"10","05_ages_11":"11","05_ages_12":"12","05_ages_13":"13","05_ages_14":"14","06":"Yes","06_ages_17":"17","07":"Yes","07_ages_1":"1","07_ages_2":"2","07_ages_3":"3","07_ages_4":"4","07_ages_5":"5","07_ages_6":"6","07_ages_7":"7","07_ages_8":"8","07_ages_9":"9","07_ages_10":"10","07_ages_11":"11","07_ages_12":"12","07_ages_13":"13","07_ages_14":"14","07_ages_15":"15","07_ages_16":"16","07_ages_17":"17","07_ages_18":"18","08":"Yes","08_ages_1":"1","08_ages_2":"2","08_ages_3":"3","08_ages_4":"4","08_ages_5":"5","08_ages_6":"6","08_ages_7":"7","08_ages_8":"8","08_ages_9":"9","08_ages_10":"10","08_ages_11":"11","08_ages_12":"12","08_ages_13":"13","08_ages_14":"14","08_ages_15":"15","08_ages_16":"16","08_ages_17":"17","08_ages_18":"18"},"rt":63387,"item_order":[0,1,2,3,4,5,6,7],"radio_events":[4586.299999713898,5314.39999961853,6388.5,7684.299999713898,12799,19871.699999809265,28656.5,31852.799999713898,50650.89999961853],"checkbox_events":[9588.89999961853,9956.89999961853,10281,10686.89999961853,13977,14811.099999904633,15943.199999809265,16325.5,21231.799999713898,21684,22102.099999904633,23626.099999904633,24296.199999809265,24684.199999809265,25268.39999961853,25688.39999961853,29526.699999809265,33725.199999809265,34233.199999809265,34557.09999990463,36229.2999997139,36575.5,36905.5,37251.59999990463,37635.59999990463,39105.7999997139,39619.59999990463,39933.59999990463,41961.89999961853,43166,44040.199999809265,44390.2999997139,45400.5,45672.2999997139,46360.5,47030.2999997139,47592.699999809265,52627.199999809265,53137.09999990463,53495.2999997139,54249.39999961853,54935.199999809265,55605.2999997139,56553.59999990463,57333.39999961853,58269.699999809265,58757.7999997139,59131.7999997139,59513.89999961853,60429.89999961853,61050,61639.89999961853,61952.09999990463,62446,62824.09999990463],"key_events":[],"mouse_events":[3634,4336.199999809265,4586.299999713898,5314.39999961853,6388.5,7380.199999809265,7684.299999713898,9588.89999961853,9956.89999961853,10281,10686.89999961853,12799,13977,14401,14811.099999904633,15187.5,15553.099999904633,15943.199999809265,16325.5,19373.799999713898,19871.699999809265,21231.799999713898,21684,22102.099999904633,22524,22947.89999961853,23295.89999961853,23626.099999904633,24296.199999809265,24684.199999809265,25268.39999961853,25688.39999961853,27958.39999961853,28656.5,29526.699999809265,31852.799999713898,33725.199999809265,34233.199999809265,34557.09999990463,34855.5,35313.2999997139,35903.2999997139,36229.2999997139,36575.5,36905.5,37251.59999990463,37635.59999990463,37947.699999809265,38351.59999990463,39105.7999997139,39619.59999990463,39933.59999990463,40271.89999961853,40643.699999809265,40983.7999997139,41961.89999961853,42652,43166,43720,44040.199999809265,44390.2999997139,44804.5,45400.5,45672.2999997139,46360.5,46656.59999990463,47030.2999997139,47592.699999809265,49686.699999809265,50128.7999997139,50650.89999961853,51754.89999961853,52308.89999961853,52627.199999809265,53137.09999990463,53495.2999997139,53879.09999990463,54249.39999961853,54655.39999961853,54935.199999809265,55257.5,55605.2999997139,56265.5,56553.59999990463,56877.39999961853,57333.39999961853,57673.5,58269.699999809265,58757.7999997139,59131.7999997139,59513.89999961853,59871.7999997139,60429.89999961853,60758.09999990463,61050,61365.89999961853,61639.89999961853,61952.09999990463,62446,62824.09999990463,63384.5],"honeypot":0,"survey":"mace","page":10,"trial_type":"survey-mace","trial_index":18,"time_elapsed":590010,"internal_node_id":"0.0-18.0","task_version":"prescreen-v0.3","browser_interactions":0,"instructed":0},{"rt":5349.599999904633,"trial_type":"mental-health-alert","trial_index":19,"time_elapsed":595361,"internal_node_id":"0.0-19.0","task_version":"prescreen-v0.3","interactions":"[{\"event\":\"blur\",\"trial\":3,\"time\":124613},{\"event\":\"focus\",\"trial\":3,\"time\":127046}]"}]