[{"view_history":[{"page_index":0,"viewing_time":3151.5},{"page_index":1,"viewing_time":3503.3000000044703},{"page_index":2,"viewing_time":2859.6999999955297},{"page_index":3,"viewing_time":2825.89999999851},{"page_index":2,"viewing_time":3067.2000000029802},{"page_index":3,"viewing_time":801.7000000029802}],"rt":16210.89999999851,"trial_type":"instructions","trial_index":0,"time_elapsed":16229,"internal_node_id":"0.0-0.0","task_version":"prescreen-v0.3"},{"rt":8754.39999999851,"responses":{"age":"27","gender-categorical":"Female","gender-free-response":"","ethnicity":"Not Hispanic or Latino","race":["White"],"education":"Bachelor degree"},"trial_type":"survey-demo","trial_index":1,"time_elapsed":24992,"internal_node_id":"0.0-1.0","task_version":"prescreen-v0.3"},{"responses":{"Q15":"2","Q04":"3","Q18":"2","Q09":"2","Q21":"3","Q01":"3","Q05":"1","Q03":"1","Q10":"1","Q08":"1","Q19":"1","Q06":"1","Q17":"0","Q20":"0","Q16":"1","Q14":"2","Q02":"2","Q13":"2","Q11":"3","Q12":"2","Q07":"0"},"rt":91744.10000000149,"item_order":[14,3,17,8,20,0,4,2,9,7,18,5,16,19,15,13,1,12,10,11,6],"radio_events":[7465.9000000059605,13188.60000000149,17233.60000000149,21376.40000000596,28305.5,30414.5,36129.10000000149,38595.40000000596,45272.70000000298,48629,52094.20000000298,56204.20000000298,59457,65933.70000000298,66806.80000000447,71229.30000000447,75058.60000000149,78984.40000000596,83439.40000000596,84465,88134.60000000149,90853.60000000149],"key_events":[],"mouse_events":[7465.9000000059605,13188.60000000149,17233.60000000149,21376.40000000596,27407.70000000298,28305.5,30414.5,36129.10000000149,38595.40000000596,45272.70000000298,48629,52094.20000000298,56204.20000000298,59457,65186.80000000447,65933.70000000298,66806.80000000447,71229.30000000447,75058.60000000149,78984.40000000596,81390.40000000596,82517.20000000298,83439.40000000596,84465,88134.60000000149,90853.60000000149,91735.5],"straightlining":0.3333333333333333,"zigzagging":0.4,"honeypot":0,"survey":"sns","trial_type":"survey-template","trial_index":2,"time_elapsed":116747,"internal_node_id":"0.0-2.0","task_version":"prescreen-v0.3","browser_interactions":0,"infrequency":0},{"responses":{"Q05":"2","Q11":"2","Q03":"2","Q06":"2","Q01":"3","Q13":"0","Q04":"3","Q02":"3","Q10":"1","Q08":"2","Q12":"0","Q09":"0","Q07":"2"},"rt":51767.5,"item_order":[4,10,2,5,0,12,3,1,9,7,11,8,6],"radio_events":[11058.5,16174.30000000447,18824.39999999851,21887.5,24361.80000000447,26342.80000000447,31098.80000000447,33882,36949.70000000298,40855.60000000149,44741.39999999851,46028.89999999851,48194.39999999851,51094.5],"key_events":[],"mouse_events":[11058.5,16174.30000000447,18824.39999999851,21887.5,24361.80000000447,26342.80000000447,31098.80000000447,33882,36949.70000000298,40855.60000000149,44741.39999999851,46028.89999999851,48194.39999999851,50480.39999999851,51094.5,51760.39999999851],"straightlining":0.46153846153846156,"zigzagging":0.3333333333333333,"honeypot":0,"survey":"bisbas","trial_type":"survey-template","trial_index":3,"time_elapsed":168521,"internal_node_id":"0.0-3.0","task_version":"prescreen-v0.3","browser_interactions":2,"infrequency":0},{"responses":{"Q01":"2","Q02":"1","Q03":"2"},"rt":18251.70000000298,"radio_events":[8007.60000000149,12194.30000000447,17387.20000000298],"key_events":[],"mouse_events":[8007.60000000149,12194.30000000447,17387.20000000298,18248.30000000447],"survey":"map","page":1,"trial_type":"survey-map","trial_index":4,"time_elapsed":186778,"internal_node_id":"0.0-4.0","task_version":"prescreen-v0.3","browser_interactions":0},{"responses":{"Q04":"3","Q05":"1","Q06":"2"},"rt":16113.90000000596,"radio_events":[7029.10000000149,10838.40000000596,11941.20000000298,15205.10000000149],"key_events":[],"mouse_events":[7029.10000000149,10838.40000000596,11941.20000000298,15205.10000000149,16110.20000000298],"survey":"map","page":2,"trial_type":"survey-map","trial_index":5,"time_elapsed":202896,"internal_node_id":"0.0-5.0","task_version":"prescreen-v0.3","browser_interactions":0},{"responses":{"Q07":"3","Q08":"0","Q09":"3"},"rt":13728.09999999404,"radio_events":[7323.39999999851,9908.69999999553,12783.09999999404],"key_events":[],"mouse_events":[6625.0999999940395,7323.39999999851,9908.69999999553,12783.09999999404,13724.39999999851],"survey":"map","page":3,"trial_type":"survey-map","trial_index":6,"time_elapsed":216629,"internal_node_id":"0.0-6.0","task_version":"prescreen-v0.3","browser_interactions":0},{"responses":{"Q10":"1","Q11":"0","Q12":"0","Q13":"1","Q16":"0","Q14":"2","Q15":"3"},"rt":30364.20000000298,"radio_events":[3568.10000000149,6776,11255,15075.70000000298,16005.79999999702,20011.10000000149,24979.60000000149,29410],"key_events":[],"mouse_events":[3568.10000000149,6776,11255,15075.70000000298,16005.79999999702,20011.10000000149,24979.60000000149,29410,30358.89999999851],"survey":"map","page":4,"trial_type":"survey-map","trial_index":7,"time_elapsed":246999,"internal_node_id":"0.0-7.0","task_version":"prescreen-v0.3","browser_interactions":0,"infrequency":0},{"view_history":[{"page_index":0,"viewing_time":1822.5},{"page_index":1,"viewing_time":4054}],"rt":5877.5,"trial_type":"instructions","trial_index":8,"time_elapsed":252879,"internal_node_id":"0.0-8.0","task_version":"prescreen-v0.3"},{"responses":{"01":"Yes","01_ages_5":"5","01_ages_6":"6","01_ages_7":"7","01_ages_8":"8","01_ages_9":"9","01_ages_10":"10","01_ages_11":"11","01_ages_12":"12","01_ages_13":"13","01_ages_14":"14","01_ages_15":"15","01_ages_16":"16","01_ages_17":"17","01_ages_18":"18","02":"Yes","02_ages_5":"5","02_ages_6":"6","02_ages_7":"7","02_ages_8":"8","02_ages_9":"9","02_ages_10":"10","02_ages_11":"11","02_ages_12":"12","02_ages_13":"13","02_ages_14":"14","02_ages_15":"15","02_ages_16":"16","02_ages_17":"17","02_ages_18":"18","03":"Yes","03_ages_11":"11","03_ages_12":"12","03_ages_13":"13","03_ages_14":"14","03_ages_15":"15","03_ages_16":"16","03_ages_17":"17","03_ages_18":"18","04":"Yes","04_ages_7":"7","04_ages_8":"8","04_ages_9":"9","04_ages_10":"10","04_ages_11":"11","04_ages_12":"12","04_ages_13":"13","04_ages_14":"14","04_ages_15":"15","04_ages_16":"16","04_ages_17":"17","04_ages_18":"18","05":"No","06":"Yes","06_ages_11":"11","06_ages_12":"12","06_ages_13":"13","06_ages_14":"14","06_ages_15":"15","06_ages_16":"16"},"rt":78295.90000000596,"item_order":[0,1,2,3,4,5],"radio_events":[8059.80000000447,28756.40000000596,43204.20000000298,54063.20000000298,69294.70000000298,71596.5],"checkbox_events":[15205.40000000596,16147.10000000149,16789.70000000298,17487.30000000447,18200.20000000298,18825.40000000596,19379,19908.10000000149,20461.5,21038.90000000596,21977,22434.60000000149,23243.90000000596,27129.40000000596,30556.70000000298,31102.30000000447,31687.90000000596,32273.40000000596,32891.10000000149,33717.20000000298,34351,35725.90000000596,36447.60000000149,37362.10000000149,38083.40000000596,38709.30000000447,39471.40000000596,40228.40000000596,46480.5,47090.70000000298,47612.30000000447,48196.40000000596,48863.30000000447,49375.60000000149,49992.40000000596,56851.20000000298,57404.80000000447,57990.30000000447,58807.70000000298,59429.30000000447,60504.30000000447,61155,61611.80000000447,62212.80000000447,63007.60000000149,63488.80000000447,63937.60000000149,65248.80000000447,73821.60000000149,74384.20000000298,74920.90000000596,75603.40000000596,76195.80000000447,77423.30000000447],"key_events":[],"mouse_events":[0.30000000447034836,8059.80000000447,15205.40000000596,16147.10000000149,16789.70000000298,17487.30000000447,18200.20000000298,18825.40000000596,19379,19908.10000000149,20461.5,21038.90000000596,21616.40000000596,21977,22434.60000000149,22859.90000000596,23243.90000000596,27129.40000000596,28756.40000000596,30556.70000000298,31102.30000000447,31687.90000000596,32273.40000000596,32891.10000000149,33717.20000000298,34351,35168.80000000447,35725.90000000596,36447.60000000149,37362.10000000149,38083.40000000596,38709.30000000447,39471.40000000596,40228.40000000596,43204.20000000298,46480.5,47090.70000000298,47612.30000000447,48196.40000000596,48863.30000000447,49375.60000000149,49992.40000000596,54063.20000000298,56851.20000000298,57404.80000000447,57990.30000000447,58807.70000000298,59429.30000000447,60056.10000000149,60504.30000000447,61155,61611.80000000447,62212.80000000447,63007.60000000149,63488.80000000447,63937.60000000149,65248.80000000447,68231.90000000596,69294.70000000298,71596.5,73821.60000000149,74384.20000000298,74920.90000000596,75603.40000000596,76195.80000000447,77423.30000000447,78285.40000000596],"honeypot":0,"survey":"mace","page":1,"trial_type":"survey-mace","trial_index":9,"time_elapsed":331189,"internal_node_id":"0.0-9.0","task_version":"prescreen-v0.3","browser_interactions":0},{"responses":{"01":"No","02":"No","03":"Yes","03_ages_4":"4","03_ages_5":"5","03_ages_6":"6","03_ages_7":"7","03_ages_8":"8","03_ages_9":"9","03_ages_10":"10","03_ages_11":"11","03_ages_12":"12","04":"No","05":"No","06":"No","07":"No","08":"No"},"rt":29466.60000000149,"item_order":[0,1,2,3,4,5,6,7],"radio_events":[7619.20000000298,10153.80000000447,11329,21702.5,23306.90000000596,24630.20000000298,27569.70000000298,28419.70000000298],"checkbox_events":[15203.5,15702.10000000149,16222.70000000298,16790.80000000447,17447.90000000596,18002.70000000298,18579.30000000447,19173.90000000596,19767.5],"key_events":[],"mouse_events":[7619.20000000298,10153.80000000447,11329,14610.20000000298,15203.5,15702.10000000149,16222.70000000298,16790.80000000447,17447.90000000596,18002.70000000298,18579.30000000447,19173.90000000596,19767.5,21702.5,23306.90000000596,24630.20000000298,26310.30000000447,27569.70000000298,28419.70000000298,29450.60000000149],"honeypot":0,"survey":"mace","page":2,"trial_type":"survey-mace","trial_index":10,"time_elapsed":360667,"internal_node_id":"0.0-10.0","task_version":"prescreen-v0.3","browser_interactions":0},{"responses":{"01":"No","02":"No","03":"No","04":"No"},"rt":8535.29999999702,"item_order":[0,1,2,3],"radio_events":[3583.89999999851,5416,6724.5,7717.79999999702],"checkbox_events":[],"key_events":[],"mouse_events":[3583.89999999851,5416,6724.5,7717.79999999702,8528.29999999702],"honeypot":0,"survey":"mace","page":3,"trial_type":"survey-mace","trial_index":11,"time_elapsed":369210,"internal_node_id":"0.0-11.0","task_version":"prescreen-v0.3","browser_interactions":0},{"responses":{"01":"No","02":"No"},"rt":6115.19999999553,"item_order":[0,1],"radio_events":[2742.5,4698.5],"checkbox_events":[],"key_events":[],"mouse_events":[2742.5,3551.5999999940395,4698.5,6110.5],"honeypot":0,"survey":"mace","page":4,"trial_type":"survey-mace","trial_index":12,"time_elapsed":375331,"internal_node_id":"0.0-12.0","task_version":"prescreen-v0.3","browser_interactions":0},{"responses":{"01":"No","02":"No","03":"No","04":"No","05":"No"},"rt":16011.19999999553,"item_order":[0,1,2,3,4],"radio_events":[6640.29999999702,9799,11827.79999999702,13691.79999999702,15023.10000000149],"checkbox_events":[],"key_events":[],"mouse_events":[6640.29999999702,9799,11827.79999999702,13691.79999999702,15023.10000000149,16003.60000000149],"honeypot":0,"survey":"mace","page":5,"trial_type":"survey-mace","trial_index":13,"time_elapsed":391352,"internal_node_id":"0.0-13.0","task_version":"prescreen-v0.3","browser_interactions":0},{"responses":{"01":"Yes","01_ages_9":"9","01_ages_10":"10","01_ages_11":"11","01_ages_12":"12","01_ages_13":"13","01_ages_14":"14","01_ages_15":"15","01_ages_16":"16","02":"Yes","02_ages_8":"8","02_ages_9":"9","02_ages_10":"10","02_ages_11":"11","02_ages_12":"12","02_ages_13":"13","02_ages_14":"14","02_ages_15":"15","02_ages_16":"16","03":"Yes","03_ages_7":"7","03_ages_8":"8","03_ages_9":"9","03_ages_10":"10","03_ages_11":"11","03_ages_12":"12","03_ages_13":"13","03_ages_14":"14","03_ages_15":"15","03_ages_16":"16","03_ages_17":"17","03_ages_18":"18","04":"Yes","04_ages_8":"8","04_ages_9":"9","04_ages_10":"10","04_ages_11":"11","04_ages_12":"12","04_ages_13":"13","04_ages_14":"14","04_ages_15":"15","04_ages_16":"16","04_ages_17":"17","04_ages_18":"18","05":"No"},"rt":77339.89999999851,"item_order":[0,1,2,3,4],"radio_events":[7591,18362.10000000149,52171.39999999851,64960.29999999702,75979.60000000149],"checkbox_events":[11103.79999999702,11718.10000000149,12464.19999999553,13241.79999999702,14157,14621.60000000149,15383,16008.60000000149,19428.79999999702,20103.10000000149,44460,45013.19999999553,45671,46296.5,47371.5,48959.69999999553,49986,53679.39999999851,54425.39999999851,55002.60000000149,55483.69999999553,56205.60000000149,57729.39999999851,58828,59574.60000000149,60183.89999999851,61066.29999999702,62470,63014.79999999702,66195.5,66764.5,67984.19999999553,68922,69651.89999999851,70598.19999999553,71528.19999999553,73381.60000000149,74023.89999999851,74721.19999999553,75219.19999999553],"key_events":[],"mouse_events":[5682.29999999702,6524.19999999553,7591,10478.39999999851,11103.79999999702,11718.10000000149,12464.19999999553,13241.79999999702,14157,14621.60000000149,15383,16008.60000000149,18362.10000000149,19428.79999999702,20103.10000000149,44460,45013.19999999553,45671,46296.5,47371.5,48959.69999999553,49513.5,49986,52171.39999999851,53679.39999999851,54425.39999999851,55002.60000000149,55483.69999999553,56205.60000000149,56960,57729.39999999851,58315.10000000149,58828,59574.60000000149,60183.89999999851,61066.29999999702,61820.60000000149,62470,63014.79999999702,64960.29999999702,66195.5,66764.5,67398.69999999553,67984.19999999553,68922,69651.89999999851,70598.19999999553,71528.19999999553,73381.60000000149,74023.89999999851,74721.19999999553,75219.19999999553,75979.60000000149,77332],"honeypot":0,"survey":"mace","page":6,"trial_type":"survey-mace","trial_index":14,"time_elapsed":468700,"internal_node_id":"0.0-14.0","task_version":"prescreen-v0.3","browser_interactions":0},{"responses":{"01":"No","02":"Yes","02_ages_11":"11","02_ages_12":"12","02_ages_13":"13","03":"Yes","03_ages_7":"7","03_ages_8":"8","03_ages_9":"9","03_ages_10":"10","03_ages_11":"11","03_ages_12":"12","03_ages_13":"13","04":"No","05":"No","06":"Yes","06_ages_12":"12","07":"Yes","07_ages_12":"12"},"rt":285010.799999997,"item_order":[0,1,2,3,4,5,6],"radio_events":[254873,259118.69999999553,265577.299999997,274633.69999999553,276277.1000000015,277667.8999999985,281664.5],"checkbox_events":[260661.6000000015,261151.6000000015,261672.29999999702,269574.19999999553,270152.1000000015,270857.6000000015,271314.3999999985,271880.19999999553,272272.299999997,273138.69999999553,280226.299999997,283245.8999999985],"key_events":[],"mouse_events":[254873,258324.8999999985,259118.69999999553,260661.6000000015,261151.6000000015,261672.29999999702,265577.299999997,269574.19999999553,270152.1000000015,270857.6000000015,271314.3999999985,271880.19999999553,272272.299999997,273138.69999999553,274633.69999999553,276277.1000000015,277667.8999999985,280226.299999997,281664.5,283245.8999999985,284995.5],"honeypot":0,"survey":"mace","page":7,"trial_type":"survey-mace","trial_index":15,"time_elapsed":753745,"internal_node_id":"0.0-15.0","task_version":"prescreen-v0.3","browser_interactions":0},{"responses":{"01":"No","02":"No","03":"Yes","03_ages_6":"6","03_ages_7":"7","03_ages_8":"8","03_ages_9":"9","03_ages_10":"10","03_ages_11":"11","03_ages_12":"12","03_ages_13":"13","03_ages_14":"14","03_ages_15":"15","03_ages_16":"16","03_ages_17":"17","03_ages_18":"18","04":"No"},"rt":27037.89999999851,"item_order":[0,1,2,3],"radio_events":[11697.60000000149,12547.70000000298,13890.5,24652.79999999702],"checkbox_events":[17375,18330.10000000149,18722.70000000298,19147.60000000149,19781.39999999851,20663,21405.79999999702,22119.39999999851,22761.39999999851,23274.10000000149,23779.5,25744.39999999851,26113.10000000149],"key_events":[],"mouse_events":[11697.60000000149,12547.70000000298,13890.5,17375,17985.10000000149,18330.10000000149,18722.70000000298,19147.60000000149,19781.39999999851,20663,21405.79999999702,21766.5,22119.39999999851,22761.39999999851,23274.10000000149,23779.5,24652.79999999702,25744.39999999851,26113.10000000149,27030.79999999702],"honeypot":0,"survey":"mace","page":8,"trial_type":"survey-mace","trial_index":16,"time_elapsed":780797,"internal_node_id":"0.0-16.0","task_version":"prescreen-v0.3","browser_interactions":0},{"responses":{"01":"Yes","01_ages_1":"1","01_ages_2":"2","01_ages_3":"3","01_ages_4":"4","01_ages_5":"5","01_ages_6":"6","01_ages_7":"7","01_ages_8":"8","01_ages_9":"9","01_ages_10":"10","01_ages_11":"11","01_ages_12":"12","01_ages_13":"13","01_ages_14":"14","01_ages_15":"15","01_ages_16":"16","01_ages_17":"17","01_ages_18":"18","02":"Yes","02_ages_1":"1","02_ages_2":"2","02_ages_3":"3","02_ages_4":"4","02_ages_5":"5","02_ages_6":"6","02_ages_7":"7","02_ages_8":"8","02_ages_9":"9","02_ages_10":"10","02_ages_11":"11","02_ages_12":"12","02_ages_13":"13","02_ages_14":"14","02_ages_15":"15","02_ages_16":"16","02_ages_17":"17","02_ages_18":"18","03":"Yes","03_ages_1":"1","03_ages_2":"2","03_ages_3":"3","03_ages_4":"4","03_ages_5":"5","03_ages_6":"6","03_ages_7":"7","03_ages_8":"8","03_ages_9":"9","03_ages_10":"10","03_ages_11":"11","03_ages_12":"12","03_ages_13":"13","03_ages_14":"14","03_ages_15":"15","03_ages_16":"16","03_ages_17":"17","03_ages_18":"18","04":"Yes","04_ages_1":"1","04_ages_2":"2","04_ages_3":"3","04_ages_4":"4","04_ages_5":"5","04_ages_6":"6","04_ages_7":"7","04_ages_8":"8","04_ages_9":"9","04_ages_10":"10","04_ages_11":"11","04_ages_12":"12","04_ages_13":"13","04_ages_14":"14","04_ages_15":"15","04_ages_16":"16","04_ages_17":"17","04_ages_18":"18"},"rt":58780.89999999851,"item_order":[0,1,2,3],"radio_events":[2850,19930.79999999702,32059.89999999851,46642.89999999851],"checkbox_events":[8158.89999999851,8848.39999999851,9679.29999999702,10175.89999999851,11620,12053.09999999404,12469.29999999702,13055.5,13527.5,14097.89999999851,14554.09999999404,15497.39999999851,16011,16539.89999999851,17148.69999999553,18127.29999999702,18552.69999999553,18969.5,21395.19999999553,22029.89999999851,22622.09999999404,23248.19999999553,23881,24478.29999999702,24967.69999999553,25376.79999999702,25929.5,26707.5,27100.69999999553,28024,28760.69999999553,29145.79999999702,29738.79999999702,30537.09999999404,30946.39999999851,31267.09999999404,33687.79999999702,35020.09999999404,35421.19999999553,36010,36418.79999999702,37108.69999999553,37541.59999999404,38528.19999999553,38928.69999999553,39851.39999999851,40292.69999999553,40709.19999999553,41362.79999999702,41795.89999999851,42244.79999999702,42694,43679.89999999851,44128.89999999851,47453.59999999404,48286.5,48961.39999999851,49362.29999999702,49747.39999999851,50172.19999999553,50605.09999999404,51038.79999999702,51700.29999999702,52301.59999999404,53015.19999999553,53392.19999999553,54298,55028.39999999851,55492.89999999851,56390.29999999702,56980.59999999404,57742.09999999404],"key_events":[],"mouse_events":[2850,8158.89999999851,8848.39999999851,9679.29999999702,10175.89999999851,11050.59999999404,11620,12053.09999999404,12469.29999999702,13055.5,13527.5,14097.89999999851,14554.09999999404,15120.29999999702,15497.39999999851,16011,16539.89999999851,17148.69999999553,17798.59999999404,18127.29999999702,18552.69999999553,18969.5,19930.79999999702,21395.19999999553,22029.89999999851,22622.09999999404,23248.19999999553,23881,24478.29999999702,24967.69999999553,25376.79999999702,25929.5,26707.5,27100.69999999553,27541.5,28024,28439.69999999553,28760.69999999553,29145.79999999702,29738.79999999702,30537.09999999404,30946.39999999851,31267.09999999404,32059.89999999851,33687.79999999702,34450.69999999553,35020.09999999404,35421.19999999553,36010,36418.79999999702,37108.69999999553,37541.59999999404,37894.59999999404,38528.19999999553,38928.69999999553,39578.5,39851.39999999851,40292.69999999553,40709.19999999553,41362.79999999702,41795.89999999851,42244.79999999702,42694,43127,43679.89999999851,44128.89999999851,46642.89999999851,47453.59999999404,48286.5,48961.39999999851,49362.29999999702,49747.39999999851,50172.19999999553,50605.09999999404,51038.79999999702,51700.29999999702,52301.59999999404,52670.09999999404,53015.19999999553,53392.19999999553,53745.09999999404,54298,55028.39999999851,55492.89999999851,55942.09999999404,56390.29999999702,56980.59999999404,57373.19999999553,57742.09999999404,58773.89999999851],"honeypot":0,"survey":"mace","page":9,"trial_type":"survey-mace","trial_index":17,"time_elapsed":839587,"internal_node_id":"0.0-17.0","task_version":"prescreen-v0.3","browser_interactions":0},{"responses":{"01":"No","02":"No","03":"Yes","03_ages_10":"10","03_ages_11":"11","03_ages_12":"12","03_ages_13":"13","03_ages_14":"14","03_ages_15":"15","03_ages_16":"16","03_ages_17":"17","03_ages_18":"18","04":"No","05":"Yes","05_ages_7":"7","05_ages_8":"8","05_ages_9":"9","05_ages_10":"10","05_ages_11":"11","05_ages_12":"12","05_ages_13":"13","05_ages_14":"14","05_ages_15":"15","05_ages_16":"16","05_ages_17":"17","05_ages_18":"18","06":"Yes","06_ages_17":"17","07":"No","08":"Yes","08_ages_1":"1","08_ages_2":"2","08_ages_3":"3","08_ages_4":"4","08_ages_5":"5","08_ages_6":"6","08_ages_7":"7"},"rt":49922.79999999702,"item_order":[0,1,2,3,4,5,6,7],"radio_events":[2934.7999999970198,4109.29999999702,6457.89999999851,18317.70000000298,27967.39999999851,32169.70000000298,36182.60000000149,37597.70000000298,48259.70000000298],"checkbox_events":[8627.79999999702,8989,9357.79999999702,9790,10331.60000000149,10708.89999999851,11117.79999999702,11902.70000000298,12536.79999999702,20286.20000000298,21273.10000000149,21666.29999999702,22086.5,22905.20000000298,23298.20000000298,23882.89999999851,24323.89999999851,24813.10000000149,25787,26139.70000000298,26460.5,29615.89999999851,40180.79999999702,40674.39999999851,41083.39999999851,41508.10000000149,41876.39999999851,42654.70000000298,43748.20000000298],"key_events":[],"mouse_events":[2934.7999999970198,4109.29999999702,6457.89999999851,8627.79999999702,8989,9357.79999999702,9790,10331.60000000149,10708.89999999851,11117.79999999702,11574.39999999851,11902.70000000298,12536.79999999702,16553.79999999702,18317.70000000298,20286.20000000298,20808.10000000149,21273.10000000149,21666.29999999702,22086.5,22905.20000000298,23298.20000000298,23882.89999999851,24323.89999999851,24813.10000000149,25787,26139.70000000298,26460.5,27967.39999999851,29615.89999999851,32169.70000000298,35053.10000000149,36182.60000000149,37597.70000000298,40180.79999999702,40674.39999999851,41083.39999999851,41508.10000000149,41876.39999999851,42654.70000000298,43748.20000000298,45397,48259.70000000298,49910.10000000149],"honeypot":0,"survey":"mace","page":10,"trial_type":"survey-mace","trial_index":18,"time_elapsed":889520,"internal_node_id":"0.0-18.0","task_version":"prescreen-v0.3","browser_interactions":0,"instructed":0},{"rt":2806.2000000029802,"trial_type":"mental-health-alert","trial_index":19,"time_elapsed":892330,"internal_node_id":"0.0-19.0","task_version":"prescreen-v0.3","interactions":"[{\"event\":\"blur\",\"trial\":3,\"time\":117953},{\"event\":\"focus\",\"trial\":3,\"time\":121788}]"}]