[{"view_history":[{"page_index":0,"viewing_time":14327.39999999851},{"page_index":1,"viewing_time":13087.400000000373},{"page_index":2,"viewing_time":15196.400000000373},{"page_index":3,"viewing_time":3178.9000000003725}],"rt":45793,"trial_type":"instructions","trial_index":0,"time_elapsed":45814,"internal_node_id":"0.0-0.0","task_version":"prescreen-v0.3"},{"rt":25587.700000001118,"responses":{"age":"28","gender-categorical":"Male","gender-free-response":"","ethnicity":"Rather not say","race":["White"],"education":"High school"},"trial_type":"survey-demo","trial_index":1,"time_elapsed":71420,"internal_node_id":"0.0-1.0","task_version":"prescreen-v0.3"},{"responses":{"Q18":"2","Q03":"1","Q14":"2","Q04":"1","Q19":"2","Q08":"3","Q11":"3","Q07":"1","Q20":"1","Q16":"2","Q17":"2","Q06":"1","Q12":"2","Q15":"3","Q01":"2","Q05":"2","Q13":"3","Q21":"3","Q09":"2","Q10":"3","Q02":"2"},"rt":230772.29999999888,"item_order":[17,2,13,3,18,7,10,6,19,15,16,5,11,14,0,4,12,20,8,9,1],"radio_events":[15848.5,22200.5,30395.299999998882,38717.79999999888,53622.29999999888,61477.59999999963,65615.79999999888,83288.09999999963,92037.40000000037,96629,107048,116460.40000000037,124107,150765.29999999888,161163.5,165616.69999999925,173782.79999999888,183669.5,189243,200400.19999999925,210699.79999999888,217241.29999999888,224748.90000000037,225122.29999999888,229267.19999999925],"key_events":[],"mouse_events":[15848.5,22200.5,30395.299999998882,38717.79999999888,53622.29999999888,61477.59999999963,65615.79999999888,67370.5,83288.09999999963,92037.40000000037,96629,107048,116460.40000000037,124107,150765.29999999888,161163.5,165616.69999999925,166922.19999999925,173782.79999999888,183669.5,189243,190281.5,200400.19999999925,210699.79999999888,217241.29999999888,224748.90000000037,225122.29999999888,228159.29999999888,229267.19999999925,230766.59999999963],"straightlining":0.47619047619047616,"zigzagging":0.7,"honeypot":0,"survey":"sns","trial_type":"survey-template","trial_index":2,"time_elapsed":302215,"internal_node_id":"0.0-2.0","task_version":"prescreen-v0.3","browser_interactions":0,"infrequency":0},{"responses":{"Q08":"2","Q13":"0","Q10":"2","Q01":"3","Q11":"1","Q09":"1","Q03":"2","Q05":"2","Q06":"2","Q04":"3","Q07":"3","Q12":"1","Q02":"2"},"rt":140480.6000000015,"item_order":[7,12,9,0,10,8,2,4,5,3,6,11,1],"radio_events":[13826.400000000373,28486,36580.800000000745,41744.800000000745,52909.40000000037,62136.300000000745,72563.5,83555.5,93280.20000000112,108533.80000000075,119162.20000000112,130322.20000000112,138125.1000000015],"key_events":[],"mouse_events":[13826.400000000373,28486,36580.800000000745,41744.800000000745,52909.40000000037,62136.300000000745,72563.5,73740.70000000112,82507,83555.5,93280.20000000112,108533.80000000075,119162.20000000112,130322.20000000112,138125.1000000015,140477.80000000075],"straightlining":0.46153846153846156,"zigzagging":0.3333333333333333,"honeypot":0,"survey":"bisbas","trial_type":"survey-template","trial_index":3,"time_elapsed":442710,"internal_node_id":"0.0-3.0","task_version":"prescreen-v0.3","browser_interactions":0,"infrequency":0},{"responses":{"Q01":"1","Q02":"1","Q03":"2"},"rt":75217.20000000112,"radio_events":[31977.300000000745,37651,54786,58106.70000000112,73530.59999999963],"key_events":[],"mouse_events":[30674.200000001118,31977.300000000745,37651,54786,58106.70000000112,71583.09999999963,72091,73530.59999999963,75215.59999999963],"survey":"map","page":1,"trial_type":"survey-map","trial_index":4,"time_elapsed":517937,"internal_node_id":"0.0-4.0","task_version":"prescreen-v0.3","browser_interactions":0},{"responses":{"Q04":"1","Q05":"1","Q06":"2"},"rt":17674.599999999627,"radio_events":[8982.199999999255,13136.900000000373,14370.699999999255],"key_events":[],"mouse_events":[8982.199999999255,12119,13136.900000000373,14370.699999999255,17672.5],"survey":"map","page":2,"trial_type":"survey-map","trial_index":5,"time_elapsed":535619,"internal_node_id":"0.0-5.0","task_version":"prescreen-v0.3","browser_interactions":0},{"responses":{"Q07":"2","Q08":"2","Q09":"2"},"rt":22862.099999999627,"radio_events":[9585.39999999851,17189.099999999627,21635.89999999851],"key_events":[],"mouse_events":[9585.39999999851,17189.099999999627,21635.89999999851,22860.5],"survey":"map","page":3,"trial_type":"survey-map","trial_index":6,"time_elapsed":558487,"internal_node_id":"0.0-6.0","task_version":"prescreen-v0.3","browser_interactions":0},{"responses":{"Q10":"1","Q11":"0","Q12":"1","Q13":"0","Q16":"0","Q14":"1","Q15":"1"},"rt":121820.40000000037,"radio_events":[23547.099999999627,33623.90000000037,51080.5,73233.30000000075,83474.30000000075,106581.30000000075,120306.20000000112],"key_events":[],"mouse_events":[23547.099999999627,33623.90000000037,51080.5,54564,73233.30000000075,83474.30000000075,85472.59999999963,88494.90000000037,106581.30000000075,120306.20000000112,121817.20000000112],"survey":"map","page":4,"trial_type":"survey-map","trial_index":7,"time_elapsed":680319,"internal_node_id":"0.0-7.0","task_version":"prescreen-v0.3","browser_interactions":0,"infrequency":0},{"view_history":[{"page_index":0,"viewing_time":22731.900000000373},{"page_index":1,"viewing_time":14701.400000000373}],"rt":37434.800000000745,"trial_type":"instructions","trial_index":8,"time_elapsed":717759,"internal_node_id":"0.0-8.0","task_version":"prescreen-v0.3"},{"responses":{"01":"Yes","01_ages_12":"12","01_ages_13":"13","01_ages_14":"14","01_ages_15":"15","01_ages_16":"16","01_ages_17":"17","01_ages_18":"18","02":"Yes","02_ages_4":"4","02_ages_5":"5","02_ages_6":"6","02_ages_7":"7","02_ages_8":"8","02_ages_9":"9","02_ages_10":"10","02_ages_11":"11","02_ages_12":"12","02_ages_13":"13","02_ages_14":"14","03":"No","04":"No","05":"No","06":"Yes","06_ages_9":"9","06_ages_10":"10","06_ages_11":"11","06_ages_12":"12","06_ages_13":"13","06_ages_14":"14"},"rt":169756,"item_order":[0,1,2,3,4,5],"radio_events":[21087.400000000373,46322.20000000112,49190,82117.59999999963,119049.80000000075,124447.59999999963,131286.20000000112,142165.30000000075],"checkbox_events":[51541.800000000745,53265.59999999963,54451.09999999963,55362.40000000037,58742.09999999963,62034,63925.800000000745,91328,92053.20000000112,92818.20000000112,93817.5,95835.59999999963,97050.70000000112,99177.09999999963,100166.5,101313.5,103429.40000000037,105614.40000000037,149689.09999999963,152882.30000000075,154234.30000000075,155400.70000000112,156535.90000000037,161787],"key_events":[],"mouse_events":[0.40000000037252903,21087.400000000373,35670.300000000745,46322.20000000112,49190,51541.800000000745,53265.59999999963,54451.09999999963,55362.40000000037,56312.300000000745,58742.09999999963,62034,63925.800000000745,71195.20000000112,82117.59999999963,91328,92053.20000000112,92818.20000000112,93817.5,95041.40000000037,95835.59999999963,97050.70000000112,98089.5,99177.09999999963,100166.5,101313.5,102645.70000000112,103429.40000000037,105614.40000000037,109327.40000000037,119049.80000000075,124447.59999999963,131286.20000000112,142165.30000000075,149689.09999999963,152882.30000000075,154234.30000000075,155400.70000000112,156535.90000000037,161787,163285.90000000037,165423.20000000112,169749.80000000075],"honeypot":0,"survey":"mace","page":1,"trial_type":"survey-mace","trial_index":9,"time_elapsed":887545,"internal_node_id":"0.0-9.0","task_version":"prescreen-v0.3","browser_interactions":0},{"responses":{"01":"Yes","01_ages_11":"11","01_ages_12":"12","02":"No","03":"Yes","03_ages_1":"1","03_ages_2":"2","03_ages_3":"3","03_ages_4":"4","03_ages_5":"5","03_ages_6":"6","03_ages_7":"7","03_ages_8":"8","03_ages_9":"9","03_ages_10":"10","03_ages_11":"11","03_ages_12":"12","03_ages_13":"13","03_ages_14":"14","03_ages_15":"15","03_ages_16":"16","03_ages_17":"17","04":"Yes","04_ages_5":"5","04_ages_6":"6","04_ages_7":"7","04_ages_8":"8","04_ages_9":"9","05":"Yes","05_ages_5":"5","05_ages_6":"6","05_ages_7":"7","05_ages_8":"8","05_ages_9":"9","06":"No","07":"Yes","07_ages_8":"8","07_ages_9":"9","07_ages_10":"10","08":"Yes","08_ages_9":"9","08_ages_10":"10"},"rt":152792,"item_order":[0,1,2,3,4,5,6,7],"radio_events":[9456.400000000373,26117.900000000373,34517.59999999963,63303,93334.70000000112,112637.59999999963,121153.90000000037,144512.80000000075],"checkbox_events":[13295.599999999627,14138.800000000745,36143.70000000112,37447,40228.40000000037,42627.800000000745,43952.90000000037,45008.300000000745,45929.09999999963,47114,48289.90000000037,49034,50404.59999999963,51775.70000000112,52892.5,53832.20000000112,54635.09999999963,55801,57201.20000000112,64605.59999999963,65409.59999999963,66438.09999999963,67602.70000000112,68582.80000000075,69826.40000000037,73411.40000000037,74175.30000000075,74948.40000000037,76320.20000000112,77457.40000000037,78455.09999999963,79923.80000000075,81186.90000000037,82725.30000000075,83567.40000000037,95352.5,96184.80000000075,97644.30000000075,98506.09999999963,103012.70000000112,105060.80000000075,130147.80000000075,130990.30000000075,133137.20000000112,147256.20000000112,148147.70000000112],"key_events":[],"mouse_events":[9456.400000000373,13295.599999999627,14138.800000000745,26117.900000000373,27205.099999999627,34517.59999999963,36143.70000000112,37447,40228.40000000037,42627.800000000745,43952.90000000037,45008.300000000745,45929.09999999963,47114,48289.90000000037,49034,50404.59999999963,51775.70000000112,52892.5,53832.20000000112,54635.09999999963,55801,57201.20000000112,63303,64605.59999999963,65409.59999999963,66438.09999999963,67602.70000000112,68582.80000000075,69826.40000000037,73411.40000000037,74175.30000000075,74948.40000000037,76320.20000000112,77457.40000000037,78455.09999999963,79923.80000000075,81186.90000000037,81941.5,82725.30000000075,83567.40000000037,85418,93334.70000000112,95352.5,96184.80000000075,97644.30000000075,98506.09999999963,103012.70000000112,105060.80000000075,106637.90000000037,112637.59999999963,121153.90000000037,130147.80000000075,130990.30000000075,133137.20000000112,134497.80000000075,144512.80000000075,147256.20000000112,148147.70000000112,150263.5,152779.80000000075],"honeypot":0,"survey":"mace","page":2,"trial_type":"survey-mace","trial_index":10,"time_elapsed":1040351,"internal_node_id":"0.0-10.0","task_version":"prescreen-v0.3","browser_interactions":0},{"responses":{"01":"Yes","01_ages_6":"6","01_ages_7":"7","01_ages_8":"8","01_ages_9":"9","02":"No","03":"No","04":"No"},"rt":44215.70000000112,"item_order":[0,1,2,3],"radio_events":[9733.400000000373,30544.900000000373,40299.09999999963,42278.20000000112],"checkbox_events":[11880.200000001118,12683.599999999627,13497.099999999627,14505.700000001118],"key_events":[],"mouse_events":[9733.400000000373,11880.200000001118,12683.599999999627,13497.099999999627,14505.700000001118,30544.900000000373,33296.90000000037,37573.40000000037,39151,40299.09999999963,42278.20000000112,44208.300000000745],"honeypot":0,"survey":"mace","page":3,"trial_type":"survey-mace","trial_index":11,"time_elapsed":1084577,"internal_node_id":"0.0-11.0","task_version":"prescreen-v0.3","browser_interactions":0},{"responses":{"01":"Yes","01_ages_10":"10","01_ages_11":"11","02":"No"},"rt":40560.300000000745,"item_order":[0,1],"radio_events":[12457.700000001118,17239.700000001118,33818.59999999963],"checkbox_events":[24960.700000001118,26038.200000001118],"key_events":[],"mouse_events":[10596.099999999627,12457.700000001118,17239.700000001118,24960.700000001118,26038.200000001118,33818.59999999963,40558.09999999963],"honeypot":0,"survey":"mace","page":4,"trial_type":"survey-mace","trial_index":12,"time_elapsed":1125144,"internal_node_id":"0.0-12.0","task_version":"prescreen-v0.3","browser_interactions":0},{"responses":{"01":"Yes","01_ages_4":"4","01_ages_5":"5","01_ages_11":"11","01_ages_12":"12","02":"Yes","02_ages_4":"4","02_ages_5":"5","02_ages_11":"11","02_ages_12":"12","03":"No","04":"Yes","04_ages_11":"11","04_ages_12":"12","05":"Yes","05_ages_11":"11","05_ages_12":"12"},"rt":91105.19999999925,"item_order":[0,1,2,3,4],"radio_events":[10572.699999999255,37854.09999999963,56166.79999999888,65288.29999999888,75890.29999999888,77799.69999999925,78068.29999999888],"checkbox_events":[16403,18609.5,23222.799999998882,24634.699999999255,40559.5,41597.59999999963,43616.79999999888,44380.5,67032.19999999925,68140.19999999925,88042,88884.69999999925],"key_events":[77799.69999999925,78068.29999999888],"mouse_events":[10572.699999999255,16403,17530,18609.5,23222.799999998882,24634.699999999255,37854.09999999963,40559.5,41597.59999999963,43616.79999999888,44380.5,45488.40000000037,56166.79999999888,65288.29999999888,67032.19999999925,68140.19999999925,75890.29999999888,79654.90000000037,88042,88884.69999999925,91100.19999999925],"honeypot":0,"survey":"mace","page":5,"trial_type":"survey-mace","trial_index":13,"time_elapsed":1216260,"internal_node_id":"0.0-13.0","task_version":"prescreen-v0.3","browser_interactions":0},{"responses":{"01":"No","02":"Yes","02_ages_2":"2","02_ages_3":"3","02_ages_4":"4","02_ages_5":"5","02_ages_6":"6","02_ages_7":"7","02_ages_8":"8","02_ages_9":"9","02_ages_10":"10","03":"No","04":"No","05":"No"},"rt":73135.79999999888,"item_order":[0,1,2,3,4],"radio_events":[10078.39999999851,23611.599999999627,27835.099999999627,59088.09999999963,63987.89999999851,70749.59999999963],"checkbox_events":[30989.699999999255,32146.199999999255,35339.79999999888,36486.29999999888,37515.09999999963,38417,41532.29999999888,45785.29999999888,47058.89999999851],"key_events":[],"mouse_events":[8373.299999998882,10078.39999999851,23611.599999999627,26924.099999999627,27835.099999999627,30989.699999999255,32146.199999999255,33007.39999999851,35339.79999999888,36486.29999999888,37515.09999999963,38417,41532.29999999888,44717.5,45785.29999999888,47058.89999999851,48244.29999999888,59088.09999999963,63987.89999999851,70749.59999999963,73130.59999999963],"honeypot":0,"survey":"mace","page":6,"trial_type":"survey-mace","trial_index":14,"time_elapsed":1289409,"internal_node_id":"0.0-14.0","task_version":"prescreen-v0.3","browser_interactions":0},{"responses":{"01":"No","02":"No","03":"No","04":"No","05":"No","06":"Yes","06_ages_11":"11","06_ages_12":"12","07":"Yes","07_ages_11":"11","07_ages_12":"12"},"rt":88132.40000000037,"item_order":[0,1,2,3,4,5,6],"radio_events":[9417,15755.200000001118,23741,33051.20000000112,35875.300000000745,40277.300000000745,48689.60000000149,58663.40000000037,68570.10000000149,78900.20000000112],"checkbox_events":[71187.5,71930.70000000112,81085.70000000112,81800.80000000075],"key_events":[],"mouse_events":[9417,15755.200000001118,23741,24896.800000000745,33051.20000000112,34442.800000000745,35875.300000000745,40277.300000000745,48689.60000000149,58663.40000000037,68570.10000000149,71187.5,71930.70000000112,73704.10000000149,78900.20000000112,81085.70000000112,81800.80000000075,84415.80000000075,88125],"honeypot":0,"survey":"mace","page":7,"trial_type":"survey-mace","trial_index":15,"time_elapsed":1377555,"internal_node_id":"0.0-15.0","task_version":"prescreen-v0.3","browser_interactions":0},{"responses":{"01":"Yes","01_ages_5":"5","01_ages_6":"6","01_ages_7":"7","01_ages_8":"8","01_ages_9":"9","02":"Yes","02_ages_13":"13","02_ages_14":"14","02_ages_15":"15","02_ages_16":"16","02_ages_17":"17","03":"Yes","03_ages_5":"5","03_ages_6":"6","03_ages_7":"7","03_ages_8":"8","03_ages_9":"9","03_ages_10":"10","03_ages_11":"11","03_ages_12":"12","03_ages_13":"13","03_ages_14":"14","03_ages_15":"15","03_ages_16":"16","03_ages_17":"17","03_ages_18":"18","04":"Yes","04_ages_11":"11","04_ages_12":"12","04_ages_13":"13","04_ages_14":"14","04_ages_15":"15","04_ages_16":"16","04_ages_17":"17","04_ages_18":"18"},"rt":113691.19999999925,"item_order":[0,1,2,3],"radio_events":[20645.099999999627,42184.09999999963,63771.09999999963,96128],"checkbox_events":[23682.900000000373,24387.699999999255,25387.099999999627,26651.199999999255,27611.900000000373,43968.09999999963,44673.199999999255,46996.300000000745,50123.199999999255,51142.40000000037,66957.69999999925,68545.30000000075,71162.40000000037,72359.5,74858.5,75917.30000000075,76662.40000000037,77279.30000000075,78709.5,80895.19999999925,84394.09999999963,85413.09999999963,87765.59999999963,88764.59999999963,102536.40000000037,103889.09999999963,105005.80000000075,106044.59999999963,106946.30000000075,108180.69999999925,109218.90000000037,110443.90000000037],"key_events":[],"mouse_events":[20645.099999999627,23682.900000000373,24387.699999999255,25387.099999999627,26651.199999999255,27611.900000000373,42184.09999999963,43968.09999999963,44673.199999999255,45879.300000000745,46996.300000000745,49025.5,50123.199999999255,51142.40000000037,54557,63771.09999999963,66957.69999999925,67624,68545.30000000075,69956.59999999963,71162.40000000037,72359.5,74858.5,75917.30000000075,76662.40000000037,77279.30000000075,78709.5,79591.40000000037,80895.19999999925,82032.09999999963,83051.5,83649.40000000037,84394.09999999963,85413.09999999963,86589.19999999925,87765.59999999963,88764.59999999963,89568.69999999925,96128,102536.40000000037,103889.09999999963,105005.80000000075,106044.59999999963,106946.30000000075,108180.69999999925,109218.90000000037,110443.90000000037,111276.69999999925,113687.09999999963],"honeypot":0,"survey":"mace","page":8,"trial_type":"survey-mace","trial_index":16,"time_elapsed":1491259,"internal_node_id":"0.0-16.0","task_version":"prescreen-v0.3","browser_interactions":0},{"responses":{"01":"No","02":"No","03":"No","04":"No"},"rt":42985.5,"item_order":[0,1,2,3],"radio_events":[10971.5,18906.099999999627,28812.199999999255,31928.199999999255,41325.59999999963],"checkbox_events":[],"key_events":[],"mouse_events":[10971.5,18906.099999999627,28812.199999999255,31928.199999999255,41325.59999999963,42981.5],"honeypot":0,"survey":"mace","page":9,"trial_type":"survey-mace","trial_index":17,"time_elapsed":1534257,"internal_node_id":"0.0-17.0","task_version":"prescreen-v0.3","browser_interactions":0},{"responses":{"01":"No","02":"No","03":"Yes","03_ages_10":"10","03_ages_11":"11","03_ages_12":"12","03_ages_13":"13","03_ages_14":"14","03_ages_15":"15","03_ages_16":"16","03_ages_17":"17","03_ages_18":"18","04":"No","05":"No","06":"Yes","06_ages_17":"17","07":"No","08":"No"},"rt":80951.59999999963,"item_order":[0,1,2,3,4,5,6,7],"radio_events":[7782.699999999255,10654.099999999627,20166,40987.09999999963,45700.39999999851,55522.89999999851,74201.29999999888,79903.5],"checkbox_events":[23252,23988,25103.89999999851,26563.599999999627,28659.199999999255,30031.699999999255,31420.099999999627,32254.799999998882,33989.29999999888,57817.09999999963],"key_events":[],"mouse_events":[7782.699999999255,10654.099999999627,20166,23252,23988,25103.89999999851,26563.599999999627,27687.39999999851,28659.199999999255,30031.699999999255,31420.099999999627,32254.799999998882,33382,33989.29999999888,35635.39999999851,40987.09999999963,45700.39999999851,55522.89999999851,57817.09999999963,59110.09999999963,74201.29999999888,79903.5,80942.39999999851],"honeypot":0,"survey":"mace","page":10,"trial_type":"survey-mace","trial_index":18,"time_elapsed":1615228,"internal_node_id":"0.0-18.0","task_version":"prescreen-v0.3","browser_interactions":0,"instructed":0},{"rt":11063.800000000745,"trial_type":"mental-health-alert","trial_index":19,"time_elapsed":1626299,"internal_node_id":"0.0-19.0","task_version":"prescreen-v0.3","interactions":"[]"}]