[{"view_history":[{"page_index":0,"viewing_time":8568.200000047684},{"page_index":1,"viewing_time":5128.5},{"page_index":2,"viewing_time":4212.599999904633},{"page_index":3,"viewing_time":1631.5}],"rt":19542.799999952316,"trial_type":"instructions","trial_index":0,"time_elapsed":19567,"internal_node_id":"0.0-0.0","task_version":"prescreen-v0.3"},{"rt":20091.900000095367,"responses":{"age":"21","gender-categorical":"Female","gender-free-response":"","ethnicity":"Not Hispanic or Latino","race":["White"],"education":"Some college"},"trial_type":"survey-demo","trial_index":1,"time_elapsed":39697,"internal_node_id":"0.0-1.0","task_version":"prescreen-v0.3"},{"responses":{"Q10":"2","Q06":"1","Q09":"3","Q02":"0","Q11":"2","Q16":"0","Q14":"3","Q08":"1","Q04":"1","Q17":"0","Q13":"3","Q19":"1","Q18":"2","Q03":"0","Q20":"0","Q01":"0","Q15":"2","Q07":"1","Q21":"3","Q12":"1","Q05":"0"},"rt":108032.20000004768,"item_order":[9,5,8,1,10,15,13,7,3,16,12,18,17,2,19,0,14,6,20,11,4],"radio_events":[13961.900000095367,18382.800000190735,23650.200000047684,26722.400000095367,30201,33760.5,39928.5,46080.5,53630.300000190735,56634.200000047684,58431.40000009537,66260.30000019073,72018.90000009537,73681.5,82610.40000009537,83940.10000014305,87830.30000019073,93297.20000004768,96821.90000009537,102641.90000009537,105508.30000019073],"key_events":[],"mouse_events":[10822.100000143051,12921.700000047684,13961.900000095367,18382.800000190735,23650.200000047684,26722.400000095367,30201,33760.5,39928.5,46080.5,49272.60000014305,51698.40000009537,52651.90000009537,53630.300000190735,54771.200000047684,56634.200000047684,58431.40000009537,64669.300000190735,66260.30000019073,72018.90000009537,73681.5,78941,80193,81443.20000004768,82610.40000009537,83940.10000014305,87830.30000019073,93297.20000004768,96821.90000009537,102641.90000009537,105508.30000019073,108029.5],"straightlining":0.3333333333333333,"zigzagging":0.4,"honeypot":0,"survey":"sns","trial_type":"survey-template","trial_index":2,"time_elapsed":147742,"internal_node_id":"0.0-2.0","task_version":"prescreen-v0.3","browser_interactions":0,"infrequency":0},{"responses":{"Q12":"1","Q13":"0","Q09":"2","Q01":"3","Q03":"2","Q04":"3","Q02":"2","Q11":"2","Q08":"2","Q06":"2","Q10":"1","Q07":"3","Q05":"3"},"rt":84344.70000004768,"item_order":[11,12,8,0,2,3,1,10,7,5,9,6,4],"radio_events":[7014.200000047684,18924.400000095367,22894.099999904633,29251.200000047684,35694.299999952316,37924.09999990463,58565.40000009537,60192.5,62454.09999990463,67374.40000009537,69781.70000004768,72056.70000004768,81534.40000009537],"key_events":[],"mouse_events":[7014.200000047684,16092.900000095367,18924.400000095367,20274.900000095367,21863.599999904633,22894.099999904633,24354.400000095367,29251.200000047684,35694.299999952316,37924.09999990463,53341.299999952316,57535.5,58565.40000009537,60192.5,62454.09999990463,67374.40000009537,69781.70000004768,72056.70000004768,73214.40000009537,80510.70000004768,81534.40000009537,84343.5],"straightlining":0.46153846153846156,"zigzagging":0.5,"honeypot":0,"survey":"bisbas","trial_type":"survey-template","trial_index":3,"time_elapsed":232092,"internal_node_id":"0.0-3.0","task_version":"prescreen-v0.3","browser_interactions":0,"infrequency":0},{"responses":{"Q01":"3","Q02":"2","Q03":"2"},"rt":23556.799999952316,"radio_events":[6852.399999856949,10265.5,15154.799999952316,21423.599999904633],"key_events":[],"mouse_events":[6852.399999856949,10265.5,14153.599999904633,15154.799999952316,20564.5,21423.599999904633,23555.799999952316],"survey":"map","page":1,"trial_type":"survey-map","trial_index":4,"time_elapsed":255647,"internal_node_id":"0.0-4.0","task_version":"prescreen-v0.3","browser_interactions":0},{"responses":{"Q04":"1","Q05":"1","Q06":"0"},"rt":20227,"radio_events":[5313.800000190735,9375.900000095367,14585,18825],"key_events":[],"mouse_events":[5313.800000190735,9375.900000095367,12771.400000095367,14585,17215.300000190735,18825,20226.300000190735],"survey":"map","page":2,"trial_type":"survey-map","trial_index":5,"time_elapsed":275877,"internal_node_id":"0.0-5.0","task_version":"prescreen-v0.3","browser_interactions":0},{"responses":{"Q07":"2","Q08":"0","Q09":"1"},"rt":12242.200000047684,"radio_events":[5481.600000143051,8841.400000095367,10722.200000047684],"key_events":[],"mouse_events":[5481.600000143051,7645.5,8841.400000095367,10722.200000047684,12241.5],"survey":"map","page":3,"trial_type":"survey-map","trial_index":6,"time_elapsed":288122,"internal_node_id":"0.0-6.0","task_version":"prescreen-v0.3","browser_interactions":0},{"responses":{"Q10":"4","Q11":"0","Q12":"0","Q13":"4","Q16":"0","Q14":"1","Q15":"0"},"rt":45872.799999952316,"radio_events":[9839.899999856949,12918.200000047684,19347.700000047684,23519.200000047684,29538.799999952316,40160.799999952316,44189.89999985695],"key_events":[],"mouse_events":[9839.899999856949,12918.200000047684,19347.700000047684,22587.39999985695,23519.200000047684,29538.799999952316,37469.89999985695,40160.799999952316,41469.299999952316,42342.5,43390.299999952316,44189.89999985695,45871.59999990463],"survey":"map","page":4,"trial_type":"survey-map","trial_index":7,"time_elapsed":334000,"internal_node_id":"0.0-7.0","task_version":"prescreen-v0.3","browser_interactions":0,"infrequency":0},{"view_history":[{"page_index":0,"viewing_time":2864.2999999523163},{"page_index":1,"viewing_time":2600.2999999523163}],"rt":5466.099999904633,"trial_type":"instructions","trial_index":8,"time_elapsed":339468,"internal_node_id":"0.0-8.0","task_version":"prescreen-v0.3"},{"responses":{"01":"Yes","01_ages_6":"6","01_ages_7":"7","01_ages_8":"8","01_ages_9":"9","01_ages_10":"10","01_ages_11":"11","01_ages_12":"12","01_ages_13":"13","01_ages_14":"14","01_ages_15":"15","01_ages_16":"16","01_ages_17":"17","01_ages_18":"18","02":"Yes","02_ages_6":"6","02_ages_7":"7","02_ages_8":"8","02_ages_9":"9","02_ages_10":"10","02_ages_11":"11","02_ages_12":"12","02_ages_13":"13","02_ages_14":"14","02_ages_15":"15","02_ages_16":"16","02_ages_17":"17","02_ages_18":"18","03":"Yes","03_ages_6":"6","03_ages_7":"7","03_ages_8":"8","03_ages_9":"9","03_ages_10":"10","03_ages_11":"11","03_ages_12":"12","03_ages_13":"13","03_ages_14":"14","03_ages_15":"15","03_ages_16":"16","03_ages_17":"17","04":"Yes","04_ages_15":"15","04_ages_16":"16","04_ages_17":"17","04_ages_18":"18","05":"No","06":"Yes","06_ages_8":"8","06_ages_9":"9","06_ages_10":"10","06_ages_11":"11","06_ages_12":"12","06_ages_13":"13","06_ages_14":"14","06_ages_15":"15","06_ages_16":"16","06_ages_17":"17","06_ages_18":"18"},"rt":104763.90000009537,"item_order":[0,1,2,3,4,5],"radio_events":[4820,34300.200000047684,55021.40000009537,61819.200000047684,66566.29999995232,87390.29999995232,90810.29999995232],"checkbox_events":[11521.900000095367,12409.100000143051,13228.700000047684,15690.900000095367,19254.60000014305,20030.5,20959,21857.400000095367,23090.60000014305,25031.299999952316,26066.10000014305,28470.400000095367,29410.200000047684,35961.40000009537,36800.5,37670.799999952316,39407.40000009537,40330.799999952316,41260.40000009537,42264.10000014305,43240.799999952316,44978.299999952316,46651.60000014305,47469.200000047684,48388.90000009537,49188.90000009537,56672,57429.299999952316,58310.299999952316,60058.5,70180.90000009537,70850.70000004768,71610.20000004768,72409.90000009537,74360.40000009537,75761.10000014305,76569.5,77380.79999995232,78659.70000004768,79570.5,81359.70000004768,92610.90000009537,93486,94325,95470.20000004768,96210,96950.40000009537,97750.60000014305,98426.90000009537,99092,99911.29999995232,100990.40000009537,101901.79999995232],"key_events":[],"mouse_events":[0.10000014305114746,4820,10520.799999952316,11521.900000095367,12409.100000143051,13228.700000047684,14101.5,14940.299999952316,15690.900000095367,16550.299999952316,17521.10000014305,19254.60000014305,20030.5,20959,21857.400000095367,23090.60000014305,24207.10000014305,25031.299999952316,26066.10000014305,27080.900000095367,28470.400000095367,29410.200000047684,34300.200000047684,35961.40000009537,36800.5,37670.799999952316,38540.299999952316,39407.40000009537,40330.799999952316,41260.40000009537,42264.10000014305,43240.799999952316,44180.90000009537,44978.299999952316,45887,46651.60000014305,47469.200000047684,48388.90000009537,49188.90000009537,55021.40000009537,56672,57429.299999952316,58310.299999952316,59057.299999952316,60058.5,61819.200000047684,66566.29999995232,70180.90000009537,70850.70000004768,71610.20000004768,72409.90000009537,73189.5,73571.10000014305,74360.40000009537,75069.90000009537,75761.10000014305,76569.5,77380.79999995232,78659.70000004768,79570.5,80568.29999995232,81359.70000004768,87390.29999995232,89276.40000009537,90810.29999995232,92610.90000009537,93486,94325,95470.20000004768,96210,96950.40000009537,97750.60000014305,98426.90000009537,99092,99911.29999995232,100990.40000009537,101901.79999995232,104761.10000014305],"honeypot":0,"survey":"mace","page":1,"trial_type":"survey-mace","trial_index":9,"time_elapsed":444244,"internal_node_id":"0.0-9.0","task_version":"prescreen-v0.3","browser_interactions":0},{"responses":{"01":"No","02":"No","03":"Yes","03_ages_4":"4","03_ages_5":"5","03_ages_6":"6","03_ages_7":"7","04":"No","05":"Yes","05_ages_5":"5","05_ages_6":"6","05_ages_7":"7","05_ages_8":"8","05_ages_9":"9","06":"No","07":"No","08":"No"},"rt":49482.5,"item_order":[0,1,2,3,4,5,6,7],"radio_events":[7641.400000095367,9100,10730.200000047684,24030.799999952316,25480.200000047684,27590.200000047684,28557.5,38960.200000047684],"checkbox_events":[14061.799999952316,14740,16879.299999952316,18410.900000095367,40290.299999952316,42279.5,44127.90000009537,45062.200000047684,48129.90000009537],"key_events":[],"mouse_events":[5959.700000047684,7641.400000095367,9100,10730.200000047684,14061.799999952316,14740,16042,16879.299999952316,17580.099999904633,18410.900000095367,24030.799999952316,25480.200000047684,26740.299999952316,27590.200000047684,28557.5,38960.200000047684,40290.299999952316,40979.90000009537,42279.5,44127.90000009537,45062.200000047684,48129.90000009537,49478.200000047684],"honeypot":0,"survey":"mace","page":2,"trial_type":"survey-mace","trial_index":10,"time_elapsed":493733,"internal_node_id":"0.0-10.0","task_version":"prescreen-v0.3","browser_interactions":0},{"responses":{"01":"Yes","01_ages_14":"14","01_ages_15":"15","01_ages_16":"16","01_ages_17":"17","01_ages_18":"18","02":"No","03":"No","04":"No"},"rt":34004.90000009537,"item_order":[0,1,2,3],"radio_events":[3792.2999999523163,8252.200000047684,27622.299999952316,29830.200000047684,32544],"checkbox_events":[15563.200000047684,16333.099999904633,17411.099999904633,20391.099999904633,25060.299999952316],"key_events":[],"mouse_events":[3792.2999999523163,8252.200000047684,14792.200000047684,15563.200000047684,16333.099999904633,17411.099999904633,20391.099999904633,21142.900000095367,25060.299999952316,26472.5,27622.299999952316,28762,29830.200000047684,32544,34002.799999952316],"honeypot":0,"survey":"mace","page":3,"trial_type":"survey-mace","trial_index":11,"time_elapsed":527742,"internal_node_id":"0.0-11.0","task_version":"prescreen-v0.3","browser_interactions":0},{"responses":{"01":"No","02":"No"},"rt":6744.599999904633,"item_order":[0,1],"radio_events":[4123.599999904633,5595.399999856949],"checkbox_events":[],"key_events":[],"mouse_events":[3053.899999856949,4123.599999904633,5595.399999856949,6743.199999809265],"honeypot":0,"survey":"mace","page":4,"trial_type":"survey-mace","trial_index":12,"time_elapsed":534490,"internal_node_id":"0.0-12.0","task_version":"prescreen-v0.3","browser_interactions":0},{"responses":{"01":"No","02":"No","03":"No","04":"No","05":"No"},"rt":30417.699999809265,"item_order":[0,1,2,3,4],"radio_events":[16036.299999952316,21065.39999985695,22277.799999952316,27913,29387],"checkbox_events":[],"key_events":[],"mouse_events":[10323.199999809265,16036.299999952316,18113.799999952316,19883.89999985695,21065.39999985695,22277.799999952316,27913,29387,30415.099999904633],"honeypot":0,"survey":"mace","page":5,"trial_type":"survey-mace","trial_index":13,"time_elapsed":564911,"internal_node_id":"0.0-13.0","task_version":"prescreen-v0.3","browser_interactions":0},{"responses":{"01":"No","02":"No","03":"Yes","03_ages_9":"9","03_ages_10":"10","04":"No","05":"No"},"rt":24507.299999952316,"item_order":[0,1,2,3,4],"radio_events":[6723.199999809265,9374.299999952316,11060.899999856949,21873.39999985695,23352.89999985695],"checkbox_events":[12463.199999809265,13402.199999809265],"key_events":[],"mouse_events":[5533.599999904633,6723.199999809265,9374.299999952316,11060.899999856949,12463.199999809265,13402.199999809265,21873.39999985695,23352.89999985695,24504.699999809265],"honeypot":0,"survey":"mace","page":6,"trial_type":"survey-mace","trial_index":14,"time_elapsed":589425,"internal_node_id":"0.0-14.0","task_version":"prescreen-v0.3","browser_interactions":0},{"responses":{"01":"No","02":"No","03":"No","04":"No","05":"No","06":"No","07":"No"},"rt":19081.900000095367,"item_order":[0,1,2,3,4,5,6],"radio_events":[4067.4000000953674,7459.799999952316,8598.599999904633,9809.700000047684,11139.400000095367,16318.599999904633,17548.900000095367],"checkbox_events":[],"key_events":[],"mouse_events":[4067.4000000953674,5069.400000095367,6116.5,7459.799999952316,8598.599999904633,9809.700000047684,11139.400000095367,15069.200000047684,16318.599999904633,17548.900000095367,19078.599999904633],"honeypot":0,"survey":"mace","page":7,"trial_type":"survey-mace","trial_index":15,"time_elapsed":608513,"internal_node_id":"0.0-15.0","task_version":"prescreen-v0.3","browser_interactions":0},{"responses":{"01":"No","02":"No","03":"Yes","03_ages_6":"6","03_ages_7":"7","03_ages_8":"8","03_ages_9":"9","03_ages_10":"10","03_ages_11":"11","03_ages_12":"12","03_ages_13":"13","03_ages_14":"14","03_ages_15":"15","03_ages_16":"16","03_ages_17":"17","03_ages_18":"18","04":"No"},"rt":35575.700000047684,"item_order":[0,1,2,3],"radio_events":[4564.400000095367,12017.400000095367,13930.800000190735,33801.5],"checkbox_events":[17608.800000190735,18232.700000047684,20314.800000190735,21102.400000095367,22072.800000190735,22894.10000014305,23724.200000047684,25302.5,27340.10000014305,28121.700000047684,28983.400000095367,29733.400000095367,31562.200000047684],"key_events":[],"mouse_events":[4564.400000095367,12017.400000095367,13930.800000190735,17608.800000190735,18232.700000047684,19421.700000047684,20314.800000190735,21102.400000095367,22072.800000190735,22894.10000014305,23724.200000047684,24501,25302.5,26100.5,27340.10000014305,28121.700000047684,28983.400000095367,29733.400000095367,30624.10000014305,31562.200000047684,33801.5,35573.700000047684],"honeypot":0,"survey":"mace","page":8,"trial_type":"survey-mace","trial_index":16,"time_elapsed":644093,"internal_node_id":"0.0-16.0","task_version":"prescreen-v0.3","browser_interactions":0},{"responses":{"01":"Yes","01_ages_1":"1","01_ages_2":"2","01_ages_3":"3","01_ages_4":"4","01_ages_5":"5","01_ages_6":"6","01_ages_7":"7","01_ages_8":"8","01_ages_9":"9","01_ages_10":"10","01_ages_11":"11","01_ages_12":"12","01_ages_13":"13","01_ages_14":"14","01_ages_15":"15","01_ages_16":"16","01_ages_17":"17","01_ages_18":"18","02":"No","03":"Yes","03_ages_1":"1","03_ages_2":"2","03_ages_3":"3","03_ages_4":"4","03_ages_5":"5","03_ages_6":"6","03_ages_7":"7","03_ages_8":"8","03_ages_9":"9","03_ages_10":"10","03_ages_11":"11","03_ages_12":"12","03_ages_13":"13","03_ages_14":"14","03_ages_15":"15","03_ages_16":"16","03_ages_17":"17","03_ages_18":"18","04":"Yes","04_ages_1":"1","04_ages_2":"2","04_ages_3":"3","04_ages_4":"4","04_ages_5":"5","04_ages_6":"6","04_ages_7":"7","04_ages_8":"8","04_ages_9":"9","04_ages_10":"10","04_ages_11":"11","04_ages_12":"12","04_ages_13":"13","04_ages_14":"14","04_ages_15":"15","04_ages_16":"16","04_ages_17":"17","04_ages_18":"18"},"rt":78333.5,"item_order":[0,1,2,3],"radio_events":[3934,30482.700000047684,33142.90000009537,38402.700000047684],"checkbox_events":[8263.099999904633,9522.099999904633,10302.5,11123.099999904633,11981.400000095367,12822.5,13640.099999904633,15472.700000047684,16952.5,18262.400000095367,19257.200000047684,20335.200000047684,21381.299999952316,22353.200000047684,23324.099999904633,24252.599999904633,25082.799999952316,26972.700000047684,40772.799999952316,41571.700000047684,42622.200000047684,44031.799999952316,44872.700000047684,45772.5,47572,48442.700000047684,49433.799999952316,50303.09999990463,51173.700000047684,52082.59999990463,52919.700000047684,53802.59999990463,55392.90000009537,56223.5,57072.299999952316,57990.40000009537,59011.5,60062.40000009537,61682.700000047684,62493.40000009537,63263.799999952316,64021.299999952316,64823.90000009537,65590.20000004768,66401.90000009537,67221.90000009537,68760.20000004768,70552.59999990463,71451.09999990463,72362.70000004768,73283.90000009537,74082.29999995232,75104,75941.40000009537],"key_events":[],"mouse_events":[3934,6452.5,7251.900000095367,8263.099999904633,9522.099999904633,10302.5,11123.099999904633,11981.400000095367,12822.5,13640.099999904633,14482.700000047684,15472.700000047684,16233,16952.5,18262.400000095367,19257.200000047684,20335.200000047684,21381.299999952316,22353.200000047684,23324.099999904633,24252.599999904633,25082.799999952316,25852.299999952316,26972.700000047684,30482.700000047684,33142.90000009537,37573.09999990463,38402.700000047684,39847.299999952316,40772.799999952316,41571.700000047684,42622.200000047684,43260.200000047684,44031.799999952316,44872.700000047684,45772.5,46591.5,47572,48442.700000047684,49433.799999952316,50303.09999990463,51173.700000047684,52082.59999990463,52919.700000047684,53802.59999990463,54582,55392.90000009537,56223.5,57072.299999952316,57990.40000009537,59011.5,60062.40000009537,61682.700000047684,62493.40000009537,63263.799999952316,64021.299999952316,64823.90000009537,65590.20000004768,66401.90000009537,67221.90000009537,67923.79999995232,68760.20000004768,69481.20000004768,69691,70552.59999990463,71451.09999990463,72362.70000004768,73283.90000009537,74082.29999995232,75104,75941.40000009537,78331.59999990463],"honeypot":0,"survey":"mace","page":9,"trial_type":"survey-mace","trial_index":17,"time_elapsed":722429,"internal_node_id":"0.0-17.0","task_version":"prescreen-v0.3","browser_interactions":0},{"responses":{"01":"No","02":"No","03":"No","04":"No","05":"No","06":"Yes","06_ages_17":"17","07":"Yes","07_ages_3":"3","07_ages_4":"4","07_ages_5":"5","07_ages_6":"6","07_ages_7":"7","07_ages_8":"8","07_ages_9":"9","07_ages_10":"10","07_ages_11":"11","07_ages_12":"12","07_ages_13":"13","07_ages_14":"14","07_ages_15":"15","07_ages_16":"16","07_ages_17":"17","07_ages_18":"18","08":"No"},"rt":55289.5,"item_order":[0,1,2,3,4,5,6,7],"radio_events":[2564.2000000476837,4682.599999904633,5556.099999904633,6825.599999904633,13736.799999952316,20415,46423,53708.59999990463],"checkbox_events":[16285.399999856949,25986.599999904633,27664.299999952316,28444.200000047684,29234.700000047684,29955.599999904633,31086.099999904633,32684.200000047684,34424.39999985695,36345.09999990463,37066.700000047684,37896.299999952316,39532.59999990463,41132.700000047684,42404.89999985695,44235.5,45102.200000047684],"key_events":[],"mouse_events":[2564.2000000476837,3465.7000000476837,4682.599999904633,5556.099999904633,6825.599999904633,7826,13736.799999952316,16285.399999856949,18692.700000047684,20415,25986.599999904633,27664.299999952316,28444.200000047684,29234.700000047684,29955.599999904633,31086.099999904633,31865,32684.200000047684,33546.200000047684,34424.39999985695,35410.39999985695,36345.09999990463,37066.700000047684,37896.299999952316,38716.59999990463,39532.59999990463,40364.59999990463,41132.700000047684,42404.89999985695,43494,44235.5,45102.200000047684,46423,47875.09999990463,52836.200000047684,53708.59999990463,55285],"honeypot":0,"survey":"mace","page":10,"trial_type":"survey-mace","trial_index":18,"time_elapsed":777727,"internal_node_id":"0.0-18.0","task_version":"prescreen-v0.3","browser_interactions":0,"instructed":0},{"rt":7169.700000047684,"trial_type":"mental-health-alert","trial_index":19,"time_elapsed":784892,"internal_node_id":"0.0-19.0","task_version":"prescreen-v0.3","interactions":"[]"}]