[{"view_history":[{"page_index":0,"viewing_time":1866.5},{"page_index":1,"viewing_time":1358.2999999821186},{"page_index":2,"viewing_time":1102.5},{"page_index":3,"viewing_time":933.0999999940395}],"rt":5261.5,"trial_type":"instructions","trial_index":0,"time_elapsed":5281,"internal_node_id":"0.0-0.0","task_version":"prescreen-v0.3"},{"rt":16023,"responses":{"age":"33","gender-categorical":"Male","gender-free-response":"","ethnicity":"Hispanic or Latino","race":["Asian"],"education":"Bachelor degree","siblings":"1"},"trial_type":"survey-demo","trial_index":1,"time_elapsed":21315,"internal_node_id":"0.0-1.0","task_version":"prescreen-v0.3"},{"responses":{"Q15":"1","Q10":"1","Q13":"1","Q14":"2","Q19":"1","Q03":"1","Q08":"2","Q17":"1","Q05":"2","Q01":"2","Q07":"2","Q04":"2","Q16":"1","Q11":"1","Q12":"1","Q09":"2","Q20":"1","Q18":"1","Q06":"2","Q21":"1","Q02":"1"},"rt":50090.20000001788,"item_order":[14,9,12,13,18,2,7,16,4,0,6,3,15,10,11,8,19,17,5,20,1],"radio_events":[2431.5,2948.9000000059605,4017,6852.800000011921,7527.5,8663.300000011921,10002.40000000596,15235.300000011921,16144.300000011921,20982.40000000596,21612.5,22421.90000000596,23243.40000000596,24919.59999999404,26066.59999999404,27394.59999999404,28069.30000001192,29093,32794.09999999404,33457.70000001788,48128.80000001192],"key_events":[],"mouse_events":[1498.0999999940395,2431.5,2948.9000000059605,3477.300000011921,4017,4523.5999999940395,5086.700000017881,5716.300000011921,6852.800000011921,7527.5,8056.5999999940395,8663.300000011921,10002.40000000596,10508.40000000596,11071.59999999404,14142,14795.300000011921,15235.300000011921,16144.300000011921,16662.30000001192,17236.40000000596,18192.59999999404,18766,19430.40000000596,20982.40000000596,21612.5,22421.90000000596,23243.40000000596,24919.59999999404,25538,26066.59999999404,27394.59999999404,28069.30000001192,29093,29891.80000001192,30263.90000000596,31130.20000001788,32794.09999999404,33457.70000001788,45473.40000000596,48128.80000001192,50085.80000001192],"straightlining":0.6190476190476191,"zigzagging":0.5,"honeypot":0,"survey":"sns","trial_type":"survey-template","trial_index":2,"time_elapsed":71416,"internal_node_id":"0.0-2.0","task_version":"prescreen-v0.3","browser_interactions":4,"infrequency":1},{"responses":{"Q10":"2","Q09":"2","Q05":"2","Q11":"1","Q07":"1","Q04":"1","Q01":"1","Q03":"1","Q02":"1","Q13":"0","Q06":"1","Q12":"1","Q08":"1"},"rt":216283,"item_order":[9,8,4,10,6,3,0,2,1,12,5,11,7],"radio_events":[4039.2999999821186,7471.199999988079,8268.59999999404,10722.299999982119,11744.699999988079,12307.90000000596,13972.90000000596,15535.90000000596,18067.19999998808,19372,20015.29999998212,23986.90000000596,26920.90000000596,27619],"key_events":[],"mouse_events":[1811.5,4039.2999999821186,4635.299999982119,5220.5999999940395,5918.0999999940395,6593.199999988079,7471.199999988079,8268.59999999404,8774.699999988079,9360.59999999404,10722.299999982119,11744.699999988079,12307.90000000596,12937,13972.90000000596,14535.09999999404,15535.90000000596,16514.69999998808,17325.40000000596,18067.19999998808,18630.19999998808,19372,20015.29999998212,20992.5,21712.90000000596,23986.90000000596,25301,25515.29999998212,26167.69999998808,26920.90000000596,27619,216279.5],"straightlining":0.6923076923076923,"zigzagging":0.25,"honeypot":0,"survey":"bisbas","trial_type":"survey-template","trial_index":3,"time_elapsed":287709,"internal_node_id":"0.0-3.0","task_version":"prescreen-v0.3","browser_interactions":2,"infrequency":0},{"responses":{"Q01":"1","Q02":"1","Q03":"1"},"rt":5494.0999999940395,"radio_events":[2476.5999999940395,3320.199999988079,4649.199999988079],"key_events":[],"mouse_events":[1364.5,2476.5999999940395,3320.199999988079,3996.800000011921,4649.199999988079,5492.5999999940395],"survey":"map","page":1,"trial_type":"survey-map","trial_index":4,"time_elapsed":293208,"internal_node_id":"0.0-4.0","task_version":"prescreen-v0.3","browser_interactions":0},{"responses":{"Q04":"1","Q05":"1","Q06":"1"},"rt":6721.5,"radio_events":[2377.9000000059605,3232,4099,4921],"key_events":[],"mouse_events":[1354.199999988079,2377.9000000059605,3232,4099,4921,6720.4000000059605],"survey":"map","page":2,"trial_type":"survey-map","trial_index":5,"time_elapsed":299935,"internal_node_id":"0.0-5.0","task_version":"prescreen-v0.3","browser_interactions":0},{"responses":{"Q07":"2","Q08":"2","Q09":"2"},"rt":12471.09999999404,"radio_events":[2906.5999999940395,3640.5,4652,9950.199999988079,10984.90000000596],"key_events":[],"mouse_events":[1321.5,2041.2999999821186,2906.5999999940395,3640.5,4652,7451.799999982119,9950.199999988079,10984.90000000596,11682.5,12470],"survey":"map","page":3,"trial_type":"survey-map","trial_index":6,"time_elapsed":312411,"internal_node_id":"0.0-6.0","task_version":"prescreen-v0.3","browser_interactions":0},{"responses":{"Q10":"2","Q11":"2","Q12":"2","Q13":"2","Q16":"2","Q14":"2","Q15":"2"},"rt":124827.40000000596,"radio_events":[1434.9000000059605,2233.2999999821186,5114.299999982119,5800.5,7689.699999988079,9065.299999982119,9894.59999999404],"key_events":[],"mouse_events":[1434.9000000059605,2233.2999999821186,2908.5,3899.2999999821186,5114.299999982119,5800.5,7689.699999988079,8387.299999982119,9065.299999982119,9894.59999999404,124825],"survey":"map","page":4,"trial_type":"survey-map","trial_index":7,"time_elapsed":437245,"internal_node_id":"0.0-7.0","task_version":"prescreen-v0.3","browser_interactions":4,"infrequency":1},{"view_history":[{"page_index":0,"viewing_time":2770.800000011921},{"page_index":1,"viewing_time":5580.5}],"rt":8352.40000000596,"trial_type":"instructions","trial_index":8,"time_elapsed":445600,"internal_node_id":"0.0-8.0","task_version":"prescreen-v0.3"},{"responses":{"01":"No","02":"No","03":"No","04":"No","05":"No","06":"No"},"rt":15693.300000011921,"item_order":[0,1,2,3,4,5],"radio_events":[2580.199999988079,3973.5,5234.199999988079,6977.0999999940395,8507.199999988079,9422.09999999404,14525.59999999404],"checkbox_events":[],"key_events":[],"mouse_events":[0.30000001192092896,1330.699999988079,2580.199999988079,3973.5,5234.199999988079,6347.0999999940395,6977.0999999940395,7652.199999988079,8507.199999988079,9422.09999999404,10903.90000000596,14525.59999999404,15684.90000000596],"honeypot":0,"survey":"mace","page":1,"trial_type":"survey-mace","trial_index":9,"time_elapsed":461304,"internal_node_id":"0.0-9.0","task_version":"prescreen-v0.3","browser_interactions":0},{"responses":{"01":"No","02":"No","03":"No","04":"No","05":"No","06":"No","07":"No","08":"No"},"rt":10715.199999988079,"item_order":[0,1,2,3,4,5,6,7],"radio_events":[2471.800000011921,3101.699999988079,4710.5,5756.5999999940395,6645.4000000059605,7274.9000000059605,9288.5,9930.800000011921],"checkbox_events":[],"key_events":[],"mouse_events":[1256.800000011921,2471.800000011921,3101.699999988079,3675,4148.199999988079,4710.5,5261.699999988079,5756.5999999940395,6645.4000000059605,7274.9000000059605,8231.40000000596,9288.5,9930.800000011921,10706.699999988079],"honeypot":0,"survey":"mace","page":2,"trial_type":"survey-mace","trial_index":10,"time_elapsed":472025,"internal_node_id":"0.0-10.0","task_version":"prescreen-v0.3","browser_interactions":0},{"responses":{"01":"No","02":"No","03":"No","04":"No"},"rt":4345.699999988079,"item_order":[0,1,2,3],"radio_events":[1189.3999999761581,2168.5,3056.699999988079,3720.399999976158],"checkbox_events":[],"key_events":[],"mouse_events":[1189.3999999761581,2168.5,3056.699999988079,3720.399999976158,4341.0999999940395],"honeypot":0,"survey":"mace","page":3,"trial_type":"survey-mace","trial_index":11,"time_elapsed":476376,"internal_node_id":"0.0-11.0","task_version":"prescreen-v0.3","browser_interactions":0},{"responses":{"01":"No","02":"No"},"rt":2883.2000000178814,"item_order":[0,1],"radio_events":[1666.300000011921,2251.0999999940395],"checkbox_events":[],"key_events":[],"mouse_events":[1103,1666.300000011921,2251.0999999940395,2881],"honeypot":0,"survey":"mace","page":4,"trial_type":"survey-mace","trial_index":12,"time_elapsed":479263,"internal_node_id":"0.0-12.0","task_version":"prescreen-v0.3","browser_interactions":0},{"responses":{"01":"No","02":"No","03":"No","04":"No","05":"No"},"rt":7953.799999982119,"item_order":[0,1,2,3,4],"radio_events":[914.8999999761581,2355.5999999940395,3153.2999999821186,5482.5,6618.899999976158],"checkbox_events":[],"key_events":[],"mouse_events":[914.8999999761581,1558.2999999821186,2355.5999999940395,3153.2999999821186,5482.5,6618.899999976158,7948.299999982119],"honeypot":0,"survey":"mace","page":5,"trial_type":"survey-mace","trial_index":13,"time_elapsed":487222,"internal_node_id":"0.0-13.0","task_version":"prescreen-v0.3","browser_interactions":0},{"responses":{"01":"No","02":"No","03":"No","04":"No","05":"No"},"rt":5618.5,"item_order":[0,1,2,3,4],"radio_events":[1124.5,1675.9000000059605,3362.800000011921,4151.0999999940395,5039.5999999940395],"checkbox_events":[],"key_events":[],"mouse_events":[1124.5,1675.9000000059605,2462.5999999940395,3362.800000011921,4151.0999999940395,5039.5999999940395,5612.9000000059605],"honeypot":0,"survey":"mace","page":6,"trial_type":"survey-mace","trial_index":14,"time_elapsed":492846,"internal_node_id":"0.0-14.0","task_version":"prescreen-v0.3","browser_interactions":0},{"responses":{"01":"No","02":"No","03":"No","04":"No","05":"No","06":"No","07":"No"},"rt":8097.300000011921,"item_order":[0,1,2,3,4,5,6],"radio_events":[1171.0999999940395,2577.199999988079,3240.199999988079,4107.800000011921,5658.9000000059605,6705.699999988079,7584.0999999940395],"checkbox_events":[],"key_events":[],"mouse_events":[1171.0999999940395,1800,2577.199999988079,3240.199999988079,4107.800000011921,4702.300000011921,5658.9000000059605,6187.4000000059605,6705.699999988079,7584.0999999940395,8088.9000000059605],"honeypot":0,"survey":"mace","page":7,"trial_type":"survey-mace","trial_index":15,"time_elapsed":500949,"internal_node_id":"0.0-15.0","task_version":"prescreen-v0.3","browser_interactions":0},{"responses":{"01":"No","02":"No","03":"No","04":"Yes","04_ages_15":"15"},"rt":21027.09999999404,"item_order":[0,1,2,3],"radio_events":[1168,1820.199999988079,2641.5,4474.399999976158,6173.199999988079],"checkbox_events":[7625.399999976158,14150.09999999404,15140.199999988079,17232,17794.899999976158,18728.899999976158,20090],"key_events":[],"mouse_events":[1168,1820.199999988079,2641.5,3248.0999999940395,4474.399999976158,6173.199999988079,7625.399999976158,13159.399999976158,14150.09999999404,15140.199999988079,17232,17794.899999976158,18728.899999976158,20090,21023.09999999404],"honeypot":0,"survey":"mace","page":8,"trial_type":"survey-mace","trial_index":16,"time_elapsed":521982,"internal_node_id":"0.0-16.0","task_version":"prescreen-v0.3","browser_interactions":0},{"responses":{"01":"No","02":"No","03":"No","04":"No"},"rt":8081.0999999940395,"item_order":[0,1,2,3],"radio_events":[1484.5,4128.200000017881,5806.300000011921,6524.700000017881],"checkbox_events":[],"key_events":[],"mouse_events":[1484.5,3025.9000000059605,4128.200000017881,5095.5999999940395,5806.300000011921,6524.700000017881,7224.700000017881,8076.9000000059605],"honeypot":0,"survey":"mace","page":9,"trial_type":"survey-mace","trial_index":17,"time_elapsed":530071,"internal_node_id":"0.0-17.0","task_version":"prescreen-v0.3","browser_interactions":0},{"responses":{"01":"No","02":"No","03":"No","04":"No","05":"No","06":"Yes","06_ages_17":"17","07":"No","08":"No"},"rt":17088,"item_order":[0,1,2,3,4,5,6,7],"radio_events":[3410.2999999821186,4737.5999999940395,5829.0999999940395,6459.5,7585.5,10486.299999982119,14097.59999999404,14840.09999999404],"checkbox_events":[12264],"key_events":[],"mouse_events":[3410.2999999821186,4096.699999988079,4737.5999999940395,5278,5829.0999999940395,6459.5,7585.5,10486.299999982119,12264,12905.199999988079,14097.59999999404,14840.09999999404,17079.09999999404],"honeypot":0,"survey":"mace","page":10,"trial_type":"survey-mace","trial_index":18,"time_elapsed":547167,"internal_node_id":"0.0-18.0","task_version":"prescreen-v0.3","browser_interactions":0,"instructed":0},{"rt":2383.7999999821186,"trial_type":"mental-health-alert","trial_index":19,"time_elapsed":549554,"internal_node_id":"0.0-19.0","task_version":"prescreen-v0.3","interactions":"[{\"event\":\"blur\",\"trial\":2,\"time\":58162},{\"event\":\"focus\",\"trial\":2,\"time\":60724},{\"event\":\"blur\",\"trial\":2,\"time\":61524},{\"event\":\"focus\",\"trial\":2,\"time\":64017},{\"event\":\"blur\",\"trial\":3,\"time\":100008},{\"event\":\"focus\",\"trial\":3,\"time\":287292},{\"event\":\"blur\",\"trial\":7,\"time\":322942},{\"event\":\"focus\",\"trial\":7,\"time\":434819},{\"event\":\"blur\",\"trial\":7,\"time\":434819},{\"event\":\"focus\",\"trial\":7,\"time\":436107}]"}]