[{"view_history":[{"page_index":0,"viewing_time":5199.599999904633},{"page_index":1,"viewing_time":4863.5},{"page_index":2,"viewing_time":3332},{"page_index":3,"viewing_time":955.8000001907349}],"rt":14352.099999904633,"trial_type":"instructions","trial_index":0,"time_elapsed":14565,"internal_node_id":"0.0-0.0","task_version":"prescreen-v0.3"},{"rt":15766.599999904633,"responses":{"age":"19","gender-categorical":"Female","gender-free-response":"","ethnicity":"Not Hispanic or Latino","race":["White"],"education":"Some college"},"trial_type":"survey-demo","trial_index":1,"time_elapsed":30338,"internal_node_id":"0.0-1.0","task_version":"prescreen-v0.3"},{"responses":{"Q16":"2","Q21":"3","Q12":"3","Q13":"2","Q11":"1","Q10":"0","Q18":"1","Q19":"0","Q07":"0","Q02":"1","Q05":"1","Q20":"0","Q03":"0","Q06":"1","Q01":"1","Q15":"2","Q09":"0","Q08":"1","Q14":"2","Q17":"2","Q04":"2"},"rt":112056.5,"item_order":[15,20,11,12,10,9,17,18,6,1,4,19,2,5,0,14,8,7,13,16,3],"radio_events":[18053.10000038147,22632.60000038147,29813,32721.300000190735,40048.7000002861,42889.5,49765.40000009537,54829.40000009537,58829.2000002861,65829.40000009537,73320.60000038147,75377.5,77645.30000019073,81489.5,85177.2000002861,90860.40000009537,94965.2000002861,99061.2000002861,102161.40000009537,107684.5,110997.40000009537],"key_events":[],"mouse_events":[7602.10000038147,8352.800000190735,8912.400000095367,18053.10000038147,22632.60000038147,29813,32721.300000190735,40048.7000002861,42889.5,49765.40000009537,54829.40000009537,58829.2000002861,65829.40000009537,73320.60000038147,75377.5,77645.30000019073,81489.5,85177.2000002861,90860.40000009537,94965.2000002861,99061.2000002861,102161.40000009537,107684.5,110997.40000009537,112053.5],"straightlining":0.3333333333333333,"zigzagging":0.6,"honeypot":0,"survey":"sns","trial_type":"survey-template","trial_index":2,"time_elapsed":142401,"internal_node_id":"0.0-2.0","task_version":"prescreen-v0.3","browser_interactions":0,"infrequency":0},{"responses":{"Q07":"2","Q08":"2","Q05":"3","Q10":"1","Q11":"2","Q02":"3","Q13":"0","Q09":"2","Q04":"3","Q03":"3","Q06":"2","Q12":"1","Q01":"3"},"rt":56621.5,"item_order":[6,7,4,9,10,1,12,8,3,2,5,11,0],"radio_events":[5812.199999809265,10376.5,14055.699999809265,16914.799999713898,23028.299999713898,25808.5,29756.400000095367,39435.699999809265,40667.59999990463,45187.7999997139,50836.5,54056.5,55821.90000009537],"key_events":[],"mouse_events":[5812.199999809265,10376.5,14055.699999809265,16914.799999713898,23028.299999713898,25808.5,29212.199999809265,29756.400000095367,39435.699999809265,40667.59999990463,45187.7999997139,50836.5,54056.5,55821.90000009537,56620.699999809265],"straightlining":0.38461538461538464,"zigzagging":0.5833333333333334,"honeypot":0,"survey":"bisbas","trial_type":"survey-template","trial_index":3,"time_elapsed":199025,"internal_node_id":"0.0-3.0","task_version":"prescreen-v0.3","browser_interactions":0,"infrequency":0},{"responses":{"Q01":"3","Q02":"2","Q03":"3"},"rt":25988.599999904633,"radio_events":[11427.199999809265,18663.400000095367,22798.900000095367],"key_events":[],"mouse_events":[11427.199999809265,18663.400000095367,22798.900000095367,25987.599999904633],"survey":"map","page":1,"trial_type":"survey-map","trial_index":4,"time_elapsed":225017,"internal_node_id":"0.0-4.0","task_version":"prescreen-v0.3","browser_interactions":0},{"responses":{"Q04":"1","Q05":"0","Q06":"1"},"rt":11747,"radio_events":[6858.5,9882.699999809265,11090.799999713898],"key_events":[],"mouse_events":[6858.5,9882.699999809265,11090.799999713898,11746.699999809265],"survey":"map","page":2,"trial_type":"survey-map","trial_index":5,"time_elapsed":236767,"internal_node_id":"0.0-5.0","task_version":"prescreen-v0.3","browser_interactions":0},{"responses":{"Q07":"1","Q08":"4","Q09":"3"},"rt":19799.799999713898,"radio_events":[9738.299999713898,14783,18823.099999904633],"key_events":[],"mouse_events":[9738.299999713898,14783,18823.099999904633,19799.099999904633],"survey":"map","page":3,"trial_type":"survey-map","trial_index":6,"time_elapsed":256569,"internal_node_id":"0.0-6.0","task_version":"prescreen-v0.3","browser_interactions":0},{"responses":{"Q10":"2","Q11":"2","Q12":"1","Q13":"2","Q16":"0","Q14":"0","Q15":"0"},"rt":30836.60000038147,"radio_events":[7427.700000286102,11443.200000286102,14071.60000038147,18799.300000190735,20527.5,26919.60000038147,28923.300000190735],"key_events":[],"mouse_events":[7427.700000286102,11443.200000286102,14071.60000038147,18799.300000190735,20527.5,26919.60000038147,27755.5,28923.300000190735,30827.10000038147],"survey":"map","page":4,"trial_type":"survey-map","trial_index":7,"time_elapsed":287415,"internal_node_id":"0.0-7.0","task_version":"prescreen-v0.3","browser_interactions":0,"infrequency":0},{"view_history":[{"page_index":0,"viewing_time":3383.5},{"page_index":1,"viewing_time":3695.8999996185303}],"rt":7080.599999904633,"trial_type":"instructions","trial_index":8,"time_elapsed":294508,"internal_node_id":"0.0-8.0","task_version":"prescreen-v0.3"},{"responses":{"01":"Yes","01_ages_12":"12","01_ages_13":"13","01_ages_14":"14","01_ages_15":"15","02":"Yes","02_ages_14":"14","02_ages_15":"15","03":"No","04":"No","05":"No","06":"No"},"rt":46256.59999990463,"item_order":[0,1,2,3,4,5],"radio_events":[6916.699999809265,25928.400000095367,39640.199999809265,40796.5,42332.5,45416.5],"checkbox_events":[14060.900000095367,14604.699999809265,18532.5,22000.5,31537.199999809265,31984.5,33328.59999990463,35068.40000009537],"key_events":[],"mouse_events":[0.19999980926513672,6916.699999809265,14060.900000095367,14604.699999809265,18532.5,22000.5,25928.400000095367,31537.199999809265,31984.5,33328.59999990463,35068.40000009537,39640.199999809265,40796.5,42332.5,44936.40000009537,45416.5,46253],"honeypot":0,"survey":"mace","page":1,"trial_type":"survey-mace","trial_index":9,"time_elapsed":340773,"internal_node_id":"0.0-9.0","task_version":"prescreen-v0.3","browser_interactions":0},{"responses":{"01":"No","02":"No","03":"Yes","03_ages_9":"9","04":"No","05":"No","06":"No","07":"No","08":"No"},"rt":24578.199999809265,"item_order":[0,1,2,3,4,5,6,7],"radio_events":[4064.2999997138977,5452.5,9796.099999904633,12112,16547.89999961853,17808.199999809265,19168,23324.099999904633],"checkbox_events":[6959.799999713898],"key_events":[],"mouse_events":[4064.2999997138977,5452.5,6959.799999713898,9796.099999904633,12112,16547.89999961853,17808.199999809265,19168,19743.89999961853,23324.099999904633,24576.199999809265],"honeypot":0,"survey":"mace","page":2,"trial_type":"survey-mace","trial_index":10,"time_elapsed":365355,"internal_node_id":"0.0-10.0","task_version":"prescreen-v0.3","browser_interactions":0},{"responses":{"01":"No","02":"No","03":"No","04":"No"},"rt":15297.799999713898,"item_order":[0,1,2,3],"radio_events":[9046.900000095367,12810.799999713898,13790.799999713898,14831],"checkbox_events":[],"key_events":[],"mouse_events":[9046.900000095367,12810.799999713898,13790.799999713898,14831,15294.900000095367],"honeypot":0,"survey":"mace","page":3,"trial_type":"survey-mace","trial_index":11,"time_elapsed":380655,"internal_node_id":"0.0-11.0","task_version":"prescreen-v0.3","browser_interactions":0},{"responses":{"01":"No","02":"No"},"rt":7646.199999809265,"item_order":[0,1],"radio_events":[5420.800000190735,7233],"checkbox_events":[],"key_events":[],"mouse_events":[5420.800000190735,6529.300000190735,7233,7635.800000190735],"honeypot":0,"survey":"mace","page":4,"trial_type":"survey-mace","trial_index":12,"time_elapsed":388309,"internal_node_id":"0.0-12.0","task_version":"prescreen-v0.3","browser_interactions":0},{"responses":{"01":"No","02":"No","03":"No","04":"No","05":"No"},"rt":15028.5,"item_order":[0,1,2,3,4],"radio_events":[6364.599999904633,7592.799999713898,8825,10477,12864.89999961853],"checkbox_events":[],"key_events":[],"mouse_events":[6364.599999904633,7592.799999713898,8825,10477,12864.89999961853,15024.799999713898],"honeypot":0,"survey":"mace","page":5,"trial_type":"survey-mace","trial_index":13,"time_elapsed":403360,"internal_node_id":"0.0-13.0","task_version":"prescreen-v0.3","browser_interactions":0},{"responses":{"01":"Yes","01_ages_6":"6","01_ages_7":"7","01_ages_8":"8","01_ages_9":"9","01_ages_10":"10","01_ages_11":"11","01_ages_12":"12","01_ages_13":"13","02":"Yes","02_ages_6":"6","02_ages_7":"7","02_ages_8":"8","02_ages_9":"9","02_ages_10":"10","02_ages_11":"11","03":"No","04":"No","05":"No"},"rt":37639,"item_order":[0,1,2,3,4],"radio_events":[5954.800000190735,20683.5,31903,34218.90000009537,35979.5],"checkbox_events":[8019.60000038147,8803.400000095367,9207.400000095367,9559.400000095367,15219.60000038147,15715.60000038147,16939.10000038147,17847.5,22191.5,22735.60000038147,23343.900000095367,24291.300000190735,26611.300000190735,26979.5],"key_events":[],"mouse_events":[5954.800000190735,8019.60000038147,8803.400000095367,9207.400000095367,9559.400000095367,13919.400000095367,14462.60000038147,14766.700000286102,15219.60000038147,15715.60000038147,16939.10000038147,17847.5,20683.5,21918.900000095367,22191.5,22735.60000038147,23343.900000095367,23759.200000286102,24291.300000190735,24723.300000190735,25603.200000286102,26179.5,26611.300000190735,26979.5,31903,34218.90000009537,35979.5,37635.5],"honeypot":0,"survey":"mace","page":6,"trial_type":"survey-mace","trial_index":14,"time_elapsed":441004,"internal_node_id":"0.0-14.0","task_version":"prescreen-v0.3","browser_interactions":0},{"responses":{"01":"No","02":"No","03":"Yes","03_ages_6":"6","03_ages_7":"7","03_ages_8":"8","03_ages_9":"9","03_ages_10":"10","03_ages_11":"11","04":"No","05":"No","06":"No","07":"No"},"rt":18766.5,"item_order":[0,1,2,3,4,5,6],"radio_events":[4522.700000286102,5691.10000038147,7262.400000095367,13146.5,15442.700000286102,16998.800000190735,17910.900000095367],"checkbox_events":[8314.900000095367,8635,9002.900000095367,9339.10000038147,9678.800000190735,10031],"key_events":[],"mouse_events":[4522.700000286102,5691.10000038147,7262.400000095367,8314.900000095367,8635,9002.900000095367,9339.10000038147,9678.800000190735,10031,13146.5,14771.10000038147,15442.700000286102,16998.800000190735,17910.900000095367,18763],"honeypot":0,"survey":"mace","page":7,"trial_type":"survey-mace","trial_index":15,"time_elapsed":459775,"internal_node_id":"0.0-15.0","task_version":"prescreen-v0.3","browser_interactions":0},{"responses":{"01":"Yes","01_ages_9":"9","01_ages_10":"10","01_ages_11":"11","01_ages_12":"12","01_ages_13":"13","01_ages_14":"14","01_ages_15":"15","01_ages_16":"16","01_ages_17":"17","01_ages_18":"18","02":"Yes","02_ages_7":"7","02_ages_8":"8","02_ages_9":"9","02_ages_10":"10","02_ages_11":"11","02_ages_12":"12","02_ages_13":"13","02_ages_14":"14","02_ages_15":"15","02_ages_16":"16","02_ages_17":"17","02_ages_18":"18","03":"Yes","03_ages_12":"12","03_ages_13":"13","03_ages_14":"14","03_ages_15":"15","03_ages_16":"16","03_ages_17":"17","03_ages_18":"18","04":"No"},"rt":52600.699999809265,"item_order":[0,1,2,3],"radio_events":[8961,23173.799999713898,38713,52021.7999997139],"checkbox_events":[14845.89999961853,15293.89999961853,15629.599999904633,15933.89999961853,16625.599999904633,17021.699999809265,17517.599999904633,18306.199999809265,19137.39999961853,20257.89999961853,25226.5,25593.39999961853,26225.699999809265,27077.699999809265,27941.699999809265,28453.699999809265,29141.799999713898,29941.799999713898,30393.89999961853,30969.39999961853,31921.799999713898,33109.699999809265,33541.699999809265,34054.5,34469.7999997139,35173.5,40317.5,40797.7999997139,41741.7999997139,42221.199999809265,43313.7999997139,43761.7999997139,44577.39999961853,45025.699999809265,45445.699999809265,46021.7999997139,46485.7999997139],"key_events":[],"mouse_events":[8961,14845.89999961853,15293.89999961853,15629.599999904633,15933.89999961853,16301.699999809265,16625.599999904633,17021.699999809265,17517.599999904633,18306.199999809265,18769.599999904633,19137.39999961853,19585.299999713898,20257.89999961853,23173.799999713898,25226.5,25593.39999961853,26225.699999809265,27077.699999809265,27941.699999809265,28453.699999809265,28805.699999809265,29141.799999713898,29541.799999713898,29941.799999713898,30393.89999961853,30969.39999961853,31337.799999713898,31921.799999713898,32401.5,32817.699999809265,33109.699999809265,33541.699999809265,34054.5,34469.7999997139,35173.5,38713,40317.5,40797.7999997139,41309.39999961853,41741.7999997139,42221.199999809265,43313.7999997139,43761.7999997139,44113.89999961853,44577.39999961853,45025.699999809265,45445.699999809265,46021.7999997139,46485.7999997139,52021.7999997139,52597.7999997139],"honeypot":0,"survey":"mace","page":8,"trial_type":"survey-mace","trial_index":16,"time_elapsed":512379,"internal_node_id":"0.0-16.0","task_version":"prescreen-v0.3","browser_interactions":0},{"responses":{"01":"Yes","01_ages_1":"1","01_ages_2":"2","01_ages_3":"3","01_ages_4":"4","01_ages_5":"5","01_ages_6":"6","01_ages_7":"7","01_ages_8":"8","01_ages_9":"9","01_ages_10":"10","01_ages_11":"11","01_ages_12":"12","01_ages_13":"13","02":"Yes","02_ages_1":"1","02_ages_2":"2","02_ages_3":"3","02_ages_4":"4","02_ages_5":"5","02_ages_6":"6","02_ages_7":"7","02_ages_8":"8","02_ages_9":"9","02_ages_10":"10","02_ages_11":"11","02_ages_12":"12","02_ages_13":"13","03":"Yes","03_ages_1":"1","03_ages_2":"2","03_ages_3":"3","03_ages_4":"4","03_ages_5":"5","03_ages_6":"6","03_ages_7":"7","03_ages_8":"8","03_ages_9":"9","03_ages_10":"10","03_ages_11":"11","03_ages_12":"12","03_ages_13":"13","03_ages_14":"14","03_ages_15":"15","03_ages_16":"16","03_ages_17":"17","03_ages_18":"18","04":"Yes","04_ages_1":"1","04_ages_2":"2","04_ages_3":"3","04_ages_4":"4","04_ages_5":"5","04_ages_6":"6","04_ages_7":"7","04_ages_8":"8","04_ages_9":"9","04_ages_10":"10","04_ages_11":"11","04_ages_12":"12","04_ages_13":"13","04_ages_14":"14","04_ages_15":"15","04_ages_16":"16","04_ages_17":"17","04_ages_18":"18"},"rt":67508.59999990463,"item_order":[0,1,2,3],"radio_events":[4865.599999904633,22205.699999809265,34785.59999990463,54545.59999990463],"checkbox_events":[7973.5,8549.599999904633,8981.599999904633,9478.400000095367,9813.699999809265,10149.599999904633,10777.299999713898,12697.400000095367,13129.299999713898,13901.699999809265,15709.299999713898,17729.599999904633,18561.599999904633,23281.5,24641.5,25009.699999809265,25506.099999904633,25846.199999809265,26165.5,26501.5,27590.199999809265,28953.5,29369.699999809265,29737.599999904633,31041.699999809265,31797.699999809265,35713,35921.5,37393.5,37553.7999997139,38997.59999990463,39333.59999990463,40342.5,41225.59999990463,42217.59999990463,42697.40000009537,43225.59999990463,44989.5,46173.59999990463,46669.5,47841.699999809265,48577.2999997139,49121.59999990463,49569,55477.5,55861.59999990463,57093.2999997139,58053.2999997139,58569.2999997139,59273.5,59657.199999809265,60425.5,61097.40000009537,61529.59999990463,62205.5,62749.59999990463,63277.5,63709.199999809265,64413.199999809265,64817.59999990463,65233.5,65777.5],"key_events":[],"mouse_events":[4865.599999904633,7973.5,8197.599999904633,8549.599999904633,8981.599999904633,9478.400000095367,9813.699999809265,10149.599999904633,10777.299999713898,12697.400000095367,13129.299999713898,13901.699999809265,15709.299999713898,17729.599999904633,18561.599999904633,22205.699999809265,23281.5,23713.699999809265,24321.599999904633,24641.5,25009.699999809265,25506.099999904633,25846.199999809265,26165.5,26501.5,26869.599999904633,27590.199999809265,27941.699999809265,28645.799999713898,28953.5,29369.699999809265,29737.599999904633,31041.699999809265,31797.699999809265,34785.59999990463,35713,35921.5,36145.40000009537,36369.699999809265,36545,36737.7999997139,36913.199999809265,37057.699999809265,37234.40000009537,37393.5,37553.7999997139,37737.699999809265,37893.5,38053.7999997139,38245.90000009537,38405.5,38726.09999990463,38997.59999990463,39333.59999990463,39829.5,40342.5,41225.59999990463,42217.59999990463,42697.40000009537,43225.59999990463,44989.5,45789.59999990463,46173.59999990463,46669.5,47185.59999990463,47841.699999809265,48321.699999809265,48577.2999997139,49121.59999990463,49569,54545.59999990463,55477.5,55861.59999990463,56213.59999990463,57093.2999997139,57525.5,58053.2999997139,58569.2999997139,58938.199999809265,59273.5,59657.199999809265,60425.5,61097.40000009537,61529.59999990463,62205.5,62749.59999990463,63277.5,63709.199999809265,63965.40000009537,64413.199999809265,64817.59999990463,65233.5,65777.5,67009.19999980927,67505.69999980927],"honeypot":0,"survey":"mace","page":9,"trial_type":"survey-mace","trial_index":17,"time_elapsed":579891,"internal_node_id":"0.0-17.0","task_version":"prescreen-v0.3","browser_interactions":0},{"responses":{"01":"No","02":"No","03":"No","04":"Yes","04_ages_6":"6","04_ages_7":"7","04_ages_8":"8","04_ages_9":"9","04_ages_10":"10","04_ages_11":"11","04_ages_12":"12","04_ages_13":"13","04_ages_14":"14","04_ages_15":"15","05":"No","06":"Yes","06_ages_17":"17","07":"No","08":"No"},"rt":27702.599999904633,"item_order":[0,1,2,3,4,5,6,7],"radio_events":[3085.5999999046326,4113.599999904633,5057.400000095367,6193.300000190735,7478,18417.5,20597.400000095367,26077.300000190735,27261.5],"checkbox_events":[9385.5,10889.400000095367,11401.400000095367,12233.300000190735,12653.5,13741.400000095367,14157,14973.199999809265,15373.400000095367,15825.5,22345.300000190735],"key_events":[],"mouse_events":[3085.5999999046326,4113.599999904633,5057.400000095367,6193.300000190735,7478,8741.599999904633,8965.5,9385.5,10185.199999809265,10889.400000095367,11401.400000095367,11897.900000095367,12233.300000190735,12653.5,13165.199999809265,13741.400000095367,14157,14653.5,14973.199999809265,15373.400000095367,15825.5,18417.5,20597.400000095367,22345.300000190735,26077.300000190735,27261.5,27697.5],"honeypot":0,"survey":"mace","page":10,"trial_type":"survey-mace","trial_index":18,"time_elapsed":607597,"internal_node_id":"0.0-18.0","task_version":"prescreen-v0.3","browser_interactions":0,"instructed":0},{"rt":3347.800000190735,"trial_type":"mental-health-alert","trial_index":19,"time_elapsed":610947,"internal_node_id":"0.0-19.0","task_version":"prescreen-v0.3","interactions":"[]"}]