[{"view_history":[{"page_index":0,"viewing_time":5527.700000047684},{"page_index":1,"viewing_time":5720.399999976158},{"page_index":2,"viewing_time":41843.39999997616},{"page_index":3,"viewing_time":2937.600000023842}],"rt":56029.799999952316,"trial_type":"instructions","trial_index":0,"time_elapsed":56047,"internal_node_id":"0.0-0.0","task_version":"prescreen-v0.3"},{"rt":25006.199999928474,"responses":{"age":"26","gender-categorical":"Male","gender-free-response":"","ethnicity":"Not Hispanic or Latino","race":["White"],"education":"Bachelor degree"},"trial_type":"survey-demo","trial_index":1,"time_elapsed":81057,"internal_node_id":"0.0-1.0","task_version":"prescreen-v0.3"},{"responses":{"Q08":"1","Q11":"3","Q18":"2","Q02":"0","Q12":"3","Q20":"2","Q07":"2","Q09":"2","Q13":"3","Q10":"2","Q17":"1","Q04":"2","Q06":"2","Q05":"3","Q01":"1","Q14":"3","Q15":"3","Q19":"2","Q21":"3","Q16":"2","Q03":"1"},"rt":101709.60000002384,"item_order":[7,10,17,1,11,19,6,8,12,9,16,3,5,4,0,13,14,18,20,15,2],"radio_events":[5323.600000023842,8642.600000023842,11865.700000047684,16455.200000047684,20678.600000023842,22392,32875.89999997616,38359.39999997616,40490,43230.700000047684,52057.200000047684,55999.10000002384,60077.89999997616,69249.79999995232,72246.79999995232,75146.10000002384,79624.79999995232,83468,86990.79999995232,97762.39999997616,100823.79999995232],"key_events":[],"mouse_events":[5323.600000023842,8642.600000023842,11865.700000047684,16455.200000047684,20678.600000023842,22392,32124.899999976158,32875.89999997616,38359.39999997616,40490,43230.700000047684,52057.200000047684,55999.10000002384,60077.89999997616,69249.79999995232,72246.79999995232,75146.10000002384,79624.79999995232,83468,86990.79999995232,97762.39999997616,100076.5,100823.79999995232,101707.89999997616],"straightlining":0.42857142857142855,"zigzagging":0.6,"honeypot":0,"survey":"sns","trial_type":"survey-template","trial_index":2,"time_elapsed":182774,"internal_node_id":"0.0-2.0","task_version":"prescreen-v0.3","browser_interactions":0,"infrequency":0},{"responses":{"Q11":"1","Q09":"1","Q02":"0","Q05":"2","Q13":"0","Q07":"2","Q06":"2","Q01":"2","Q10":"0","Q12":"0","Q04":"2","Q08":"2","Q03":"1"},"rt":61317.299999952316,"item_order":[10,8,1,4,12,6,5,0,9,11,3,7,2],"radio_events":[12531.399999976158,15480.399999976158,18407.699999928474,21304.299999952316,23302.100000023842,30204.299999952316,33692.199999928474,38536,43193.199999928474,45463.699999928474,49551.10000002384,55457.699999928474,60544],"key_events":[],"mouse_events":[12531.399999976158,15480.399999976158,18407.699999928474,21304.299999952316,23302.100000023842,30204.299999952316,33692.199999928474,38536,43193.199999928474,45463.699999928474,49551.10000002384,55457.699999928474,60544,61316.10000002384],"straightlining":0.46153846153846156,"zigzagging":0.16666666666666666,"honeypot":0,"survey":"bisbas","trial_type":"survey-template","trial_index":3,"time_elapsed":244097,"internal_node_id":"0.0-3.0","task_version":"prescreen-v0.3","browser_interactions":0,"infrequency":0},{"responses":{"Q01":"4","Q02":"2","Q03":"4"},"rt":20184.399999976158,"radio_events":[5823.399999976158,13941.5,19338.5],"key_events":[],"mouse_events":[5823.399999976158,13941.5,19338.5,20183.899999976158],"survey":"map","page":1,"trial_type":"survey-map","trial_index":4,"time_elapsed":264286,"internal_node_id":"0.0-4.0","task_version":"prescreen-v0.3","browser_interactions":0},{"responses":{"Q04":"1","Q05":"1","Q06":"0"},"rt":13964.100000023842,"radio_events":[3937.600000023842,8376,12762.100000023842],"key_events":[],"mouse_events":[3937.600000023842,8376,12762.100000023842,13963.600000023842],"survey":"map","page":2,"trial_type":"survey-map","trial_index":5,"time_elapsed":278254,"internal_node_id":"0.0-5.0","task_version":"prescreen-v0.3","browser_interactions":0},{"responses":{"Q07":"3","Q08":"4","Q09":"4"},"rt":13948.799999952316,"radio_events":[5678.5,9912.700000047684,13047.5],"key_events":[],"mouse_events":[5678.5,9912.700000047684,13047.5,13948.399999976158],"survey":"map","page":3,"trial_type":"survey-map","trial_index":6,"time_elapsed":292207,"internal_node_id":"0.0-6.0","task_version":"prescreen-v0.3","browser_interactions":0},{"responses":{"Q10":"3","Q11":"3","Q12":"2","Q13":"1","Q16":"0","Q14":"1","Q15":"2"},"rt":45904.60000002384,"radio_events":[10559.100000023842,15363.5,21099,28858,32998.200000047684,38442.800000071526,44588.200000047684,45285.90000009537],"key_events":[],"mouse_events":[10559.100000023842,15363.5,21099,28858,32998.200000047684,38442.800000071526,44588.200000047684,45285.90000009537,45903.90000009537],"survey":"map","page":4,"trial_type":"survey-map","trial_index":7,"time_elapsed":338114,"internal_node_id":"0.0-7.0","task_version":"prescreen-v0.3","browser_interactions":0,"infrequency":0},{"view_history":[{"page_index":0,"viewing_time":3325.4000000953674},{"page_index":1,"viewing_time":4359.899999976158}],"rt":7685.800000071526,"trial_type":"instructions","trial_index":8,"time_elapsed":345803,"internal_node_id":"0.0-8.0","task_version":"prescreen-v0.3"},{"responses":{"01":"No","02":"Yes","02_ages_12":"12","02_ages_13":"13","02_ages_14":"14","02_ages_15":"15","03":"No","04":"No","05":"No","06":"No"},"rt":39889.5,"item_order":[0,1,2,3,4,5],"radio_events":[9245.399999976158,12617.799999952316,25663.600000023842,27587.899999976158,29526.700000047684,39174.700000047684],"checkbox_events":[18866.5,20756,21198.299999952316,22090.100000023842],"key_events":[],"mouse_events":[0,9245.399999976158,12617.799999952316,18866.5,20756,21198.299999952316,22090.100000023842,25663.600000023842,27587.899999976158,29526.700000047684,39174.700000047684,39887.299999952316],"honeypot":0,"survey":"mace","page":1,"trial_type":"survey-mace","trial_index":9,"time_elapsed":385699,"internal_node_id":"0.0-9.0","task_version":"prescreen-v0.3","browser_interactions":0},{"responses":{"01":"No","02":"No","03":"No","04":"No","05":"No","06":"No","07":"No","08":"No"},"rt":16005,"item_order":[0,1,2,3,4,5,6,7],"radio_events":[2215.0999999046326,5044.099999904633,6284.699999928474,7851.699999928474,9577.799999952316,11211,12720.899999976158,14483.5],"checkbox_events":[],"key_events":[],"mouse_events":[2215.0999999046326,5044.099999904633,6284.699999928474,7851.699999928474,9577.799999952316,11211,12720.899999976158,14483.5,16002.199999928474],"honeypot":0,"survey":"mace","page":2,"trial_type":"survey-mace","trial_index":10,"time_elapsed":401710,"internal_node_id":"0.0-10.0","task_version":"prescreen-v0.3","browser_interactions":0},{"responses":{"01":"No","02":"No","03":"No","04":"No"},"rt":18436.100000023842,"item_order":[0,1,2,3],"radio_events":[3527.100000023842,7442.600000023842,10004.600000023842,17745.700000047684],"checkbox_events":[],"key_events":[],"mouse_events":[3527.100000023842,7442.600000023842,10004.600000023842,17745.700000047684,18434.600000023842],"honeypot":0,"survey":"mace","page":3,"trial_type":"survey-mace","trial_index":11,"time_elapsed":420151,"internal_node_id":"0.0-11.0","task_version":"prescreen-v0.3","browser_interactions":0},{"responses":{"01":"No","02":"No"},"rt":9731.700000047684,"item_order":[0,1],"radio_events":[6716.700000047684,9131.200000047684],"checkbox_events":[],"key_events":[],"mouse_events":[6716.700000047684,9131.200000047684,9730.899999976158],"honeypot":0,"survey":"mace","page":4,"trial_type":"survey-mace","trial_index":12,"time_elapsed":429887,"internal_node_id":"0.0-12.0","task_version":"prescreen-v0.3","browser_interactions":0},{"responses":{"01":"No","02":"No","03":"No","04":"No","05":"No"},"rt":19786.799999952316,"item_order":[0,1,2,3,4],"radio_events":[9627,11840.200000047684,15900.799999952316,18527.799999952316,19135.899999976158],"checkbox_events":[],"key_events":[],"mouse_events":[9627,11840.200000047684,15900.799999952316,18527.799999952316,19135.899999976158,19785],"honeypot":0,"survey":"mace","page":5,"trial_type":"survey-mace","trial_index":13,"time_elapsed":449679,"internal_node_id":"0.0-13.0","task_version":"prescreen-v0.3","browser_interactions":0},{"responses":{"01":"No","02":"Yes","02_ages_10":"10","02_ages_11":"11","02_ages_12":"12","02_ages_13":"13","03":"No","04":"No","05":"No"},"rt":25045,"item_order":[0,1,2,3,4],"radio_events":[8399.199999928474,10368.299999952316,19942.5,22891.399999976158,24060.699999928474],"checkbox_events":[13447,15679.899999976158,16053,16372.099999904633],"key_events":[],"mouse_events":[8399.199999928474,10368.299999952316,13447,15679.899999976158,16053,16372.099999904633,19942.5,22891.399999976158,24060.699999928474,25043.199999928474],"honeypot":0,"survey":"mace","page":6,"trial_type":"survey-mace","trial_index":14,"time_elapsed":474729,"internal_node_id":"0.0-14.0","task_version":"prescreen-v0.3","browser_interactions":0},{"responses":{"01":"No","02":"No","03":"Yes","03_ages_13":"13","03_ages_14":"14","04":"Yes","04_ages_12":"12","05":"No","06":"No","07":"No"},"rt":33307.200000047684,"item_order":[0,1,2,3,4,5,6],"radio_events":[6546.399999976158,10150.600000023842,12612,17685.5,28363.600000023842,31361.600000023842,32781.39999997616],"checkbox_events":[13630.399999976158,14151.399999976158,22681.200000047684],"key_events":[],"mouse_events":[6546.399999976158,10150.600000023842,12612,13630.399999976158,14151.399999976158,17685.5,22681.200000047684,28363.600000023842,31361.600000023842,32781.39999997616,33304.700000047684],"honeypot":0,"survey":"mace","page":7,"trial_type":"survey-mace","trial_index":15,"time_elapsed":508041,"internal_node_id":"0.0-15.0","task_version":"prescreen-v0.3","browser_interactions":0},{"responses":{"01":"No","02":"Yes","02_ages_1":"1","02_ages_2":"2","02_ages_3":"3","02_ages_4":"4","02_ages_5":"5","02_ages_6":"6","02_ages_7":"7","02_ages_8":"8","02_ages_9":"9","02_ages_10":"10","02_ages_11":"11","02_ages_12":"12","03":"No","04":"No"},"rt":39125.799999952316,"item_order":[0,1,2,3],"radio_events":[8023,17365.899999976158,33039.199999928474,38495.799999952316],"checkbox_events":[24221.299999952316,24968.799999952316,25313.699999928474,25614.799999952316,25929.899999976158,26212.699999928474,26576.099999904633,27174.799999952316,27484.899999976158,27818.599999904633,28431.199999928474,29568.099999904633],"key_events":[],"mouse_events":[8023,17365.899999976158,24221.299999952316,24704.699999928474,24968.799999952316,25313.699999928474,25614.799999952316,25929.899999976158,26212.699999928474,26576.099999904633,26921.599999904633,27174.799999952316,27484.899999976158,27818.599999904633,28184.699999928474,28431.199999928474,29568.099999904633,33039.199999928474,38495.799999952316,39124.199999928474],"honeypot":0,"survey":"mace","page":8,"trial_type":"survey-mace","trial_index":16,"time_elapsed":547172,"internal_node_id":"0.0-16.0","task_version":"prescreen-v0.3","browser_interactions":0},{"responses":{"01":"Yes","01_ages_1":"1","01_ages_2":"2","01_ages_3":"3","01_ages_4":"4","01_ages_5":"5","01_ages_6":"6","01_ages_7":"7","01_ages_8":"8","01_ages_9":"9","01_ages_10":"10","01_ages_11":"11","01_ages_12":"12","01_ages_13":"13","01_ages_14":"14","01_ages_15":"15","01_ages_16":"16","01_ages_17":"17","01_ages_18":"18","02":"Yes","02_ages_1":"1","02_ages_2":"2","02_ages_3":"3","02_ages_4":"4","02_ages_5":"5","02_ages_6":"6","02_ages_7":"7","02_ages_8":"8","02_ages_9":"9","02_ages_10":"10","02_ages_11":"11","02_ages_12":"12","02_ages_13":"13","02_ages_14":"14","02_ages_15":"15","02_ages_16":"16","02_ages_17":"17","02_ages_18":"18","03":"Yes","03_ages_1":"1","03_ages_2":"2","03_ages_3":"3","03_ages_4":"4","03_ages_5":"5","03_ages_6":"6","03_ages_7":"7","03_ages_8":"8","03_ages_9":"9","03_ages_10":"10","03_ages_11":"11","03_ages_12":"12","03_ages_13":"13","03_ages_14":"14","03_ages_15":"15","03_ages_16":"16","03_ages_17":"17","03_ages_18":"18","04":"Yes","04_ages_1":"1","04_ages_2":"2","04_ages_3":"3","04_ages_4":"4","04_ages_5":"5","04_ages_6":"6","04_ages_7":"7","04_ages_8":"8","04_ages_9":"9","04_ages_10":"10","04_ages_11":"11","04_ages_12":"12","04_ages_13":"13","04_ages_14":"14","04_ages_15":"15","04_ages_16":"16","04_ages_17":"17","04_ages_18":"18"},"rt":44591.10000002384,"item_order":[0,1,2,3],"radio_events":[3043.100000023842,14223.299999952316,25067,37486.39999997616],"checkbox_events":[4942.899999976158,5216.700000047684,5549.899999976158,5834.700000047684,6301.899999976158,6920.5,7671.5,8086.5,8408.399999976158,8789.399999976158,9104.5,9636.399999976158,9918.600000023842,10281.700000047684,10570.399999976158,11154.700000047684,11647,12278.799999952316,14983.399999976158,15523.100000023842,15840.700000047684,16197.899999976158,17118.399999976158,17461,17924.399999976158,18283.5,18793.399999976158,19100.5,19401.600000023842,19751.799999952316,20287.600000023842,20802.899999976158,21410.299999952316,21828.200000047684,22176.299999952316,22820.899999976158,26957.299999952316,27403.399999976158,28228.399999976158,28536.600000023842,28855.700000047684,29167.5,29447,29752.600000023842,30296.200000047684,30858.899999976158,31275.899999976158,31697.100000023842,32202.200000047684,32539.799999952316,32884.10000002384,33281.89999997616,33681.200000047684,34050.10000002384,38577.10000002384,38867.39999997616,39270.89999997616,39642.39999997616,39916,40194,40519.299999952316,40805.200000047684,41133.39999997616,41430.10000002384,41771,42065,42470.10000002384,42827.200000047684,43151,43481,43779.799999952316,44101.10000002384],"key_events":[],"mouse_events":[3043.100000023842,4942.899999976158,5216.700000047684,5549.899999976158,5834.700000047684,6301.899999976158,6920.5,7671.5,8086.5,8408.399999976158,8789.399999976158,9104.5,9636.399999976158,9918.600000023842,10281.700000047684,10570.399999976158,11154.700000047684,11647,12278.799999952316,14223.299999952316,14983.399999976158,15281.799999952316,15523.100000023842,15840.700000047684,16197.899999976158,16580.200000047684,17118.399999976158,17461,17924.399999976158,18283.5,18793.399999976158,19100.5,19401.600000023842,19751.799999952316,20287.600000023842,20802.899999976158,21410.299999952316,21828.200000047684,22176.299999952316,22820.899999976158,25067,26957.299999952316,27403.399999976158,27796.100000023842,28228.399999976158,28536.600000023842,28855.700000047684,29167.5,29447,29752.600000023842,30296.200000047684,30858.899999976158,31275.899999976158,31697.100000023842,32202.200000047684,32539.799999952316,32884.10000002384,33281.89999997616,33681.200000047684,34050.10000002384,37486.39999997616,38577.10000002384,38867.39999997616,39270.89999997616,39642.39999997616,39916,40194,40519.299999952316,40805.200000047684,41133.39999997616,41430.10000002384,41771,42065,42470.10000002384,42827.200000047684,43151,43481,43779.799999952316,44101.10000002384,44589.39999997616],"honeypot":0,"survey":"mace","page":9,"trial_type":"survey-mace","trial_index":17,"time_elapsed":591768,"internal_node_id":"0.0-17.0","task_version":"prescreen-v0.3","browser_interactions":0},{"responses":{"01":"No","02":"No","03":"No","04":"No","05":"No","06":"Yes","06_ages_17":"17","07":"Yes","07_ages_1":"1","07_ages_2":"2","07_ages_3":"3","07_ages_4":"4","07_ages_5":"5","07_ages_6":"6","07_ages_7":"7","07_ages_8":"8","07_ages_9":"9","07_ages_10":"10","07_ages_11":"11","07_ages_12":"12","07_ages_13":"13","07_ages_14":"14","07_ages_15":"15","07_ages_16":"16","07_ages_17":"17","07_ages_18":"18","08":"Yes","08_ages_1":"1","08_ages_2":"2","08_ages_3":"3","08_ages_4":"4","08_ages_5":"5","08_ages_6":"6","08_ages_7":"7","08_ages_8":"8","08_ages_9":"9","08_ages_10":"10","08_ages_11":"11","08_ages_12":"12","08_ages_13":"13","08_ages_14":"14","08_ages_15":"15","08_ages_16":"16","08_ages_17":"17","08_ages_18":"18"},"rt":36577.300000071526,"item_order":[0,1,2,3,4,5,6,7],"radio_events":[3839.9000000953674,5084,6922.5,8739.300000071526,10995.600000023842,14184.100000023842,19015.300000071526,28747.300000071526],"checkbox_events":[15404,20130.400000095367,20655.5,21150.800000071526,21595.800000071526,21888.700000047684,22180.900000095367,22515.400000095367,22809.900000095367,23499,23825.100000023842,24147.200000047684,24434.200000047684,24766.900000095367,25084.900000095367,25385.600000023842,25707.900000095367,26005.800000071526,26327.100000023842,29778.400000095367,30018.600000023842,30298.700000047684,31118,31417.800000071526,31728.800000071526,32027.900000095367,32309.900000095367,32575,32892,33240.10000002384,33585.200000047684,33903.800000071526,34235.200000047684,34537.700000047684,35234,35553,35978],"key_events":[],"mouse_events":[3839.9000000953674,5084,6922.5,8739.300000071526,10995.600000023842,14184.100000023842,15404,19015.300000071526,20130.400000095367,20401.900000095367,20655.5,21150.800000071526,21595.800000071526,21888.700000047684,22180.900000095367,22515.400000095367,22809.900000095367,23247,23499,23825.100000023842,24147.200000047684,24434.200000047684,24766.900000095367,25084.900000095367,25385.600000023842,25707.900000095367,26005.800000071526,26327.100000023842,28747.300000071526,29778.400000095367,30018.600000023842,30298.700000047684,30577.700000047684,31118,31417.800000071526,31728.800000071526,32027.900000095367,32309.900000095367,32575,32892,33240.10000002384,33585.200000047684,33903.800000071526,34235.200000047684,34537.700000047684,34859.800000071526,35234,35553,35978,36574.40000009537],"honeypot":0,"survey":"mace","page":10,"trial_type":"survey-mace","trial_index":18,"time_elapsed":628351,"internal_node_id":"0.0-18.0","task_version":"prescreen-v0.3","browser_interactions":0,"instructed":0},{"rt":13562.300000071526,"trial_type":"mental-health-alert","trial_index":19,"time_elapsed":641917,"internal_node_id":"0.0-19.0","task_version":"prescreen-v0.3","interactions":"[]"}]