[{"view_history":[{"page_index":0,"viewing_time":7052.600000023842},{"page_index":1,"viewing_time":3843.5},{"page_index":2,"viewing_time":5040.399999976158},{"page_index":3,"viewing_time":1560.2000000476837}],"rt":17498.200000047684,"trial_type":"instructions","trial_index":0,"time_elapsed":17505,"internal_node_id":"0.0-0.0","task_version":"prescreen-v0.3"},{"rt":17711.600000023842,"responses":{"age":"19","gender-categorical":"Male","gender-free-response":"","ethnicity":"Not Hispanic or Latino","race":["White"],"education":"Some college","siblings":"2"},"trial_type":"survey-demo","trial_index":1,"time_elapsed":35228,"internal_node_id":"0.0-1.0","task_version":"prescreen-v0.3"},{"responses":{"Q11":"2","Q12":"2","Q01":"1","Q17":"1","Q09":"2","Q10":"1","Q14":"1","Q04":"3","Q21":"3","Q03":"1","Q18":"2","Q19":"2","Q05":"1","Q02":"2","Q07":"2","Q20":"2","Q13":"3","Q16":"2","Q06":"1","Q15":"1","Q08":"3"},"rt":125546.10000002384,"item_order":[10,11,0,16,8,9,13,3,20,2,17,18,4,1,6,19,12,15,5,14,7],"radio_events":[10465.700000047684,14922.800000071526,17249,24026.700000047684,29890.200000047684,34981.39999997616,42148.200000047684,47865.200000047684,52134.60000002384,55616.89999997616,60603.39999997616,69825.80000007153,76582.70000004768,80843.80000007153,89125.70000004768,95262.20000004768,102609.30000007153,110028.39999997616,114842,120978.30000007153,124635.70000004768],"key_events":[],"mouse_events":[8975.100000023842,10465.700000047684,14922.800000071526,17249,24026.700000047684,29096.300000071526,29890.200000047684,34479.89999997616,34981.39999997616,41563.300000071526,42148.200000047684,47281.200000047684,47865.200000047684,52134.60000002384,55616.89999997616,60603.39999997616,69825.80000007153,76582.70000004768,80843.80000007153,89125.70000004768,90539.5,95262.20000004768,102609.30000007153,110028.39999997616,114842,120268.80000007153,120978.30000007153,124635.70000004768,125542],"straightlining":0.42857142857142855,"zigzagging":0.45,"honeypot":0,"survey":"sns","trial_type":"survey-template","trial_index":2,"time_elapsed":160790,"internal_node_id":"0.0-2.0","task_version":"prescreen-v0.3","browser_interactions":0,"infrequency":0},{"responses":{"Q12":"1","Q02":"1","Q01":"3","Q10":"1","Q07":"2","Q04":"3","Q09":"2","Q13":"0","Q11":"2","Q06":"3","Q03":"2","Q08":"1","Q05":"2"},"rt":76707.80000007153,"item_order":[11,1,0,9,6,3,8,12,10,5,2,7,4],"radio_events":[11326.600000023842,15178.300000071526,18675.400000095367,22723.700000047684,28365.200000047684,33122.200000047684,39049.5,44775.90000009537,53851.300000071526,59191.90000009537,66499.90000009537,72128.5,75360.20000004768],"key_events":[],"mouse_events":[11326.600000023842,15178.300000071526,18027.5,18675.400000095367,22723.700000047684,28365.200000047684,33122.200000047684,39049.5,43305.200000047684,44775.90000009537,53231.10000002384,53851.300000071526,58642.10000002384,59191.90000009537,66499.90000009537,72128.5,75360.20000004768,76705.90000009537],"straightlining":0.38461538461538464,"zigzagging":0.5833333333333334,"honeypot":0,"survey":"bisbas","trial_type":"survey-template","trial_index":3,"time_elapsed":237510,"internal_node_id":"0.0-3.0","task_version":"prescreen-v0.3","browser_interactions":0,"infrequency":0},{"responses":{"Q01":"2","Q02":"2","Q03":"1"},"rt":38895.60000002384,"radio_events":[21318.399999976158,28584.699999928474,31064.299999952316,37892.10000002384],"key_events":[],"mouse_events":[21318.399999976158,27581.600000023842,28584.699999928474,31064.299999952316,37187.299999952316,37892.10000002384,38894.299999952316],"survey":"map","page":1,"trial_type":"survey-map","trial_index":4,"time_elapsed":276415,"internal_node_id":"0.0-4.0","task_version":"prescreen-v0.3","browser_interactions":0},{"responses":{"Q04":"2","Q05":"3","Q06":"2"},"rt":19096,"radio_events":[4390.099999904633,6438.699999928474,8834.5,15639.599999904633],"key_events":[],"mouse_events":[4390.099999904633,6438.699999928474,8834.5,15639.599999904633,19094.899999976158],"survey":"map","page":2,"trial_type":"survey-map","trial_index":5,"time_elapsed":295521,"internal_node_id":"0.0-5.0","task_version":"prescreen-v0.3","browser_interactions":0},{"responses":{"Q07":"3","Q08":"3","Q09":"3"},"rt":23884.899999976158,"radio_events":[6877.799999952316,14527.100000023842,18317.100000023842,22844.899999976158],"key_events":[],"mouse_events":[6314.5,6877.799999952316,14527.100000023842,18317.100000023842,22176.299999952316,22844.899999976158,23883.699999928474],"survey":"map","page":3,"trial_type":"survey-map","trial_index":6,"time_elapsed":319416,"internal_node_id":"0.0-6.0","task_version":"prescreen-v0.3","browser_interactions":0},{"responses":{"Q10":"1","Q11":"2","Q12":"0","Q13":"4","Q16":"0","Q14":"1","Q15":"1"},"rt":40950.700000047684,"radio_events":[4958.100000023842,8593.800000071526,12717.700000047684,21363.100000023842,25947.5,36377.700000047684,39478.5],"key_events":[],"mouse_events":[4958.100000023842,7068.900000095367,8593.800000071526,12717.700000047684,20848.600000023842,21363.100000023842,25947.5,36377.700000047684,39478.5,40948.800000071526],"survey":"map","page":4,"trial_type":"survey-map","trial_index":7,"time_elapsed":360377,"internal_node_id":"0.0-7.0","task_version":"prescreen-v0.3","browser_interactions":0,"infrequency":0},{"view_history":[{"page_index":0,"viewing_time":4566.800000071526},{"page_index":1,"viewing_time":4757.599999904633}],"rt":9326.600000023842,"trial_type":"instructions","trial_index":8,"time_elapsed":369711,"internal_node_id":"0.0-8.0","task_version":"prescreen-v0.3"},{"responses":{"01":"No","02":"Yes","02_ages_12":"12","02_ages_13":"13","02_ages_14":"14","02_ages_15":"15","02_ages_16":"16","02_ages_17":"17","02_ages_18":"18","03":"No","04":"No","05":"No","06":"Yes","06_ages_14":"14","06_ages_15":"15","06_ages_16":"16","06_ages_17":"17","06_ages_18":"18"},"rt":52773.299999952316,"item_order":[0,1,2,3,4,5],"radio_events":[7042.5,9786.5,13381.399999976158,26282.099999904633,28357.599999904633,30559.399999976158,35303.799999952316],"checkbox_events":[17505.699999928474,18173.699999928474,18863.199999928474,19364.299999952316,19873.399999976158,20778.399999976158,21740.099999904633,37100.39999997616,37769.5,38487,39224.199999928474,39782.299999952316],"key_events":[],"mouse_events":[0.19999992847442627,7042.5,9786.5,13381.399999976158,17505.699999928474,18173.699999928474,18863.199999928474,19364.299999952316,19873.399999976158,20346.599999904633,20778.399999976158,21740.099999904633,26282.099999904633,28357.599999904633,30559.399999976158,33464,34334.199999928474,35303.799999952316,37100.39999997616,37769.5,38487,39224.199999928474,39782.299999952316,52767.799999952316],"honeypot":0,"survey":"mace","page":1,"trial_type":"survey-mace","trial_index":9,"time_elapsed":422499,"internal_node_id":"0.0-9.0","task_version":"prescreen-v0.3","browser_interactions":0},{"responses":{"01":"No","02":"No","03":"Yes","03_ages_14":"14","03_ages_15":"15","03_ages_16":"16","04":"No","05":"No","06":"No","07":"No","08":"No"},"rt":32835,"item_order":[0,1,2,3,4,5,6,7],"radio_events":[3693.5,7475.599999904633,9565.799999952316,21819.399999976158,25170.399999976158,28438.099999904633,31113,32039.699999928474],"checkbox_events":[12741.699999928474,13404.199999928474,13891.899999976158,14957.199999928474,16886.799999952316,19151.599999904633,19924.599999904633],"key_events":[],"mouse_events":[3693.5,7475.599999904633,9565.799999952316,12741.699999928474,13404.199999928474,13891.899999976158,14371.799999952316,14957.199999928474,16886.799999952316,18389.199999928474,19151.599999904633,19924.599999904633,21819.399999976158,23999.699999928474,25170.399999976158,28438.099999904633,30339.599999904633,31113,32039.699999928474,32828],"honeypot":0,"survey":"mace","page":2,"trial_type":"survey-mace","trial_index":10,"time_elapsed":455348,"internal_node_id":"0.0-10.0","task_version":"prescreen-v0.3","browser_interactions":0},{"responses":{"01":"No","02":"No","03":"No","04":"No"},"rt":12752.800000071526,"item_order":[0,1,2,3],"radio_events":[4346.800000071526,7906.900000095367,9140.200000047684,10038.5],"checkbox_events":[],"key_events":[],"mouse_events":[4346.800000071526,5702.600000023842,7906.900000095367,9140.200000047684,10038.5,12747.800000071526],"honeypot":0,"survey":"mace","page":3,"trial_type":"survey-mace","trial_index":11,"time_elapsed":468113,"internal_node_id":"0.0-11.0","task_version":"prescreen-v0.3","browser_interactions":0},{"responses":{"01":"No","02":"No","02_ages_17":"17","02_ages_18":"18"},"rt":47703.799999952316,"item_order":[0,1],"radio_events":[10453.299999952316,32811.200000047684,46771.60000002384],"checkbox_events":[37192.200000047684,37930],"key_events":[],"mouse_events":[10453.299999952316,32811.200000047684,36265.200000047684,37192.200000047684,37930,38493.89999997616,43878.89999997616,45411.10000002384,46771.60000002384,47702],"honeypot":0,"survey":"mace","page":4,"trial_type":"survey-mace","trial_index":12,"time_elapsed":515826,"internal_node_id":"0.0-12.0","task_version":"prescreen-v0.3","browser_interactions":0},{"responses":{"01":"No","02":"No","03":"No","04":"No","05":"No"},"rt":25670.700000047684,"item_order":[0,1,2,3,4],"radio_events":[15565.200000047684,17794,19355.100000023842,22370.200000047684,24795],"checkbox_events":[],"key_events":[],"mouse_events":[15565.200000047684,17794,19355.100000023842,20921.800000071526,22370.200000047684,23827.5,24795,25666.5],"honeypot":0,"survey":"mace","page":5,"trial_type":"survey-mace","trial_index":13,"time_elapsed":541506,"internal_node_id":"0.0-13.0","task_version":"prescreen-v0.3","browser_interactions":0},{"responses":{"01":"Yes","01_ages_8":"8","01_ages_9":"9","01_ages_10":"10","01_ages_11":"11","01_ages_12":"12","01_ages_13":"13","01_ages_14":"14","01_ages_15":"15","01_ages_16":"16","02":"Yes","02_ages_8":"8","02_ages_9":"9","02_ages_10":"10","02_ages_11":"11","02_ages_12":"12","02_ages_13":"13","02_ages_14":"14","02_ages_15":"15","02_ages_16":"16","03":"Yes","03_ages_12":"12","03_ages_13":"13","03_ages_14":"14","03_ages_15":"15","03_ages_16":"16","03_ages_17":"17","04":"Yes","04_ages_7":"7","04_ages_8":"8","04_ages_9":"9","04_ages_10":"10","04_ages_11":"11","04_ages_12":"12","04_ages_13":"13","04_ages_14":"14","04_ages_15":"15","04_ages_16":"16","04_ages_17":"17","04_ages_18":"18","05":"Yes","05_ages_9":"9","05_ages_10":"10","05_ages_11":"11","05_ages_12":"12","05_ages_13":"13","05_ages_14":"14","05_ages_15":"15","05_ages_16":"16"},"rt":55259.199999928474,"item_order":[0,1,2,3,4],"radio_events":[4728.5,14793.299999952316,24106.399999976158,31789.099999904633,47755],"checkbox_events":[8064.599999904633,8497.199999928474,8936.299999952316,9360.699999928474,9815.099999904633,10440.299999952316,11526.199999928474,12620.299999952316,13157.799999952316,15796.099999904633,16221.5,17363.299999952316,17838.399999976158,18590.399999976158,19042.599999904633,19640.699999928474,20261.399999976158,21070,25542,26182,26794.399999976158,27512.299999952316,28056,28529.299999952316,29064.399999976158,29454.799999952316,34818.89999997616,35313.39999997616,35772.299999952316,36532.799999952316,37041.699999928474,37598.5,38064.199999928474,38816.89999997616,39312.09999990463,39834.09999990463,40406,40850.799999952316,50240,50678.5,51103.799999952316,51639.5,52412.299999952316,52886.09999990463,53422.199999928474,53939],"key_events":[],"mouse_events":[4728.5,8064.599999904633,8497.199999928474,8936.299999952316,9360.699999928474,9815.099999904633,10440.299999952316,11526.199999928474,12620.299999952316,13157.799999952316,14361.399999976158,14793.299999952316,15796.099999904633,16221.5,16681,17363.299999952316,17838.399999976158,18590.399999976158,19042.599999904633,19640.699999928474,20261.399999976158,21070,24106.399999976158,25542,26182,26794.399999976158,27512.299999952316,28056,28529.299999952316,29064.399999976158,29454.799999952316,31789.099999904633,32909.89999997616,33989.5,34818.89999997616,35313.39999997616,35772.299999952316,36532.799999952316,37041.699999928474,37598.5,38064.199999928474,38816.89999997616,39312.09999990463,39834.09999990463,40406,40850.799999952316,47755,49014.5,49564.59999990463,50240,50678.5,51103.799999952316,51639.5,52412.299999952316,52886.09999990463,53422.199999928474,53939,55255],"honeypot":0,"survey":"mace","page":6,"trial_type":"survey-mace","trial_index":14,"time_elapsed":596777,"internal_node_id":"0.0-14.0","task_version":"prescreen-v0.3","browser_interactions":0},{"responses":{"01":"No","02":"Yes","02_ages_10":"10","02_ages_11":"11","02_ages_12":"12","02_ages_13":"13","02_ages_14":"14","02_ages_15":"15","03":"Yes","03_ages_8":"8","03_ages_9":"9","03_ages_10":"10","03_ages_11":"11","03_ages_12":"12","03_ages_13":"13","03_ages_14":"14","03_ages_15":"15","03_ages_16":"16","04":"Yes","04_ages_12":"12","04_ages_13":"13","04_ages_14":"14","04_ages_15":"15","04_ages_16":"16","04_ages_17":"17","04_ages_18":"18","05":"No","06":"No","07":"No"},"rt":40116.89999997616,"item_order":[0,1,2,3,4,5,6],"radio_events":[5299.5,6532,7520.200000047684,17076,26501,36140.799999952316,37735.39999997616,39288.200000047684],"checkbox_events":[9512.200000047684,10989.600000023842,11492.100000023842,12340,12932.899999976158,13545.399999976158,18120.799999952316,18588.799999952316,19047.5,19507.299999952316,20029.600000023842,20683.5,21464.200000047684,21958.799999952316,22439.899999976158,28010.899999976158,28576.399999976158,29202.899999976158,30316.799999952316,31020.399999976158,31794.100000023842,32372],"key_events":[],"mouse_events":[5299.5,6532,7520.200000047684,9512.200000047684,9909.799999952316,10558.100000023842,10989.600000023842,11492.100000023842,12340,12932.899999976158,13545.399999976158,15892.399999976158,17076,18120.799999952316,18588.799999952316,19047.5,19507.299999952316,20029.600000023842,20683.5,21464.200000047684,21958.799999952316,22439.899999976158,26501,28010.899999976158,28576.399999976158,29202.899999976158,30316.799999952316,31020.399999976158,31794.100000023842,32372,36140.799999952316,37735.39999997616,39288.200000047684,40110.5],"honeypot":0,"survey":"mace","page":7,"trial_type":"survey-mace","trial_index":15,"time_elapsed":636905,"internal_node_id":"0.0-15.0","task_version":"prescreen-v0.3","browser_interactions":0},{"responses":{"01":"No","02":"No","03":"Yes","03_ages_11":"11","03_ages_12":"12","03_ages_13":"13","03_ages_14":"14","03_ages_15":"15","03_ages_16":"16","03_ages_17":"17","03_ages_18":"18","04":"No"},"rt":42094,"item_order":[0,1,2,3],"radio_events":[13340,14337.399999976158,24176.5,34303,41344.700000047684],"checkbox_events":[25776.899999976158,26292.100000023842,26870.399999976158,27491.299999952316,28061.799999952316,28583.899999976158,30604.100000023842,31279],"key_events":[],"mouse_events":[12273.100000023842,13340,14337.399999976158,21730.299999952316,22149.100000023842,24176.5,25776.899999976158,26292.100000023842,26870.399999976158,27491.299999952316,28061.799999952316,28583.899999976158,29107.299999952316,29997.700000047684,30604.100000023842,31279,34303,40696.89999997616,41344.700000047684,42089.799999952316],"honeypot":0,"survey":"mace","page":8,"trial_type":"survey-mace","trial_index":16,"time_elapsed":679010,"internal_node_id":"0.0-16.0","task_version":"prescreen-v0.3","browser_interactions":0},{"responses":{"01":"Yes","01_ages_1":"1","01_ages_2":"2","01_ages_3":"3","01_ages_4":"4","01_ages_5":"5","01_ages_6":"6","01_ages_7":"7","01_ages_8":"8","01_ages_9":"9","01_ages_10":"10","01_ages_11":"11","01_ages_12":"12","01_ages_13":"13","01_ages_14":"14","01_ages_15":"15","01_ages_16":"16","01_ages_17":"17","01_ages_18":"18","02":"Yes","02_ages_1":"1","02_ages_2":"2","02_ages_3":"3","02_ages_4":"4","02_ages_5":"5","02_ages_6":"6","02_ages_7":"7","02_ages_8":"8","02_ages_9":"9","02_ages_10":"10","02_ages_11":"11","02_ages_12":"12","02_ages_13":"13","02_ages_14":"14","02_ages_15":"15","02_ages_16":"16","02_ages_17":"17","02_ages_18":"18","03":"Yes","03_ages_1":"1","03_ages_2":"2","03_ages_3":"3","03_ages_4":"4","03_ages_5":"5","03_ages_6":"6","03_ages_7":"7","03_ages_8":"8","03_ages_9":"9","03_ages_10":"10","03_ages_11":"11","03_ages_12":"12","03_ages_13":"13","03_ages_14":"14","03_ages_15":"15","03_ages_16":"16","03_ages_17":"17","03_ages_18":"18","04":"Yes","04_ages_1":"1","04_ages_2":"2","04_ages_3":"3","04_ages_4":"4","04_ages_5":"5","04_ages_6":"6","04_ages_7":"7","04_ages_8":"8","04_ages_9":"9","04_ages_10":"10","04_ages_11":"11","04_ages_12":"12","04_ages_13":"13","04_ages_14":"14","04_ages_15":"15","04_ages_16":"16","04_ages_17":"17","04_ages_18":"18"},"rt":103455.79999995232,"item_order":[0,1,2,3],"radio_events":[6574.699999928474,26704.099999904633,72260.39999997616,74573.19999992847],"checkbox_events":[8391.299999952316,9470.899999976158,10105.099999904633,10635.199999928474,11156,11706.299999952316,12226.5,16804.399999976158,17551.099999904633,18053.299999952316,18887.599999904633,19933.099999904633,20518,21040.099999904633,21828.099999904633,22403.199999928474,22955.799999952316,23478.5,28689.299999952316,29211.899999976158,29749.399999976158,31873.599999904633,32873.5,33585.699999928474,34192.39999997616,35336.299999952316,36380.299999952316,37181.09999990463,37954.699999928474,38776.799999952316,39905.09999990463,40776.199999928474,41360.89999997616,41925.39999997616,42809.299999952316,43471.39999997616,75632.09999990463,76146.89999997616,76578.89999997616,77505.19999992847,78376.39999997616,78883.89999997616,79608,80109.39999997616,81015,81669.89999997616,82316.5,83097,83765.5,84287.09999990463,85047.39999997616,85743.69999992847,86759.79999995232,87296.59999990463,89002.79999995232,89489.69999992847,90034.69999992847,91266.29999995232,92171.69999992847,92923.19999992847,93704,94567.09999990463,95167.29999995232,96119.89999997616,96984.89999997616,97881.19999992847,98530,99129.19999992847,99978.59999990463,100918.69999992847,101462.59999990463,102054],"key_events":[],"mouse_events":[814.2999999523163,6574.699999928474,8391.299999952316,8871.799999952316,9470.899999976158,10105.099999904633,10635.199999928474,11156,11706.299999952316,12226.5,15843,16804.399999976158,17551.099999904633,18053.299999952316,18887.599999904633,19933.099999904633,20518,21040.099999904633,21828.099999904633,22403.199999928474,22955.799999952316,23478.5,26704.099999904633,28689.299999952316,29211.899999976158,29749.399999976158,30521,31358,31873.599999904633,32873.5,33585.699999928474,34192.39999997616,34840.699999928474,35336.299999952316,36380.299999952316,37181.09999990463,37954.699999928474,38776.799999952316,39905.09999990463,40776.199999928474,41360.89999997616,41925.39999997616,42809.299999952316,43471.39999997616,72260.39999997616,74573.19999992847,75632.09999990463,76146.89999997616,76578.89999997616,76996.59999990463,77505.19999992847,78376.39999997616,78883.89999997616,79608,80109.39999997616,80548.69999992847,81015,81669.89999997616,82316.5,83097,83765.5,84287.09999990463,85047.39999997616,85743.69999992847,86759.79999995232,87296.59999990463,89002.79999995232,89489.69999992847,90034.69999992847,90771.89999997616,91266.29999995232,92171.69999992847,92923.19999992847,93704,94567.09999990463,95167.29999995232,96119.89999997616,96984.89999997616,97881.19999992847,98530,99129.19999992847,99978.59999990463,100918.69999992847,101462.59999990463,102054,103453.69999992847],"honeypot":0,"survey":"mace","page":9,"trial_type":"survey-mace","trial_index":17,"time_elapsed":782476,"internal_node_id":"0.0-17.0","task_version":"prescreen-v0.3","browser_interactions":0},{"responses":{"01":"No","02":"No","03":"Yes","03_ages_14":"14","03_ages_15":"15","03_ages_16":"16","03_ages_17":"17","03_ages_18":"18","04":"No","05":"Yes","05_ages_18":"18","06":"Yes","06_ages_17":"17","07":"Yes","07_ages_1":"1","07_ages_2":"2","07_ages_3":"3","07_ages_4":"4","07_ages_5":"5","07_ages_6":"6","07_ages_7":"7","07_ages_8":"8","07_ages_9":"9","07_ages_10":"10","07_ages_11":"11","07_ages_12":"12","07_ages_13":"13","07_ages_14":"14","07_ages_15":"15","07_ages_16":"16","07_ages_17":"17","07_ages_18":"18","08":"Yes","08_ages_1":"1","08_ages_2":"2","08_ages_3":"3","08_ages_4":"4","08_ages_5":"5","08_ages_6":"6","08_ages_7":"7","08_ages_8":"8","08_ages_9":"9","08_ages_10":"10","08_ages_11":"11","08_ages_12":"12","08_ages_13":"13","08_ages_14":"14","08_ages_15":"15","08_ages_16":"16","08_ages_17":"17","08_ages_18":"18"},"rt":69633.80000007153,"item_order":[0,1,2,3,4,5,6,7],"radio_events":[7341.700000047684,8129.200000047684,10322.800000071526,17997.899999976158,20866.800000071526,27503,37030.200000047684,53992.200000047684],"checkbox_events":[12907.700000047684,13652.399999976158,14105,14626.399999976158,15142.800000071526,22545.600000023842,28477.300000071526,40603.800000071526,41524,42004.89999997616,42520,43029,43864.39999997616,44352.300000071526,44867.5,45479.700000047684,46336.5,46887.800000071526,47730.60000002384,48232.10000002384,49067.89999997616,49597.60000002384,50287.300000071526,51018.200000047684,51846.700000047684,55726.700000047684,56736.700000047684,57266.10000002384,57865,59146.89999997616,60324.800000071526,61028.39999997616,61739.39999997616,62310.800000071526,63104.700000047684,63683.200000047684,64240.300000071526,65173.800000071526,65967.30000007153,66699,67406.20000004768,68099.10000002384,68852],"key_events":[],"mouse_events":[6728.5,7341.700000047684,8129.200000047684,10322.800000071526,12907.700000047684,13652.399999976158,14105,14626.399999976158,15142.800000071526,17997.899999976158,20866.800000071526,22545.600000023842,26396.399999976158,27503,28477.300000071526,37030.200000047684,40603.800000071526,41524,42004.89999997616,42520,43029,43864.39999997616,44352.300000071526,44867.5,45479.700000047684,46336.5,46887.800000071526,47730.60000002384,48232.10000002384,49067.89999997616,49597.60000002384,50287.300000071526,51018.200000047684,51846.700000047684,53992.200000047684,55726.700000047684,56221.200000047684,56736.700000047684,57266.10000002384,57865,58381.10000002384,59146.89999997616,59655.5,60324.800000071526,61028.39999997616,61739.39999997616,62310.800000071526,63104.700000047684,63683.200000047684,64240.300000071526,65173.800000071526,65967.30000007153,66699,67406.20000004768,68099.10000002384,68852,69627.30000007153],"honeypot":0,"survey":"mace","page":10,"trial_type":"survey-mace","trial_index":18,"time_elapsed":852119,"internal_node_id":"0.0-18.0","task_version":"prescreen-v0.3","browser_interactions":0,"instructed":0},{"rt":6252.600000023842,"trial_type":"mental-health-alert","trial_index":19,"time_elapsed":858380,"internal_node_id":"0.0-19.0","task_version":"prescreen-v0.3","interactions":"[]"}]