[{"view_history":[{"page_index":0,"viewing_time":1668},{"page_index":1,"viewing_time":2444.899999976158},{"page_index":2,"viewing_time":2343.100000023842},{"page_index":3,"viewing_time":783}],"rt":7239.600000023842,"trial_type":"instructions","trial_index":0,"time_elapsed":7247,"internal_node_id":"0.0-0.0","task_version":"prescreen-v0.3"},{"rt":13400.600000023842,"responses":{"age":"33","gender-categorical":"Male","gender-free-response":"","ethnicity":"Not Hispanic or Latino","race":["Asian"],"education":"Bachelor degree","siblings":"01"},"trial_type":"survey-demo","trial_index":1,"time_elapsed":20650,"internal_node_id":"0.0-1.0","task_version":"prescreen-v0.3"},{"responses":{"Q20":"0","Q14":"1","Q15":"2","Q12":"0","Q09":"1","Q06":"1","Q13":"0","Q16":"0","Q21":"3","Q03":"0","Q17":"0","Q01":"0","Q02":"0","Q08":"2","Q19":"0","Q10":"0","Q05":"2","Q11":"0","Q04":"0","Q07":"0","Q18":"0"},"rt":86575.5,"item_order":[19,13,14,11,8,5,12,15,20,2,16,0,1,7,18,9,4,10,3,6,17],"radio_events":[2339.5,10344.100000023842,12704.100000023842,16818,20713.899999976158,24466.799999952316,27315.799999952316,30165.700000047684,33079.700000047684,35617.39999997616,37221.5,38931.299999952316,40750.39999997616,42660.299999952316,48999.200000047684,58027.799999952316,59854.700000047684,65301.700000047684,69355.39999997616,73230.29999995232,75605.20000004768],"key_events":[],"mouse_events":[2339.5,8684.399999976158,10344.100000023842,12704.100000023842,16818,20713.899999976158,24466.799999952316,27315.799999952316,30165.700000047684,33079.700000047684,35617.39999997616,37221.5,38931.299999952316,40750.39999997616,42660.299999952316,44895.200000047684,48999.200000047684,58027.799999952316,59854.700000047684,63732.700000047684,64535.60000002384,65301.700000047684,69355.39999997616,72143.39999997616,73230.29999995232,75605.20000004768,79383.39999997616,86574.10000002384],"straightlining":0.6666666666666666,"zigzagging":0.3,"honeypot":0,"survey":"sns","trial_type":"survey-template","trial_index":2,"time_elapsed":107230,"internal_node_id":"0.0-2.0","task_version":"prescreen-v0.3","browser_interactions":0,"infrequency":0},{"responses":{"Q09":"1","Q13":"0","Q04":"2","Q07":"2","Q01":"2","Q06":"2","Q03":"2","Q08":"2","Q12":"1","Q11":"1","Q02":"1","Q05":"2","Q10":"2"},"rt":34195.10000002384,"item_order":[8,12,3,6,0,5,2,7,11,10,1,4,9],"radio_events":[2857.2000000476837,4466.100000023842,11553.700000047684,13140.800000071526,14841.900000095367,15875.800000071526,19579.5,22804.600000023842,25325.300000071526,27616.400000095367,28772.400000095367,31414.300000071526,32593.200000047684],"key_events":[],"mouse_events":[2857.2000000476837,4466.100000023842,11553.700000047684,13140.800000071526,14364.800000071526,14841.900000095367,15875.800000071526,19579.5,21774.600000023842,22804.600000023842,25325.300000071526,27616.400000095367,28772.400000095367,31414.300000071526,32593.200000047684,34194.300000071526],"straightlining":0.6153846153846154,"zigzagging":0.25,"honeypot":0,"survey":"bisbas","trial_type":"survey-template","trial_index":3,"time_elapsed":141428,"internal_node_id":"0.0-3.0","task_version":"prescreen-v0.3","browser_interactions":0,"infrequency":0},{"responses":{"Q01":"2","Q02":"2","Q03":"2"},"rt":20748.5,"radio_events":[11863.399999976158,14224.299999952316,20118.299999952316],"key_events":[],"mouse_events":[11124.399999976158,11863.399999976158,14224.299999952316,18450.5,20118.299999952316,20748.099999904633],"survey":"map","page":1,"trial_type":"survey-map","trial_index":4,"time_elapsed":162179,"internal_node_id":"0.0-4.0","task_version":"prescreen-v0.3","browser_interactions":0},{"responses":{"Q04":"2","Q05":"2","Q06":"3"},"rt":14435.799999952316,"radio_events":[10095.600000023842,12440.799999952316,13920.399999976158],"key_events":[],"mouse_events":[10095.600000023842,12440.799999952316,13659.299999952316,13920.399999976158,14435.399999976158],"survey":"map","page":2,"trial_type":"survey-map","trial_index":5,"time_elapsed":176616,"internal_node_id":"0.0-5.0","task_version":"prescreen-v0.3","browser_interactions":0},{"responses":{"Q07":"2","Q08":"3","Q09":"2"},"rt":11294.100000023842,"radio_events":[7507,8989.900000095367,10699.800000071526],"key_events":[],"mouse_events":[5727.100000023842,6895.900000095367,7507,8463.800000071526,8989.900000095367,10699.800000071526,11293.800000071526],"survey":"map","page":3,"trial_type":"survey-map","trial_index":6,"time_elapsed":187911,"internal_node_id":"0.0-6.0","task_version":"prescreen-v0.3","browser_interactions":0},{"responses":{"Q10":"2","Q11":"2","Q12":"2","Q13":"1","Q16":"0","Q14":"2","Q15":"2"},"rt":28973.100000023842,"radio_events":[2449.100000023842,4695.100000023842,8181.899999976158,13983.700000047684,16604.700000047684,27401.299999952316,28349.399999976158],"key_events":[],"mouse_events":[2449.100000023842,4695.100000023842,7492,8181.899999976158,13663.700000047684,13983.700000047684,16604.700000047684,25430.399999976158,27401.299999952316,28349.399999976158,28972.299999952316],"survey":"map","page":4,"trial_type":"survey-map","trial_index":7,"time_elapsed":216886,"internal_node_id":"0.0-7.0","task_version":"prescreen-v0.3","browser_interactions":0,"infrequency":0},{"view_history":[{"page_index":0,"viewing_time":1833.5999999046326},{"page_index":1,"viewing_time":3782.8000000715256}],"rt":5617,"trial_type":"instructions","trial_index":8,"time_elapsed":222504,"internal_node_id":"0.0-8.0","task_version":"prescreen-v0.3"},{"responses":{"01":"No","01_ages_4":"4","01_ages_5":"5","01_ages_6":"6","01_ages_7":"7","01_ages_8":"8","01_ages_9":"9","01_ages_10":"10","01_ages_11":"11","01_ages_12":"12","01_ages_13":"13","01_ages_14":"14","01_ages_15":"15","01_ages_16":"16","01_ages_17":"17","02":"No","03":"No","04":"No","05":"No","06":"No"},"rt":41556.89999997616,"item_order":[0,1,2,3,4,5],"radio_events":[5834,34427.09999990463,36372.09999990463,37268,38271,39026,40022.09999990463],"checkbox_events":[8901.899999976158,9449,9882.5,10186.699999928474,10643.699999928474,11099.5,11744.699999928474,12136.699999928474,12569.599999904633,13249.699999928474,13575.699999928474,13926.699999928474,14331.599999904633,15206.599999904633],"key_events":[],"mouse_events":[0.19999992847442627,5834,8901.899999976158,9449,9882.5,10186.699999928474,10643.699999928474,11099.5,11394.699999928474,11744.699999928474,12136.699999928474,12569.599999904633,12907.699999928474,13249.699999928474,13575.699999928474,13926.699999928474,14331.599999904633,14764.599999904633,15206.599999904633,32746.899999976158,34121.89999997616,34427.09999990463,35611,36372.09999990463,37268,38271,39026,40022.09999990463,41149.89999997616,41555],"honeypot":0,"survey":"mace","page":1,"trial_type":"survey-mace","trial_index":9,"time_elapsed":264066,"internal_node_id":"0.0-9.0","task_version":"prescreen-v0.3","browser_interactions":0},{"responses":{"01":"No","02":"No","03":"No","04":"No","05":"No","06":"No","07":"No","08":"No"},"rt":13064,"item_order":[0,1,2,3,4,5,6,7],"radio_events":[2857.5999999046326,3628.899999976158,6081.5,6944.5,7893.5,8773.5,9807.399999976158,10706.699999928474],"checkbox_events":[],"key_events":[],"mouse_events":[2857.5999999046326,3250.6999999284744,3628.899999976158,4169.799999952316,5813.399999976158,6081.5,6944.5,7893.5,8773.5,9807.399999976158,10706.699999928474,13061.299999952316],"honeypot":0,"survey":"mace","page":2,"trial_type":"survey-mace","trial_index":10,"time_elapsed":277133,"internal_node_id":"0.0-10.0","task_version":"prescreen-v0.3","browser_interactions":0},{"responses":{"01":"No","02":"No","03":"No","04":"No"},"rt":9674.100000023842,"item_order":[0,1,2,3],"radio_events":[5346.700000047684,6731.5,7335.600000023842,8098.600000023842],"checkbox_events":[],"key_events":[],"mouse_events":[5346.700000047684,6731.5,7091.5,7335.600000023842,8098.600000023842,9672.900000095367],"honeypot":0,"survey":"mace","page":3,"trial_type":"survey-mace","trial_index":11,"time_elapsed":286809,"internal_node_id":"0.0-11.0","task_version":"prescreen-v0.3","browser_interactions":0},{"responses":{"01":"No","02":"No"},"rt":3541.8000000715256,"item_order":[0,1],"radio_events":[1473.5,2692.4000000953674],"checkbox_events":[],"key_events":[],"mouse_events":[1473.5,2692.4000000953674,3541.2000000476837],"honeypot":0,"survey":"mace","page":4,"trial_type":"survey-mace","trial_index":12,"time_elapsed":290353,"internal_node_id":"0.0-12.0","task_version":"prescreen-v0.3","browser_interactions":0},{"responses":{"01":"No","02":"No","03":"No","04":"No","05":"No"},"rt":14100.799999952316,"item_order":[0,1,2,3,4],"radio_events":[4053.600000023842,7214.399999976158,8358.399999976158,10981.299999952316,11650.100000023842],"checkbox_events":[],"key_events":[],"mouse_events":[3166.399999976158,4053.600000023842,5045.5,6050.399999976158,6510.100000023842,7214.399999976158,8358.399999976158,10981.299999952316,11365.399999976158,11650.100000023842,14099.299999952316],"honeypot":0,"survey":"mace","page":5,"trial_type":"survey-mace","trial_index":13,"time_elapsed":304456,"internal_node_id":"0.0-13.0","task_version":"prescreen-v0.3","browser_interactions":0},{"responses":{"01":"Yes","01_ages_4":"4","01_ages_5":"5","01_ages_6":"6","01_ages_7":"7","01_ages_8":"8","01_ages_9":"9","01_ages_10":"10","01_ages_11":"11","01_ages_12":"12","01_ages_13":"13","01_ages_14":"14","01_ages_15":"15","01_ages_16":"16","01_ages_17":"17","02":"Yes","02_ages_4":"4","02_ages_5":"5","02_ages_6":"6","02_ages_7":"7","02_ages_8":"8","02_ages_9":"9","02_ages_10":"10","02_ages_11":"11","02_ages_12":"12","02_ages_13":"13","02_ages_14":"14","02_ages_15":"15","02_ages_16":"16","02_ages_17":"17","02_ages_18":"18","03":"Yes","03_ages_4":"4","03_ages_5":"5","03_ages_6":"6","03_ages_7":"7","03_ages_8":"8","03_ages_9":"9","03_ages_10":"10","03_ages_11":"11","03_ages_12":"12","03_ages_13":"13","03_ages_14":"14","03_ages_15":"15","03_ages_16":"16","03_ages_17":"17","03_ages_18":"18","04":"Yes","04_ages_4":"4","04_ages_5":"5","04_ages_6":"6","04_ages_7":"7","04_ages_8":"8","04_ages_9":"9","04_ages_10":"10","04_ages_11":"11","05":"No"},"rt":77980.80000007153,"item_order":[0,1,2,3,4],"radio_events":[5671.900000095367,15484.600000023842,30417.200000047684,42746.800000071526,72399.90000009537],"checkbox_events":[7603.700000047684,7955.900000095367,9013.700000047684,9399.700000047684,9952.600000023842,10343.700000047684,10973.800000071526,11504.700000047684,11835.600000023842,12019.5,12364.700000047684,12758.600000023842,13145.800000071526,13454.600000023842,13710.800000071526,14071.600000023842,17146.400000095367,17626.5,18212.400000095367,18832.600000023842,19320.5,19659.400000095367,20003.5,20480.300000071526,22094.5,24071.400000095367,24698.400000095367,25008.100000023842,25558.300000071526,25984.300000071526,27595.100000023842,32231.200000047684,32668.900000095367,33063,33952.10000002384,34339,35672.90000009537,35993.10000002384,36257,36644,36955.200000047684,37269,37620.90000009537,37982.700000047684,38353.800000071526,41143.90000009537,44323.800000071526,44805.5,45299.60000002384,46057.5,46474.700000047684,47040.700000047684,48280.700000047684,48683.5,57103.40000009537,59414.300000071526,63936.200000047684,69401],"key_events":[],"mouse_events":[3036.7000000476837,4981.800000071526,5671.900000095367,6683.700000047684,7603.700000047684,7955.900000095367,8251.600000023842,8608.600000023842,9013.700000047684,9399.700000047684,9952.600000023842,10343.700000047684,10706.5,10973.800000071526,11287.5,11504.700000047684,11835.600000023842,12019.5,12364.700000047684,12758.600000023842,13145.800000071526,13454.600000023842,13710.800000071526,14071.600000023842,15256.300000071526,15484.600000023842,17146.400000095367,17626.5,18212.400000095367,18517.300000071526,18832.600000023842,19320.5,19659.400000095367,20003.5,20480.300000071526,21461.400000095367,22094.5,24071.400000095367,24420.400000095367,24698.400000095367,25008.100000023842,25558.300000071526,25984.300000071526,27595.100000023842,30417.200000047684,31685.100000023842,32231.200000047684,32668.900000095367,33063,33419.800000071526,33701,33952.10000002384,34339,34690.800000071526,35059.90000009537,35465.700000047684,35672.90000009537,35993.10000002384,36257,36644,36955.200000047684,37269,37620.90000009537,37982.700000047684,38353.800000071526,41143.90000009537,42026.90000009537,42746.800000071526,44323.800000071526,44805.5,45299.60000002384,46057.5,46474.700000047684,47040.700000047684,47677.5,48280.700000047684,48683.5,57103.40000009537,59414.300000071526,63678.10000002384,63936.200000047684,69401,72399.90000009537,77979.20000004768],"honeypot":0,"survey":"mace","page":6,"trial_type":"survey-mace","trial_index":14,"time_elapsed":382440,"internal_node_id":"0.0-14.0","task_version":"prescreen-v0.3","browser_interactions":0},{"responses":{"01":"No","02":"No","03":"No","04":"No","05":"No","06":"No","07":"No"},"rt":12349.799999952316,"item_order":[0,1,2,3,4,5,6],"radio_events":[3567.5,6398.799999952316,7092.5,8357.600000023842,9788.200000047684,10731.200000047684,11617.200000047684],"checkbox_events":[],"key_events":[],"mouse_events":[3567.5,5062.5,6398.799999952316,7092.5,8357.600000023842,9788.200000047684,10731.200000047684,11617.200000047684,12347.600000023842],"honeypot":0,"survey":"mace","page":7,"trial_type":"survey-mace","trial_index":15,"time_elapsed":394793,"internal_node_id":"0.0-15.0","task_version":"prescreen-v0.3","browser_interactions":0},{"responses":{"01":"No","02":"No","03":"No","04":"No"},"rt":9918.100000023842,"item_order":[0,1,2,3],"radio_events":[4716,6938.100000023842,8545.899999976158,9231.899999976158],"checkbox_events":[],"key_events":[],"mouse_events":[4032,4716,6938.100000023842,8545.899999976158,9231.899999976158,9916.899999976158],"honeypot":0,"survey":"mace","page":8,"trial_type":"survey-mace","trial_index":16,"time_elapsed":404713,"internal_node_id":"0.0-16.0","task_version":"prescreen-v0.3","browser_interactions":0},{"responses":{"01":"Yes","01_ages_1":"1","01_ages_2":"2","01_ages_3":"3","01_ages_4":"4","01_ages_5":"5","01_ages_6":"6","01_ages_7":"7","01_ages_8":"8","01_ages_9":"9","01_ages_10":"10","01_ages_11":"11","01_ages_12":"12","01_ages_13":"13","01_ages_14":"14","01_ages_15":"15","01_ages_16":"16","01_ages_17":"17","01_ages_18":"18","02":"Yes","02_ages_1":"1","02_ages_2":"2","02_ages_3":"3","02_ages_4":"4","02_ages_5":"5","02_ages_6":"6","02_ages_7":"7","02_ages_8":"8","02_ages_9":"9","02_ages_10":"10","02_ages_11":"11","02_ages_12":"12","02_ages_13":"13","02_ages_14":"14","02_ages_15":"15","02_ages_16":"16","02_ages_17":"17","02_ages_18":"18","03":"Yes","03_ages_1":"1","03_ages_2":"2","03_ages_3":"3","03_ages_4":"4","03_ages_5":"5","03_ages_6":"6","03_ages_7":"7","03_ages_8":"8","03_ages_9":"9","03_ages_10":"10","03_ages_11":"11","03_ages_12":"12","03_ages_13":"13","03_ages_14":"14","03_ages_15":"15","03_ages_16":"16","03_ages_17":"17","03_ages_18":"18","04":"Yes","04_ages_1":"1","04_ages_2":"2","04_ages_3":"3","04_ages_4":"4","04_ages_5":"5","04_ages_6":"6","04_ages_7":"7","04_ages_8":"8","04_ages_9":"9","04_ages_10":"10","04_ages_11":"11","04_ages_12":"12","04_ages_13":"13","04_ages_14":"14","04_ages_15":"15","04_ages_16":"16","04_ages_17":"17","04_ages_18":"18"},"rt":66813.5,"item_order":[0,1,2,3],"radio_events":[2491.5,21612.899999976158,33226.799999952316,35108.699999928474],"checkbox_events":[12371.199999928474,12970.299999952316,13448.199999928474,13823.299999952316,14146.299999952316,14488.399999976158,15375.199999928474,15748.299999952316,16208.199999928474,16526.099999904633,17142,17501.099999904633,18181.199999928474,18653,19739,20273,20733,21067,23018,23360,23668.099999904633,24191,24674.099999904633,24973,25304,26011.799999952316,26340.899999976158,26743,28442.799999952316,28821.899999976158,29132.799999952316,29457.899999976158,29882.799999952316,30321.599999904633,31181.799999952316,31867.799999952316,36012.699999928474,37046.799999952316,38757.39999997616,39038.699999928474,39391.59999990463,39834.5,40231.5,41243.59999990463,41571.39999997616,41970.39999997616,47576.199999928474,48434.5,49533.699999928474,51063.09999990463,52258.09999990463,52915.09999990463,53476.199999928474,53860.09999990463,54186,55041.09999990463,55333.09999990463,56074,56819,57578,57807,58372,58847,59160,59808.89999997616,60188.799999952316,60558.89999997616,61117.89999997616,61869.799999952316,62299.799999952316,63400.799999952316,63752.799999952316,65655.89999997616,65993.79999995232],"key_events":[],"mouse_events":[2491.5,5970.599999904633,6134.5,6346.599999904633,7047.399999976158,8880.299999952316,9698.5,10261.299999952316,10889.099999904633,11435.199999928474,11798.299999952316,12371.199999928474,12970.299999952316,13448.199999928474,13823.299999952316,14146.299999952316,14488.399999976158,14851.299999952316,15375.199999928474,15748.299999952316,16208.199999928474,16526.099999904633,16902.199999928474,17142,17501.099999904633,17876.899999976158,18181.199999928474,18653,19119.099999904633,19433.099999904633,19739,20273,20733,21067,21612.899999976158,22648.899999976158,23018,23360,23668.099999904633,24191,24674.099999904633,24973,25304,25614.899999976158,26011.799999952316,26340.899999976158,26743,27110.399999976158,28442.799999952316,28821.899999976158,29132.799999952316,29457.899999976158,29882.799999952316,30321.599999904633,30689.699999928474,31181.799999952316,31867.799999952316,32799.5,33226.799999952316,35108.699999928474,36012.699999928474,36492.59999990463,37046.799999952316,38056.39999997616,38757.39999997616,39038.699999928474,39391.59999990463,39834.5,40231.5,40601.5,40921.299999952316,41243.59999990463,41571.39999997616,41970.39999997616,47328.39999997616,47576.199999928474,48434.5,48871,49533.699999928474,50133.09999990463,50442,50740.299999952316,51063.09999990463,51377,52018.199999928474,52258.09999990463,52693,52915.09999990463,53249.89999997616,53476.199999928474,53860.09999990463,54186,54463.09999990463,54733,55041.09999990463,55333.09999990463,56074,56382,56819,57137.89999997616,57578,57807,58372,58651.699999928474,58847,59160,59497.799999952316,59808.89999997616,60188.799999952316,60558.89999997616,61117.89999997616,61483.699999928474,61869.799999952316,62299.799999952316,62634.699999928474,62883.89999997616,63400.799999952316,63752.799999952316,64228.799999952316,65655.89999997616,65993.79999995232,66812.19999992847],"honeypot":0,"survey":"mace","page":9,"trial_type":"survey-mace","trial_index":17,"time_elapsed":471528,"internal_node_id":"0.0-17.0","task_version":"prescreen-v0.3","browser_interactions":5},{"responses":{"01":"No","02":"No","03":"No","04":"No","05":"No","06":"Yes","06_ages_17":"17","07":"Yes","07_ages_1":"1","07_ages_2":"2","07_ages_3":"3","07_ages_4":"4","07_ages_5":"5","07_ages_6":"6","07_ages_7":"7","07_ages_8":"8","07_ages_9":"9","07_ages_10":"10","07_ages_11":"11","07_ages_12":"12","07_ages_13":"13","07_ages_14":"14","07_ages_15":"15","07_ages_16":"16","07_ages_17":"17","07_ages_18":"18","08":"Yes","08_ages_1":"1","08_ages_2":"2","08_ages_3":"3","08_ages_4":"4","08_ages_5":"5","08_ages_6":"6","08_ages_7":"7","08_ages_8":"8","08_ages_9":"9","08_ages_10":"10","08_ages_11":"11","08_ages_12":"12","08_ages_13":"13","08_ages_14":"14","08_ages_15":"15","08_ages_16":"16","08_ages_17":"17","08_ages_18":"18"},"rt":45780.200000047684,"item_order":[0,1,2,3,4,5,6,7],"radio_events":[5320,6055.800000071526,7134,9761.800000071526,10876.700000047684,14117.700000047684,16287.5,22517.399999976158],"checkbox_events":[12025.800000071526,24224.399999976158,24658.200000047684,25491.300000071526,26821.300000071526,27139.5,27533,28961.300000071526,31128.200000047684,31723.200000047684,32613,33177.200000047684,33768,34087.200000047684,34958,35298.89999997616,35690.89999997616,36032.89999997616,36471.10000002384,36998,37603.89999997616,38302.89999997616,39014.800000071526,39382.5,39752.89999997616,40286.89999997616,40659.89999997616,41072.800000071526,41549.89999997616,41924.800000071526,42311.89999997616,42665,43147.89999997616,43679.700000047684,44149.800000071526,44574.700000047684,44891.700000047684],"key_events":[],"mouse_events":[2605.2000000476837,4698.800000071526,5320,6055.800000071526,7134,9761.800000071526,10876.700000047684,12025.800000071526,14117.700000047684,16287.5,18258.700000047684,20221.5,20939.399999976158,21949.200000047684,22281.800000071526,22517.399999976158,23580.300000071526,24224.399999976158,24658.200000047684,25491.300000071526,26157.5,26821.300000071526,27139.5,27533,27877,28183.200000047684,28419,28961.300000071526,29292.399999976158,30608.100000023842,31128.200000047684,31723.200000047684,32613,33177.200000047684,33509.89999997616,33768,34087.200000047684,34421.200000047684,34701,34958,35298.89999997616,35690.89999997616,36032.89999997616,36471.10000002384,36998,37289,37603.89999997616,38018.89999997616,38302.89999997616,38772.800000071526,39014.800000071526,39382.5,39752.89999997616,40286.89999997616,40659.89999997616,41072.800000071526,41549.89999997616,41924.800000071526,42311.89999997616,42665,43147.89999997616,43679.700000047684,44149.800000071526,44574.700000047684,44891.700000047684,45777.800000071526],"honeypot":0,"survey":"mace","page":10,"trial_type":"survey-mace","trial_index":18,"time_elapsed":517312,"internal_node_id":"0.0-18.0","task_version":"prescreen-v0.3","browser_interactions":0,"instructed":0},{"rt":2823.899999976158,"trial_type":"mental-health-alert","trial_index":19,"time_elapsed":520137,"internal_node_id":"0.0-19.0","task_version":"prescreen-v0.3","interactions":"[{\"event\":\"blur\",\"trial\":17,\"time\":450395},{\"event\":\"focus\",\"trial\":17,\"time\":450890},{\"event\":\"blur\",\"trial\":17,\"time\":451265},{\"event\":\"focus\",\"trial\":17,\"time\":451966},{\"event\":\"focus\",\"trial\":17,\"time\":451966}]"}]