[{"view_history":[{"page_index":0,"viewing_time":1229.800000011921},{"page_index":1,"viewing_time":3951.699999988079},{"page_index":2,"viewing_time":2175.800000011921},{"page_index":3,"viewing_time":808}],"rt":8165.899999976158,"trial_type":"instructions","trial_index":0,"time_elapsed":8364,"internal_node_id":"0.0-0.0","task_version":"prescreen-v0.3"},{"rt":11028.700000047684,"responses":{"age":"40","gender-categorical":"Male","gender-free-response":"","ethnicity":"Not Hispanic or Latino","race":["White"],"education":"Master degree or higher","siblings":"1"},"trial_type":"survey-demo","trial_index":1,"time_elapsed":19397,"internal_node_id":"0.0-1.0","task_version":"prescreen-v0.3"},{"responses":{"Q04":"2","Q07":"2","Q18":"2","Q03":"1","Q06":"1","Q11":"3","Q15":"2","Q14":"2","Q16":"0","Q05":"1","Q19":"0","Q10":"2","Q17":"2","Q08":"2","Q21":"3","Q02":"1","Q20":"0","Q12":"2","Q13":"0","Q01":"2","Q09":"3"},"rt":88180.10000002384,"item_order":[3,6,17,2,5,10,14,13,15,4,18,9,16,7,20,1,19,11,12,0,8],"radio_events":[4077.800000011921,6291.400000035763,8243.100000023842,11923,17315.100000023842,18651.30000001192,22026.80000001192,27139,29682.80000001192,33115.30000001192,36258.80000001192,39499.10000002384,45634.5,49067.10000002384,49771.10000002384,52427.200000047684,54979,56098.90000003576,59850.80000001192,65362.700000047684,66850.60000002384,69787.10000002384,73203.10000002384,73923,75602.60000002384,79355.70000004768,81931.10000002384,84850.90000003576,87675.30000001192],"key_events":[],"mouse_events":[4077.800000011921,5171.400000035763,6291.400000035763,7531,8243.100000023842,11194.900000035763,11923,14924,17315.100000023842,18651.30000001192,20875.80000001192,22026.80000001192,25907.200000047684,27139,29682.80000001192,30932.700000047684,32387.200000047684,33115.30000001192,33636.10000002384,36258.80000001192,39499.10000002384,42075,43299,45634.5,47491.200000047684,47933.200000047684,49067.10000002384,49771.10000002384,51684.60000002384,52427.200000047684,53626.90000003576,54979,56098.90000003576,58306.80000001192,59850.80000001192,63162.80000001192,63730.90000003576,65362.700000047684,66234.90000003576,66850.60000002384,68851.40000003576,69339,69787.10000002384,71924.20000004768,73203.10000002384,73923,75602.60000002384,77010.70000004768,77458.70000004768,77898.5,79355.70000004768,81139.40000003576,81931.10000002384,84850.90000003576,87675.30000001192,88178.90000003576],"straightlining":0.47619047619047616,"zigzagging":0.35,"honeypot":0,"survey":"sns","trial_type":"survey-template","trial_index":2,"time_elapsed":107581,"internal_node_id":"0.0-2.0","task_version":"prescreen-v0.3","browser_interactions":0,"infrequency":0},{"responses":{"Q12":"2","Q01":"1","Q13":"0","Q10":"2","Q04":"1","Q08":"2","Q05":"2","Q07":"2","Q02":"1","Q09":"2","Q03":"2","Q06":"2","Q11":"2"},"rt":44229.5,"item_order":[11,0,12,9,3,7,4,6,1,8,2,5,10],"radio_events":[4196.599999964237,7508.399999976158,12980.899999976158,15356.399999976158,21428.5,23940.599999964237,24428.5,26324.599999964237,28524.69999998808,30436.399999976158,31724.599999964237,33924.59999996424,38012.39999997616,38404.30000001192,41940.5],"key_events":[],"mouse_events":[3420.5,4196.599999964237,5476.399999976158,7508.399999976158,12453.099999964237,12980.899999976158,15356.399999976158,18428.69999998808,19964.69999998808,20797.599999964237,21428.5,21916.80000001192,23940.599999964237,24428.5,26324.599999964237,28052.80000001192,28524.69999998808,30436.399999976158,31724.599999964237,33924.59999996424,36340.89999997616,36772.80000001192,38012.39999997616,38404.30000001192,39156.80000001192,41940.5,44228.69999998808],"straightlining":0.6923076923076923,"zigzagging":0.5,"honeypot":0,"survey":"bisbas","trial_type":"survey-template","trial_index":3,"time_elapsed":151812,"internal_node_id":"0.0-3.0","task_version":"prescreen-v0.3","browser_interactions":0,"infrequency":0},{"responses":{"Q01":"2","Q02":"3","Q03":"2"},"rt":9989.100000023842,"radio_events":[5140.400000035763,5868.900000035763,9148.600000023842],"key_events":[],"mouse_events":[2940.600000023842,3700.800000011921,5140.400000035763,5868.900000035763,8654,9148.600000023842,9988.600000023842],"survey":"map","page":1,"trial_type":"survey-map","trial_index":4,"time_elapsed":161804,"internal_node_id":"0.0-4.0","task_version":"prescreen-v0.3","browser_interactions":0},{"responses":{"Q04":"3","Q05":"3","Q06":"2"},"rt":9061.900000035763,"radio_events":[3325.5,6166.900000035763,8583.300000011921],"key_events":[],"mouse_events":[3325.5,5213.400000035763,6166.900000035763,6821.300000011921,8303.300000011921,8583.300000011921,9061.400000035763],"survey":"map","page":2,"trial_type":"survey-map","trial_index":5,"time_elapsed":170867,"internal_node_id":"0.0-5.0","task_version":"prescreen-v0.3","browser_interactions":0},{"responses":{"Q07":"2","Q08":"1","Q09":"2"},"rt":9550.599999964237,"radio_events":[3342.899999976158,6158.799999952316,6774.799999952316],"key_events":[],"mouse_events":[3342.899999976158,3790.099999964237,5438.799999952316,6158.799999952316,6774.799999952316,9207.299999952316,9550.199999988079],"survey":"map","page":3,"trial_type":"survey-map","trial_index":6,"time_elapsed":180419,"internal_node_id":"0.0-6.0","task_version":"prescreen-v0.3","browser_interactions":0},{"responses":{"Q10":"1","Q11":"2","Q12":"1","Q13":"3","Q16":"0","Q14":"3","Q15":"3"},"rt":33334.69999998808,"radio_events":[3174.199999988079,7726,9286.599999964237,9855.099999964237,10518.5,13094.099999964237,15470.399999976158,17119.69999998808,19726.5,22182.19999998808,23494.899999976158,27489],"key_events":[],"mouse_events":[2670.399999976158,3174.199999988079,3878.399999976158,5918.399999976158,6414.199999988079,7726,9286.599999964237,9855.099999964237,10518.5,11510.899999976158,13094.099999964237,13702.699999988079,15470.399999976158,16686.69999998808,17119.69999998808,19726.5,22182.19999998808,23494.899999976158,24862.69999998808,27489,33334.09999996424],"survey":"map","page":4,"trial_type":"survey-map","trial_index":7,"time_elapsed":213755,"internal_node_id":"0.0-7.0","task_version":"prescreen-v0.3","browser_interactions":0,"infrequency":0},{"view_history":[{"page_index":0,"viewing_time":1197.9000000357628},{"page_index":1,"viewing_time":1248.2999999523163}],"rt":2446.699999988079,"trial_type":"instructions","trial_index":8,"time_elapsed":216202,"internal_node_id":"0.0-8.0","task_version":"prescreen-v0.3"},{"responses":{"01":"No","02":"No","03":"No","04":"No","05":"No","06":"No"},"rt":17213.30000001192,"item_order":[0,1,2,3,4,5],"radio_events":[5620.399999976158,7090.099999964237,10203.199999988079,11717.199999988079,13306.599999964237,15114.899999976158],"checkbox_events":[],"key_events":[],"mouse_events":[0.19999998807907104,5620.399999976158,6347,7090.099999964237,8139.399999976158,10203.199999988079,10947.199999988079,11435.5,11717.199999988079,12506.800000011921,13306.599999964237,14763.300000011921,15114.899999976158,17210.899999976158],"honeypot":0,"survey":"mace","page":1,"trial_type":"survey-mace","trial_index":9,"time_elapsed":233422,"internal_node_id":"0.0-9.0","task_version":"prescreen-v0.3","browser_interactions":0},{"responses":{"01":"No","02":"No","03":"No","04":"No","05":"No","06":"No","07":"No","08":"No"},"rt":16013.799999952316,"item_order":[0,1,2,3,4,5,6,7],"radio_events":[2619.399999976158,5268.199999988079,6204.399999976158,8598.299999952316,9234.599999964237,12322.799999952316,13250.599999964237,14012.5],"checkbox_events":[],"key_events":[],"mouse_events":[2619.399999976158,3091,5268.199999988079,5850,6204.399999976158,6802.5,8598.299999952316,9234.599999964237,10234.5,11108.299999952316,11538.5,12322.799999952316,12866.299999952316,13250.599999964237,14012.5,16010.599999964237],"honeypot":0,"survey":"mace","page":2,"trial_type":"survey-mace","trial_index":10,"time_elapsed":249440,"internal_node_id":"0.0-10.0","task_version":"prescreen-v0.3","browser_interactions":0},{"responses":{"01":"No","02":"No","03":"No","04":"No"},"rt":7595.400000035763,"item_order":[0,1,2,3],"radio_events":[3737.699999988079,4537.600000023842,6241.800000011921,6827.600000023842],"checkbox_events":[],"key_events":[],"mouse_events":[1705.300000011921,2961.699999988079,3737.699999988079,4537.600000023842,5161,6241.800000011921,6827.600000023842,7593.699999988079],"honeypot":0,"survey":"mace","page":3,"trial_type":"survey-mace","trial_index":11,"time_elapsed":257037,"internal_node_id":"0.0-11.0","task_version":"prescreen-v0.3","browser_interactions":0},{"responses":{"01":"No","02":"No"},"rt":3925.199999988079,"item_order":[0,1],"radio_events":[2035.800000011921,2731.600000023842],"checkbox_events":[],"key_events":[],"mouse_events":[2035.800000011921,2731.600000023842,3924.699999988079],"honeypot":0,"survey":"mace","page":4,"trial_type":"survey-mace","trial_index":12,"time_elapsed":260964,"internal_node_id":"0.0-12.0","task_version":"prescreen-v0.3","browser_interactions":0},{"responses":{"01":"Yes","01_ages_10":"10","01_ages_12":"12","01_ages_13":"13","01_ages_15":"15","02":"No","03":"No","04":"Yes","04_ages_13":"13","05":"No"},"rt":29469.80000001192,"item_order":[0,1,2,3,4],"radio_events":[5295.100000023842,18236.69999998808,20548.100000023842,23828.30000001192,25245.69999998808,29023.19999998808],"checkbox_events":[10199.5,13989.900000035763,14564.400000035763,15021,25956.100000023842],"key_events":[],"mouse_events":[5295.100000023842,10199.5,13989.900000035763,14564.400000035763,15021,18236.69999998808,20548.100000023842,23828.30000001192,25245.69999998808,25956.100000023842,29023.19999998808,29468.5],"honeypot":0,"survey":"mace","page":5,"trial_type":"survey-mace","trial_index":13,"time_elapsed":290437,"internal_node_id":"0.0-13.0","task_version":"prescreen-v0.3","browser_interactions":0},{"responses":{"01":"No","02":"No","03":"No","04":"Yes","04_ages_6":"6","04_ages_7":"7","04_ages_8":"8","04_ages_9":"9","04_ages_10":"10","05":"Yes","05_ages_10":"10","05_ages_11":"11","05_ages_12":"12","05_ages_13":"13"},"rt":33655.19999998808,"item_order":[0,1,2,3,4],"radio_events":[2188.399999976158,4068.7999999523163,11404.899999976158,20884.899999976158,27748,30228.19999998808],"checkbox_events":[12492.099999964237,12876.799999952316,13694.699999988079,13972.899999976158,15244.699999988079,31662.399999976158,32159,32460.299999952316,32813.69999998808],"key_events":[],"mouse_events":[2188.399999976158,4068.7999999523163,11404.899999976158,12492.099999964237,12876.799999952316,13252,13694.699999988079,13972.899999976158,14380.899999976158,15244.699999988079,20884.899999976158,27748,30228.19999998808,31302.099999964237,31662.399999976158,32159,32460.299999952316,32813.69999998808,33653.89999997616],"honeypot":0,"survey":"mace","page":6,"trial_type":"survey-mace","trial_index":14,"time_elapsed":324093,"internal_node_id":"0.0-14.0","task_version":"prescreen-v0.3","browser_interactions":0},{"responses":{"01":"Yes","01_ages_7":"7","02":"No","03":"Yes","03_ages_8":"8","03_ages_9":"9","03_ages_10":"10","03_ages_11":"11","04":"No","05":"No","06":"No","07":"No"},"rt":18884.80000001192,"item_order":[0,1,2,3,4,5,6],"radio_events":[2124,4211.699999988079,8082.899999976158,9282.899999976158,10660.399999976158,14228.199999988079,15171,17155.099999964237,18507.399999976158],"checkbox_events":[5611.199999988079,11507.5,11764.300000011921,12307.199999988079,12723.300000011921],"key_events":[],"mouse_events":[2124,3156.599999964237,4211.699999988079,5611.199999988079,8082.899999976158,8811.5,9282.899999976158,10380.199999988079,10660.399999976158,11507.5,11764.300000011921,12307.199999988079,12723.300000011921,13790.099999964237,14228.199999988079,15171,16115,17155.099999964237,18507.399999976158,18883.099999964237],"honeypot":0,"survey":"mace","page":7,"trial_type":"survey-mace","trial_index":15,"time_elapsed":342980,"internal_node_id":"0.0-15.0","task_version":"prescreen-v0.3","browser_interactions":0},{"responses":{"01":"Yes","01_ages_8":"8","01_ages_9":"9","01_ages_10":"10","01_ages_11":"11","01_ages_12":"12","01_ages_13":"13","01_ages_14":"14","01_ages_15":"15","02":"Yes","02_ages_8":"8","02_ages_9":"9","02_ages_10":"10","02_ages_11":"11","02_ages_12":"12","02_ages_13":"13","02_ages_14":"14","02_ages_15":"15","02_ages_16":"16","03":"Yes","03_ages_8":"8","03_ages_9":"9","03_ages_10":"10","03_ages_11":"11","03_ages_12":"12","03_ages_13":"13","03_ages_14":"14","03_ages_15":"15","03_ages_16":"16","04":"Yes","04_ages_8":"8","04_ages_9":"9","04_ages_10":"10","04_ages_11":"11","04_ages_12":"12","04_ages_13":"13","04_ages_14":"14","04_ages_15":"15","04_ages_16":"16"},"rt":46918.10000002384,"item_order":[0,1,2,3],"radio_events":[8788.400000035763,14268.800000011921,15300.400000035763,26598.200000047684,35117],"checkbox_events":[10620.300000011921,11020.800000011921,12532.300000011921,16492.5,16924.900000035763,17308.600000023842,18207.5,18781.30000001192,19429.30000001192,20269.600000023842,20719.200000047684,21076.5,21580.5,22060.80000001192,22933.600000023842,23301.30000001192,27661.30000001192,29132.400000035763,29508.5,29996.700000047684,30348.600000023842,30700.600000023842,31380.900000035763,32381.5,37252.700000047684,38516.200000047684,39276.60000002384,40252.5,40564.40000003576,41589,42380.40000003576,43493.200000047684,43871.30000001192,45158.10000002384,45876.80000001192],"key_events":[],"mouse_events":[2116.2000000476837,5740.600000023842,8788.400000035763,10020.700000047684,10620.300000011921,11020.800000011921,11436.600000023842,12532.300000011921,13636.5,14268.800000011921,15030,15300.400000035763,16492.5,16924.900000035763,17308.600000023842,17735.400000035763,18207.5,18781.30000001192,19429.30000001192,19756.100000023842,20269.600000023842,20719.200000047684,21076.5,21580.5,22060.80000001192,22573,22933.600000023842,23301.30000001192,25924.100000023842,26172.200000047684,26598.200000047684,27661.30000001192,27965.400000035763,28668.200000047684,29132.400000035763,29508.5,29996.700000047684,30348.600000023842,30700.600000023842,31069.100000023842,31380.900000035763,31940.600000023842,32381.5,35117,36037.80000001192,36613.40000003576,37252.700000047684,38516.200000047684,39276.60000002384,39796.60000002384,40252.5,40564.40000003576,40949.10000002384,41589,41974.60000002384,42380.40000003576,42948.90000003576,43493.200000047684,43871.30000001192,44508.90000003576,45158.10000002384,45876.80000001192,46916.60000002384],"honeypot":0,"survey":"mace","page":8,"trial_type":"survey-mace","trial_index":16,"time_elapsed":389900,"internal_node_id":"0.0-16.0","task_version":"prescreen-v0.3","browser_interactions":0},{"responses":{"01":"Yes","01_ages_1":"1","01_ages_2":"2","01_ages_3":"3","01_ages_4":"4","01_ages_5":"5","01_ages_6":"6","01_ages_7":"7","01_ages_8":"8","01_ages_9":"9","01_ages_10":"10","01_ages_11":"11","01_ages_12":"12","01_ages_13":"13","01_ages_14":"14","01_ages_15":"15","01_ages_16":"16","01_ages_17":"17","01_ages_18":"18","02":"Yes","02_ages_1":"1","02_ages_2":"2","02_ages_3":"3","02_ages_4":"4","02_ages_5":"5","02_ages_6":"6","02_ages_7":"7","02_ages_8":"8","02_ages_9":"9","02_ages_10":"10","02_ages_11":"11","02_ages_12":"12","02_ages_13":"13","02_ages_14":"14","02_ages_15":"15","02_ages_16":"16","02_ages_17":"17","02_ages_18":"18","03":"Yes","03_ages_1":"1","03_ages_2":"2","03_ages_3":"3","03_ages_4":"4","03_ages_5":"5","03_ages_6":"6","03_ages_7":"7","03_ages_8":"8","03_ages_9":"9","03_ages_10":"10","03_ages_11":"11","03_ages_12":"12","03_ages_13":"13","03_ages_14":"14","03_ages_15":"15","03_ages_16":"16","03_ages_17":"17","03_ages_18":"18","04":"Yes","04_ages_1":"1","04_ages_2":"2","04_ages_3":"3","04_ages_4":"4","04_ages_5":"5","04_ages_6":"6","04_ages_7":"7","04_ages_8":"8","04_ages_9":"9","04_ages_10":"10","04_ages_11":"11","04_ages_12":"12","04_ages_13":"13","04_ages_14":"14","04_ages_15":"15","04_ages_16":"16","04_ages_17":"17","04_ages_18":"18"},"rt":82748.80000001192,"item_order":[0,1,2,3],"radio_events":[6155.800000011921,20860,32315.80000001192,45524.10000002384],"checkbox_events":[10755.5,11708,12019.400000035763,12483.900000035763,13435.699999988079,14003.900000035763,14291.800000011921,14940.100000023842,15323.900000035763,15821.600000023842,16316.5,17220.600000023842,17651.5,18036,18509,18892.30000001192,19291.600000023842,19700.5,22331.69999998808,22811.900000035763,23285.69999998808,23740.100000023842,24436.30000001192,24756,25572.19999998808,26315.5,26885.600000023842,27196.30000001192,28083.69999998808,28435.900000035763,29260.69999998808,29603.900000035763,30117.30000001192,30564.19999998808,31004,31403.900000035763,35596.10000002384,36483.69999998808,36932.80000001192,37251.80000001192,37580.90000003576,38453.40000003576,38772.30000001192,39092.19999998808,39484.60000002384,39915.80000001192,40340.30000001192,40700.69999998808,41035.5,41460,41843.80000001192,42932.19999998808,43420.30000001192,44123.90000003576,58331.60000002384,59387.90000003576,60235.90000003576,60788.80000001192,76508.69999998808,77236.69999998808,77843.5,78180,78539.90000003576,79067.69999998808,79469,79916.5,80285.30000001192,80692.69999998808,81019.19999998808,81548.30000001192,82035.80000001192,82379.40000003576],"key_events":[],"mouse_events":[5820.100000023842,6155.800000011921,10755.5,11396.300000011921,11708,12019.400000035763,12483.900000035763,12819.699999988079,13435.699999988079,13707.699999988079,14003.900000035763,14291.800000011921,14676.100000023842,14940.100000023842,15323.900000035763,15821.600000023842,16316.5,16859.5,17220.600000023842,17651.5,18036,18509,18892.30000001192,19291.600000023842,19700.5,20860,22331.69999998808,22811.900000035763,23285.69999998808,23740.100000023842,24115.69999998808,24436.30000001192,24756,25092.400000035763,25572.19999998808,25932.30000001192,26315.5,26596.19999998808,26885.600000023842,27196.30000001192,27797.100000023842,28083.69999998808,28435.900000035763,28756.5,29260.69999998808,29603.900000035763,30117.30000001192,30564.19999998808,31004,31403.900000035763,32315.80000001192,33748.30000001192,35596.10000002384,35876.5,36483.69999998808,36932.80000001192,37251.80000001192,37580.90000003576,37941.10000002384,38453.40000003576,38772.30000001192,39092.19999998808,39484.60000002384,39915.80000001192,40340.30000001192,40700.69999998808,41035.5,41460,41843.80000001192,42380.5,42932.19999998808,43420.30000001192,43811.69999998808,44123.90000003576,45524.10000002384,58331.60000002384,58692.40000003576,59387.90000003576,60235.90000003576,60508.69999998808,60788.80000001192,76508.69999998808,76979.60000002384,77236.69999998808,77843.5,78180,78539.90000003576,79067.69999998808,79469,79916.5,80285.30000001192,80692.69999998808,81019.19999998808,81548.30000001192,82035.80000001192,82379.40000003576,82747.69999998808],"honeypot":0,"survey":"mace","page":9,"trial_type":"survey-mace","trial_index":17,"time_elapsed":472651,"internal_node_id":"0.0-17.0","task_version":"prescreen-v0.3","browser_interactions":4},{"responses":{"01":"No","02":"No","03":"No","04":"No","05":"No","06":"Yes","06_ages_17":"17","07":"Yes","07_ages_1":"1","07_ages_2":"2","07_ages_3":"3","07_ages_4":"4","07_ages_5":"5","07_ages_6":"6","07_ages_7":"7","07_ages_8":"8","07_ages_9":"9","07_ages_10":"10","07_ages_11":"11","08":"Yes","08_ages_1":"1","08_ages_2":"2","08_ages_3":"3","08_ages_4":"4","08_ages_5":"5","08_ages_6":"6","08_ages_7":"7","08_ages_8":"8","08_ages_9":"9","08_ages_10":"10","08_ages_11":"11"},"rt":84094.60000002384,"item_order":[0,1,2,3,4,5,6,7],"radio_events":[2116.900000035763,2940.5,6054,8663.400000035763,10629.200000047684,11420.700000047684,14133.800000011921,16412.900000035763],"checkbox_events":[12861,18356.900000035763,19189,19565,19853.5,20436.5,20701.200000047684,21180.5,21511.400000035763,21868.30000001192,22517.5,23317.30000001192,23735.900000035763,24004.600000023842,24796.600000023842,25123.900000035763,25532.400000035763,25852.200000047684,26196.600000023842,26980.700000047684,28244.400000035763,28548.700000047684,28916.80000001192,29268.600000023842,29988.400000035763],"key_events":[],"mouse_events":[2116.900000035763,2940.5,6054,6613.100000023842,8663.400000035763,10629.200000047684,11420.700000047684,12861,14133.800000011921,16412.900000035763,18356.900000035763,18636.80000001192,18893.30000001192,19189,19565,19853.5,20436.5,20701.200000047684,21180.5,21511.400000035763,21868.30000001192,22189.400000035763,22517.5,22813.30000001192,23317.30000001192,23735.900000035763,24004.600000023842,24796.600000023842,25123.900000035763,25532.400000035763,25852.200000047684,26196.600000023842,26540.200000047684,26980.700000047684,27252.200000047684,28244.400000035763,28548.700000047684,28916.80000001192,29268.600000023842,29653.100000023842,29988.400000035763,84092.60000002384],"honeypot":0,"survey":"mace","page":10,"trial_type":"survey-mace","trial_index":18,"time_elapsed":556747,"internal_node_id":"0.0-18.0","task_version":"prescreen-v0.3","browser_interactions":2,"instructed":0},{"rt":1764.800000011921,"trial_type":"mental-health-alert","trial_index":19,"time_elapsed":558513,"internal_node_id":"0.0-19.0","task_version":"prescreen-v0.3","interactions":"[{\"event\":\"blur\",\"trial\":17,\"time\":435815},{\"event\":\"focus\",\"trial\":17,\"time\":446222},{\"event\":\"blur\",\"trial\":17,\"time\":451202},{\"event\":\"focus\",\"trial\":17,\"time\":465086},{\"event\":\"blur\",\"trial\":18,\"time\":503266},{\"event\":\"focus\",\"trial\":18,\"time\":553861}]"}]