[{"view_history":[{"page_index":0,"viewing_time":2332.399999976158},{"page_index":1,"viewing_time":1432.7999999523163},{"page_index":2,"viewing_time":3615.9000000953674},{"page_index":3,"viewing_time":1012.1999999284744}],"rt":8394,"trial_type":"instructions","trial_index":0,"time_elapsed":8405,"internal_node_id":"0.0-0.0","task_version":"prescreen-v0.3"},{"rt":15261.5,"responses":{"age":"40","gender-categorical":"Male","gender-free-response":"","ethnicity":"Not Hispanic or Latino","race":["White"],"education":"Bachelor degree","siblings":"1"},"trial_type":"survey-demo","trial_index":1,"time_elapsed":23671,"internal_node_id":"0.0-1.0","task_version":"prescreen-v0.3"},{"responses":{"Q12":"2","Q20":"0","Q09":"1","Q03":"2","Q07":"1","Q14":"1","Q13":"1","Q06":"2","Q11":"1","Q18":"1","Q17":"1","Q10":"0","Q15":"1","Q01":"1","Q08":"2","Q21":"3","Q19":"3","Q16":"2","Q05":"1","Q04":"1","Q02":"0"},"rt":102327.39999997616,"item_order":[11,19,8,2,6,13,12,5,10,17,16,9,14,0,7,20,18,15,4,3,1],"radio_events":[8870.5,11702.199999928474,19237.399999976158,20159.199999928474,26841.5,31102.600000023842,32869.799999952316,54935.39999997616,56890.5,64340.299999952316,67685.5,69786.10000002384,73826.5,76148.39999997616,80737.60000002384,84442.60000002384,86661.39999997616,88028.29999995232,92296.39999997616,97745.10000002384,101640.39999997616],"key_events":[],"mouse_events":[8870.5,11702.199999928474,16697.600000023842,19237.399999976158,20159.199999928474,25809.299999952316,26841.5,31102.600000023842,32869.799999952316,54935.39999997616,56890.5,62679.10000002384,64340.299999952316,67685.5,69786.10000002384,72656,73826.5,76148.39999997616,80737.60000002384,84442.60000002384,86661.39999997616,88028.29999995232,92296.39999997616,96684.29999995232,97745.10000002384,101640.39999997616,102325.5],"straightlining":0.5238095238095238,"zigzagging":0.6,"honeypot":0,"survey":"sns","trial_type":"survey-template","trial_index":2,"time_elapsed":126005,"internal_node_id":"0.0-2.0","task_version":"prescreen-v0.3","browser_interactions":0,"infrequency":0},{"responses":{"Q09":"1","Q04":"2","Q12":"2","Q02":"2","Q05":"2","Q06":"2","Q10":"1","Q11":"2","Q03":"1","Q07":"3","Q01":"3","Q13":"0","Q08":"2"},"rt":69194.20000004768,"item_order":[8,3,11,1,4,5,9,10,2,6,0,12,7],"radio_events":[5941.5,8234.5,14176.899999976158,17892.600000023842,20863.200000047684,24458.300000071526,26692.700000047684,28766.600000023842,34156.5,40738.39999997616,44389.300000071526,47317.5,60544.700000047684,68197.60000002384],"key_events":[],"mouse_events":[5941.5,8234.5,14176.899999976158,17462.700000047684,17892.600000023842,20863.200000047684,23781,24458.300000071526,26692.700000047684,28766.600000023842,33486.60000002384,34156.5,38686.39999997616,40738.39999997616,42568.60000002384,44389.300000071526,47317.5,60544.700000047684,61396.300000071526,66292.5,68197.60000002384,69193.39999997616],"straightlining":0.5384615384615384,"zigzagging":0.4166666666666667,"honeypot":0,"survey":"bisbas","trial_type":"survey-template","trial_index":3,"time_elapsed":195202,"internal_node_id":"0.0-3.0","task_version":"prescreen-v0.3","browser_interactions":0,"infrequency":0},{"responses":{"Q01":"2","Q02":"2","Q03":"2"},"rt":13906.699999928474,"radio_events":[4870.099999904633,9082.099999904633,13055.299999952316],"key_events":[],"mouse_events":[4870.099999904633,9082.099999904633,12690,13055.299999952316,13906.199999928474],"survey":"map","page":1,"trial_type":"survey-map","trial_index":4,"time_elapsed":209111,"internal_node_id":"0.0-4.0","task_version":"prescreen-v0.3","browser_interactions":0},{"responses":{"Q04":"2","Q05":"2","Q06":"2"},"rt":15224.800000071526,"radio_events":[8999.800000071526,12506.300000071526,14399.300000071526],"key_events":[],"mouse_events":[8999.800000071526,12506.300000071526,13456.900000095367,13878.800000071526,14399.300000071526,15224.400000095367],"survey":"map","page":2,"trial_type":"survey-map","trial_index":5,"time_elapsed":224337,"internal_node_id":"0.0-5.0","task_version":"prescreen-v0.3","browser_interactions":0},{"responses":{"Q07":"1","Q08":"4","Q09":"3"},"rt":20288,"radio_events":[5661.399999976158,13997.5,16786.5],"key_events":[],"mouse_events":[5661.399999976158,13997.5,16285.199999928474,16786.5,20287.5],"survey":"map","page":3,"trial_type":"survey-map","trial_index":6,"time_elapsed":244627,"internal_node_id":"0.0-6.0","task_version":"prescreen-v0.3","browser_interactions":0},{"responses":{"Q10":"2","Q11":"1","Q12":"0","Q13":"0","Q16":"0","Q14":"2","Q15":"2"},"rt":27299.799999952316,"radio_events":[5140.799999952316,8226.600000023842,10857.600000023842,14533.399999976158,19818.600000023842,24453.399999976158,26487.399999976158],"key_events":[],"mouse_events":[5140.799999952316,8226.600000023842,10857.600000023842,14533.399999976158,19818.600000023842,24453.399999976158,26487.399999976158,27299],"survey":"map","page":4,"trial_type":"survey-map","trial_index":7,"time_elapsed":271928,"internal_node_id":"0.0-7.0","task_version":"prescreen-v0.3","browser_interactions":0,"infrequency":0},{"view_history":[{"page_index":0,"viewing_time":3381.5},{"page_index":1,"viewing_time":5952.700000047684}],"rt":9334.900000095367,"trial_type":"instructions","trial_index":8,"time_elapsed":281264,"internal_node_id":"0.0-8.0","task_version":"prescreen-v0.3"},{"responses":{"01":"Yes","01_ages_10":"10","01_ages_11":"11","01_ages_12":"12","01_ages_13":"13","01_ages_14":"14","02":"Yes","02_ages_10":"10","02_ages_11":"11","02_ages_12":"12","02_ages_13":"13","02_ages_14":"14","03":"No","04":"No","05":"No","06":"No"},"rt":39448,"item_order":[0,1,2,3,4,5],"radio_events":[3713.7000000476837,15258.200000047684,30140.399999976158,32717.399999976158,35917.39999997616,38643.200000047684],"checkbox_events":[9141.700000047684,9536.5,10114.700000047684,10847.399999976158,11337.399999976158,16433.899999976158,17057,18180.600000023842,18669.600000023842,19387],"key_events":[],"mouse_events":[0.20000004768371582,3713.7000000476837,7905,9141.700000047684,9536.5,10114.700000047684,10484.100000023842,10847.399999976158,11337.399999976158,15258.200000047684,16433.899999976158,17057,17439.300000071526,18180.600000023842,18669.600000023842,19387,30140.399999976158,32717.399999976158,35917.39999997616,38643.200000047684,39446.39999997616],"honeypot":0,"survey":"mace","page":1,"trial_type":"survey-mace","trial_index":9,"time_elapsed":320717,"internal_node_id":"0.0-9.0","task_version":"prescreen-v0.3","browser_interactions":0},{"responses":{"01":"No","02":"No","03":"Yes","03_ages_5":"5","03_ages_6":"6","03_ages_7":"7","03_ages_8":"8","03_ages_9":"9","03_ages_10":"10","04":"No","05":"No","06":"No","07":"No","08":"No"},"rt":24601.5,"item_order":[0,1,2,3,4,5,6,7],"radio_events":[4847.399999976158,5687.099999904633,7342.199999928474,14061,18172.199999928474,19368.599999904633,23017.899999976158,23947.5],"checkbox_events":[8447.799999952316,8948.299999952316,9473,9853.799999952316,10133.399999976158,10814],"key_events":[],"mouse_events":[4847.399999976158,5687.099999904633,7342.199999928474,8447.799999952316,8948.299999952316,9473,9853.799999952316,10133.399999976158,10814,14061,18172.199999928474,19368.599999904633,23017.899999976158,23947.5,24598],"honeypot":0,"survey":"mace","page":2,"trial_type":"survey-mace","trial_index":10,"time_elapsed":345322,"internal_node_id":"0.0-10.0","task_version":"prescreen-v0.3","browser_interactions":0},{"responses":{"01":"No","02":"No","03":"No","04":"No"},"rt":10441.899999976158,"item_order":[0,1,2,3],"radio_events":[7011.199999928474,7604.100000023842,9065.199999928474,10032.799999952316],"checkbox_events":[],"key_events":[],"mouse_events":[5417.299999952316,5857.199999928474,7011.199999928474,7604.100000023842,9065.199999928474,10032.799999952316,10440.600000023842],"honeypot":0,"survey":"mace","page":3,"trial_type":"survey-mace","trial_index":11,"time_elapsed":355765,"internal_node_id":"0.0-11.0","task_version":"prescreen-v0.3","browser_interactions":0},{"responses":{"01":"No","02":"No"},"rt":5579.5,"item_order":[0,1],"radio_events":[3350.5,3983.5],"checkbox_events":[],"key_events":[],"mouse_events":[1755.1000000238419,2646.8000000715256,3350.5,3983.5,5578.900000095367],"honeypot":0,"survey":"mace","page":4,"trial_type":"survey-mace","trial_index":12,"time_elapsed":361347,"internal_node_id":"0.0-12.0","task_version":"prescreen-v0.3","browser_interactions":0},{"responses":{"01":"No","02":"No","03":"No","04":"No","05":"No"},"rt":9846.600000023842,"item_order":[0,1,2,3,4],"radio_events":[3514.2000000476837,4557.600000023842,5421.100000023842,6614.300000071526,8711],"checkbox_events":[],"key_events":[],"mouse_events":[3026.9000000953674,3514.2000000476837,4557.600000023842,5421.100000023842,6614.300000071526,8288.700000047684,8711,9844.5],"honeypot":0,"survey":"mace","page":5,"trial_type":"survey-mace","trial_index":13,"time_elapsed":371196,"internal_node_id":"0.0-13.0","task_version":"prescreen-v0.3","browser_interactions":0},{"responses":{"01":"No","02":"No","03":"No","04":"No","05":"No"},"rt":10366.899999976158,"item_order":[0,1,2,3,4],"radio_events":[4518.199999928474,5216.399999976158,6299.399999976158,7178.899999976158,8455.199999928474],"checkbox_events":[],"key_events":[],"mouse_events":[4518.199999928474,5216.399999976158,6299.399999976158,7178.899999976158,8074.5,8455.199999928474,10365.199999928474],"honeypot":0,"survey":"mace","page":6,"trial_type":"survey-mace","trial_index":14,"time_elapsed":381566,"internal_node_id":"0.0-14.0","task_version":"prescreen-v0.3","browser_interactions":0},{"responses":{"01":"No","02":"No","03":"No","04":"No","05":"No","06":"No","07":"No"},"rt":14843.300000071526,"item_order":[0,1,2,3,4,5,6],"radio_events":[3597.2000000476837,6489.100000023842,7377.900000095367,11227.800000071526,11954.700000047684,13499.5,14020.300000071526],"checkbox_events":[],"key_events":[],"mouse_events":[2581.600000023842,3597.2000000476837,4111.100000023842,4862.900000095367,6489.100000023842,7377.900000095367,11227.800000071526,11954.700000047684,13499.5,14020.300000071526,14840.900000095367],"honeypot":0,"survey":"mace","page":7,"trial_type":"survey-mace","trial_index":15,"time_elapsed":396411,"internal_node_id":"0.0-15.0","task_version":"prescreen-v0.3","browser_interactions":0},{"responses":{"01":"No","02":"No","03":"No","04":"Yes","04_ages_15":"15","04_ages_16":"16","04_ages_17":"17"},"rt":19118.599999904633,"item_order":[0,1,2,3],"radio_events":[4920.899999976158,7840.099999904633,13194.099999904633,15812.899999976158],"checkbox_events":[17286.699999928474,18190.5,18619],"key_events":[],"mouse_events":[4920.899999976158,7840.099999904633,13194.099999904633,15812.899999976158,17286.699999928474,17715.899999976158,18190.5,18619,19117.399999976158],"honeypot":0,"survey":"mace","page":8,"trial_type":"survey-mace","trial_index":16,"time_elapsed":415532,"internal_node_id":"0.0-16.0","task_version":"prescreen-v0.3","browser_interactions":0},{"responses":{"01":"Yes","01_ages_1":"1","01_ages_2":"2","01_ages_3":"3","01_ages_4":"4","01_ages_5":"5","01_ages_6":"6","01_ages_7":"7","01_ages_8":"8","01_ages_9":"9","01_ages_10":"10","01_ages_11":"11","01_ages_12":"12","01_ages_13":"13","01_ages_14":"14","01_ages_15":"15","01_ages_16":"16","01_ages_17":"17","01_ages_18":"18","02":"Yes","02_ages_1":"1","02_ages_2":"2","02_ages_3":"3","02_ages_4":"4","02_ages_5":"5","02_ages_6":"6","02_ages_7":"7","02_ages_8":"8","02_ages_9":"9","02_ages_10":"10","02_ages_11":"11","02_ages_12":"12","02_ages_13":"13","02_ages_14":"14","02_ages_15":"15","02_ages_16":"16","02_ages_17":"17","02_ages_18":"18","03":"Yes","03_ages_1":"1","03_ages_2":"2","03_ages_3":"3","03_ages_4":"4","03_ages_5":"5","03_ages_6":"6","03_ages_7":"7","03_ages_8":"8","03_ages_9":"9","03_ages_10":"10","03_ages_11":"11","03_ages_12":"12","03_ages_13":"13","03_ages_14":"14","03_ages_15":"15","03_ages_16":"16","03_ages_17":"17","03_ages_18":"18","04":"Yes","04_ages_1":"1","04_ages_2":"2","04_ages_3":"3","04_ages_4":"4","04_ages_5":"5","04_ages_6":"6","04_ages_7":"7","04_ages_8":"8","04_ages_9":"9","04_ages_10":"10","04_ages_11":"11","04_ages_12":"12","04_ages_13":"13","04_ages_14":"14","04_ages_15":"15","04_ages_16":"16","04_ages_17":"17","04_ages_18":"18"},"rt":63746.5,"item_order":[0,1,2,3],"radio_events":[5221.600000023842,20696.5,34653.699999928474,51026.60000002384],"checkbox_events":[7606.600000023842,8330.899999976158,9074,9352.699999928474,9768.299999952316,10251.5,11068.899999976158,12062.100000023842,12893.699999928474,13450.600000023842,13982.799999952316,14875.100000023842,15435.899999976158,16046.399999976158,16815.600000023842,17295.100000023842,17712.5,18151.600000023842,21594.100000023842,21943,23044.199999928474,23391.299999952316,24114,24390.699999928474,24903.699999928474,25294.799999952316,26050,26395.899999976158,26848.100000023842,27503,27953.199999928474,28600.600000023842,29038.799999952316,29473.799999952316,30470.600000023842,30896.399999976158,31692.5,32190.299999952316,35796,36300.699999928474,38712.60000002384,39317.199999928474,39967.10000002384,40437.199999928474,40880.699999928474,41353.10000002384,41761.10000002384,42255.10000002384,43066.5,43719.39999997616,44358.89999997616,44997.799999952316,45769.699999928474,46383.699999928474,46965.5,47674.699999928474,52968.5,53933.699999928474,54550.60000002384,54944.699999928474,55784.39999997616,56388.60000002384,57027.199999928474,57656.10000002384,58069.699999928474,58789.799999952316,59170.699999928474,59966.699999928474,60539.799999952316,60919.60000002384,61411.799999952316,61997.799999952316,62447.299999952316,63024.60000002384],"key_events":[],"mouse_events":[5221.600000023842,7606.600000023842,8330.899999976158,8639.699999928474,9074,9352.699999928474,9768.299999952316,10251.5,10560.5,11068.899999976158,11349.399999976158,11758.899999976158,12062.100000023842,12640.5,12893.699999928474,13450.600000023842,13982.799999952316,14875.100000023842,15435.899999976158,16046.399999976158,16815.600000023842,17295.100000023842,17712.5,18151.600000023842,20358.100000023842,20696.5,21594.100000023842,21943,22342.100000023842,22691.699999928474,23044.199999928474,23391.299999952316,24114,24390.699999928474,24903.699999928474,25294.799999952316,26050,26395.899999976158,26848.100000023842,27503,27953.199999928474,28600.600000023842,29038.799999952316,29473.799999952316,29927.5,30470.600000023842,30896.399999976158,31294.699999928474,31692.5,32190.299999952316,34653.699999928474,35796,36300.699999928474,38712.60000002384,39317.199999928474,39967.10000002384,40437.199999928474,40880.699999928474,41353.10000002384,41761.10000002384,42255.10000002384,42675.60000002384,43066.5,43719.39999997616,44358.89999997616,44997.799999952316,45769.699999928474,46383.699999928474,46965.5,47674.699999928474,51026.60000002384,52968.5,53557.39999997616,53933.699999928474,54550.60000002384,54944.699999928474,55459.699999928474,55784.39999997616,56388.60000002384,57027.199999928474,57656.10000002384,58069.699999928474,58789.799999952316,59170.699999928474,59966.699999928474,60539.799999952316,60919.60000002384,61411.799999952316,61997.799999952316,62447.299999952316,63024.60000002384,63744.799999952316],"honeypot":0,"survey":"mace","page":9,"trial_type":"survey-mace","trial_index":17,"time_elapsed":479280,"internal_node_id":"0.0-17.0","task_version":"prescreen-v0.3","browser_interactions":0},{"responses":{"01":"No","02":"No","03":"No","04":"No","05":"No","06":"Yes","06_ages_17":"17","07":"Yes","07_ages_1":"1","07_ages_2":"2","07_ages_3":"3","07_ages_4":"4","07_ages_5":"5","07_ages_6":"6","07_ages_7":"7","07_ages_8":"8","07_ages_9":"9","07_ages_10":"10","07_ages_11":"11","07_ages_12":"12","07_ages_13":"13","07_ages_14":"14","07_ages_15":"15","07_ages_16":"16","07_ages_17":"17","07_ages_18":"18","08":"Yes","08_ages_1":"1","08_ages_2":"2","08_ages_3":"3","08_ages_4":"4","08_ages_5":"5","08_ages_6":"6","08_ages_7":"7","08_ages_8":"8","08_ages_9":"9","08_ages_10":"10","08_ages_11":"11","08_ages_12":"12","08_ages_13":"13","08_ages_14":"14","08_ages_15":"15","08_ages_16":"16","08_ages_17":"17","08_ages_18":"18"},"rt":51555.39999997616,"item_order":[0,1,2,3,4,5,6,7],"radio_events":[2699.899999976158,3664.899999976158,5352.899999976158,7377.799999952316,9194.600000023842,11702.299999952316,19481.399999976158,36566.699999928474],"checkbox_events":[13120.299999952316,21123.399999976158,21751,22333.299999952316,22804.799999952316,23279.100000023842,23975.899999976158,25160.5,25536.899999976158,27821.799999952316,29026.899999976158,29561.199999928474,30025,30733.399999976158,31293.799999952316,32582.699999928474,33417,34228.299999952316,34641.699999928474,38050.299999952316,38390.299999952316,39137.799999952316,39718.699999928474,41324.60000002384,41828.39999997616,42613.799999952316,43494.5,44005.699999928474,45211.5,45964.199999928474,46455.799999952316,47341.10000002384,48229.799999952316,48938.799999952316,49585.89999997616,50081.699999928474,50499.699999928474],"key_events":[],"mouse_events":[2699.899999976158,3664.899999976158,5352.899999976158,6462.699999928474,7377.799999952316,9194.600000023842,11702.299999952316,13120.299999952316,18763.699999928474,19481.399999976158,21123.399999976158,21751,22333.299999952316,22804.799999952316,23279.100000023842,23609.899999976158,23975.899999976158,24275.799999952316,24673.299999952316,25160.5,25536.899999976158,26572.699999928474,27253.199999928474,27821.799999952316,28638.100000023842,29026.899999976158,29561.199999928474,30025,30733.399999976158,31293.799999952316,32130.799999952316,32582.699999928474,33417,34228.299999952316,34641.699999928474,36566.699999928474,37570.10000002384,38050.299999952316,38390.299999952316,39137.799999952316,39718.699999928474,40195.299999952316,40534.89999997616,40977.60000002384,41324.60000002384,41828.39999997616,42290.199999928474,42613.799999952316,43494.5,44005.699999928474,45211.5,45964.199999928474,46455.799999952316,46946.799999952316,47341.10000002384,47866.60000002384,48229.799999952316,48938.799999952316,49585.89999997616,50081.699999928474,50499.699999928474,51553.199999928474],"honeypot":0,"survey":"mace","page":10,"trial_type":"survey-mace","trial_index":18,"time_elapsed":530840,"internal_node_id":"0.0-18.0","task_version":"prescreen-v0.3","browser_interactions":0,"instructed":0},{"rt":4790.5,"trial_type":"mental-health-alert","trial_index":19,"time_elapsed":535631,"internal_node_id":"0.0-19.0","task_version":"prescreen-v0.3","interactions":"[]"}]