[{"view_history":[{"page_index":0,"viewing_time":2223.7000000476837},{"page_index":1,"viewing_time":2262.600000023842},{"page_index":2,"viewing_time":2856.1999999284744},{"page_index":3,"viewing_time":967.8000000715256}],"rt":8310.800000071526,"trial_type":"instructions","trial_index":0,"time_elapsed":8320,"internal_node_id":"0.0-0.0","task_version":"prescreen-v0.3"},{"rt":14140.099999904633,"responses":{"age":"23","gender-categorical":"Female","gender-free-response":"","ethnicity":"Not Hispanic or Latino","race":["Native Hawaiian or other Pacific Islander","White"],"education":"Associate degree"},"trial_type":"survey-demo","trial_index":1,"time_elapsed":22464,"internal_node_id":"0.0-1.0","task_version":"prescreen-v0.3"},{"responses":{"Q12":"2","Q02":"2","Q08":"1","Q11":"1","Q06":"1","Q07":"0","Q19":"2","Q01":"2","Q14":"3","Q04":"2","Q20":"1","Q15":"3","Q03":"2","Q21":"3","Q10":"0","Q13":"3","Q05":"1","Q18":"2","Q09":"1","Q17":"1","Q16":"3"},"rt":81108.5,"item_order":[11,1,7,10,5,6,18,0,13,3,19,14,2,20,9,12,4,17,8,16,15],"radio_events":[8162.899999976158,12770.800000071526,16570.600000023842,19994.600000023842,23306.700000047684,28482.399999976158,34610.5,37138.800000071526,39594.60000002384,41922.39999997616,44738.5,48314.700000047684,52106.39999997616,54171.39999997616,58850.5,60570.39999997616,61354.39999997616,64634.39999997616,69026.20000004768,72410.39999997616,77746.10000002384,79818.30000007153],"key_events":[],"mouse_events":[8162.899999976158,12770.800000071526,16570.600000023842,19994.600000023842,23306.700000047684,28482.399999976158,32835,34610.5,37138.800000071526,38946.800000071526,39594.60000002384,41922.39999997616,44738.5,48314.700000047684,52106.39999997616,54171.39999997616,58850.5,60570.39999997616,61354.39999997616,64634.39999997616,69026.20000004768,72410.39999997616,77746.10000002384,79818.30000007153,81106.70000004768],"straightlining":0.3333333333333333,"zigzagging":0.55,"honeypot":0,"survey":"sns","trial_type":"survey-template","trial_index":2,"time_elapsed":103578,"internal_node_id":"0.0-2.0","task_version":"prescreen-v0.3","browser_interactions":0,"infrequency":0},{"responses":{"Q06":"3","Q05":"3","Q04":"3","Q03":"3","Q07":"3","Q02":"3","Q01":"3","Q11":"1","Q12":"1","Q09":"1","Q10":"1","Q08":"2","Q13":"0"},"rt":47690.40000009537,"item_order":[5,4,3,2,6,1,0,10,11,8,9,7,12],"radio_events":[7233.400000095367,14497.400000095367,16145.5,18353.400000095367,22097.400000095367,25065.400000095367,25785.300000071526,27121.400000095367,31300.800000071526,33761.10000002384,36201.10000002384,41409.300000071526,44353.200000047684,46257.10000002384],"key_events":[],"mouse_events":[7233.400000095367,14497.400000095367,16145.5,17857.700000047684,18353.400000095367,22097.400000095367,24145.5,25065.400000095367,25505.600000023842,25785.300000071526,26505.200000047684,27121.400000095367,31300.800000071526,33761.10000002384,36201.10000002384,41409.300000071526,43801.5,44353.200000047684,45753.10000002384,46257.10000002384,47689.5],"straightlining":0.5384615384615384,"zigzagging":0.08333333333333333,"honeypot":0,"survey":"bisbas","trial_type":"survey-template","trial_index":3,"time_elapsed":151272,"internal_node_id":"0.0-3.0","task_version":"prescreen-v0.3","browser_interactions":0,"infrequency":0},{"responses":{"Q01":"1","Q02":"1","Q03":"3"},"rt":21243.900000095367,"radio_events":[6203.200000047684,15003.100000023842,17883.100000023842],"key_events":[],"mouse_events":[6203.200000047684,14187.100000023842,15003.100000023842,17883.100000023842,21243.400000095367],"survey":"map","page":1,"trial_type":"survey-map","trial_index":4,"time_elapsed":172519,"internal_node_id":"0.0-4.0","task_version":"prescreen-v0.3","browser_interactions":0},{"responses":{"Q04":"3","Q05":"2","Q06":"2"},"rt":15125.300000071526,"radio_events":[5508.600000023842,10436.600000023842,14268.5],"key_events":[],"mouse_events":[5508.600000023842,10436.600000023842,13684.800000071526,14268.5,15124.800000071526],"survey":"map","page":2,"trial_type":"survey-map","trial_index":5,"time_elapsed":187647,"internal_node_id":"0.0-5.0","task_version":"prescreen-v0.3","browser_interactions":0},{"responses":{"Q07":"1","Q08":"2","Q09":"1"},"rt":16453.899999976158,"radio_events":[7085.299999952316,10821.100000023842,14869.200000047684],"key_events":[],"mouse_events":[7085.299999952316,10397.5,10821.100000023842,14869.200000047684,16453.5],"survey":"map","page":3,"trial_type":"survey-map","trial_index":6,"time_elapsed":204103,"internal_node_id":"0.0-6.0","task_version":"prescreen-v0.3","browser_interactions":0},{"responses":{"Q10":"2","Q11":"0","Q12":"1","Q13":"0","Q16":"0","Q14":"3","Q15":"3"},"rt":75261.69999992847,"radio_events":[4101.099999904633,6149.099999904633,6701.099999904633,48236.89999997616,54740.89999997616,59172.699999928474,73996.79999995232,74812.69999992847],"key_events":[],"mouse_events":[4101.099999904633,6149.099999904633,6701.099999904633,11708.799999952316,48236.89999997616,54341.09999990463,54740.89999997616,58484.89999997616,59172.699999928474,73996.79999995232,74445,74812.69999992847,75260.89999997616],"survey":"map","page":4,"trial_type":"survey-map","trial_index":7,"time_elapsed":279367,"internal_node_id":"0.0-7.0","task_version":"prescreen-v0.3","browser_interactions":2,"infrequency":0},{"view_history":[{"page_index":0,"viewing_time":8364.600000023842},{"page_index":1,"viewing_time":2223.7999999523163}],"rt":10589,"trial_type":"instructions","trial_index":8,"time_elapsed":289958,"internal_node_id":"0.0-8.0","task_version":"prescreen-v0.3"},{"responses":{"01":"Yes","01_ages_8":"8","01_ages_9":"9","01_ages_10":"10","01_ages_11":"11","01_ages_12":"12","01_ages_13":"13","01_ages_14":"14","01_ages_15":"15","02":"Yes","02_ages_8":"8","02_ages_9":"9","02_ages_10":"10","02_ages_11":"11","02_ages_12":"12","02_ages_13":"13","02_ages_14":"14","02_ages_15":"15","02_ages_16":"16","02_ages_17":"17","03":"Yes","03_ages_8":"8","03_ages_9":"9","03_ages_10":"10","03_ages_11":"11","03_ages_12":"12","03_ages_13":"13","04":"No","05":"No","06":"No"},"rt":61292.39999997616,"item_order":[0,1,2,3,4,5],"radio_events":[8017.5,26881.399999976158,45569.39999997616,46641.39999997616,48242.5,49921.200000047684,53041.200000047684],"checkbox_events":[16633.799999952316,17057.399999976158,17441.5,17817.399999976158,18297.600000023842,18801.200000047684,21626.100000023842,22897.399999976158,28513.600000023842,28873.399999976158,30369.5,30706.399999976158,31065.299999952316,31497.399999976158,33537.89999997616,33889.299999952316,34465.39999997616,35321.39999997616,56282.10000002384,57033.39999997616,57305,57833.10000002384,58273.299999952316,60377.200000047684],"key_events":[],"mouse_events":[1.2999999523162842,3113,8017.5,16633.799999952316,17057.399999976158,17441.5,17817.399999976158,18297.600000023842,18801.200000047684,21626.100000023842,22897.399999976158,26881.399999976158,28513.600000023842,28873.399999976158,29201.799999952316,29481.5,30097.700000047684,30369.5,30706.399999976158,31065.299999952316,31497.399999976158,33242.5,33537.89999997616,33889.299999952316,34465.39999997616,34977.700000047684,35321.39999997616,45569.39999997616,46641.39999997616,48242.5,49921.200000047684,52785.10000002384,53041.200000047684,56282.10000002384,56633.700000047684,57033.39999997616,57305,57833.10000002384,58273.299999952316,60377.200000047684,61289.89999997616],"honeypot":0,"survey":"mace","page":1,"trial_type":"survey-mace","trial_index":9,"time_elapsed":351258,"internal_node_id":"0.0-9.0","task_version":"prescreen-v0.3","browser_interactions":2},{"responses":{"01":"No","02":"No","03":"Yes","03_ages_7":"7","03_ages_8":"8","03_ages_9":"9","03_ages_10":"10","03_ages_11":"11","03_ages_12":"12","04":"No","05":"Yes","05_ages_7":"7","05_ages_8":"8","05_ages_9":"9","05_ages_10":"10","05_ages_11":"11","05_ages_12":"12","06":"No","07":"No","08":"No"},"rt":36475.800000071526,"item_order":[0,1,2,3,4,5,6,7],"radio_events":[6536.399999976158,8544.399999976158,9728.300000071526,21649.100000023842,26664.100000023842,33912.200000047684,34792.10000002384,35976],"checkbox_events":[12888.399999976158,13400.399999976158,14072.300000071526,14632.100000023842,18128.300000071526,19552.300000071526,28480.700000047684,29104.200000047684,29936.700000047684,30768.200000047684,31216.200000047684,31688.200000047684],"key_events":[],"mouse_events":[6536.399999976158,8544.399999976158,9728.300000071526,12888.399999976158,13400.399999976158,13744.800000071526,14072.300000071526,14632.100000023842,15240.700000047684,15752.399999976158,18128.300000071526,19104.700000047684,19552.300000071526,21649.100000023842,26664.100000023842,28480.700000047684,29104.200000047684,29936.700000047684,30376.899999976158,30768.200000047684,31216.200000047684,31688.200000047684,33912.200000047684,34344.39999997616,34792.10000002384,35976,36472.800000071526],"honeypot":0,"survey":"mace","page":2,"trial_type":"survey-mace","trial_index":10,"time_elapsed":387738,"internal_node_id":"0.0-10.0","task_version":"prescreen-v0.3","browser_interactions":0},{"responses":{"01":"No","02":"No","03":"No","04":"No"},"rt":13994,"item_order":[0,1,2,3],"radio_events":[6632.399999976158,11056.5,13200.299999952316,13552.199999928474],"checkbox_events":[],"key_events":[],"mouse_events":[6632.399999976158,11056.5,12016.599999904633,12720.199999928474,13200.299999952316,13552.199999928474,13992.399999976158],"honeypot":0,"survey":"mace","page":3,"trial_type":"survey-mace","trial_index":11,"time_elapsed":401735,"internal_node_id":"0.0-11.0","task_version":"prescreen-v0.3","browser_interactions":0},{"responses":{"01":"No","02":"No"},"rt":6836.5,"item_order":[0,1],"radio_events":[3595.399999976158,6059.299999952316],"checkbox_events":[],"key_events":[],"mouse_events":[3595.399999976158,4307.600000023842,4955.200000047684,6059.299999952316,6835.600000023842],"honeypot":0,"survey":"mace","page":4,"trial_type":"survey-mace","trial_index":12,"time_elapsed":408574,"internal_node_id":"0.0-12.0","task_version":"prescreen-v0.3","browser_interactions":0},{"responses":{"01":"Yes","01_ages_7":"7","01_ages_8":"8","01_ages_9":"9","01_ages_10":"10","01_ages_11":"11","01_ages_12":"12","01_ages_13":"13","02":"No","03":"No","04":"No","05":"No"},"rt":35974.200000047684,"item_order":[0,1,2,3,4],"radio_events":[6860.100000023842,22788.100000023842,32171.899999976158,34131.89999997616,35523.89999997616],"checkbox_events":[11339.899999976158,11692.100000023842,12116.100000023842,12860,13548,14084,16540.200000047684],"key_events":[],"mouse_events":[3067.8000000715256,6860.100000023842,11044.399999976158,11339.899999976158,11692.100000023842,12116.100000023842,12525,12860,13548,14084,16540.200000047684,22788.100000023842,32171.899999976158,34131.89999997616,35044,35523.89999997616,35972.300000071526],"honeypot":0,"survey":"mace","page":5,"trial_type":"survey-mace","trial_index":13,"time_elapsed":444552,"internal_node_id":"0.0-13.0","task_version":"prescreen-v0.3","browser_interactions":0},{"responses":{"01":"Yes","01_ages_7":"7","01_ages_8":"8","02":"No","03":"No","04":"No","05":"No"},"rt":43612.5,"item_order":[0,1,2,3,4],"radio_events":[12018.399999976158,36146.10000002384,40074.10000002384,41970.10000002384,43050],"checkbox_events":[30306.399999976158,30618.100000023842],"key_events":[],"mouse_events":[12018.399999976158,30306.399999976158,30618.100000023842,36146.10000002384,40074.10000002384,41970.10000002384,43050,43610.5],"honeypot":0,"survey":"mace","page":6,"trial_type":"survey-mace","trial_index":14,"time_elapsed":488168,"internal_node_id":"0.0-14.0","task_version":"prescreen-v0.3","browser_interactions":0},{"responses":{"01":"No","02":"No","03":"No","04":"No","05":"No","06":"No","07":"No"},"rt":11172.5,"item_order":[0,1,2,3,4,5,6],"radio_events":[3425.5999999046326,4825.399999976158,5801.399999976158,7017.399999976158,8641.299999952316,9961.299999952316,10753.399999976158],"checkbox_events":[],"key_events":[],"mouse_events":[3425.5999999046326,4825.399999976158,5801.399999976158,7017.399999976158,7898.199999928474,8641.299999952316,9409.5,9961.299999952316,10434.099999904633,10753.399999976158,11169.799999952316],"honeypot":0,"survey":"mace","page":7,"trial_type":"survey-mace","trial_index":15,"time_elapsed":499346,"internal_node_id":"0.0-15.0","task_version":"prescreen-v0.3","browser_interactions":0},{"responses":{"01":"No","02":"Yes","02_ages_7":"7","02_ages_8":"8","02_ages_9":"9","02_ages_10":"10","02_ages_11":"11","02_ages_12":"12","02_ages_13":"13","02_ages_14":"14","02_ages_15":"15","02_ages_16":"16","02_ages_17":"17","02_ages_18":"18","03":"Yes","03_ages_7":"7","03_ages_8":"8","03_ages_9":"9","03_ages_10":"10","03_ages_11":"11","03_ages_12":"12","03_ages_13":"13","03_ages_14":"14","03_ages_15":"15","03_ages_16":"16","03_ages_17":"17","03_ages_18":"18","04":"No"},"rt":45721.699999928474,"item_order":[0,1,2,3],"radio_events":[7008.600000023842,10256.399999976158,27256.399999976158,45328.299999952316],"checkbox_events":[20656.399999976158,20952,21368.299999952316,21712.299999952316,22072.5,22353.299999952316,23008.600000023842,23288.899999976158,23609.299999952316,23944.899999976158,24240.299999952316,24600.699999928474,30472.100000023842,30744.5,31088.600000023842,31400.899999976158,31728.799999952316,32056.299999952316,32424.199999928474,34168.299999952316,34568.199999928474,34920.299999952316,35392.199999928474,36488.199999928474],"key_events":[],"mouse_events":[7008.600000023842,10256.399999976158,20656.399999976158,20952,21368.299999952316,21712.299999952316,22072.5,22353.299999952316,22672.699999928474,23008.600000023842,23288.899999976158,23609.299999952316,23944.899999976158,24240.299999952316,24600.699999928474,27256.399999976158,28976.799999952316,29480.5,29944.299999952316,30264,30472.100000023842,30744.5,31088.600000023842,31400.899999976158,31728.799999952316,32056.299999952316,32424.199999928474,32760.399999976158,33136.39999997616,33504.10000002384,34168.299999952316,34568.199999928474,34920.299999952316,35392.199999928474,35776.5,36488.199999928474,44695.89999997616,45328.299999952316,45720.199999928474],"honeypot":0,"survey":"mace","page":8,"trial_type":"survey-mace","trial_index":16,"time_elapsed":545071,"internal_node_id":"0.0-16.0","task_version":"prescreen-v0.3","browser_interactions":0},{"responses":{"01":"No","02":"No","03":"Yes","03_ages_1":"1","03_ages_2":"2","03_ages_3":"3","03_ages_4":"4","03_ages_5":"5","03_ages_6":"6","03_ages_7":"7","03_ages_8":"8","03_ages_9":"9","03_ages_10":"10","03_ages_11":"11","03_ages_12":"12","03_ages_13":"13","03_ages_14":"14","03_ages_15":"15","03_ages_16":"16","03_ages_17":"17","03_ages_18":"18","04":"Yes","04_ages_1":"1","04_ages_2":"2","04_ages_3":"3","04_ages_4":"4","04_ages_5":"5","04_ages_6":"6","04_ages_7":"7","04_ages_8":"8","04_ages_9":"9","04_ages_10":"10","04_ages_11":"11","04_ages_12":"12","04_ages_13":"13","04_ages_14":"14","04_ages_15":"15","04_ages_16":"16","04_ages_17":"17","04_ages_18":"18"},"rt":42308.700000047684,"item_order":[0,1,2,3],"radio_events":[7058.799999952316,8338.799999952316,12234.600000023842,13850.700000047684,29402.799999952316],"checkbox_events":[16898.799999952316,17338.799999952316,17826.799999952316,18202.700000047684,19906.700000047684,20234.600000023842,20962.700000047684,21298.700000047684,22050.700000047684,22402.700000047684,22907.200000047684,23394.700000047684,24098.799999952316,25338.399999976158,25946.700000047684,26299.200000047684,26539.100000023842,27139.100000023842,27442.600000023842,28138.600000023842,31978.600000023842,32475,32875.200000047684,33314.799999952316,33642.700000047684,34642.700000047684,34962.700000047684,35315.299999952316,35618.700000047684,35963.39999997616,36338.60000002384,36682.5,37035.10000002384,37379.10000002384,38258.60000002384,39130.700000047684,40026.799999952316,40290.700000047684,40850.60000002384,41178.700000047684],"key_events":[],"mouse_events":[7058.799999952316,8338.799999952316,12234.600000023842,13850.700000047684,16898.799999952316,17338.799999952316,17826.799999952316,18202.700000047684,18563,19187,19594.799999952316,19906.700000047684,20234.600000023842,20651.799999952316,20962.700000047684,21298.700000047684,21795.299999952316,22050.700000047684,22402.700000047684,22907.200000047684,23394.700000047684,23707.5,24098.799999952316,24723.100000023842,25338.399999976158,25643.600000023842,25946.700000047684,26299.200000047684,26539.100000023842,26803,27139.100000023842,27442.600000023842,27826.799999952316,28138.600000023842,29402.799999952316,31978.600000023842,32475,32875.200000047684,33314.799999952316,33642.700000047684,34642.700000047684,34962.700000047684,35315.299999952316,35618.700000047684,35963.39999997616,36338.60000002384,36682.5,37035.10000002384,37379.10000002384,37706.39999997616,38003.5,38258.60000002384,38555.10000002384,39130.700000047684,39747.200000047684,40026.799999952316,40290.700000047684,40586.799999952316,40850.60000002384,41178.700000047684,41987.10000002384,42307.10000002384],"honeypot":0,"survey":"mace","page":9,"trial_type":"survey-mace","trial_index":17,"time_elapsed":587383,"internal_node_id":"0.0-17.0","task_version":"prescreen-v0.3","browser_interactions":0},{"responses":{"01":"No","02":"No","03":"No","04":"No","05":"No","06":"Yes","06_ages_17":"17","07":"Yes","07_ages_9":"9","07_ages_10":"10","07_ages_11":"11","07_ages_12":"12","07_ages_13":"13","07_ages_14":"14","07_ages_15":"15","07_ages_16":"16","07_ages_17":"17","07_ages_18":"18","08":"Yes","08_ages_15":"15","08_ages_16":"16","08_ages_17":"17","08_ages_18":"18"},"rt":54380.89999997616,"item_order":[0,1,2,3,4,5,6,7],"radio_events":[3465.5,4801.899999976158,7409.700000047684,8161.700000047684,10761.700000047684,12785.700000047684,19665.5,44097.5],"checkbox_events":[14137.700000047684,24025.700000047684,24513.299999952316,26113.600000023842,26481.600000023842,29945.5,30929.5,35185.60000002384,35513.5,35865.5,36209.60000002384,38225.39999997616,39025.39999997616,40009.5,40449.39999997616,40777.39999997616,41425.39999997616,46705.39999997616,48561.39999997616,48985.60000002384,49329.5,49713.39999997616,50050.39999997616,51153.39999997616,52209.39999997616,52601.39999997616,53833.39999997616],"key_events":[],"mouse_events":[3465.5,4801.899999976158,6490.299999952316,7154.100000023842,7409.700000047684,8161.700000047684,10761.700000047684,12785.700000047684,14137.700000047684,19665.5,24025.700000047684,24513.299999952316,25385.399999976158,26113.600000023842,26481.600000023842,29945.5,30330.100000023842,30929.5,35185.60000002384,35513.5,35865.5,36209.60000002384,36545.700000047684,37114.39999997616,37762,38225.39999997616,38545.89999997616,39025.39999997616,39730.200000047684,40009.5,40449.39999997616,40777.39999997616,41042.700000047684,41425.39999997616,44097.5,46705.39999997616,47042,47641.39999997616,48282,48561.39999997616,48985.60000002384,49329.5,49713.39999997616,50050.39999997616,50521.299999952316,50801.799999952316,51153.39999997616,51553.700000047684,52209.39999997616,52601.39999997616,53562.700000047684,53833.39999997616,54378],"honeypot":0,"survey":"mace","page":10,"trial_type":"survey-mace","trial_index":18,"time_elapsed":641770,"internal_node_id":"0.0-18.0","task_version":"prescreen-v0.3","browser_interactions":0,"instructed":0},{"rt":3777.3000000715256,"trial_type":"mental-health-alert","trial_index":19,"time_elapsed":645549,"internal_node_id":"0.0-19.0","task_version":"prescreen-v0.3","interactions":"[{\"event\":\"blur\",\"trial\":7,\"time\":215044},{\"event\":\"focus\",\"trial\":7,\"time\":215756},{\"event\":\"blur\",\"trial\":9,\"time\":290893},{\"event\":\"focus\",\"trial\":9,\"time\":292986}]"}]