[{"view_history":[{"page_index":0,"viewing_time":2392.899999976158},{"page_index":1,"viewing_time":3986.4000000059605},{"page_index":2,"viewing_time":3282.7000000178814},{"page_index":3,"viewing_time":900.1999999880791}],"rt":10563,"trial_type":"instructions","trial_index":0,"time_elapsed":10574,"internal_node_id":"0.0-0.0","task_version":"prescreen-v0.3"},{"rt":22545.29999998212,"responses":{"age":"19","gender-categorical":"Female","gender-free-response":"","ethnicity":"Not Hispanic or Latino","race":["White"],"education":"High school"},"trial_type":"survey-demo","trial_index":1,"time_elapsed":33127,"internal_node_id":"0.0-1.0","task_version":"prescreen-v0.3"},{"responses":{"Q04":"2","Q09":"3","Q10":"3","Q17":"1","Q05":"1","Q21":"3","Q07":"0","Q14":"2","Q01":"1","Q02":"1","Q15":"2","Q18":"2","Q19":"2","Q08":"1","Q06":"1","Q13":"3","Q12":"2","Q11":"2","Q03":"0","Q16":"1","Q20":"0"},"rt":139497.5,"item_order":[3,8,9,16,4,20,6,13,0,1,14,17,18,7,5,12,11,10,2,15,19],"radio_events":[16542,24092.40000000596,29296.90000000596,33729.69999998808,34538.90000000596,43106.69999998808,46519.40000000596,52670.80000001192,77361.09999999404,81967.19999998808,85202.19999998808,88969,95256.69999998808,101013.30000001192,104455.09999999404,108802.5,112851.09999999404,113779.19999998808,118195,121438,125121,129897.09999999404,132627],"key_events":[],"mouse_events":[16542,24092.40000000596,29296.90000000596,33729.69999998808,34538.90000000596,40925.59999999404,43106.69999998808,46519.40000000596,52670.80000001192,77361.09999999404,81967.19999998808,85202.19999998808,88969,94369.19999998808,95256.69999998808,100192.30000001192,101013.30000001192,104455.09999999404,108802.5,112851.09999999404,113779.19999998808,118195,120539.59999999404,121438,125121,129897.09999999404,132627,139494.80000001192],"straightlining":0.3333333333333333,"zigzagging":0.4,"honeypot":0,"survey":"sns","trial_type":"survey-template","trial_index":2,"time_elapsed":172635,"internal_node_id":"0.0-2.0","task_version":"prescreen-v0.3","browser_interactions":0,"infrequency":0},{"responses":{"Q01":"3","Q10":"2","Q08":"2","Q05":"2","Q03":"3","Q11":"1","Q06":"2","Q13":"0","Q04":"3","Q12":"1","Q02":"3","Q09":"1","Q07":"3"},"rt":63219.39999997616,"item_order":[0,9,7,4,2,10,5,12,3,11,1,8,6],"radio_events":[4459.5,10951.199999988079,15934.199999988079,24586,29365.899999976158,33816.89999997616,37583,42607.59999999404,48771.29999998212,54781.69999998808,56755.5,59749.19999998808,62286.19999998808],"key_events":[],"mouse_events":[4459.5,10951.199999988079,15934.199999988079,24100.399999976158,24586,29365.899999976158,33816.89999997616,37583,41248.5,42607.59999999404,48771.29999998212,54781.69999998808,56755.5,59749.19999998808,62286.19999998808,63217.59999999404],"straightlining":0.38461538461538464,"zigzagging":0.3333333333333333,"honeypot":0,"survey":"bisbas","trial_type":"survey-template","trial_index":3,"time_elapsed":235861,"internal_node_id":"0.0-3.0","task_version":"prescreen-v0.3","browser_interactions":0,"infrequency":0},{"responses":{"Q01":"3","Q02":"2","Q03":"3"},"rt":22518.399999976158,"radio_events":[8290.899999976158,15300.799999982119,20691],"key_events":[],"mouse_events":[8290.899999976158,15300.799999982119,20691,22517.29999998212],"survey":"map","page":1,"trial_type":"survey-map","trial_index":4,"time_elapsed":258384,"internal_node_id":"0.0-4.0","task_version":"prescreen-v0.3","browser_interactions":0},{"responses":{"Q04":"2","Q05":"1","Q06":"1"},"rt":15080.800000011921,"radio_events":[4030.5999999940395,8480.90000000596,9813.40000000596,14286.5],"key_events":[],"mouse_events":[4030.5999999940395,8480.90000000596,9813.40000000596,14286.5,15080.199999988079],"survey":"map","page":2,"trial_type":"survey-map","trial_index":5,"time_elapsed":273467,"internal_node_id":"0.0-5.0","task_version":"prescreen-v0.3","browser_interactions":0},{"responses":{"Q07":"4","Q08":"4","Q09":"4"},"rt":15420,"radio_events":[5287.0999999940395,8526.40000000596,11063.199999988079,14841.699999988079],"key_events":[],"mouse_events":[5287.0999999940395,8526.40000000596,11063.199999988079,14841.699999988079,15419.09999999404],"survey":"map","page":3,"trial_type":"survey-map","trial_index":6,"time_elapsed":288890,"internal_node_id":"0.0-6.0","task_version":"prescreen-v0.3","browser_interactions":0},{"responses":{"Q10":"1","Q11":"1","Q12":"2","Q13":"3","Q16":"0","Q14":"2","Q15":"1"},"rt":60840.20000001788,"radio_events":[20643,24766.80000001192,30013.100000023842,42563.40000000596,47793.20000001788,55096.90000000596,60138.70000001788],"key_events":[],"mouse_events":[20643,24766.80000001192,30013.100000023842,41967.5,42563.40000000596,47793.20000001788,55096.90000000596,59561.90000000596,60138.70000001788,60839.10000002384],"survey":"map","page":4,"trial_type":"survey-map","trial_index":7,"time_elapsed":349735,"internal_node_id":"0.0-7.0","task_version":"prescreen-v0.3","browser_interactions":0,"infrequency":0},{"view_history":[{"page_index":0,"viewing_time":2093.0999999940395},{"page_index":1,"viewing_time":5709.799999982119}],"rt":7804.0999999940395,"trial_type":"instructions","trial_index":8,"time_elapsed":357541,"internal_node_id":"0.0-8.0","task_version":"prescreen-v0.3"},{"responses":{"01":"No","02":"No","03":"No","04":"No","05":"No","06":"No"},"rt":28860.899999976158,"item_order":[0,1,2,3,4,5],"radio_events":[9137.299999982119,15136.399999976158,23334.5,24316.399999976158,25634.79999998212,28006.5],"checkbox_events":[],"key_events":[],"mouse_events":[0.19999998807907104,9137.299999982119,15136.399999976158,23334.5,24316.399999976158,25634.79999998212,28006.5,28857.5],"honeypot":0,"survey":"mace","page":1,"trial_type":"survey-mace","trial_index":9,"time_elapsed":386410,"internal_node_id":"0.0-9.0","task_version":"prescreen-v0.3","browser_interactions":0},{"responses":{"01":"No","02":"No","03":"No","04":"No","05":"No","06":"No","07":"No","08":"No"},"rt":13201.200000017881,"item_order":[0,1,2,3,4,5,6,7],"radio_events":[1948.7000000178814,3186.800000011921,4705.5999999940395,5793.300000011921,7404.9000000059605,10269.5,11150.200000017881,12471.800000011921],"checkbox_events":[],"key_events":[],"mouse_events":[1948.7000000178814,3186.800000011921,4705.5999999940395,5793.300000011921,7404.9000000059605,8958.800000011921,10269.5,11150.200000017881,12471.800000011921,13197.40000000596],"honeypot":0,"survey":"mace","page":2,"trial_type":"survey-mace","trial_index":10,"time_elapsed":399617,"internal_node_id":"0.0-10.0","task_version":"prescreen-v0.3","browser_interactions":0},{"responses":{"01":"No","02":"No","03":"No","04":"No"},"rt":8217.399999976158,"item_order":[0,1,2,3],"radio_events":[2343,3135.699999988079,4917.299999982119,6399.799999982119],"checkbox_events":[],"key_events":[],"mouse_events":[2343,3135.699999988079,4917.299999982119,6399.799999982119,8215.399999976158],"honeypot":0,"survey":"mace","page":3,"trial_type":"survey-mace","trial_index":11,"time_elapsed":407839,"internal_node_id":"0.0-11.0","task_version":"prescreen-v0.3","browser_interactions":0},{"responses":{"01":"No","02":"No"},"rt":4858.9000000059605,"item_order":[0,1],"radio_events":[2647,4314.5],"checkbox_events":[],"key_events":[],"mouse_events":[2647,3839.600000023842,4314.5,4857.200000017881],"honeypot":0,"survey":"mace","page":4,"trial_type":"survey-mace","trial_index":12,"time_elapsed":412702,"internal_node_id":"0.0-12.0","task_version":"prescreen-v0.3","browser_interactions":0},{"responses":{"01":"No","02":"No","03":"No","04":"No","05":"No"},"rt":19860.80000001192,"item_order":[0,1,2,3,4],"radio_events":[9851.200000017881,11878.800000011921,14644,16211.300000011921,17835.70000001788],"checkbox_events":[],"key_events":[],"mouse_events":[9851.200000017881,11207.800000011921,11878.800000011921,14644,16211.300000011921,17835.70000001788,19857.90000000596],"honeypot":0,"survey":"mace","page":5,"trial_type":"survey-mace","trial_index":13,"time_elapsed":432568,"internal_node_id":"0.0-13.0","task_version":"prescreen-v0.3","browser_interactions":0},{"responses":{"01":"Yes","01_ages_5":"5","01_ages_6":"6","01_ages_16":"16","01_ages_17":"17","02":"Yes","02_ages_5":"5","02_ages_6":"6","02_ages_15":"15","02_ages_16":"16","02_ages_17":"17","02_ages_18":"18","03":"Yes","03_ages_16":"16","03_ages_17":"17","03_ages_18":"18","04":"Yes","04_ages_16":"16","04_ages_17":"17","04_ages_18":"18","05":"No"},"rt":73830.69999998808,"item_order":[0,1,2,3,4],"radio_events":[7410.199999988079,40673.89999997616,58273.69999998808,64347.39999997616,73054.29999998212],"checkbox_events":[24283.399999976158,25830,34402.19999998808,35873.59999999404,45495.89999997616,46258.5,48194.39999997616,48653.39999997616,49061.89999997616,54027,60162.79999998212,60724.39999997616,61206.59999999404,69005.69999998808,69343.89999997616,69746.5],"key_events":[],"mouse_events":[7410.199999988079,23816.59999999404,24283.399999976158,25830,34402.19999998808,35873.59999999404,40673.89999997616,45495.89999997616,46258.5,48194.39999997616,48653.39999997616,49061.89999997616,54027,58273.69999998808,60162.79999998212,60724.39999997616,61206.59999999404,64347.39999997616,69005.69999998808,69343.89999997616,69746.5,73054.29999998212,73827.59999999404],"honeypot":0,"survey":"mace","page":6,"trial_type":"survey-mace","trial_index":14,"time_elapsed":506406,"internal_node_id":"0.0-14.0","task_version":"prescreen-v0.3","browser_interactions":0},{"responses":{"01":"No","02":"No","03":"No","04":"No","05":"No","06":"No","07":"No"},"rt":17765.100000023842,"item_order":[0,1,2,3,4,5,6],"radio_events":[8136.800000011921,9828.700000017881,11828.5,13029.40000000596,14350.40000000596,15569.600000023842,17052.20000001788],"checkbox_events":[],"key_events":[],"mouse_events":[8136.800000011921,9828.700000017881,11828.5,13029.40000000596,14350.40000000596,15569.600000023842,16227.800000011921,17052.20000001788,17760.90000000596],"honeypot":0,"survey":"mace","page":7,"trial_type":"survey-mace","trial_index":15,"time_elapsed":524178,"internal_node_id":"0.0-15.0","task_version":"prescreen-v0.3","browser_interactions":0},{"responses":{"01":"No","02":"No","03":"No","04":"No"},"rt":16050.700000017881,"item_order":[0,1,2,3],"radio_events":[9031.200000017881,10952.200000017881,13619.600000023842,15511.90000000596],"checkbox_events":[],"key_events":[],"mouse_events":[9031.200000017881,10952.200000017881,13619.600000023842,15511.90000000596,16048.600000023842],"honeypot":0,"survey":"mace","page":8,"trial_type":"survey-mace","trial_index":16,"time_elapsed":540233,"internal_node_id":"0.0-16.0","task_version":"prescreen-v0.3","browser_interactions":0},{"responses":{"01":"Yes","01_ages_1":"1","01_ages_2":"2","01_ages_3":"3","01_ages_4":"4","01_ages_5":"5","01_ages_6":"6","01_ages_7":"7","01_ages_8":"8","01_ages_9":"9","01_ages_10":"10","01_ages_11":"11","01_ages_12":"12","01_ages_13":"13","01_ages_14":"14","01_ages_15":"15","01_ages_16":"16","01_ages_17":"17","01_ages_18":"18","02":"Yes","02_ages_1":"1","02_ages_2":"2","02_ages_3":"3","02_ages_4":"4","02_ages_5":"5","02_ages_6":"6","02_ages_7":"7","02_ages_8":"8","02_ages_9":"9","02_ages_10":"10","02_ages_11":"11","02_ages_12":"12","02_ages_13":"13","02_ages_14":"14","02_ages_15":"15","02_ages_16":"16","02_ages_17":"17","02_ages_18":"18","03":"Yes","03_ages_1":"1","03_ages_2":"2","03_ages_3":"3","03_ages_4":"4","03_ages_5":"5","03_ages_6":"6","03_ages_7":"7","03_ages_8":"8","03_ages_9":"9","03_ages_10":"10","03_ages_11":"11","03_ages_12":"12","03_ages_13":"13","03_ages_14":"14","03_ages_15":"15","03_ages_16":"16","03_ages_17":"17","03_ages_18":"18","04":"Yes","04_ages_1":"1","04_ages_2":"2","04_ages_3":"3","04_ages_4":"4","04_ages_5":"5","04_ages_6":"6","04_ages_7":"7","04_ages_8":"8","04_ages_9":"9","04_ages_10":"10","04_ages_11":"11","04_ages_12":"12","04_ages_13":"13","04_ages_14":"14","04_ages_15":"15","04_ages_16":"16","04_ages_17":"17","04_ages_18":"18"},"rt":81476.90000000596,"item_order":[0,1,2,3],"radio_events":[6640,26345.90000000596,45109,48991.30000001192],"checkbox_events":[10842.5,11629,12635.300000011921,13135.59999999404,14896.09999999404,15343.40000000596,15785.09999999404,16284.699999988079,17976,18427.30000001192,19078.09999999404,19919.90000000596,20373.90000000596,21067.19999998808,21807.90000000596,22247.59999999404,22748.09999999404,23182.90000000596,29807,30276.90000000596,30760.30000001192,31272.5,31756.59999999404,36108.69999998808,36539.09999999404,37394.59999999404,37829,38483.69999998808,39346.80000001192,39749.5,40269.90000000596,40963.19999998808,41473.90000000596,42043.09999999404,42565.90000000596,43022.19999998808,50399,50882.5,51430.19999998808,52069.19999998808,52520.59999999404,53186.19999998808,54192.5,54627.59999999404,55406.69999998808,55820.5,56244.59999999404,56771.30000001192,57198.30000001192,57649.40000000596,58137.19999998808,59181.19999998808,60353.09999999404,60889.69999998808,64965.40000000596,65475.5,66407.69999998808,66942.90000000596,67423.59999999404,68010.40000000596,68547.69999998808,69095.69999998808,69659.5,70030.19999998808,70844.09999999404,71335.59999999404,72159.69999998808,72671.69999998808,73192.40000000596,73788.90000000596,74460.69999998808,75362.69999998808],"key_events":[],"mouse_events":[6640,10842.5,11629,12150.199999988079,12635.300000011921,13135.59999999404,14896.09999999404,15343.40000000596,15785.09999999404,16284.699999988079,16807.59999999404,17976,18427.30000001192,19078.09999999404,19919.90000000596,20373.90000000596,21067.19999998808,21807.90000000596,22247.59999999404,22748.09999999404,23182.90000000596,26345.90000000596,28564.80000001192,29807,30276.90000000596,30760.30000001192,31272.5,31756.59999999404,36108.69999998808,36539.09999999404,37394.59999999404,37829,38483.69999998808,39346.80000001192,39749.5,40269.90000000596,40963.19999998808,41473.90000000596,42043.09999999404,42565.90000000596,43022.19999998808,45109,48991.30000001192,50399,50882.5,51430.19999998808,52069.19999998808,52520.59999999404,53186.19999998808,53725.19999998808,54192.5,54627.59999999404,55406.69999998808,55820.5,56244.59999999404,56771.30000001192,57198.30000001192,57649.40000000596,58137.19999998808,59181.19999998808,59697.30000001192,60353.09999999404,60889.69999998808,64965.40000000596,65475.5,66000.40000000596,66407.69999998808,66942.90000000596,67423.59999999404,68010.40000000596,68547.69999998808,69095.69999998808,69659.5,70030.19999998808,70844.09999999404,71335.59999999404,72159.69999998808,72671.69999998808,73192.40000000596,73788.90000000596,74460.69999998808,75362.69999998808,81474.30000001192],"honeypot":0,"survey":"mace","page":9,"trial_type":"survey-mace","trial_index":17,"time_elapsed":621716,"internal_node_id":"0.0-17.0","task_version":"prescreen-v0.3","browser_interactions":0},{"responses":{"01":"No","02":"No","03":"No","04":"No","05":"No","06":"Yes","06_ages_17":"17","07":"Yes","07_ages_1":"1","07_ages_2":"2","07_ages_3":"3","07_ages_4":"4","07_ages_5":"5","07_ages_6":"6","07_ages_7":"7","07_ages_8":"8","07_ages_9":"9","07_ages_10":"10","07_ages_11":"11","07_ages_12":"12","07_ages_13":"13","07_ages_14":"14","07_ages_15":"15","07_ages_16":"16","07_ages_17":"17","07_ages_18":"18","08":"Yes","08_ages_1":"1","08_ages_2":"2","08_ages_3":"3","08_ages_4":"4","08_ages_5":"5","08_ages_6":"6","08_ages_7":"7","08_ages_8":"8","08_ages_9":"9","08_ages_10":"10","08_ages_11":"11","08_ages_12":"12","08_ages_13":"13","08_ages_14":"14","08_ages_15":"15","08_ages_16":"16","08_ages_17":"17","08_ages_18":"18"},"rt":65619.59999999404,"item_order":[0,1,2,3,4,5,6,7],"radio_events":[4392.199999988079,5285.299999982119,6897,9350.799999982119,12038.09999999404,18142.19999998808,35310.59999999404,41905.5],"checkbox_events":[19837.29999998212,38549.59999999404,38947.39999997616,39439,39939.5,43807.29999998212,44229,45149.09999999404,45562.79999998212,46021.69999998808,46494.29999998212,47002.29999998212,47794.5,48879.89999997616,49347,49841.39999997616,50358.59999999404,50793.29999998212,51352.59999999404,52260,52631,53081.69999998808,53641.29999998212,55461.39999997616,55844.09999999404,56429.59999999404,56826.89999997616,57342.5,57911.5,58621.5,59260.29999998212,59680.29999998212,60223.69999998808,60651,61670.29999998212,62140.39999997616,63008.69999998808,63519.39999997616,64048.19999998808],"key_events":[],"mouse_events":[4392.199999988079,5285.299999982119,6897,9350.799999982119,12038.09999999404,18142.19999998808,19837.29999998212,35310.59999999404,37808.39999997616,38549.59999999404,38947.39999997616,39439,39939.5,41392.69999998808,41905.5,43807.29999998212,44229,44636.19999998808,45149.09999999404,45562.79999998212,46021.69999998808,46494.29999998212,47002.29999998212,47456.39999997616,47794.5,48379.39999997616,48879.89999997616,49347,49841.39999997616,50358.59999999404,50793.29999998212,51352.59999999404,52260,52631,53081.69999998808,53641.29999998212,55461.39999997616,55844.09999999404,56429.59999999404,56826.89999997616,57342.5,57911.5,58621.5,59260.29999998212,59680.29999998212,60223.69999998808,60651,61214.19999998808,61670.29999998212,62140.39999997616,62629.89999997616,63008.69999998808,63519.39999997616,64048.19999998808,65615.5],"honeypot":0,"survey":"mace","page":10,"trial_type":"survey-mace","trial_index":18,"time_elapsed":687345,"internal_node_id":"0.0-18.0","task_version":"prescreen-v0.3","browser_interactions":0,"instructed":0},{"rt":5940.699999988079,"trial_type":"mental-health-alert","trial_index":19,"time_elapsed":693289,"internal_node_id":"0.0-19.0","task_version":"prescreen-v0.3","interactions":"[]"}]