[{"view_history":[{"page_index":0,"viewing_time":5116.000000000001},{"page_index":1,"viewing_time":4998.999999999998},{"page_index":2,"viewing_time":3523},{"page_index":3,"viewing_time":971}],"rt":14610,"trial_type":"instructions","trial_index":0,"time_elapsed":14616,"internal_node_id":"0.0-0.0","task_version":"prescreen-v0.3"},{"rt":15752,"responses":{"age":"34","gender-categorical":"Female","gender-free-response":"","ethnicity":"Not Hispanic or Latino","race":["Asian"],"education":"Bachelor degree"},"trial_type":"survey-demo","trial_index":1,"time_elapsed":30376,"internal_node_id":"0.0-1.0","task_version":"prescreen-v0.3"},{"responses":{"Q20":"1","Q19":"0","Q12":"2","Q06":"0","Q08":"2","Q02":"2","Q07":"1","Q04":"2","Q18":"2","Q09":"2","Q15":"0","Q01":"2","Q14":"0","Q16":"0","Q13":"0","Q11":"3","Q05":"2","Q03":"2","Q10":"3","Q21":"0","Q17":"1"},"rt":102767,"item_order":[19,18,11,5,7,1,6,3,17,8,14,0,13,15,12,10,4,2,9,20,16],"radio_events":[5569,11826,20511,23817,27640.000000000007,30914,35816,40922,47306,59132,62916,65264,72682,75886,80044,83882,85353,89441,93584.00000000001,97486,99318,101972.00000000003],"key_events":[],"mouse_events":[5569,11826,19837,20511,23817,27640.000000000007,30914,35816,40492,40922,47306,59132,62916,65264,72682,75886,80044,83882,85353,89441,93584.00000000001,97486,99318,101972.00000000003,102756],"straightlining":0.42857142857142855,"zigzagging":0.4,"honeypot":0,"survey":"sns","trial_type":"survey-template","trial_index":2,"time_elapsed":133150,"internal_node_id":"0.0-2.0","task_version":"prescreen-v0.3","browser_interactions":0,"infrequency":1},{"responses":{"Q08":"3","Q11":"3","Q09":"2","Q02":"2","Q04":"3","Q12":"1","Q10":"2","Q07":"3","Q01":"2","Q13":"0","Q05":"3","Q03":"3","Q06":"3"},"rt":44765,"item_order":[7,10,8,1,3,11,9,6,0,12,4,2,5],"radio_events":[4832,7588,10650,13572,16626,19852,23439,26110,28608,30456.00000000003,33886,39588,43700.00000000003],"key_events":[],"mouse_events":[4832,7282,7588,10650,13572,16626,19852,23439,26110,28608,30456.00000000003,33886,39588,42142,43144,43700.00000000003,44758],"straightlining":0.5384615384615384,"zigzagging":0.5,"honeypot":0,"survey":"bisbas","trial_type":"survey-template","trial_index":3,"time_elapsed":177921,"internal_node_id":"0.0-3.0","task_version":"prescreen-v0.3","browser_interactions":0,"infrequency":0},{"responses":{"Q01":"2","Q02":"2","Q03":"2"},"rt":31481,"radio_events":[19197,25963,30695],"key_events":[],"mouse_events":[4883,19197,25503.00000000003,25963,30695,31478],"survey":"map","page":1,"trial_type":"survey-map","trial_index":4,"time_elapsed":209406,"internal_node_id":"0.0-4.0","task_version":"prescreen-v0.3","browser_interactions":3},{"responses":{"Q04":"1","Q05":"1","Q06":"2"},"rt":13389,"radio_events":[6361,9941.00000000003,12768],"key_events":[],"mouse_events":[5845,6361,9941.00000000003,12768,13386],"survey":"map","page":2,"trial_type":"survey-map","trial_index":5,"time_elapsed":222798,"internal_node_id":"0.0-5.0","task_version":"prescreen-v0.3","browser_interactions":0},{"responses":{"Q07":"4","Q08":"0","Q09":"0"},"rt":8832,"radio_events":[3073.000000000029,5187,7929],"key_events":[],"mouse_events":[2665,3073.000000000029,5187,7929,8829.00000000003],"survey":"map","page":3,"trial_type":"survey-map","trial_index":6,"time_elapsed":231633,"internal_node_id":"0.0-6.0","task_version":"prescreen-v0.3","browser_interactions":0},{"responses":{"Q10":"2","Q11":"1","Q12":"3","Q13":"0","Q16":"0","Q14":"2","Q15":"1"},"rt":55264,"radio_events":[19407.00000000003,26159,30629,38641,42864,46715,52807],"key_events":[],"mouse_events":[19407.00000000003,26159,30629,38641,42033,42864,46715,52807,55260],"survey":"map","page":4,"trial_type":"survey-map","trial_index":7,"time_elapsed":286903,"internal_node_id":"0.0-7.0","task_version":"prescreen-v0.3","browser_interactions":0,"infrequency":0},{"view_history":[{"page_index":0,"viewing_time":2388},{"page_index":1,"viewing_time":5092}],"rt":7481,"trial_type":"instructions","trial_index":8,"time_elapsed":294386,"internal_node_id":"0.0-8.0","task_version":"prescreen-v0.3"},{"responses":{"01":"Yes","01_ages_14":"14","02":"Yes","02_ages_14":"14","03":"No","04":"No","05":"No","06":"No"},"rt":60587.00000000006,"item_order":[0,1,2,3,4,5],"radio_events":[19774,31232,38265.00000000006,45228,47553,49536,55158,58048],"checkbox_events":[40122,50977],"key_events":[],"mouse_events":[0,19774,31232,38265.00000000006,40122,45228,47553,49536,50977,55158,57726,58048,60577],"honeypot":0,"survey":"mace","page":1,"trial_type":"survey-mace","trial_index":9,"time_elapsed":354982,"internal_node_id":"0.0-9.0","task_version":"prescreen-v0.3","browser_interactions":0},{"responses":{"01":"No","02":"No","03":"No","04":"No","05":"No","06":"No","07":"No","08":"No"},"rt":20112.00000000006,"item_order":[0,1,2,3,4,5,6,7],"radio_events":[6571.000000000058,10323,11527,12773.000000000058,14441,15717,17253,19187],"checkbox_events":[],"key_events":[],"mouse_events":[6571.000000000058,9985,10323,11527,12773.000000000058,14441,15717,17253,19187,20104],"honeypot":0,"survey":"mace","page":2,"trial_type":"survey-mace","trial_index":10,"time_elapsed":375101,"internal_node_id":"0.0-10.0","task_version":"prescreen-v0.3","browser_interactions":0},{"responses":{"01":"No","02":"No","03":"No","04":"No"},"rt":6767,"item_order":[0,1,2,3],"radio_events":[1945,3033,4083,4747],"checkbox_events":[],"key_events":[],"mouse_events":[1945,3033,4083,4747,6761],"honeypot":0,"survey":"mace","page":3,"trial_type":"survey-mace","trial_index":11,"time_elapsed":381872,"internal_node_id":"0.0-11.0","task_version":"prescreen-v0.3","browser_interactions":0},{"responses":{"01":"No","02":"No"},"rt":3868.000000000058,"item_order":[0,1],"radio_events":[1915,3363],"checkbox_events":[],"key_events":[],"mouse_events":[1915,2949,3363,3865],"honeypot":0,"survey":"mace","page":4,"trial_type":"survey-mace","trial_index":12,"time_elapsed":385745,"internal_node_id":"0.0-12.0","task_version":"prescreen-v0.3","browser_interactions":0},{"responses":{"01":"No","02":"No","03":"No","04":"No","05":"No"},"rt":16609,"item_order":[0,1,2,3,4],"radio_events":[8456,10385,12286,13861,15365],"checkbox_events":[],"key_events":[],"mouse_events":[8456,10385,12286,13861,15365,16602],"honeypot":0,"survey":"mace","page":5,"trial_type":"survey-mace","trial_index":13,"time_elapsed":402360,"internal_node_id":"0.0-13.0","task_version":"prescreen-v0.3","browser_interactions":0},{"responses":{"01":"Yes","01_ages_8":"8","01_ages_9":"9","01_ages_10":"10","01_ages_11":"11","01_ages_12":"12","01_ages_13":"13","01_ages_14":"14","01_ages_15":"15","01_ages_16":"16","01_ages_17":"17","01_ages_18":"18","02":"Yes","02_ages_8":"8","02_ages_9":"9","02_ages_10":"10","02_ages_11":"11","02_ages_12":"12","02_ages_13":"13","02_ages_14":"14","02_ages_15":"15","02_ages_16":"16","02_ages_17":"17","02_ages_18":"18","03":"Yes","03_ages_7":"7","03_ages_8":"8","03_ages_9":"9","03_ages_10":"10","03_ages_11":"11","03_ages_12":"12","03_ages_13":"13","03_ages_14":"14","03_ages_15":"15","03_ages_16":"16","03_ages_17":"17","03_ages_18":"18","04":"Yes","04_ages_9":"9","04_ages_10":"10","04_ages_11":"11","04_ages_12":"12","04_ages_13":"13","04_ages_14":"14","04_ages_15":"15","04_ages_16":"16","04_ages_17":"17","04_ages_18":"18","05":"No"},"rt":72991,"item_order":[0,1,2,3,4],"radio_events":[7130,11038,35668,46153.00000000006,57782,71306],"checkbox_events":[16168,16880,18188,19614,20256,20898,21274,21800,22230.00000000006,23372.00000000006,24609,25166,26592,37016.00000000006,37531,38010,38691,39074,39630,40038,40750,41423,42214,42826.00000000006,47776,48792,50226,50782,51191,51682.00000000006,52106,52684,53162,53578,54322,54980.00000000006,59912,62888,64001,64408.00000000006,64800,65230.00000000006,65627,66060,66420.00000000006,70186],"key_events":[],"mouse_events":[7130,11038,16168,16880,18188,19614,20256,20898,21274,21800,22230.00000000006,23372.00000000006,24609,25166,26592,35668,37016.00000000006,37531,38010,38691,39074,39630,40038,40454,40750,41423,41972,42214,42826.00000000006,46153.00000000006,47776,48792,50226,50782,51191,51682.00000000006,52106,52684,53162,53578,54094,54322,54980.00000000006,57782,59912,62888,63530,64001,64408.00000000006,64800,65230.00000000006,65627,66060,66420.00000000006,66968.00000000006,70186,71306,72982],"honeypot":0,"survey":"mace","page":6,"trial_type":"survey-mace","trial_index":14,"time_elapsed":475358,"internal_node_id":"0.0-14.0","task_version":"prescreen-v0.3","browser_interactions":0},{"responses":{"01":"No","02":"Yes","02_ages_14":"14","02_ages_15":"15","02_ages_16":"16","02_ages_17":"17","02_ages_18":"18","03":"No","04":"No","05":"No","06":"No","07":"No"},"rt":28842.99999999994,"item_order":[0,1,2,3,4,5,6],"radio_events":[4221,6923,20714.99999999994,22068.99999999994,23564.99999999994,25520.99999999994,26814.99999999994],"checkbox_events":[17072.99999999994,17439.99999999994,17863,18254.99999999994,18606.99999999994],"key_events":[],"mouse_events":[4221,6923,17072.99999999994,17439.99999999994,17863,18254.99999999994,18606.99999999994,20714.99999999994,22068.99999999994,23564.99999999994,25520.99999999994,26814.99999999994,28835.99999999994],"honeypot":0,"survey":"mace","page":7,"trial_type":"survey-mace","trial_index":15,"time_elapsed":504208,"internal_node_id":"0.0-15.0","task_version":"prescreen-v0.3","browser_interactions":0},{"responses":{"01":"No","02":"No","03":"Yes","03_ages_4":"4","03_ages_5":"5","03_ages_6":"6","03_ages_7":"7","03_ages_8":"8","03_ages_9":"9","03_ages_10":"10","03_ages_11":"11","03_ages_12":"12","03_ages_13":"13","03_ages_14":"14","03_ages_15":"15","03_ages_16":"16","03_ages_17":"17","03_ages_18":"18","04":"Yes","04_ages_9":"9","04_ages_10":"10","04_ages_11":"11","04_ages_12":"12"},"rt":67726,"item_order":[0,1,2,3],"radio_events":[7465,9423,11433.999999999942,13674,15218.000000000116,19391.000000000116,58517],"checkbox_events":[31013,31679,31999,32359,33261.00000000012,34091,35593.00000000012,35969,36769,37175,37919,38545.00000000012,39095,39587,40135,59565,60113,61923,62871],"key_events":[],"mouse_events":[7465,9423,11433.999999999942,13674,15218.000000000116,19391.000000000116,31013,31389,31679,31999,32359,32907,33261.00000000012,34091,35593.00000000012,35969,36769,37175,37919,38545.00000000012,39095,39587,40135,58517,59565,60113,61923,62871,67719],"honeypot":0,"survey":"mace","page":8,"trial_type":"survey-mace","trial_index":16,"time_elapsed":571940,"internal_node_id":"0.0-16.0","task_version":"prescreen-v0.3","browser_interactions":0},{"responses":{"01":"No","01_ages_1":"1","01_ages_2":"2","01_ages_3":"3","01_ages_4":"4","01_ages_5":"5","01_ages_6":"6","01_ages_7":"7","01_ages_8":"8","01_ages_9":"9","01_ages_10":"10","01_ages_11":"11","02":"No","02_ages_5":"5","02_ages_6":"6","02_ages_7":"7","02_ages_8":"8","02_ages_9":"9","02_ages_10":"10","02_ages_11":"11","02_ages_12":"12","02_ages_13":"13","02_ages_14":"14","02_ages_15":"15","02_ages_16":"16","02_ages_17":"17","02_ages_18":"18","03":"Yes","03_ages_1":"1","03_ages_2":"2","03_ages_3":"3","03_ages_4":"4","03_ages_5":"5","03_ages_6":"6","03_ages_7":"7","03_ages_8":"8","03_ages_9":"9","03_ages_10":"10","03_ages_11":"11","03_ages_12":"12","03_ages_13":"13","03_ages_14":"14","03_ages_15":"15","03_ages_16":"16","03_ages_17":"17","03_ages_18":"18","04":"No"},"rt":151805,"item_order":[0,1,2,3],"radio_events":[7997,9769,13951,17451,58907,115749,119021,149183.00000000012],"checkbox_events":[22243,22650,23088,23433.000000000116,23777,24131,24554,24921,25423,25939,32767,65390,66199,66785,67679,68141,68555,69151,96879,98718,99360,99932,101311,105977,106667,108217,108757,109579,110199,110621,111035,111489,112367,130775,131135.00000000012,131495,132412,133281,134049,135615,138800,139468,140077.00000000012,141417,141785,143585,144009,145403,145777,146553.00000000012,147101.00000000012],"key_events":[],"mouse_events":[7997,9769,13951,17451,22243,22650,23088,23433.000000000116,23777,24131,24554,24921,25423,25939,32767,58907,65166,65390,66199,66785,67123,67381,67679,68141,68555,69151,96879,98718,99360,99932,101311,105977,106667,108217,108757,109267,109579,110199,110621,111035,111489,112367,115749,119021,130775,131135.00000000012,131495,131887,132412,133281,134049,134847,135615,138800,139468,140077.00000000012,141417,141785,143585,144009,145105,145403,145777,146271,146553.00000000012,147101.00000000012,149183.00000000012,151799],"honeypot":0,"survey":"mace","page":9,"trial_type":"survey-mace","trial_index":17,"time_elapsed":723754,"internal_node_id":"0.0-17.0","task_version":"prescreen-v0.3","browser_interactions":0},{"responses":{"01":"No","02":"No","03":"No","04":"No","05":"Yes","05_ages_1":"1","05_ages_2":"2","05_ages_3":"3","05_ages_4":"4","05_ages_5":"5","05_ages_6":"6","05_ages_7":"7","05_ages_8":"8","05_ages_9":"9","05_ages_10":"10","05_ages_11":"11","05_ages_12":"12","05_ages_13":"13","05_ages_14":"14","05_ages_15":"15","05_ages_16":"16","05_ages_17":"17","05_ages_18":"18","06":"Yes","06_ages_17":"17","07":"No","08":"Yes","08_ages_1":"1","08_ages_2":"2","08_ages_3":"3","08_ages_4":"4","08_ages_5":"5","08_ages_6":"6","08_ages_7":"7","08_ages_8":"8"},"rt":68441,"item_order":[0,1,2,3,4,5,6,7],"radio_events":[3558,4333,6627,8303,11871.000000000116,35026,39691,42447],"checkbox_events":[25105,25777,26185,26631,27023,27374,27720,28049.000000000116,28454,28871.000000000116,29583,30052,30467.000000000116,31079,31844,32393,33255,33757,36277,47255,47594,48069,48529,48985,49399,49759,50457,50785,51280,51693.00000000012,58787,59297,63533,64237,64748],"key_events":[],"mouse_events":[3119,3558,4333,6627,8303,11871.000000000116,25105,25777,26185,26631,27023,27374,27720,28049.000000000116,28454,28871.000000000116,29583,30052,30467.000000000116,31079,31844,32393,33255,33757,35026,36277,39691,42447,47255,47594,48069,48529,48985,49399,49759,50457,50785,51280,51693.00000000012,58787,59297,63533,64237,64748,68433],"honeypot":0,"survey":"mace","page":10,"trial_type":"survey-mace","trial_index":18,"time_elapsed":792204,"internal_node_id":"0.0-18.0","task_version":"prescreen-v0.3","browser_interactions":0,"instructed":0},{"rt":6261,"trial_type":"mental-health-alert","trial_index":19,"time_elapsed":798470,"internal_node_id":"0.0-19.0","task_version":"prescreen-v0.3","interactions":"[{\"event\":\"blur\",\"trial\":4,\"time\":180947},{\"event\":\"focus\",\"trial\":4,\"time\":181816},{\"event\":\"focus\",\"trial\":4,\"time\":181817}]"}]