[{"view_history":[{"page_index":0,"viewing_time":1972.2000000029802},{"page_index":1,"viewing_time":2470.2000000029802},{"page_index":2,"viewing_time":3691.2999999970198},{"page_index":3,"viewing_time":841.0999999940395}],"rt":8975.79999999702,"trial_type":"instructions","trial_index":0,"time_elapsed":8984,"internal_node_id":"0.0-0.0","task_version":"prescreen-v0.3"},{"rt":18622.5,"responses":{"age":"26","gender-categorical":"Male","gender-free-response":"","ethnicity":"Hispanic or Latino","race":["Black or African American"],"education":"High school","siblings":"1"},"trial_type":"survey-demo","trial_index":1,"time_elapsed":27615,"internal_node_id":"0.0-1.0","task_version":"prescreen-v0.3"},{"responses":{"Q02":"3","Q13":"2","Q21":"3","Q04":"2","Q08":"3","Q12":"3","Q20":"1","Q16":"3","Q18":"2","Q05":"0","Q17":"2","Q07":"3","Q10":"2","Q06":"1","Q15":"2","Q03":"1","Q19":"3","Q01":"2","Q14":"1","Q11":"2","Q09":"1"},"rt":129635.79999999702,"item_order":[1,12,20,3,7,11,19,15,17,4,16,6,9,5,14,2,18,0,13,10,8],"radio_events":[7716.29999999702,11418.199999988079,16800.5,17320.69999998808,18001,20492.39999999106,22533.29999999702,25294.39999999106,32937.59999999404,38780.89999999106,39941,40912.29999999702,48314.89999999106,50825.79999999702,61140.89999999106,66733.29999999702,69934.59999999404,71355.59999999404,72316,76577.89999999106,77608.5,78468.59999999404,93785.59999999404,98537.69999998808,104720.79999999702,127642.69999998808],"key_events":[],"mouse_events":[7716.29999999702,9687.79999999702,11418.199999988079,16800.5,17320.69999998808,18001,19752.39999999106,20492.39999999106,22533.29999999702,25294.39999999106,32937.59999999404,38780.89999999106,39941,40912.29999999702,48314.89999999106,49636,50825.79999999702,61140.89999999106,66733.29999999702,69934.59999999404,71355.59999999404,72316,76577.89999999106,77608.5,78468.59999999404,84541.69999998808,87381.39999999106,93785.59999999404,98537.69999998808,104720.79999999702,119128.09999999404,121968.5,123488.69999998808,127642.69999998808,129632.69999998808],"straightlining":0.38095238095238093,"zigzagging":0.7,"honeypot":0,"survey":"sns","trial_type":"survey-template","trial_index":2,"time_elapsed":157258,"internal_node_id":"0.0-2.0","task_version":"prescreen-v0.3","browser_interactions":0,"infrequency":0},{"responses":{"Q05":"2","Q06":"3","Q13":"0","Q08":"2","Q01":"2","Q10":"2","Q09":"3","Q11":"3","Q04":"1","Q02":"2","Q12":"2","Q07":"3","Q03":"2"},"rt":38869.40000000596,"item_order":[4,5,12,7,0,9,8,10,3,1,11,6,2],"radio_events":[7793.9000000059605,10124.79999999702,11875.90000000596,14166.90000000596,16117.40000000596,17428.20000000298,17628.29999999702,20479.29999999702,21460.20000000298,23181.29999999702,24911.5,26012.29999999702,31714.59999999404],"key_events":[],"mouse_events":[7793.9000000059605,10124.79999999702,11875.90000000596,13768,14166.90000000596,14827.29999999702,16117.40000000596,17428.20000000298,17628.29999999702,20479.29999999702,21460.20000000298,23181.29999999702,24911.5,26012.29999999702,31714.59999999404,38868],"straightlining":0.5384615384615384,"zigzagging":0.5,"honeypot":0,"survey":"bisbas","trial_type":"survey-template","trial_index":3,"time_elapsed":196132,"internal_node_id":"0.0-3.0","task_version":"prescreen-v0.3","browser_interactions":0,"infrequency":0},{"responses":{"Q01":"2","Q02":"2","Q03":"3"},"rt":8098,"radio_events":[3674.7999999970198,5595.5,6006.5],"key_events":[],"mouse_events":[3674.7999999970198,5595.5,6006.5,8097.20000000298],"survey":"map","page":1,"trial_type":"survey-map","trial_index":4,"time_elapsed":204235,"internal_node_id":"0.0-4.0","task_version":"prescreen-v0.3","browser_interactions":0},{"responses":{"Q04":"2","Q05":"3","Q06":"3"},"rt":5408.79999999702,"radio_events":[2277.9000000059605,2806.9000000059605,3197.1000000089407],"key_events":[],"mouse_events":[2277.9000000059605,2806.9000000059605,3197.1000000089407,5408.100000008941],"survey":"map","page":2,"trial_type":"survey-map","trial_index":5,"time_elapsed":209647,"internal_node_id":"0.0-5.0","task_version":"prescreen-v0.3","browser_interactions":0},{"responses":{"Q07":"2","Q08":"3","Q09":"3"},"rt":3458.2999999970198,"radio_events":[1026.3999999910593,1806.8999999910593,2557],"key_events":[],"mouse_events":[1026.3999999910593,1447,1806.8999999910593,2557,3457.5999999940395],"survey":"map","page":3,"trial_type":"survey-map","trial_index":6,"time_elapsed":213109,"internal_node_id":"0.0-6.0","task_version":"prescreen-v0.3","browser_interactions":0},{"responses":{"Q10":"3","Q11":"3","Q12":"3","Q13":"4","Q16":"0","Q14":"3","Q15":"4"},"rt":34692.09999999404,"radio_events":[4357.20000000298,5617.20000000298,9959.5,16072.59999999404,20233.90000000596,29199.5,33392.09999999404],"key_events":[],"mouse_events":[2696.2999999970198,3136.9000000059605,4357.20000000298,4727.5,5617.20000000298,5838.5999999940395,9959.5,16072.59999999404,17083.5,20233.90000000596,20954.79999999702,22984.70000000298,25658.59999999404,26917.79999999702,29199.5,31171,33392.09999999404,34690.79999999702],"survey":"map","page":4,"trial_type":"survey-map","trial_index":7,"time_elapsed":247805,"internal_node_id":"0.0-7.0","task_version":"prescreen-v0.3","browser_interactions":0,"infrequency":0},{"view_history":[{"page_index":0,"viewing_time":3226.7000000029802},{"page_index":1,"viewing_time":1960.699999988079}],"rt":5187.79999999702,"trial_type":"instructions","trial_index":8,"time_elapsed":252995,"internal_node_id":"0.0-8.0","task_version":"prescreen-v0.3"},{"responses":{"01":"Yes","01_ages_8":"8","02":"No","03":"Yes","03_ages_12":"12","03_ages_13":"13","03_ages_14":"14","03_ages_15":"15","04":"No","05":"No","06":"No"},"rt":43209.29999999702,"item_order":[0,1,2,3,4,5],"radio_events":[8579.89999999106,15433.59999999404,16343.29999999702,17093.39999999106,18604,26988.09999999404,30589.39999999106],"checkbox_events":[11341.699999988079,19975.89999999106,20224.29999999702,20414.59999999404,20594.89999999106],"key_events":[],"mouse_events":[0.19999998807907104,8579.89999999106,11341.699999988079,15433.59999999404,16343.29999999702,17093.39999999106,18604,19975.89999999106,20224.29999999702,20414.59999999404,20594.89999999106,26988.09999999404,28839.5,30589.39999999106,43205.79999999702],"honeypot":0,"survey":"mace","page":1,"trial_type":"survey-mace","trial_index":9,"time_elapsed":296212,"internal_node_id":"0.0-9.0","task_version":"prescreen-v0.3","browser_interactions":0},{"responses":{"01":"No","02":"No","03":"No","04":"No","05":"Yes","05_ages_7":"7","05_ages_8":"8","05_ages_9":"9","05_ages_10":"10","05_ages_11":"11","05_ages_12":"12","06":"No","07":"No","08":"No"},"rt":31986.70000000298,"item_order":[0,1,2,3,4,5,6,7],"radio_events":[4012.2999999970198,4382.100000008941,5283,5753.29999999702,8113.79999999702,9284.90000000596,9854.5,10175.60000000894,14397,17017.79999999702,24751.29999999702],"checkbox_events":[25982.60000000894,26172.70000000298,26311.79999999702,26524.79999999702,26943,27505.5],"key_events":[],"mouse_events":[4012.2999999970198,4382.100000008941,5283,5563.29999999702,5753.29999999702,7603.70000000298,7763.70000000298,7932.20000000298,8113.79999999702,8284.70000000298,9284.90000000596,9854.5,10175.60000000894,14397,16318,17017.79999999702,24751.29999999702,25982.60000000894,26172.70000000298,26311.79999999702,26524.79999999702,26943,27505.5,31979.10000000894],"honeypot":0,"survey":"mace","page":2,"trial_type":"survey-mace","trial_index":10,"time_elapsed":328206,"internal_node_id":"0.0-10.0","task_version":"prescreen-v0.3","browser_interactions":0},{"responses":{"01":"No","02":"No","03":"No","04":"No"},"rt":8027.399999991059,"item_order":[0,1,2,3],"radio_events":[3962.8999999910593,5463.199999988079,6114.199999988079,7183.899999991059],"checkbox_events":[],"key_events":[],"mouse_events":[3962.8999999910593,5463.199999988079,6114.199999988079,7183.899999991059,8024.5999999940395],"honeypot":0,"survey":"mace","page":3,"trial_type":"survey-mace","trial_index":11,"time_elapsed":336238,"internal_node_id":"0.0-11.0","task_version":"prescreen-v0.3","browser_interactions":0},{"responses":{"01":"No","02":"No"},"rt":8667.10000000894,"item_order":[0,1],"radio_events":[2743.1000000089407,3444.9000000059605],"checkbox_events":[],"key_events":[],"mouse_events":[2743.1000000089407,3444.9000000059605,8665.60000000894],"honeypot":0,"survey":"mace","page":4,"trial_type":"survey-mace","trial_index":12,"time_elapsed":344910,"internal_node_id":"0.0-12.0","task_version":"prescreen-v0.3","browser_interactions":0},{"responses":{"01":"No","02":"No","03":"No","04":"No","05":"No"},"rt":11062.29999999702,"item_order":[0,1,2,3,4],"radio_events":[6517.70000000298,7478.29999999702,7858.0999999940395,9499.59999999404,10709.29999999702],"checkbox_events":[],"key_events":[],"mouse_events":[6517.70000000298,7478.29999999702,7858.0999999940395,8148.5999999940395,8448.5,9499.59999999404,10709.29999999702,11059.29999999702],"honeypot":0,"survey":"mace","page":5,"trial_type":"survey-mace","trial_index":13,"time_elapsed":355977,"internal_node_id":"0.0-13.0","task_version":"prescreen-v0.3","browser_interactions":0},{"responses":{"01":"No","02":"No","03":"No","04":"No","05":"No"},"rt":29849,"item_order":[0,1,2,3,4],"radio_events":[892.8999999910593,1182.3999999910593,2223.3999999910593,2584,2953.2999999970198,22852.79999999702,24283.09999999404],"checkbox_events":[],"key_events":[],"mouse_events":[892.8999999910593,1182.3999999910593,1373.7000000029802,1563.2999999970198,1732.2000000029802,1913.3999999910593,2223.3999999910593,2424.2000000029802,2584,2744,2953.2999999970198,22852.79999999702,24283.09999999404,29846],"honeypot":0,"survey":"mace","page":6,"trial_type":"survey-mace","trial_index":14,"time_elapsed":385831,"internal_node_id":"0.0-14.0","task_version":"prescreen-v0.3","browser_interactions":0},{"responses":{"01":"No","02":"No","03":"Yes","03_ages_15":"15","04":"No","05":"No","06":"No","07":"No"},"rt":17284.40000000596,"item_order":[0,1,2,3,4,5,6],"radio_events":[5564.9000000059605,6905.5,10477.20000000298,14288.90000000596,14959.5,15589,16639.70000000298],"checkbox_events":[12488.10000000894],"key_events":[],"mouse_events":[5564.9000000059605,6905.5,10477.20000000298,12488.10000000894,14288.90000000596,14959.5,15200.40000000596,15589,15809.90000000596,16639.70000000298,17280.29999999702],"honeypot":0,"survey":"mace","page":7,"trial_type":"survey-mace","trial_index":15,"time_elapsed":403121,"internal_node_id":"0.0-15.0","task_version":"prescreen-v0.3","browser_interactions":0},{"responses":{"01":"Yes","01_ages_14":"14","01_ages_15":"15","01_ages_16":"16","02":"No","03":"Yes","03_ages_9":"9","03_ages_10":"10","03_ages_11":"11","03_ages_12":"12","03_ages_13":"13","03_ages_14":"14","04":"No"},"rt":25384.79999999702,"item_order":[0,1,2,3],"radio_events":[7514.29999999702,13417,16518.09999999404,17768.09999999404,19399.09999999404,24442.19999998808],"checkbox_events":[9125.199999988079,9384.699999988079,9775.09999999404,20290.19999998808,20469.89999999106,20649.89999999106,20819.39999999106,20969.59999999404,21610.09999999404],"key_events":[],"mouse_events":[7514.29999999702,9125.199999988079,9384.699999988079,9775.09999999404,13417,16518.09999999404,17768.09999999404,19399.09999999404,20290.19999998808,20469.89999999106,20649.89999999106,20819.39999999106,20969.59999999404,21610.09999999404,24442.19999998808,25382.39999999106],"honeypot":0,"survey":"mace","page":8,"trial_type":"survey-mace","trial_index":16,"time_elapsed":428510,"internal_node_id":"0.0-16.0","task_version":"prescreen-v0.3","browser_interactions":0},{"responses":{"01":"No","02":"No","03":"No","04":"No"},"rt":19664.89999999106,"item_order":[0,1,2,3],"radio_events":[5415.699999988079,5716,5955.699999988079,6506.699999988079,14019.39999999106,18921.39999999106],"checkbox_events":[],"key_events":[],"mouse_events":[5415.699999988079,5575.5999999940395,5716,5826.5,5955.699999988079,6095.699999988079,6236.399999991059,6506.699999988079,14019.39999999106,18921.39999999106,19662.29999999702],"honeypot":0,"survey":"mace","page":9,"trial_type":"survey-mace","trial_index":17,"time_elapsed":448179,"internal_node_id":"0.0-17.0","task_version":"prescreen-v0.3","browser_interactions":0},{"responses":{"01":"No","02":"No","03":"No","04":"No","05":"No","06":"Yes","06_ages_17":"17","07":"No","08":"No"},"rt":16855.39999999106,"item_order":[0,1,2,3,4,5,6,7],"radio_events":[3483.7000000029802,3854.2999999970198,4965,6135.5999999940395,8096.5,8986.79999999702,15750.09999999404,16190.79999999702],"checkbox_events":[10888.39999999106],"key_events":[],"mouse_events":[2814.7000000029802,3033.8999999910593,3263.8999999910593,3483.7000000029802,3654.5999999940395,3854.2999999970198,4965,5245,6135.5999999940395,8096.5,8986.79999999702,10888.39999999106,15750.09999999404,16190.79999999702,16850.5],"honeypot":0,"survey":"mace","page":10,"trial_type":"survey-mace","trial_index":18,"time_elapsed":465041,"internal_node_id":"0.0-18.0","task_version":"prescreen-v0.3","browser_interactions":0,"instructed":0},{"rt":2789.7999999970198,"trial_type":"mental-health-alert","trial_index":19,"time_elapsed":467834,"internal_node_id":"0.0-19.0","task_version":"prescreen-v0.3","interactions":"[]"}]