[{"view_history":[{"page_index":0,"viewing_time":3195.9999999999995},{"page_index":1,"viewing_time":2484.0000000000005},{"page_index":2,"viewing_time":2271},{"page_index":3,"viewing_time":1108}],"rt":9060,"trial_type":"instructions","trial_index":0,"time_elapsed":9073,"internal_node_id":"0.0-0.0","task_version":"prescreen-v0.3"},{"rt":19305.000000000004,"responses":{"age":"20","gender-categorical":"Male","gender-free-response":"","ethnicity":"Not Hispanic or Latino","race":["White"],"education":"Some college","siblings":"0"},"trial_type":"survey-demo","trial_index":1,"time_elapsed":28390,"internal_node_id":"0.0-1.0","task_version":"prescreen-v0.3"},{"responses":{"Q10":"1","Q18":"0","Q03":"0","Q08":"2","Q15":"1","Q11":"2","Q19":"0","Q05":"0","Q13":"0","Q21":"3","Q02":"1","Q16":"1","Q07":"2","Q17":"1","Q04":"1","Q09":"1","Q06":"2","Q01":"2","Q14":"1","Q12":"1","Q20":"1"},"rt":127831,"item_order":[9,17,2,7,14,10,18,4,12,20,1,15,6,16,3,8,5,0,13,11,19],"radio_events":[6394,8326.000000000007,11189.000000000007,13081,18831,22143.000000000007,27224,32157,36377,39184.000000000015,41141,59082,64394,68705,75603,81506,86043,92027,94389,98699.00000000001,124020,126462],"key_events":[],"mouse_events":[5140,6394,8326.000000000007,11189.000000000007,13081,18320.000000000007,18831,22143.000000000007,27224,30257,32157,36377,39184.000000000015,41141,57998,58499,59082,64394,68705,74559.00000000001,75093,75603,81506,86043,92027,94389,97558,98699.00000000001,124020,126001.00000000003,126462,127813],"straightlining":0.47619047619047616,"zigzagging":0.4,"honeypot":0,"survey":"sns","trial_type":"survey-template","trial_index":2,"time_elapsed":156237,"internal_node_id":"0.0-2.0","task_version":"prescreen-v0.3","browser_interactions":4,"infrequency":0},{"responses":{"Q04":"2","Q11":"2","Q08":"2","Q06":"3","Q07":"3","Q02":"1","Q12":"3","Q05":"3","Q10":"3","Q09":"3","Q13":"0","Q03":"1","Q01":"1"},"rt":53911,"item_order":[3,10,7,5,6,1,11,4,9,8,12,2,0],"radio_events":[10191,13773,16708,20566,22628,25960,29607,32122,35235,38098,40912,47924,51902.00000000003],"key_events":[],"mouse_events":[10191,13773,16207,16708,20566,22628,25960,29607,32122,33804,35235,37467,38098,40095,40912,47924,51902.00000000003,53900],"straightlining":0.46153846153846156,"zigzagging":0.25,"honeypot":0,"survey":"bisbas","trial_type":"survey-template","trial_index":3,"time_elapsed":210159,"internal_node_id":"0.0-3.0","task_version":"prescreen-v0.3","browser_interactions":0,"infrequency":0},{"responses":{"Q01":"3","Q02":"2","Q03":"3"},"rt":17177,"radio_events":[5219.000000000029,7960,14438,16265],"key_events":[],"mouse_events":[5219.000000000029,7960,13128,13669,14438,15271,15634,16265,17171],"survey":"map","page":1,"trial_type":"survey-map","trial_index":4,"time_elapsed":227347,"internal_node_id":"0.0-4.0","task_version":"prescreen-v0.3","browser_interactions":0},{"responses":{"Q04":"4","Q05":"4","Q06":"4"},"rt":19184,"radio_events":[13882,16971,18637],"key_events":[],"mouse_events":[13882,16971,18095,18637,19179],"survey":"map","page":2,"trial_type":"survey-map","trial_index":5,"time_elapsed":246541,"internal_node_id":"0.0-5.0","task_version":"prescreen-v0.3","browser_interactions":2},{"responses":{"Q07":"3","Q08":"0","Q09":"2"},"rt":15351.99999999997,"radio_events":[5161,10642.99999999997,14557],"key_events":[],"mouse_events":[5161,9801.999999999942,10642.99999999997,14557,15348.99999999997],"survey":"map","page":3,"trial_type":"survey-map","trial_index":6,"time_elapsed":261902,"internal_node_id":"0.0-6.0","task_version":"prescreen-v0.3","browser_interactions":0},{"responses":{"Q10":"2","Q11":"2","Q12":"4","Q13":"3","Q16":"0","Q14":"2","Q15":"3"},"rt":76357,"radio_events":[8712,9771,16200,18885.00000000006,24868,34086,75495],"key_events":[],"mouse_events":[5930,7799,8712,9771,14575,16200,18885.00000000006,24868,34086,70571,71049,73069,73537,75495,76344.00000000006],"survey":"map","page":4,"trial_type":"survey-map","trial_index":7,"time_elapsed":338270,"internal_node_id":"0.0-7.0","task_version":"prescreen-v0.3","browser_interactions":2,"infrequency":0},{"view_history":[{"page_index":0,"viewing_time":1598},{"page_index":1,"viewing_time":2838}],"rt":4436,"trial_type":"instructions","trial_index":8,"time_elapsed":342712,"internal_node_id":"0.0-8.0","task_version":"prescreen-v0.3"},{"responses":{"01":"No","02":"No","03":"No","04":"No","05":"No","06":"No"},"rt":15424.999999999942,"item_order":[0,1,2,3,4,5],"radio_events":[4406.999999999942,6202,9089,10858.999999999942,13720.999999999942,14699.999999999942],"checkbox_events":[],"key_events":[],"mouse_events":[0,3347.999999999942,4406.999999999942,5610.999999999942,6202,9089,10858.999999999942,11764.999999999942,13236.999999999942,13720.999999999942,14699.999999999942,15411.999999999942],"honeypot":0,"survey":"mace","page":1,"trial_type":"survey-mace","trial_index":9,"time_elapsed":358148,"internal_node_id":"0.0-9.0","task_version":"prescreen-v0.3","browser_interactions":0},{"responses":{"01":"No","02":"No","03":"No","04":"No","05":"No","06":"No","07":"No","08":"No"},"rt":24017,"item_order":[0,1,2,3,4,5,6,7],"radio_events":[2845,4689,10171,13825.000000000058,14707,17739,20909.00000000006,22179,23068],"checkbox_events":[],"key_events":[],"mouse_events":[2845,3694,4107,4689,9670,10171,13825.000000000058,14707,16851,17739,18265.00000000006,19430,20246,20909.00000000006,21822,22179,23068,23610,24007],"honeypot":0,"survey":"mace","page":2,"trial_type":"survey-mace","trial_index":10,"time_elapsed":382178,"internal_node_id":"0.0-10.0","task_version":"prescreen-v0.3","browser_interactions":0},{"responses":{"01":"No","02":"No","03":"No","04":"No"},"rt":8404,"item_order":[0,1,2,3],"radio_events":[2784,3351,5558,7514],"checkbox_events":[],"key_events":[],"mouse_events":[2784,3351,4102,4572,5558,6221,6892,7514,8396],"honeypot":0,"survey":"mace","page":3,"trial_type":"survey-mace","trial_index":11,"time_elapsed":390592,"internal_node_id":"0.0-11.0","task_version":"prescreen-v0.3","browser_interactions":0},{"responses":{"01":"No","02":"No"},"rt":4282,"item_order":[0,1],"radio_events":[2054,3298],"checkbox_events":[],"key_events":[],"mouse_events":[2054,3298,4277],"honeypot":0,"survey":"mace","page":4,"trial_type":"survey-mace","trial_index":12,"time_elapsed":394883,"internal_node_id":"0.0-12.0","task_version":"prescreen-v0.3","browser_interactions":0},{"responses":{"01":"No","02":"No","03":"No","04":"No","05":"No"},"rt":11173,"item_order":[0,1,2,3,4],"radio_events":[2893.000000000058,5230,7672,9305,10058],"checkbox_events":[],"key_events":[],"mouse_events":[1358,2893.000000000058,3766,5230,5690,6402,7672,8319,9305,10058,11165],"honeypot":0,"survey":"mace","page":5,"trial_type":"survey-mace","trial_index":13,"time_elapsed":406069,"internal_node_id":"0.0-13.0","task_version":"prescreen-v0.3","browser_interactions":0},{"responses":{"01":"No","02":"Yes","02_ages_10":"10","02_ages_11":"11","02_ages_12":"12","03":"No","04":"No","05":"No"},"rt":35463,"item_order":[0,1,2,3,4],"radio_events":[5979,14356,15489.000000000058,26096,27229,32250],"checkbox_events":[20348,20899,21617],"key_events":[],"mouse_events":[4556,5979,6675,7355,13378,14356,15489.000000000058,20348,20899,21617,26096,27229,32250,35452],"honeypot":0,"survey":"mace","page":6,"trial_type":"survey-mace","trial_index":14,"time_elapsed":441544,"internal_node_id":"0.0-14.0","task_version":"prescreen-v0.3","browser_interactions":0},{"responses":{"01":"No","02":"No","03":"No","04":"No","05":"No","06":"No","07":"No"},"rt":13199,"item_order":[0,1,2,3,4,5,6],"radio_events":[3017,3970.000000000058,4828.000000000058,5782,8846,9332,10763.000000000058],"checkbox_events":[],"key_events":[],"mouse_events":[3017,3970.000000000058,4828.000000000058,5782,6995,7779,8385,8846,9332,10229,10763.000000000058,13189],"honeypot":0,"survey":"mace","page":7,"trial_type":"survey-mace","trial_index":15,"time_elapsed":454756,"internal_node_id":"0.0-15.0","task_version":"prescreen-v0.3","browser_interactions":0},{"responses":{"01":"No","02":"No","03":"No","04":"No"},"rt":12737,"item_order":[0,1,2,3],"radio_events":[6366,7498,10481.000000000058,12268],"checkbox_events":[],"key_events":[],"mouse_events":[5622,6366,7498,10481.000000000058,11806,12268,12728],"honeypot":0,"survey":"mace","page":8,"trial_type":"survey-mace","trial_index":16,"time_elapsed":467504,"internal_node_id":"0.0-16.0","task_version":"prescreen-v0.3","browser_interactions":0},{"responses":{"01":"Yes","01_ages_1":"1","01_ages_2":"2","01_ages_3":"3","01_ages_4":"4","01_ages_5":"5","01_ages_6":"6","01_ages_7":"7","01_ages_8":"8","01_ages_9":"9","01_ages_10":"10","01_ages_11":"11","01_ages_12":"12","01_ages_13":"13","01_ages_14":"14","01_ages_15":"15","01_ages_16":"16","01_ages_17":"17","01_ages_18":"18","02":"Yes","02_ages_1":"1","02_ages_2":"2","02_ages_3":"3","02_ages_4":"4","02_ages_5":"5","02_ages_6":"6","02_ages_7":"7","02_ages_8":"8","02_ages_9":"9","02_ages_10":"10","02_ages_11":"11","02_ages_12":"12","02_ages_13":"13","02_ages_14":"14","02_ages_15":"15","02_ages_16":"16","02_ages_17":"17","02_ages_18":"18","03":"Yes","03_ages_1":"1","03_ages_2":"2","03_ages_3":"3","03_ages_4":"4","03_ages_5":"5","03_ages_6":"6","03_ages_7":"7","03_ages_8":"8","03_ages_9":"9","03_ages_10":"10","03_ages_11":"11","03_ages_12":"12","03_ages_13":"13","03_ages_14":"14","03_ages_15":"15","03_ages_16":"16","03_ages_17":"17","03_ages_18":"18","04":"Yes","04_ages_1":"1","04_ages_2":"2","04_ages_3":"3","04_ages_4":"4","04_ages_5":"5","04_ages_6":"6","04_ages_7":"7","04_ages_8":"8","04_ages_9":"9","04_ages_10":"10","04_ages_11":"11","04_ages_12":"12","04_ages_13":"13","04_ages_14":"14","04_ages_15":"15","04_ages_16":"16","04_ages_17":"17","04_ages_18":"18"},"rt":71281,"item_order":[0,1,2,3],"radio_events":[3725,19523,40997,44151],"checkbox_events":[6386,6911.000000000058,7323,8140,8906.000000000058,10136,10784,11665,12312,12691,13662,14372,14923.000000000058,15998,16419,17202,17720,21099,22361,22879,23436,24011,24592,25433,26178,26744,27406.00000000006,28029,28772,29621,30308,31173.00000000006,32313,32921,33583,34350,46140,46560,46997,47569.99999999994,48105.00000000006,48896,49439,50148.00000000006,50699,51281.99999999994,52040.99999999994,52766.99999999994,53326.00000000006,53991,54627,55786,56618,57483,58861,59310,60054,60749,61752,62617,63207,63685,64387,65462,66078,66611,67226,67840.00000000012,68350,69069,69667.00000000012,70307],"key_events":[],"mouse_events":[2980,3725,6386,6911.000000000058,7323,7767,8140,8552,8906.000000000058,9385,9752,10136,10784,11326,11665,12312,12691,13662,14372,14923.000000000058,15998,16419,16888,17202,17720,18319,19523,20695,21099,21965,22361,22879,23436,24011,24592,25433,26178,26744,27406.00000000006,28029,28772,29621,30308,31173.00000000006,31853.00000000006,32313,32921,33583,34350,40997,44151,46140,46560,46997,47569.99999999994,48105.00000000006,48630,48896,49439,50148.00000000006,50699,51281.99999999994,51662.00000000006,52040.99999999994,52766.99999999994,53326.00000000006,53991,54627,55352,55786,56618,57483,58861,59310,60054,60749,61331,61752,62302,62617,63207,63685,64387,64970,65462,66078,66611,67226,67840.00000000012,68350,69069,69667.00000000012,70307,71269],"honeypot":0,"survey":"mace","page":9,"trial_type":"survey-mace","trial_index":17,"time_elapsed":538798,"internal_node_id":"0.0-17.0","task_version":"prescreen-v0.3","browser_interactions":0},{"responses":{"01":"No","02":"No","03":"No","04":"No","05":"No","06":"Yes","06_ages_17":"17","07":"Yes","07_ages_1":"1","07_ages_2":"2","07_ages_3":"3","07_ages_4":"4","07_ages_5":"5","07_ages_6":"6","07_ages_7":"7","07_ages_8":"8","07_ages_9":"9","07_ages_10":"10","07_ages_11":"11","07_ages_12":"12","07_ages_13":"13","07_ages_14":"14","07_ages_15":"15","07_ages_16":"16","07_ages_17":"17","07_ages_18":"18","08":"Yes","08_ages_1":"1","08_ages_2":"2","08_ages_3":"3","08_ages_4":"4","08_ages_5":"5","08_ages_6":"6","08_ages_7":"7","08_ages_8":"8","08_ages_9":"9","08_ages_10":"10","08_ages_11":"11","08_ages_12":"12","08_ages_13":"13","08_ages_14":"14","08_ages_15":"15","08_ages_16":"16","08_ages_17":"17","08_ages_18":"18"},"rt":42939,"item_order":[0,1,2,3,4,5,6,7],"radio_events":[2982,4172,4996,9878,11316,13168,17805,20497],"checkbox_events":[14834,21582,22116,22504,23409,23943,24396,24848,25607,26062,26513,27241,27759,28438,29052,29530,29983,30476,30904,32594.000000000116,33015,33378,33783,34493.00000000012,34825,35730,36329,36909,37776,38576,39111,39628,40249,40857,41300,41827,42353],"key_events":[],"mouse_events":[2310,2982,3621,4172,4996,5844.000000000116,8254,9878,10525,11316,12539,13168,14834,17805,19576,20036,20497,21582,22116,22504,23029,23409,23943,24396,24848,25607,26062,26513,27241,27759,28438,29052,29530,29983,30476,30904,32213,32594.000000000116,33015,33378,33783,34138,34493.00000000012,34825,35287,35730,36329,36909,37364,37776,38270,38576,39111,39628,40249,40857,41300,41827,42353,42926],"honeypot":0,"survey":"mace","page":10,"trial_type":"survey-mace","trial_index":18,"time_elapsed":581751,"internal_node_id":"0.0-18.0","task_version":"prescreen-v0.3","browser_interactions":0,"instructed":0},{"rt":8099,"trial_type":"mental-health-alert","trial_index":19,"time_elapsed":589861,"internal_node_id":"0.0-19.0","task_version":"prescreen-v0.3","interactions":"[{\"event\":\"blur\",\"trial\":2,\"time\":75507},{\"event\":\"focus\",\"trial\":2,\"time\":77331},{\"event\":\"blur\",\"trial\":2,\"time\":133182},{\"event\":\"focus\",\"trial\":2,\"time\":138761},{\"event\":\"blur\",\"trial\":5,\"time\":230286},{\"event\":\"focus\",\"trial\":5,\"time\":232066},{\"event\":\"blur\",\"trial\":7,\"time\":297360},{\"event\":\"focus\",\"trial\":7,\"time\":326530}]"}]