[{"view_history":[{"page_index":0,"viewing_time":4839.400000035763},{"page_index":1,"viewing_time":5735.399999976158},{"page_index":2,"viewing_time":3197.600000023842},{"page_index":3,"viewing_time":763}],"rt":14536,"trial_type":"instructions","trial_index":0,"time_elapsed":14547,"internal_node_id":"0.0-0.0","task_version":"prescreen-v0.3"},{"rt":10618.100000023842,"responses":{"age":"22","gender-categorical":"Male","gender-free-response":"","ethnicity":"Not Hispanic or Latino","race":["White"],"education":"High school","siblings":"3"},"trial_type":"survey-demo","trial_index":1,"time_elapsed":25169,"internal_node_id":"0.0-1.0","task_version":"prescreen-v0.3"},{"responses":{"Q10":"2","Q17":"2","Q04":"2","Q01":"1","Q21":"3","Q14":"0","Q08":"2","Q13":"1","Q03":"2","Q16":"0","Q20":"0","Q12":"1","Q19":"0","Q09":"3","Q11":"3","Q06":"0","Q18":"0","Q02":"2","Q07":"0","Q05":"0","Q15":"0"},"rt":82425.30000001192,"item_order":[9,16,3,0,20,13,7,12,2,15,19,11,18,8,10,5,17,1,6,4,14],"radio_events":[6634.800000011921,10614.800000011921,14935.699999988079,16799.69999998808,19726.5,27098.600000023842,28182.899999976158,31567.600000023842,35202.60000002384,39227,40940.10000002384,47124.69999998808,52861.80000001192,56473.80000001192,58441.80000001192,64631.69999998808,68667.10000002384,71931,76034.60000002384,78236.89999997616,81750.69999998808],"key_events":[],"mouse_events":[6634.800000011921,10614.800000011921,13101.699999988079,14935.699999988079,16799.69999998808,19726.5,24563.69999998808,25033.899999976158,27098.600000023842,28182.899999976158,31567.600000023842,35202.60000002384,39227,40940.10000002384,47124.69999998808,52861.80000001192,56473.80000001192,58441.80000001192,64631.69999998808,68667.10000002384,71931,76034.60000002384,78236.89999997616,81750.69999998808,82423.89999997616],"straightlining":0.42857142857142855,"zigzagging":0.4,"honeypot":0,"survey":"sns","trial_type":"survey-template","trial_index":2,"time_elapsed":107599,"internal_node_id":"0.0-2.0","task_version":"prescreen-v0.3","browser_interactions":0,"infrequency":0},{"responses":{"Q11":"2","Q06":"3","Q02":"2","Q07":"3","Q01":"2","Q10":"2","Q13":"0","Q03":"2","Q12":"1","Q04":"2","Q05":"2","Q08":"3","Q09":"2"},"rt":44296.10000002384,"item_order":[10,5,1,6,0,9,12,2,11,3,4,7,8],"radio_events":[5153.900000035763,8606.900000035763,10381,14877,17698,20119,23913,26460.900000035763,31543.19999998808,36024,38881,40278,42801,43569.19999998808],"key_events":[],"mouse_events":[5153.900000035763,8606.900000035763,10381,14046.199999988079,14402.900000035763,14877,17698,20119,23913,26460.900000035763,31072,31543.19999998808,36024,38881,40278,41796,42442.40000003576,42801,43569.19999998808,44295.19999998808],"straightlining":0.6153846153846154,"zigzagging":0.6666666666666666,"honeypot":0,"survey":"bisbas","trial_type":"survey-template","trial_index":3,"time_elapsed":151898,"internal_node_id":"0.0-3.0","task_version":"prescreen-v0.3","browser_interactions":0,"infrequency":0},{"responses":{"Q01":"2","Q02":"2","Q03":"2"},"rt":10140.900000035763,"radio_events":[4508.400000035763,6721.700000047684,8105.400000035763],"key_events":[],"mouse_events":[4508.400000035763,6721.700000047684,8105.400000035763,10140.5],"survey":"map","page":1,"trial_type":"survey-map","trial_index":4,"time_elapsed":162041,"internal_node_id":"0.0-4.0","task_version":"prescreen-v0.3","browser_interactions":0},{"responses":{"Q04":"2","Q05":"2","Q06":"2"},"rt":6128.800000011921,"radio_events":[2176.300000011921,4048.600000023842,4810.399999976158],"key_events":[],"mouse_events":[2176.300000011921,4048.600000023842,4810.399999976158,6128.399999976158],"survey":"map","page":2,"trial_type":"survey-map","trial_index":5,"time_elapsed":168172,"internal_node_id":"0.0-5.0","task_version":"prescreen-v0.3","browser_interactions":0},{"responses":{"Q07":"2","Q08":"3","Q09":"2"},"rt":10533.099999964237,"radio_events":[7190.699999988079,8002.5,8951.599999964237],"key_events":[],"mouse_events":[7190.699999988079,8002.5,8951.599999964237,10532.699999988079],"survey":"map","page":3,"trial_type":"survey-map","trial_index":6,"time_elapsed":178707,"internal_node_id":"0.0-6.0","task_version":"prescreen-v0.3","browser_interactions":0},{"responses":{"Q10":"2","Q11":"3","Q12":"3","Q13":"2","Q16":"3","Q14":"3","Q15":"3"},"rt":49739.89999997616,"radio_events":[33668.39999997616,34575.5,36916.5,37690.59999996424,38571.5,39182.69999998808,39835.5,42854.5,46066.5],"key_events":[],"mouse_events":[33668.39999997616,34575.5,35901.5,36625.5,36916.5,37690.59999996424,38305.5,38571.5,39182.69999998808,39835.5,42854.5,46066.5,49738.80000001192],"survey":"map","page":4,"trial_type":"survey-map","trial_index":7,"time_elapsed":228449,"internal_node_id":"0.0-7.0","task_version":"prescreen-v0.3","browser_interactions":4,"infrequency":1},{"view_history":[{"page_index":0,"viewing_time":3032.899999976158},{"page_index":1,"viewing_time":3811.900000035763}],"rt":6845.199999988079,"trial_type":"instructions","trial_index":8,"time_elapsed":235295,"internal_node_id":"0.0-8.0","task_version":"prescreen-v0.3"},{"responses":{"01":"No","02":"No","03":"No","04":"No","05":"No","06":"No"},"rt":18485.600000023842,"item_order":[0,1,2,3,4,5],"radio_events":[3307.300000011921,3799.300000011921,4334.199999988079,4766.5,5273.300000011921,5939],"checkbox_events":[],"key_events":[],"mouse_events":[3.5,3307.300000011921,3799.300000011921,4334.199999988079,4766.5,5273.300000011921,5939,18483.5],"honeypot":0,"survey":"mace","page":1,"trial_type":"survey-mace","trial_index":9,"time_elapsed":253786,"internal_node_id":"0.0-9.0","task_version":"prescreen-v0.3","browser_interactions":0},{"responses":{"01":"No","02":"No","03":"Yes","03_ages_6":"6","03_ages_8":"8","03_ages_10":"10","04":"No","05":"Yes","05_ages_6":"6","05_ages_8":"8","05_ages_10":"10","06":"No","07":"No","08":"No"},"rt":38521.89999997616,"item_order":[0,1,2,3,4,5,6,7],"radio_events":[1906.3999999761581,2891,3418.800000011921,3916.5,4564.5,5040.800000011921,5516.399999976158,6195.399999976158,17341.399999976158,34144.5],"checkbox_events":[23466,25939.399999976158,28550.19999998808,35830.30000001192,36348.39999997616,36828.5],"key_events":[],"mouse_events":[1906.3999999761581,2363.800000011921,2891,3418.800000011921,3916.5,4564.5,5040.800000011921,5516.399999976158,6195.399999976158,17341.399999976158,23466,25939.399999976158,28550.19999998808,34144.5,35830.30000001192,36348.39999997616,36828.5,38519.30000001192],"honeypot":0,"survey":"mace","page":2,"trial_type":"survey-mace","trial_index":10,"time_elapsed":292313,"internal_node_id":"0.0-10.0","task_version":"prescreen-v0.3","browser_interactions":0},{"responses":{"01":"No","02":"No","03":"No","04":"No"},"rt":6011.399999976158,"item_order":[0,1,2,3],"radio_events":[2176.099999964237,3326,3920,5064.099999964237],"checkbox_events":[],"key_events":[],"mouse_events":[2176.099999964237,3326,3920,5064.099999964237,6010],"honeypot":0,"survey":"mace","page":3,"trial_type":"survey-mace","trial_index":11,"time_elapsed":298327,"internal_node_id":"0.0-11.0","task_version":"prescreen-v0.3","browser_interactions":0},{"responses":{"01":"No","02":"No"},"rt":5586,"item_order":[0,1],"radio_events":[1581.4000000357628,3532.5],"checkbox_events":[],"key_events":[],"mouse_events":[1581.4000000357628,3532.5,5585.300000011921],"honeypot":0,"survey":"mace","page":4,"trial_type":"survey-mace","trial_index":12,"time_elapsed":303915,"internal_node_id":"0.0-12.0","task_version":"prescreen-v0.3","browser_interactions":0},{"responses":{"01":"No","02":"No","03":"No","04":"No","05":"No"},"rt":10355.400000035763,"item_order":[0,1,2,3,4],"radio_events":[2736.800000011921,3340.800000011921,4626.700000047684,5074.600000023842,5773.600000023842],"checkbox_events":[],"key_events":[],"mouse_events":[2736.800000011921,3340.800000011921,3976.7000000476837,4626.700000047684,5074.600000023842,5773.600000023842,10353.600000023842],"honeypot":0,"survey":"mace","page":5,"trial_type":"survey-mace","trial_index":13,"time_elapsed":314274,"internal_node_id":"0.0-13.0","task_version":"prescreen-v0.3","browser_interactions":0},{"responses":{"01":"No","02":"No","03":"No","04":"No","05":"No"},"rt":9256.799999952316,"item_order":[0,1,2,3,4],"radio_events":[2033.0999999642372,2706.699999988079,4201.199999988079,4688,5212],"checkbox_events":[],"key_events":[],"mouse_events":[2033.0999999642372,2706.699999988079,3415,3931.7999999523163,4201.199999988079,4688,5212,9255.099999964237],"honeypot":0,"survey":"mace","page":6,"trial_type":"survey-mace","trial_index":14,"time_elapsed":323534,"internal_node_id":"0.0-14.0","task_version":"prescreen-v0.3","browser_interactions":0},{"responses":{"01":"No","02":"No","03":"No","04":"No","05":"No","06":"No","07":"No"},"rt":18982.100000023842,"item_order":[0,1,2,3,4,5,6],"radio_events":[1675.800000011921,2284.699999988079,2882.5,3463.900000035763,3966.5,4518.800000011921,4973.300000011921],"checkbox_events":[],"key_events":[],"mouse_events":[1675.800000011921,2284.699999988079,2882.5,3463.900000035763,3966.5,4518.800000011921,4973.300000011921,18979.5],"honeypot":0,"survey":"mace","page":7,"trial_type":"survey-mace","trial_index":15,"time_elapsed":342520,"internal_node_id":"0.0-15.0","task_version":"prescreen-v0.3","browser_interactions":2},{"responses":{"01":"No","02":"No","03":"No","04":"No"},"rt":10756,"item_order":[0,1,2,3],"radio_events":[3905.699999988079,5277.099999964237,7657.699999988079,8919.199999988079],"checkbox_events":[],"key_events":[],"mouse_events":[3905.699999988079,5277.099999964237,7657.699999988079,8919.199999988079,10754.599999964237],"honeypot":0,"survey":"mace","page":8,"trial_type":"survey-mace","trial_index":16,"time_elapsed":353279,"internal_node_id":"0.0-16.0","task_version":"prescreen-v0.3","browser_interactions":0},{"responses":{"01":"No","02":"No","03":"No","04":"No"},"rt":5279.199999988079,"item_order":[0,1,2,3],"radio_events":[2258,2785.099999964237,3454,4035.899999976158],"checkbox_events":[],"key_events":[],"mouse_events":[2258,2785.099999964237,3454,4035.899999976158,5277.899999976158],"honeypot":0,"survey":"mace","page":9,"trial_type":"survey-mace","trial_index":17,"time_elapsed":358560,"internal_node_id":"0.0-17.0","task_version":"prescreen-v0.3","browser_interactions":0},{"responses":{"01":"No","02":"No","03":"No","04":"No","05":"No","06":"Yes","06_ages_17":"17","07":"Yes","07_ages_1":"1","07_ages_2":"2","07_ages_3":"3","07_ages_4":"4","07_ages_5":"5","07_ages_6":"6","07_ages_7":"7","07_ages_8":"8","07_ages_9":"9","07_ages_10":"10","07_ages_11":"11","07_ages_12":"12","07_ages_13":"13","07_ages_14":"14","07_ages_15":"15","07_ages_16":"16","07_ages_17":"17","07_ages_18":"18","08":"Yes","08_ages_1":"1","08_ages_2":"2","08_ages_3":"3","08_ages_4":"4","08_ages_5":"5","08_ages_6":"6","08_ages_7":"7","08_ages_8":"8","08_ages_9":"9","08_ages_10":"10","08_ages_11":"11","08_ages_12":"12","08_ages_13":"13","08_ages_14":"14","08_ages_15":"15","08_ages_16":"16","08_ages_17":"17","08_ages_18":"18"},"rt":56355.80000001192,"item_order":[0,1,2,3,4,5,6,7],"radio_events":[2582.800000011921,3726.699999988079,5435.800000011921,6833.800000011921,8341.600000023842,15822.100000023842,20317,20771.80000001192,23677.69999998808,42624.69999998808],"checkbox_events":[16974.899999976158,30837.899999976158,31222.69999998808,31561,31873.69999998808,32917.69999998808,33626.60000002384,34274.69999998808,34720.60000002384,35096.80000001192,35662.60000002384,36242.60000002384,36841.60000002384,37532.5,38137.60000002384,38760.69999998808,39480.60000002384,40184.60000002384,40977.60000002384,44330.60000002384,44777.5,45327.5,45660.80000001192,45943.69999998808,46249.69999998808,46582.5,47189.69999998808,47495.5,47895.60000002384,48908.60000002384,49308.69999998808,49963.69999998808,50423.80000001192,50779.60000002384,51383.60000002384,52555.69999998808,52797],"key_events":[],"mouse_events":[2582.800000011921,3726.699999988079,5435.800000011921,6833.800000011921,8341.600000023842,15822.100000023842,16974.899999976158,20317,20771.80000001192,23677.69999998808,30101.600000023842,30837.899999976158,31222.69999998808,31561,31873.69999998808,32208.600000023842,32535.5,32917.69999998808,33197.69999998808,33626.60000002384,34014.10000002384,34274.69999998808,34720.60000002384,35096.80000001192,35662.60000002384,36242.60000002384,36841.60000002384,37532.5,38137.60000002384,38760.69999998808,39480.60000002384,40184.60000002384,40977.60000002384,42624.69999998808,44074.60000002384,44330.60000002384,44777.5,45327.5,45660.80000001192,45943.69999998808,46249.69999998808,46582.5,46863.69999998808,47189.69999998808,47495.5,47895.60000002384,48134.60000002384,48264.80000001192,48401.60000002384,48547.60000002384,48685.30000001192,48793.80000001192,48908.60000002384,49066.5,49194.39999997616,49308.69999998808,49429.80000001192,49587.39999997616,49751.89999997616,49963.69999998808,50423.80000001192,50779.60000002384,51383.60000002384,51623.10000002384,51923.80000001192,52273.69999998808,52555.69999998808,52797,56353.10000002384],"honeypot":0,"survey":"mace","page":10,"trial_type":"survey-mace","trial_index":18,"time_elapsed":414921,"internal_node_id":"0.0-18.0","task_version":"prescreen-v0.3","browser_interactions":0,"instructed":0},{"rt":2748.2000000476837,"trial_type":"mental-health-alert","trial_index":19,"time_elapsed":417670,"internal_node_id":"0.0-19.0","task_version":"prescreen-v0.3","interactions":"[{\"event\":\"blur\",\"trial\":7,\"time\":181590},{\"event\":\"focus\",\"trial\":7,\"time\":197740},{\"event\":\"blur\",\"trial\":7,\"time\":199569},{\"event\":\"focus\",\"trial\":7,\"time\":209765},{\"event\":\"blur\",\"trial\":15,\"time\":329457},{\"event\":\"focus\",\"trial\":15,\"time\":336901}]"}]