[{"view_history":[{"page_index":0,"viewing_time":5762},{"page_index":1,"viewing_time":3572.900000035763},{"page_index":2,"viewing_time":5689.800000011921},{"page_index":3,"viewing_time":1315.199999988079}],"rt":16340.900000035763,"trial_type":"instructions","trial_index":0,"time_elapsed":16359,"internal_node_id":"0.0-0.0","task_version":"prescreen-v0.3"},{"rt":15245.699999988079,"responses":{"age":"18","gender-categorical":"Female","gender-free-response":"","ethnicity":"Not Hispanic or Latino","race":["Asian"],"education":"High school"},"trial_type":"survey-demo","trial_index":1,"time_elapsed":31612,"internal_node_id":"0.0-1.0","task_version":"prescreen-v0.3"},{"responses":{"Q17":"0","Q08":"2","Q18":"1","Q21":"3","Q07":"0","Q05":"0","Q14":"1","Q16":"0","Q02":"1","Q04":"2","Q12":"1","Q01":"2","Q11":"0","Q10":"1","Q06":"0","Q20":"1","Q03":"0","Q15":"2","Q13":"1","Q09":"2","Q19":"0"},"rt":106561.89999997616,"item_order":[16,7,17,20,6,4,13,15,1,3,11,0,10,9,5,19,2,14,12,8,18],"radio_events":[4797,7862.600000023842,11736.100000023842,15340.899999976158,28765.19999998808,31925,32146,38780.69999998808,43023.60000002384,53295.89999997616,54254.5,58608.19999998808,60100.39999997616,66831.10000002384,70039.10000002384,71514.60000002384,75726.60000002384,81117.19999998808,82466.60000002384,84800.10000002384,90117.39999997616,94533,101631.10000002384,104889.10000002384],"key_events":[],"mouse_events":[4797,7862.600000023842,11736.100000023842,14079.5,15340.899999976158,24301.600000023842,28765.19999998808,29901.19999998808,31064.399999976158,31925,32146,38780.69999998808,43023.60000002384,49376.60000002384,53295.89999997616,54254.5,56690.80000001192,58608.19999998808,60100.39999997616,66831.10000002384,68253,70039.10000002384,71514.60000002384,75726.60000002384,79260.10000002384,80251.10000002384,81117.19999998808,82466.60000002384,84800.10000002384,90117.39999997616,94533,101631.10000002384,104889.10000002384,106558],"straightlining":0.38095238095238093,"zigzagging":0.7,"honeypot":0,"survey":"sns","trial_type":"survey-template","trial_index":2,"time_elapsed":138182,"internal_node_id":"0.0-2.0","task_version":"prescreen-v0.3","browser_interactions":0,"infrequency":0},{"responses":{"Q08":"2","Q02":"2","Q03":"2","Q01":"3","Q05":"2","Q10":"1","Q06":"2","Q12":"1","Q04":"3","Q13":"0","Q09":"0","Q07":"3","Q11":"1"},"rt":88211.69999998808,"item_order":[7,1,2,0,4,9,5,11,3,12,8,6,10],"radio_events":[13189.699999988079,21585,27960.600000023842,30718.69999998808,32133.30000001192,35332,40183.69999998808,68907.69999998808,72993.69999998808,74870.80000001192,79397.5,82211,84935.19999998808],"key_events":[],"mouse_events":[11928.800000011921,13189.699999988079,21585,26827,27960.600000023842,29630.100000023842,30718.69999998808,32133.30000001192,35332,40183.69999998808,68907.69999998808,72993.69999998808,74870.80000001192,79397.5,81091.69999998808,82211,84935.19999998808,88210.19999998808],"straightlining":0.38461538461538464,"zigzagging":0.5833333333333334,"honeypot":0,"survey":"bisbas","trial_type":"survey-template","trial_index":3,"time_elapsed":226399,"internal_node_id":"0.0-3.0","task_version":"prescreen-v0.3","browser_interactions":2,"infrequency":0},{"responses":{"Q01":"4","Q02":"2","Q03":"3"},"rt":25447.399999976158,"radio_events":[9392.399999976158,13134.799999952316,20800.399999976158],"key_events":[],"mouse_events":[9392.399999976158,13134.799999952316,20800.399999976158,25446.5],"survey":"map","page":1,"trial_type":"survey-map","trial_index":4,"time_elapsed":251853,"internal_node_id":"0.0-4.0","task_version":"prescreen-v0.3","browser_interactions":0},{"responses":{"Q04":"4","Q05":"4","Q06":"3"},"rt":17075.100000023842,"radio_events":[8123.100000023842,10180.800000011921,15787.5],"key_events":[],"mouse_events":[8123.100000023842,10180.800000011921,15000.699999988079,15787.5,17074.100000023842],"survey":"map","page":2,"trial_type":"survey-map","trial_index":5,"time_elapsed":268932,"internal_node_id":"0.0-5.0","task_version":"prescreen-v0.3","browser_interactions":0},{"responses":{"Q07":"3","Q08":"0","Q09":"2"},"rt":19636.80000001192,"radio_events":[8317.600000023842,11248.300000011921,14118.900000035763,17749.80000001192],"key_events":[],"mouse_events":[8317.600000023842,11248.300000011921,14118.900000035763,17749.80000001192,19635.80000001192],"survey":"map","page":3,"trial_type":"survey-map","trial_index":6,"time_elapsed":288573,"internal_node_id":"0.0-6.0","task_version":"prescreen-v0.3","browser_interactions":0},{"responses":{"Q10":"2","Q11":"1","Q12":"3","Q13":"3","Q16":"0","Q14":"3","Q15":"3"},"rt":63633.5,"radio_events":[22794.299999952316,28995.599999964237,37134,42833.19999998808,48622.19999998808,55476.59999996424,58043.09999996424,62108],"key_events":[],"mouse_events":[17963.899999976158,22794.299999952316,28995.599999964237,33880.89999997616,37134,42833.19999998808,48622.19999998808,55476.59999996424,58043.09999996424,62108,63632.299999952316],"survey":"map","page":4,"trial_type":"survey-map","trial_index":7,"time_elapsed":352211,"internal_node_id":"0.0-7.0","task_version":"prescreen-v0.3","browser_interactions":0,"infrequency":0},{"view_history":[{"page_index":0,"viewing_time":2555.100000023842},{"page_index":1,"viewing_time":4862.399999976158}],"rt":7418.100000023842,"trial_type":"instructions","trial_index":8,"time_elapsed":359631,"internal_node_id":"0.0-8.0","task_version":"prescreen-v0.3"},{"responses":{"01":"No","02":"Yes","02_ages_14":"14","02_ages_15":"15","02_ages_16":"16","02_ages_17":"17","02_ages_18":"18","03":"Yes","03_ages_13":"13","03_ages_14":"14","04":"Yes","04_ages_10":"10","04_ages_11":"11","04_ages_12":"12","05":"No","06":"Yes","06_ages_3":"3","06_ages_4":"4","06_ages_5":"5","06_ages_6":"6","06_ages_7":"7","06_ages_8":"8","06_ages_9":"9","06_ages_10":"10"},"rt":95338.10000002384,"item_order":[0,1,2,3,4,5],"radio_events":[5825.100000023842,9085.800000011921,34546.30000001192,37109.10000002384,48050.90000003576,74704.69999998808,76199.30000001192],"checkbox_events":[16946.900000035763,17906.5,18792.400000035763,19875.30000001192,20883.19999998808,21872.600000023842,23243.400000035763,27240.30000001192,28604,30315.19999998808,31240.600000023842,41104.5,45354,54063.5,57136.19999998808,58543.90000003576,65308.60000002384,66864.30000001192,67838,69191.80000001192,78340.40000003576,79205.5,81020.90000003576,83595.60000002384,84495.5,85848.90000003576,86804.10000002384,87711.80000001192,88561.5,89644.90000003576,91784.69999998808,92955],"key_events":[],"mouse_events":[0.40000003576278687,5825.100000023842,9085.800000011921,16946.900000035763,17906.5,18792.400000035763,19875.30000001192,20883.19999998808,21872.600000023842,23243.400000035763,25535.900000035763,27240.30000001192,28030.30000001192,28604,30315.19999998808,31240.600000023842,34546.30000001192,37109.10000002384,41104.5,45354,46878.69999998808,48050.90000003576,53045.69999998808,54063.5,55313.19999998808,57136.19999998808,58543.90000003576,65308.60000002384,66864.30000001192,67838,69191.80000001192,73146.60000002384,74704.69999998808,76199.30000001192,78340.40000003576,79205.5,80018.30000001192,81020.90000003576,82763.60000002384,83595.60000002384,84495.5,85848.90000003576,86804.10000002384,87711.80000001192,88561.5,89644.90000003576,91784.69999998808,92955,95334.80000001192],"honeypot":0,"survey":"mace","page":1,"trial_type":"survey-mace","trial_index":9,"time_elapsed":454979,"internal_node_id":"0.0-9.0","task_version":"prescreen-v0.3","browser_interactions":0},{"responses":{"01":"Yes","01_ages_3":"3","01_ages_4":"4","01_ages_5":"5","01_ages_6":"6","02":"No","03":"Yes","03_ages_3":"3","03_ages_4":"4","03_ages_5":"5","03_ages_6":"6","03_ages_7":"7","03_ages_8":"8","03_ages_9":"9","03_ages_10":"10","04":"Yes","04_ages_3":"3","04_ages_4":"4","04_ages_5":"5","04_ages_6":"6","04_ages_7":"7","04_ages_8":"8","05":"No","06":"No","07":"No","08":"No"},"rt":52954.5,"item_order":[0,1,2,3,4,5,6,7],"radio_events":[3460.5,17766,19047.600000023842,35113.10000002384,46394.30000001192,49323.10000002384,50798.80000001192,51976.30000001192],"checkbox_events":[6638.300000011921,8423.800000011921,10245.400000035763,11631.600000023842,21299.80000001192,21720.400000035763,23200.5,24204.200000047684,26426.200000047684,27305.200000047684,28698.80000001192,29816.600000023842,30942.600000023842,32008.700000047684,36494.40000003576,37785.10000002384,38681.10000002384,39542.80000001192,40435.90000003576,41187,43060.40000003576,44434.60000002384],"key_events":[],"mouse_events":[3460.5,6638.300000011921,8423.800000011921,10245.400000035763,11631.600000023842,17766,19047.600000023842,21299.80000001192,21720.400000035763,23200.5,24204.200000047684,25659.100000023842,26426.200000047684,27305.200000047684,28698.80000001192,29816.600000023842,30942.600000023842,32008.700000047684,34232.90000003576,35113.10000002384,36494.40000003576,37785.10000002384,38681.10000002384,39542.80000001192,40435.90000003576,41187,43060.40000003576,44434.60000002384,46394.30000001192,47656.60000002384,48875.700000047684,49323.10000002384,50798.80000001192,51976.30000001192,52950.5],"honeypot":0,"survey":"mace","page":2,"trial_type":"survey-mace","trial_index":10,"time_elapsed":507942,"internal_node_id":"0.0-10.0","task_version":"prescreen-v0.3","browser_interactions":0},{"responses":{"01":"No","02":"No","03":"No","04":"No"},"rt":15564.199999988079,"item_order":[0,1,2,3],"radio_events":[7469.199999988079,8929.5,10314.300000011921,11522.399999976158],"checkbox_events":[],"key_events":[],"mouse_events":[7469.199999988079,8929.5,10314.300000011921,11522.399999976158,15561.899999976158],"honeypot":0,"survey":"mace","page":3,"trial_type":"survey-mace","trial_index":11,"time_elapsed":523513,"internal_node_id":"0.0-11.0","task_version":"prescreen-v0.3","browser_interactions":0},{"responses":{"01":"No","02":"No"},"rt":9808.899999976158,"item_order":[0,1],"radio_events":[6695.800000011921,8832.800000011921],"checkbox_events":[],"key_events":[],"mouse_events":[6695.800000011921,7843.199999988079,8832.800000011921,9807.599999964237],"honeypot":0,"survey":"mace","page":4,"trial_type":"survey-mace","trial_index":12,"time_elapsed":533325,"internal_node_id":"0.0-12.0","task_version":"prescreen-v0.3","browser_interactions":0},{"responses":{"01":"Yes","01_ages_3":"3","01_ages_4":"4","01_ages_5":"5","02":"Yes","02_ages_3":"3","02_ages_4":"4","03":"No","04":"Yes","04_ages_3":"3","04_ages_4":"4","04_ages_5":"5","05":"No"},"rt":49808.5,"item_order":[0,1,2,3,4],"radio_events":[8164,28443.69999998808,35521.69999998808,40334.5,48470.10000002384],"checkbox_events":[10299.100000023842,13301.400000035763,17831.69999998808,30961.80000001192,31736,42392.60000002384,44042.80000001192,45544],"key_events":[],"mouse_events":[8164,10299.100000023842,13301.400000035763,17831.69999998808,28443.69999998808,30539.100000023842,30961.80000001192,31736,35521.69999998808,40334.5,41993.69999998808,42392.60000002384,44042.80000001192,45544,48470.10000002384,49805.90000003576],"honeypot":0,"survey":"mace","page":5,"trial_type":"survey-mace","trial_index":13,"time_elapsed":583140,"internal_node_id":"0.0-13.0","task_version":"prescreen-v0.3","browser_interactions":0},{"responses":{"01":"No","02":"Yes","02_ages_12":"12","02_ages_13":"13","03":"No","04":"No","05":"No"},"rt":25036.600000023842,"item_order":[0,1,2,3,4],"radio_events":[3562.5,10966.899999976158,20873.100000023842,22387.69999998808,24162.80000001192],"checkbox_events":[16360.199999988079,16777.5,17700.30000001192,18749.600000023842],"key_events":[],"mouse_events":[3562.5,10966.899999976158,16360.199999988079,16777.5,17700.30000001192,18749.600000023842,20873.100000023842,22387.69999998808,24162.80000001192,25033.899999976158],"honeypot":0,"survey":"mace","page":6,"trial_type":"survey-mace","trial_index":14,"time_elapsed":608182,"internal_node_id":"0.0-14.0","task_version":"prescreen-v0.3","browser_interactions":0},{"responses":{"01":"No","02":"No","03":"No","04":"No","05":"No","06":"No","07":"No"},"rt":19937.80000001192,"item_order":[0,1,2,3,4,5,6],"radio_events":[6213.199999988079,7618.100000023842,8793.400000035763,10507.100000023842,11561.800000011921,13114.800000011921,14296.900000035763],"checkbox_events":[],"key_events":[],"mouse_events":[207.5,6213.199999988079,7618.100000023842,8793.400000035763,10507.100000023842,11561.800000011921,13114.800000011921,14296.900000035763,19933.30000001192],"honeypot":0,"survey":"mace","page":7,"trial_type":"survey-mace","trial_index":15,"time_elapsed":628126,"internal_node_id":"0.0-15.0","task_version":"prescreen-v0.3","browser_interactions":0},{"responses":{"01":"No","02":"No","03":"No","04":"No"},"rt":12384.899999976158,"item_order":[0,1,2,3],"radio_events":[5910,7475.5,10120.5,11502.5],"checkbox_events":[],"key_events":[],"mouse_events":[5910,7475.5,10120.5,11502.5,12382.600000023842],"honeypot":0,"survey":"mace","page":8,"trial_type":"survey-mace","trial_index":16,"time_elapsed":640516,"internal_node_id":"0.0-16.0","task_version":"prescreen-v0.3","browser_interactions":0},{"responses":{"01":"Yes","01_ages_1":"1","01_ages_2":"2","01_ages_3":"3","01_ages_4":"4","01_ages_5":"5","01_ages_6":"6","01_ages_7":"7","01_ages_8":"8","01_ages_9":"9","01_ages_10":"10","01_ages_11":"11","01_ages_12":"12","01_ages_13":"13","01_ages_14":"14","01_ages_15":"15","01_ages_16":"16","01_ages_17":"17","01_ages_18":"18","02":"Yes","02_ages_1":"1","02_ages_2":"2","02_ages_3":"3","02_ages_4":"4","02_ages_5":"5","02_ages_6":"6","02_ages_7":"7","02_ages_8":"8","02_ages_9":"9","02_ages_10":"10","02_ages_11":"11","02_ages_12":"12","02_ages_13":"13","02_ages_14":"14","02_ages_15":"15","02_ages_16":"16","02_ages_17":"17","02_ages_18":"18","03":"Yes","03_ages_1":"1","03_ages_2":"2","03_ages_3":"3","03_ages_4":"4","03_ages_5":"5","03_ages_6":"6","03_ages_7":"7","03_ages_8":"8","03_ages_9":"9","03_ages_10":"10","03_ages_11":"11","03_ages_12":"12","03_ages_13":"13","03_ages_14":"14","03_ages_15":"15","03_ages_16":"16","03_ages_17":"17","03_ages_18":"18","04":"Yes","04_ages_1":"1","04_ages_2":"2","04_ages_3":"3","04_ages_4":"4","04_ages_5":"5","04_ages_6":"6","04_ages_7":"7","04_ages_8":"8","04_ages_9":"9","04_ages_10":"10","04_ages_11":"11","04_ages_12":"12","04_ages_13":"13","04_ages_14":"14","04_ages_15":"15","04_ages_16":"16","04_ages_17":"17","04_ages_18":"18"},"rt":95428.89999997616,"item_order":[0,1,2,3],"radio_events":[3368.800000011921,30977.30000001192,59038.69999998808,61848],"checkbox_events":[7138.899999976158,7974,8933.5,10222.899999976158,11872,13126.800000011921,14167.800000011921,15884.300000011921,16306.399999976158,16886.099999964237,18351.69999998808,19261.80000001192,20615.69999998808,21490.099999964237,22364.099999964237,24850.69999998808,25750.19999998808,26880.30000001192,27934,29099.899999976158,34328.39999997616,35491.89999997616,36751.39999997616,36969,38040.5,38263.39999997616,39458.69999998808,40516.80000001192,41444.59999996424,42887.5,43780.5,44994.30000001192,46015.80000001192,47352.09999996424,49126,49964.80000001192,50189.5,51279,52202.80000001192,53300.30000001192,54193.19999998808,55054.5,56293.89999997616,57248.5,64476.30000001192,65271.80000001192,66002.89999997616,66762.80000001192,68438.19999998808,69204.80000001192,70338.30000001192,71373.30000001192,72195.80000001192,72913,73715.80000001192,74574.80000001192,75462,76222.19999998808,77164.69999998808,78046.69999998808,78636.69999998808,79186.30000001192,82260.89999997616,82985.39999997616,83787.09999996424,85482.5,86328.19999998808,87024.5,87608.89999997616,88144.19999998808,88713.59999996424,89468.59999996424,89973.69999998808,90487.89999997616,90993.80000001192,91544.39999997616,92049.09999996424,93358.09999996424,93886.30000001192,94435.39999997616],"key_events":[],"mouse_events":[3368.800000011921,6319,7138.899999976158,7974,8933.5,10222.899999976158,11395.300000011921,11872,13126.800000011921,14167.800000011921,15884.300000011921,16306.399999976158,16886.099999964237,18351.69999998808,19261.80000001192,20615.69999998808,21490.099999964237,22364.099999964237,23913.30000001192,24850.69999998808,25750.19999998808,26880.30000001192,27934,29099.899999976158,30977.30000001192,32996.80000001192,34328.39999997616,35491.89999997616,36751.39999997616,36969,38040.5,38263.39999997616,39458.69999998808,40516.80000001192,41444.59999996424,42887.5,43780.5,44994.30000001192,46015.80000001192,47352.09999996424,49126,49964.80000001192,50189.5,51279,52202.80000001192,53300.30000001192,54193.19999998808,55054.5,56293.89999997616,57248.5,59038.69999998808,61107.19999998808,61848,63751.5,64476.30000001192,65271.80000001192,66002.89999997616,66762.80000001192,67712.30000001192,68438.19999998808,69204.80000001192,70338.30000001192,71373.30000001192,72195.80000001192,72913,73715.80000001192,74574.80000001192,75462,76222.19999998808,77164.69999998808,78046.69999998808,78636.69999998808,79186.30000001192,82260.89999997616,82985.39999997616,83787.09999996424,84797.5,85482.5,86328.19999998808,87024.5,87608.89999997616,88144.19999998808,88713.59999996424,89468.59999996424,89973.69999998808,90487.89999997616,90993.80000001192,91544.39999997616,92049.09999996424,93358.09999996424,93886.30000001192,94435.39999997616,95426.80000001192],"honeypot":0,"survey":"mace","page":9,"trial_type":"survey-mace","trial_index":17,"time_elapsed":735952,"internal_node_id":"0.0-17.0","task_version":"prescreen-v0.3","browser_interactions":0},{"responses":{"01":"No","02":"No","03":"No","04":"No","05":"No","06":"Yes","06_ages_17":"17","07":"Yes","07_ages_3":"3","07_ages_4":"4","07_ages_5":"5","07_ages_6":"6","07_ages_7":"7","07_ages_8":"8","07_ages_9":"9","07_ages_10":"10","07_ages_11":"11","07_ages_12":"12","07_ages_13":"13","07_ages_14":"14","07_ages_15":"15","07_ages_16":"16","07_ages_17":"17","07_ages_18":"18","08":"Yes","08_ages_10":"10","08_ages_11":"11","08_ages_12":"12","08_ages_13":"13","08_ages_14":"14","08_ages_15":"15","08_ages_16":"16","08_ages_17":"17","08_ages_18":"18"},"rt":57490.5,"item_order":[0,1,2,3,4,5,6,7],"radio_events":[5006.399999976158,6174.699999988079,7081.399999976158,8758.299999952316,10256.299999952316,13043.399999976158,19860.599999964237,44176.09999996424],"checkbox_events":[15146.399999976158,27349.299999952316,27996.599999964237,28630.5,29235.899999976158,29847.399999976158,30459.69999998808,31149.399999976158,31747.099999964237,32458.69999998808,32986.89999997616,33550,34167.799999952316,35534.5,36258.89999997616,36808.799999952316,39560.69999998808,45365.59999996424,46315.299999952316,46927.69999998808,48117.19999998808,49474.799999952316,50066.799999952316,51389.69999998808,51923.89999997616,52556.19999998808],"key_events":[],"mouse_events":[5006.399999976158,6174.699999988079,7081.399999976158,8758.299999952316,10256.299999952316,13043.399999976158,15146.399999976158,19860.599999964237,27349.299999952316,27996.599999964237,28630.5,29235.899999976158,29847.399999976158,30459.69999998808,31149.399999976158,31747.099999964237,32458.69999998808,32986.89999997616,33550,34167.799999952316,34971.5,35534.5,36258.89999997616,36808.799999952316,37919.09999996424,39560.69999998808,44176.09999996424,45365.59999996424,46315.299999952316,46927.69999998808,47504.69999998808,48117.19999998808,48863.09999996424,49474.799999952316,50066.799999952316,51389.69999998808,51923.89999997616,52556.19999998808,57486.39999997616],"honeypot":0,"survey":"mace","page":10,"trial_type":"survey-mace","trial_index":18,"time_elapsed":793450,"internal_node_id":"0.0-18.0","task_version":"prescreen-v0.3","browser_interactions":2,"instructed":0},{"rt":3593.900000035763,"trial_type":"mental-health-alert","trial_index":19,"time_elapsed":797046,"internal_node_id":"0.0-19.0","task_version":"prescreen-v0.3","interactions":"[{\"event\":\"blur\",\"trial\":3,\"time\":186050},{\"event\":\"focus\",\"trial\":3,\"time\":202003},{\"event\":\"blur\",\"trial\":18,\"time\":788954},{\"event\":\"focus\",\"trial\":18,\"time\":790977}]"}]