[{"view_history":[{"page_index":0,"viewing_time":3204},{"page_index":1,"viewing_time":4091},{"page_index":2,"viewing_time":5015},{"page_index":3,"viewing_time":1831}],"rt":14142.000000000002,"trial_type":"instructions","trial_index":0,"time_elapsed":14149,"internal_node_id":"0.0-0.0","task_version":"prescreen-v0.3"},{"rt":15958,"responses":{"age":"20","gender-categorical":"Female","gender-free-response":"","ethnicity":"Hispanic or Latino","race":["White"],"education":"Some college"},"trial_type":"survey-demo","trial_index":1,"time_elapsed":30118,"internal_node_id":"0.0-1.0","task_version":"prescreen-v0.3"},{"responses":{"Q02":"1","Q12":"1","Q21":"3","Q19":"1","Q14":"2","Q17":"0","Q13":"2","Q01":"2","Q06":"1","Q18":"1","Q09":"3","Q20":"0","Q10":"2","Q08":"2","Q05":"2","Q04":"3","Q07":"1","Q11":"2","Q15":"3","Q03":"1","Q16":"2"},"rt":126794,"item_order":[1,11,20,18,13,16,12,0,5,17,8,19,9,7,4,3,6,10,14,2,15],"radio_events":[7662.999999999996,13404.999999999996,17933.999999999996,23281.999999999996,29341.999999999996,32551.999999999996,34307,38615,42057,44257,53977,60155,64551,74721,78636,92801,97157,105463,109322,117980,122416,125780],"key_events":[],"mouse_events":[6973.999999999996,7662.999999999996,11746.000000000004,12290.999999999996,13404.999999999996,17933.999999999996,23281.999999999996,29341.999999999996,32551.999999999996,34307,38134,38615,42057,44257,52687,53977,58957,59542,60155,63257,63826,64551,69980,74031,74721,77874,78636,92204,92801,96600,97157,105463,108650,109322,116953,117980,122416,125780,126782],"straightlining":0.38095238095238093,"zigzagging":0.35,"honeypot":0,"survey":"sns","trial_type":"survey-template","trial_index":2,"time_elapsed":156923,"internal_node_id":"0.0-2.0","task_version":"prescreen-v0.3","browser_interactions":0,"infrequency":0},{"responses":{"Q08":"3","Q13":"0","Q09":"2","Q02":"3","Q10":"2","Q03":"3","Q06":"2","Q05":"3","Q12":"1","Q07":"3","Q01":"2","Q04":"3","Q11":"2"},"rt":73497,"item_order":[7,12,8,1,9,2,5,4,11,6,0,3,10],"radio_events":[17853,22782,30132,32753,35866,39364,41392.00000000003,43183,46076,54759,60104,62388,66823,72630.00000000003],"key_events":[],"mouse_events":[17853,22782,29587,30132,32753,35866,39364,41392.00000000003,43183,46076,53132,54759,59459,60104,62388,66823,72630.00000000003,73488],"straightlining":0.46153846153846156,"zigzagging":0.75,"honeypot":0,"survey":"bisbas","trial_type":"survey-template","trial_index":3,"time_elapsed":230429,"internal_node_id":"0.0-3.0","task_version":"prescreen-v0.3","browser_interactions":0,"infrequency":0},{"responses":{"Q01":"4","Q02":"2","Q03":"4"},"rt":20542,"radio_events":[8721,12451,14302,19658],"key_events":[],"mouse_events":[7174,8721,12451,14302,19658,20531],"survey":"map","page":1,"trial_type":"survey-map","trial_index":4,"time_elapsed":250979,"internal_node_id":"0.0-4.0","task_version":"prescreen-v0.3","browser_interactions":0},{"responses":{"Q04":"2","Q05":"2","Q06":"3"},"rt":16241,"radio_events":[5739,10434,15103],"key_events":[],"mouse_events":[5739,10434,15103,16237],"survey":"map","page":2,"trial_type":"survey-map","trial_index":5,"time_elapsed":267228,"internal_node_id":"0.0-5.0","task_version":"prescreen-v0.3","browser_interactions":0},{"responses":{"Q07":"2","Q08":"0","Q09":"1"},"rt":17704.00000000006,"radio_events":[7673,11596,16543],"key_events":[],"mouse_events":[7673,11596,16543,17701],"survey":"map","page":3,"trial_type":"survey-map","trial_index":6,"time_elapsed":284939,"internal_node_id":"0.0-6.0","task_version":"prescreen-v0.3","browser_interactions":0},{"responses":{"Q10":"2","Q11":"1","Q12":"0","Q13":"0","Q16":"0","Q14":"1","Q15":"0"},"rt":37464,"radio_events":[4779,8598,14318,17424,26527,32694,35508],"key_events":[],"mouse_events":[4779,8598,14318,17424,26527,32009,32694,35508,37459],"survey":"map","page":4,"trial_type":"survey-map","trial_index":7,"time_elapsed":322410,"internal_node_id":"0.0-7.0","task_version":"prescreen-v0.3","browser_interactions":0,"infrequency":0},{"view_history":[{"page_index":0,"viewing_time":2215},{"page_index":1,"viewing_time":5056}],"rt":7271,"trial_type":"instructions","trial_index":8,"time_elapsed":329688,"internal_node_id":"0.0-8.0","task_version":"prescreen-v0.3"},{"responses":{"01":"Yes","01_ages_11":"11","01_ages_12":"12","01_ages_13":"13","01_ages_14":"14","01_ages_15":"15","01_ages_16":"16","01_ages_17":"17","01_ages_18":"18","02":"Yes","02_ages_11":"11","02_ages_12":"12","02_ages_13":"13","03":"Yes","03_ages_12":"12","03_ages_13":"13","03_ages_14":"14","03_ages_15":"15","04":"No","05":"No","06":"Yes","06_ages_7":"7","06_ages_8":"8","06_ages_9":"9","06_ages_10":"10","06_ages_11":"11"},"rt":68655,"item_order":[0,1,2,3,4,5],"radio_events":[13149,23182,31349,34394.00000000006,39061,52212],"checkbox_events":[17681,18210,18899,24673,25154,26095,26985,27522,40868,41389.00000000006,42735,43208,53414,54064,54609,55097,55603.00000000006,56456,56913,57402],"key_events":[],"mouse_events":[0,12103.000000000058,13149,17681,18210,18899,23182,24673,25154,25634,26095,26576,26985,27522,31349,34394.00000000006,39061,40868,41389.00000000006,42094,42735,43208,52212,53414,54064,54609,55097,55603.00000000006,56079.00000000006,56456,56913,57402,68643],"honeypot":0,"survey":"mace","page":1,"trial_type":"survey-mace","trial_index":9,"time_elapsed":398350,"internal_node_id":"0.0-9.0","task_version":"prescreen-v0.3","browser_interactions":0},{"responses":{"01":"No","02":"No","03":"Yes","03_ages_7":"7","03_ages_8":"8","03_ages_9":"9","03_ages_10":"10","03_ages_11":"11","04":"No","05":"Yes","05_ages_6":"6","05_ages_7":"7","05_ages_8":"8","05_ages_9":"9","05_ages_10":"10","05_ages_11":"11","05_ages_12":"12","06":"No","07":"No","08":"No"},"rt":49122,"item_order":[0,1,2,3,4,5,6,7],"radio_events":[5913,8293,11816,19087.00000000006,21512,36400,38332,46683],"checkbox_events":[13255,13888,14305,15299,15740,22449,22842.00000000006,23283,23700.00000000006,24101,24501,24938.00000000006,25395,27287],"key_events":[],"mouse_events":[5913,8293,10887,11816,13255,13888,14305,14739,15299,15740,19087.00000000006,21512,22449,22842.00000000006,23283,23700.00000000006,24101,24501,24938.00000000006,25395,27287,30890.00000000006,32693.00000000006,36400,38332,46683,49108],"honeypot":0,"survey":"mace","page":2,"trial_type":"survey-mace","trial_index":10,"time_elapsed":447482,"internal_node_id":"0.0-10.0","task_version":"prescreen-v0.3","browser_interactions":0},{"responses":{"01":"No","02":"No","03":"No","04":"No"},"rt":10585,"item_order":[0,1,2,3],"radio_events":[4237,6510.000000000058,9146,9787],"checkbox_events":[],"key_events":[],"mouse_events":[4237,6510.000000000058,7663,8625,9146,9787,10577],"honeypot":0,"survey":"mace","page":3,"trial_type":"survey-mace","trial_index":11,"time_elapsed":458075,"internal_node_id":"0.0-11.0","task_version":"prescreen-v0.3","browser_interactions":0},{"responses":{"01":"Yes","01_ages_8":"8","02":"No"},"rt":17707,"item_order":[0,1],"radio_events":[9347.999999999942,15234.999999999942],"checkbox_events":[11759.999999999942],"key_events":[],"mouse_events":[9347.999999999942,11759.999999999942,15234.999999999942,17698.99999999994],"honeypot":0,"survey":"mace","page":4,"trial_type":"survey-mace","trial_index":12,"time_elapsed":475791,"internal_node_id":"0.0-12.0","task_version":"prescreen-v0.3","browser_interactions":0},{"responses":{"01":"No","02":"No","03":"No","04":"Yes","04_ages_10":"10","04_ages_11":"11","04_ages_12":"12","04_ages_13":"13","05":"No"},"rt":31526,"item_order":[0,1,2,3,4],"radio_events":[13218,16187,17454,22496,30045],"checkbox_events":[24816,25641,26002,27304],"key_events":[],"mouse_events":[13218,16187,17454,21967,22496,24816,25208,25641,26002,26419,26827,27304,30045,31516],"honeypot":0,"survey":"mace","page":5,"trial_type":"survey-mace","trial_index":13,"time_elapsed":507326,"internal_node_id":"0.0-13.0","task_version":"prescreen-v0.3","browser_interactions":0},{"responses":{"01":"Yes","01_ages_6":"6","01_ages_7":"7","01_ages_8":"8","01_ages_9":"9","01_ages_10":"10","01_ages_11":"11","01_ages_12":"12","01_ages_13":"13","01_ages_14":"14","01_ages_15":"15","01_ages_16":"16","01_ages_17":"17","01_ages_18":"18","02":"Yes","02_ages_8":"8","02_ages_9":"9","02_ages_10":"10","02_ages_11":"11","02_ages_12":"12","02_ages_13":"13","02_ages_14":"14","02_ages_15":"15","02_ages_16":"16","03":"No","04":"Yes","04_ages_17":"17","04_ages_18":"18","05":"No"},"rt":41998,"item_order":[0,1,2,3,4],"radio_events":[4724,17039,28307,36857,40948],"checkbox_events":[5766.000000000058,6464,6896,7281,7696.999999999942,8398.999999999942,9472.000000000058,10162,11036,11412.999999999942,11869,12787,13300,18738,19147,19515,19964,20381,20803.000000000116,21219,23487,23887,37647,38095],"key_events":[],"mouse_events":[4724,5766.000000000058,6094,6464,6896,7281,7696.999999999942,8398.999999999942,8832.000000000058,9472.000000000058,9816.999999999942,10162,10579,11036,11412.999999999942,11869,12330,12787,13300,17039,18738,19147,19515,19964,20381,20803.000000000116,21219,23487,23887,26648,28307,33539,36857,37647,38095,40948,41986.00000000012],"honeypot":0,"survey":"mace","page":6,"trial_type":"survey-mace","trial_index":14,"time_elapsed":549334,"internal_node_id":"0.0-14.0","task_version":"prescreen-v0.3","browser_interactions":0},{"responses":{"01":"No","02":"No","03":"No","04":"No","05":"No","06":"No","07":"No"},"rt":18438,"item_order":[0,1,2,3,4,5,6],"radio_events":[5509,7040,9737,13519,15347.000000000116,16938,17859],"checkbox_events":[],"key_events":[],"mouse_events":[5509,7040,9737,12525.000000000116,12926,13519,15347.000000000116,16938,17859,18428],"honeypot":0,"survey":"mace","page":7,"trial_type":"survey-mace","trial_index":15,"time_elapsed":567783,"internal_node_id":"0.0-15.0","task_version":"prescreen-v0.3","browser_interactions":0},{"responses":{"01":"No","02":"No","03":"No","04":"No"},"rt":12878.999999999884,"item_order":[0,1,2,3],"radio_events":[5955.999999999884,7882.999999999884,10447.999999999884,12110.999999999884],"checkbox_events":[],"key_events":[],"mouse_events":[5955.999999999884,7329.999999999884,7882.999999999884,10447.999999999884,12110.999999999884,12871.999999999884],"honeypot":0,"survey":"mace","page":8,"trial_type":"survey-mace","trial_index":16,"time_elapsed":580671,"internal_node_id":"0.0-16.0","task_version":"prescreen-v0.3","browser_interactions":0},{"responses":{"01":"Yes","01_ages_5":"5","01_ages_6":"6","01_ages_7":"7","01_ages_8":"8","01_ages_9":"9","01_ages_10":"10","01_ages_11":"11","01_ages_12":"12","01_ages_13":"13","01_ages_14":"14","01_ages_15":"15","01_ages_16":"16","01_ages_17":"17","01_ages_18":"18","02":"Yes","02_ages_12":"12","02_ages_13":"13","02_ages_14":"14","02_ages_15":"15","02_ages_16":"16","02_ages_17":"17","02_ages_18":"18","03":"Yes","03_ages_1":"1","03_ages_2":"2","03_ages_3":"3","03_ages_4":"4","03_ages_5":"5","03_ages_6":"6","03_ages_7":"7","03_ages_8":"8","03_ages_9":"9","03_ages_10":"10","03_ages_11":"11","03_ages_12":"12","03_ages_13":"13","03_ages_14":"14","03_ages_15":"15","03_ages_16":"16","03_ages_17":"17","03_ages_18":"18","04":"Yes","04_ages_5":"5","04_ages_6":"6","04_ages_7":"7","04_ages_8":"8"},"rt":54318,"item_order":[0,1,2,3],"radio_events":[4035,21258,30241,46502],"checkbox_events":[8014,8944,9377,9914.000000000116,10322,11448,11841,12707.000000000116,13107,13508,14253,14670,15115,15548,15948,17872,18336,18954,22083,23509,23922,24339,24756,25245,25910,26375,27096,31668,32001,32393,32818,33219,33636,34052,34461,35398,35799,36228,36661,37606.00000000012,38007,38488,39065,40059,43236.00000000012,49038,49767,50184,51234],"key_events":[],"mouse_events":[3201,4035,8014,8463,8944,9377,9914.000000000116,10322,10679,11448,11841,12218,12707.000000000116,13107,13508,14253,14670,15115,15548,15948,16485,16998,17447,17872,18336,18954,21258,22083,22475,23509,23922,24339,24756,25245,25910,26375,27096,29296,30241,31668,32001,32393,32818,33219,33636,34052,34461,34885.00000000012,35398,35799,36228,36661,37117,37606.00000000012,38007,38488,39065,39538,40059,43236.00000000012,46502,47968,48674,49038,49423,49767,50184,51234,54307],"honeypot":0,"survey":"mace","page":9,"trial_type":"survey-mace","trial_index":17,"time_elapsed":634999,"internal_node_id":"0.0-17.0","task_version":"prescreen-v0.3","browser_interactions":0},{"responses":{"01":"No","02":"No","03":"No","04":"No","05":"No","06":"Yes","06_ages_17":"17","07":"Yes","07_ages_8":"8","07_ages_9":"9","07_ages_10":"10","07_ages_11":"11","07_ages_12":"12","07_ages_13":"13","07_ages_14":"14","07_ages_15":"15","07_ages_16":"16","07_ages_17":"17","07_ages_18":"18","08":"Yes","08_ages_10":"10","08_ages_11":"11","08_ages_12":"12","08_ages_13":"13","08_ages_14":"14","08_ages_15":"15","08_ages_16":"16","08_ages_17":"17","08_ages_18":"18"},"rt":53817,"item_order":[0,1,2,3,4,5,6,7],"radio_events":[2464,6042,8643,11047,14289,19934,25043,41308],"checkbox_events":[16464,33567,33915,34276,34652,35021,35815,36728,37786,38720,39481,40371,44990,45519,46096,46637,47198,47647,48135,48785,49322],"key_events":[],"mouse_events":[2464,4856,6042,8643,11047,14289,16464,19934,25043,33567,33915,34276,34652,35021,35414,35815,36296,36728,37161,37786,38391,38720,39481,40371,41308,43612,44037,44558,44990,45519,46096,46637,47198,47647,48135,48785,49322,53805],"honeypot":0,"survey":"mace","page":10,"trial_type":"survey-mace","trial_index":18,"time_elapsed":688826,"internal_node_id":"0.0-18.0","task_version":"prescreen-v0.3","browser_interactions":0,"instructed":0},{"rt":12308.999999999884,"trial_type":"mental-health-alert","trial_index":19,"time_elapsed":701144,"internal_node_id":"0.0-19.0","task_version":"prescreen-v0.3","interactions":"[]"}]