[{"view_history":[{"page_index":0,"viewing_time":3897.7000000029802},{"page_index":1,"viewing_time":2075.699999988079},{"page_index":2,"viewing_time":3147.9000000059605},{"page_index":3,"viewing_time":1028}],"rt":10150.29999999702,"trial_type":"instructions","trial_index":0,"time_elapsed":10176,"internal_node_id":"0.0-0.0","task_version":"prescreen-v0.3"},{"rt":17298.89999999106,"responses":{"age":"30","gender-categorical":"Female","gender-free-response":"","ethnicity":"Not Hispanic or Latino","race":["White"],"education":"Bachelor degree"},"trial_type":"survey-demo","trial_index":1,"time_elapsed":27482,"internal_node_id":"0.0-1.0","task_version":"prescreen-v0.3"},{"responses":{"Q06":"1","Q05":"1","Q04":"3","Q08":"2","Q16":"1","Q07":"1","Q01":"1","Q02":"0","Q09":"0","Q19":"1","Q17":"1","Q18":"2","Q21":"3","Q10":"0","Q13":"2","Q03":"1","Q20":"1","Q11":"0","Q14":"2","Q15":"3","Q12":"1"},"rt":94211.79999999702,"item_order":[5,4,3,7,15,6,0,1,8,18,16,17,20,9,12,2,19,10,13,14,11],"radio_events":[8501,15476.90000000596,19192.60000000894,22216.60000000894,24574.79999999702,29626.70000000298,33424.40000000596,36380.29999999702,41916.10000000894,44028.29999999702,51000.10000000894,53197.79999999702,58025.60000000894,62035.5,70915.70000000298,76261.5,78441.5,79873.40000000596,83125.29999999702,84215.20000000298,88223.20000000298,89493.29999999702,93259.10000000894],"key_events":[],"mouse_events":[7850.9000000059605,8501,15004.79999999702,15476.90000000596,18568.5,19192.60000000894,22216.60000000894,24574.79999999702,29626.70000000298,33424.40000000596,36380.29999999702,38628.29999999702,41337.90000000596,41916.10000000894,42592.29999999702,44028.29999999702,51000.10000000894,53197.79999999702,58025.60000000894,62035.5,70915.70000000298,76261.5,78441.5,79873.40000000596,82203.5,83125.29999999702,84215.20000000298,88223.20000000298,88791.70000000298,89493.29999999702,92375.60000000894,93259.10000000894,94209.29999999702],"straightlining":0.47619047619047616,"zigzagging":0.5,"honeypot":0,"survey":"sns","trial_type":"survey-template","trial_index":2,"time_elapsed":121707,"internal_node_id":"0.0-2.0","task_version":"prescreen-v0.3","browser_interactions":0,"infrequency":0},{"responses":{"Q11":"2","Q09":"2","Q01":"3","Q13":"0","Q06":"2","Q08":"3","Q04":"3","Q03":"3","Q05":"3","Q02":"3","Q07":"3","Q12":"1","Q10":"1"},"rt":52690.20000000298,"item_order":[10,8,0,12,5,7,3,2,4,1,6,11,9],"radio_events":[6181.9000000059605,9481.800000011921,12697.60000000894,15187.60000000894,25415.5,28053.30000001192,29603.30000001192,33333.20000000298,37593.10000000894,41211.30000001192,43049,44246.90000000596,46205.10000000894,50476.60000000894,51648.80000001192],"key_events":[],"mouse_events":[6181.9000000059605,9481.800000011921,12697.60000000894,15187.60000000894,25415.5,27575.5,28053.30000001192,29251.40000000596,29603.30000001192,33333.20000000298,37593.10000000894,41211.30000001192,43049,44246.90000000596,46205.10000000894,48596.70000000298,49098.90000000596,50476.60000000894,51648.80000001192,52688.90000000596],"straightlining":0.5384615384615384,"zigzagging":0.25,"honeypot":0,"survey":"bisbas","trial_type":"survey-template","trial_index":3,"time_elapsed":174407,"internal_node_id":"0.0-3.0","task_version":"prescreen-v0.3","browser_interactions":0,"infrequency":0},{"responses":{"Q01":"2","Q02":"2","Q03":"2"},"rt":19692.70000000298,"radio_events":[9360.70000000298,13338,17416,18697.90000000596],"key_events":[],"mouse_events":[9360.70000000298,13338,15918,16085.800000011921,17416,18697.90000000596,19691.90000000596],"survey":"map","page":1,"trial_type":"survey-map","trial_index":4,"time_elapsed":194107,"internal_node_id":"0.0-4.0","task_version":"prescreen-v0.3","browser_interactions":0},{"responses":{"Q04":"3","Q05":"2","Q06":"3"},"rt":14988.60000000894,"radio_events":[6226,12787.90000000596,14004],"key_events":[],"mouse_events":[6226,11372,12787.90000000596,14004,14987.90000000596],"survey":"map","page":2,"trial_type":"survey-map","trial_index":5,"time_elapsed":209102,"internal_node_id":"0.0-5.0","task_version":"prescreen-v0.3","browser_interactions":0},{"responses":{"Q07":"1","Q08":"3","Q09":"2"},"rt":11646.90000000596,"radio_events":[5084.600000008941,8264.5,10880.5],"key_events":[],"mouse_events":[3836.4000000059605,4050.7000000029802,5084.600000008941,7966.5,8264.5,10880.5,11646.300000011921],"survey":"map","page":3,"trial_type":"survey-map","trial_index":6,"time_elapsed":220756,"internal_node_id":"0.0-6.0","task_version":"prescreen-v0.3","browser_interactions":0},{"responses":{"Q10":"1","Q11":"1","Q12":"1","Q13":"2","Q16":"0","Q14":"2","Q15":"1"},"rt":36315,"radio_events":[3566.5999999940395,6126.29999999702,10385,15322.29999999702,18530.20000000298,31018,33482,35659.79999999702],"key_events":[],"mouse_events":[3566.5999999940395,6126.29999999702,10020.40000000596,10385,15322.29999999702,18100.40000000596,18530.20000000298,31018,33113.90000000596,33482,34697.70000000298,35659.79999999702,36313.90000000596],"survey":"map","page":4,"trial_type":"survey-map","trial_index":7,"time_elapsed":257078,"internal_node_id":"0.0-7.0","task_version":"prescreen-v0.3","browser_interactions":0,"infrequency":0},{"view_history":[{"page_index":0,"viewing_time":2082.0999999940395},{"page_index":1,"viewing_time":5279.5999999940395}],"rt":7362.899999991059,"trial_type":"instructions","trial_index":8,"time_elapsed":264447,"internal_node_id":"0.0-8.0","task_version":"prescreen-v0.3"},{"responses":{"01":"No","02":"No","03":"No","04":"No","05":"No","06":"No"},"rt":25994.89999999106,"item_order":[0,1,2,3,4,5],"radio_events":[12370.09999999404,15887.59999999404,18867.39999999106,20167.20000000298,21366.89999999106,24937.20000000298],"checkbox_events":[],"key_events":[],"mouse_events":[0.09999999403953552,8219.20000000298,8431.29999999702,12370.09999999404,15887.59999999404,18867.39999999106,20167.20000000298,21366.89999999106,24937.20000000298,25991.59999999404],"honeypot":0,"survey":"mace","page":1,"trial_type":"survey-mace","trial_index":9,"time_elapsed":290451,"internal_node_id":"0.0-9.0","task_version":"prescreen-v0.3","browser_interactions":0},{"responses":{"01":"No","02":"No","03":"Yes","03_ages_3":"3","03_ages_4":"4","03_ages_5":"5","03_ages_6":"6","03_ages_7":"7","03_ages_8":"8","04":"Yes","04_ages_3":"3","04_ages_4":"4","04_ages_5":"5","04_ages_6":"6","04_ages_7":"7","04_ages_8":"8","05":"Yes","05_ages_6":"6","05_ages_7":"7","05_ages_8":"8","06":"No","07":"No","08":"No"},"rt":49231.5,"item_order":[0,1,2,3,4,5,6,7],"radio_events":[4728.4000000059605,8788.29999999702,10590.20000000298,24023.59999999404,30985.70000000298,39933.70000000298,44599.5,48323.29999999702],"checkbox_events":[17546.5,18628.09999999404,19122.20000000298,19619.90000000596,20063.90000000596,25215.59999999404,25643.79999999702,26161.79999999702,26547.90000000596,27527.70000000298,28009.79999999702,28759.79999999702,32041.70000000298,34131.70000000298,35119.59999999404,35625.70000000298,36189.59999999404,36817.59999999404,37591.40000000596],"key_events":[],"mouse_events":[4728.4000000059605,8788.29999999702,10590.20000000298,17546.5,17918.09999999404,18628.09999999404,19122.20000000298,19619.90000000596,20063.90000000596,24023.59999999404,25215.59999999404,25643.79999999702,26161.79999999702,26547.90000000596,26891.70000000298,27527.70000000298,28009.79999999702,28759.79999999702,30985.70000000298,32041.70000000298,32391.90000000596,32867.59999999404,33271.59999999404,34131.70000000298,35119.59999999404,35625.70000000298,36189.59999999404,36817.59999999404,37591.40000000596,39933.70000000298,44599.5,48323.29999999702,49227.40000000596],"honeypot":0,"survey":"mace","page":2,"trial_type":"survey-mace","trial_index":10,"time_elapsed":339693,"internal_node_id":"0.0-10.0","task_version":"prescreen-v0.3","browser_interactions":0},{"responses":{"01":"No","02":"No","03":"No","04":"No"},"rt":13251.90000000596,"item_order":[0,1,2,3],"radio_events":[6993.5,10627.5,11751.60000000894,12641.60000000894],"checkbox_events":[],"key_events":[],"mouse_events":[4699.4000000059605,6591.4000000059605,6993.5,7441.5,10627.5,11751.60000000894,12641.60000000894,13249.70000000298],"honeypot":0,"survey":"mace","page":3,"trial_type":"survey-mace","trial_index":11,"time_elapsed":352954,"internal_node_id":"0.0-11.0","task_version":"prescreen-v0.3","browser_interactions":0},{"responses":{"01":"No","02":"No"},"rt":6675.0999999940395,"item_order":[0,1],"radio_events":[3789.8999999910593,5493.70000000298],"checkbox_events":[],"key_events":[],"mouse_events":[2465.5999999940395,2651.7000000029802,3789.8999999910593,5493.70000000298,6673.79999999702],"honeypot":0,"survey":"mace","page":4,"trial_type":"survey-mace","trial_index":12,"time_elapsed":359636,"internal_node_id":"0.0-12.0","task_version":"prescreen-v0.3","browser_interactions":0},{"responses":{"01":"No","02":"No","03":"No","04":"No","05":"No"},"rt":17528,"item_order":[0,1,2,3,4],"radio_events":[7443.29999999702,10217.20000000298,13585.09999999404,15495.20000000298,16903],"checkbox_events":[],"key_events":[],"mouse_events":[7443.29999999702,10217.20000000298,13585.09999999404,15495.20000000298,16903,17525.20000000298],"honeypot":0,"survey":"mace","page":5,"trial_type":"survey-mace","trial_index":13,"time_elapsed":377173,"internal_node_id":"0.0-13.0","task_version":"prescreen-v0.3","browser_interactions":0},{"responses":{"01":"No","02":"Yes","02_ages_10":"10","02_ages_11":"11","02_ages_12":"12","02_ages_13":"13","03":"No","04":"No","05":"No"},"rt":27048.5,"item_order":[0,1,2,3,4],"radio_events":[11359.79999999702,13423.39999999106,23317.79999999702,24839.59999999404,26423.29999999702],"checkbox_events":[16553.89999999106,17929.70000000298,18283.39999999106,18955.59999999404],"key_events":[],"mouse_events":[4125.5999999940395,4493.79999999702,5939.5999999940395,6097.70000000298,11359.79999999702,13423.39999999106,16553.89999999106,17929.70000000298,18283.39999999106,18955.59999999404,23317.79999999702,24839.59999999404,26423.29999999702,27045.79999999702],"honeypot":0,"survey":"mace","page":6,"trial_type":"survey-mace","trial_index":14,"time_elapsed":404230,"internal_node_id":"0.0-14.0","task_version":"prescreen-v0.3","browser_interactions":0},{"responses":{"01":"No","02":"Yes","02_ages_14":"14","03":"No","04":"No","05":"No","06":"No","07":"No"},"rt":26149.29999999702,"item_order":[0,1,2,3,4,5,6],"radio_events":[3542,5531.79999999702,7171.699999988079,14507.59999999404,15413.5,16893.5,24371.29999999702,25401.39999999106],"checkbox_events":[8673.699999988079,9101.59999999404,12103.59999999404],"key_events":[],"mouse_events":[3542,5531.79999999702,7171.699999988079,8673.699999988079,9101.59999999404,12103.59999999404,14507.59999999404,15413.5,16893.5,24371.29999999702,25401.39999999106,26145.5],"honeypot":0,"survey":"mace","page":7,"trial_type":"survey-mace","trial_index":15,"time_elapsed":430389,"internal_node_id":"0.0-15.0","task_version":"prescreen-v0.3","browser_interactions":0},{"responses":{"01":"No","02":"No","03":"No","04":"No"},"rt":15555.10000000894,"item_order":[0,1,2,3],"radio_events":[7203,10577,13512.90000000596,15108.60000000894],"checkbox_events":[],"key_events":[],"mouse_events":[5584.800000011921,5778.9000000059605,7203,10577,13512.90000000596,15108.60000000894,15552.90000000596],"honeypot":0,"survey":"mace","page":8,"trial_type":"survey-mace","trial_index":16,"time_elapsed":445952,"internal_node_id":"0.0-16.0","task_version":"prescreen-v0.3","browser_interactions":0},{"responses":{"01":"Yes","01_ages_1":"1","01_ages_2":"2","01_ages_3":"3","01_ages_4":"4","01_ages_5":"5","01_ages_6":"6","01_ages_7":"7","01_ages_8":"8","01_ages_9":"9","01_ages_10":"10","01_ages_11":"11","01_ages_12":"12","01_ages_13":"13","01_ages_14":"14","01_ages_15":"15","01_ages_16":"16","01_ages_17":"17","01_ages_18":"18","02":"Yes","02_ages_1":"1","02_ages_2":"2","02_ages_3":"3","02_ages_4":"4","02_ages_5":"5","02_ages_6":"6","02_ages_7":"7","02_ages_8":"8","02_ages_9":"9","02_ages_10":"10","02_ages_11":"11","02_ages_12":"12","02_ages_13":"13","02_ages_14":"14","02_ages_15":"15","02_ages_16":"16","02_ages_17":"17","02_ages_18":"18","03":"Yes","03_ages_1":"1","03_ages_2":"2","03_ages_3":"3","03_ages_4":"4","03_ages_5":"5","03_ages_6":"6","03_ages_7":"7","03_ages_8":"8","03_ages_9":"9","03_ages_10":"10","03_ages_11":"11","03_ages_12":"12","03_ages_13":"13","03_ages_14":"14","03_ages_15":"15","03_ages_16":"16","03_ages_17":"17","03_ages_18":"18","04":"Yes","04_ages_1":"1","04_ages_2":"2","04_ages_3":"3","04_ages_4":"4","04_ages_5":"5","04_ages_6":"6","04_ages_7":"7","04_ages_8":"8","04_ages_9":"9","04_ages_10":"10","04_ages_11":"11","04_ages_12":"12","04_ages_13":"13","04_ages_14":"14","04_ages_15":"15","04_ages_16":"16","04_ages_17":"17","04_ages_18":"18"},"rt":56084.90000000596,"item_order":[0,1,2,3],"radio_events":[5257.600000008941,20093.20000000298,33711.10000000894,44264.40000000596],"checkbox_events":[6803.5,7821.600000008941,8171.29999999702,8863.60000000894,9705.40000000596,10241.40000000596,10703.29999999702,11243.29999999702,11649.29999999702,12159.10000000894,12829.29999999702,13233.20000000298,13643.29999999702,14053,14715.10000000894,15125.29999999702,15677.20000000298,16481.29999999702,23933.20000000298,24415.20000000298,24791.10000000894,25303.10000000894,25913,26439,26798.90000000596,27251.20000000298,27578.90000000596,27896.79999999702,28255.10000000894,28570.90000000596,28954.79999999702,29869.10000000894,30250.70000000298,30686.70000000298,31095,31568.70000000298,34596.79999999702,34922.79999999702,35322.70000000298,35674.70000000298,36013,36320.79999999702,36690.90000000596,36988.79999999702,37590.90000000596,37879,38428.90000000596,38820.79999999702,39486.60000000894,39854.90000000596,40164.79999999702,40756.5,41292.79999999702,41558.70000000298,45298.90000000596,45718.60000000894,47030.60000000894,47536.70000000298,48410.70000000298,49476.40000000596,50190.60000000894,50544.60000000894,50866.60000000894,51184.40000000596,51748.70000000298,52394.5,53224.60000000894,53532.29999999702,54062.60000000894,54450.5,54886.5,55528.40000000596],"key_events":[],"mouse_events":[2775.2000000029802,2989.7000000029802,5257.600000008941,6803.5,7821.600000008941,8171.29999999702,8863.60000000894,9227.29999999702,9705.40000000596,10241.40000000596,10703.29999999702,11243.29999999702,11649.29999999702,12159.10000000894,12829.29999999702,13233.20000000298,13643.29999999702,14053,14715.10000000894,15125.29999999702,15677.20000000298,16481.29999999702,20093.20000000298,23521,23933.20000000298,24415.20000000298,24791.10000000894,25303.10000000894,25913,26439,26798.90000000596,27251.20000000298,27578.90000000596,27896.79999999702,28255.10000000894,28570.90000000596,28954.79999999702,29247.10000000894,29584.90000000596,29869.10000000894,30250.70000000298,30686.70000000298,31095,31568.70000000298,33711.10000000894,34596.79999999702,34922.79999999702,35322.70000000298,35674.70000000298,36013,36320.79999999702,36690.90000000596,36988.79999999702,37288.79999999702,37590.90000000596,37879,38166.5,38428.90000000596,38820.79999999702,39121.10000000894,39486.60000000894,39854.90000000596,40164.79999999702,40452.90000000596,40756.5,41010.90000000596,41292.79999999702,41558.70000000298,43788.70000000298,44264.40000000596,45298.90000000596,45718.60000000894,46150.29999999702,47030.60000000894,47536.70000000298,48410.70000000298,48930.70000000298,49476.40000000596,49916.29999999702,50190.60000000894,50544.60000000894,50866.60000000894,51184.40000000596,51748.70000000298,52062.79999999702,52394.5,52902.20000000298,53224.60000000894,53532.29999999702,53806.40000000596,54062.60000000894,54450.5,54886.5,55252.29999999702,55528.40000000596,56082.79999999702],"honeypot":0,"survey":"mace","page":9,"trial_type":"survey-mace","trial_index":17,"time_elapsed":502046,"internal_node_id":"0.0-17.0","task_version":"prescreen-v0.3","browser_interactions":0},{"responses":{"01":"No","02":"No","03":"No","04":"No","05":"No","06":"Yes","06_ages_17":"17","07":"Yes","07_ages_1":"1","07_ages_2":"2","07_ages_3":"3","07_ages_4":"4","07_ages_5":"5","07_ages_6":"6","07_ages_7":"7","07_ages_8":"8","07_ages_9":"9","07_ages_10":"10","07_ages_11":"11","07_ages_12":"12","07_ages_13":"13","07_ages_14":"14","07_ages_15":"15","07_ages_16":"16","07_ages_17":"17","07_ages_18":"18","08":"Yes","08_ages_1":"1","08_ages_2":"2","08_ages_3":"3","08_ages_4":"4","08_ages_5":"5","08_ages_6":"6","08_ages_7":"7","08_ages_8":"8","08_ages_9":"9","08_ages_10":"10","08_ages_11":"11","08_ages_12":"12","08_ages_13":"13","08_ages_14":"14","08_ages_15":"15","08_ages_16":"16","08_ages_17":"17","08_ages_18":"18"},"rt":43241.79999999702,"item_order":[0,1,2,3,4,5,6,7],"radio_events":[3429.7999999970198,4719.70000000298,5872,6971.9000000059605,8613.90000000596,10703.90000000596,17309.90000000596,32515.20000000298],"checkbox_events":[12009.79999999702,19465.70000000298,20219.29999999702,20939.5,21307.29999999702,21617.60000000894,23205.79999999702,23555.60000000894,23851.5,24497.29999999702,24953.40000000596,25305.40000000596,25647.40000000596,26115.79999999702,26525.29999999702,27121.70000000298,27509.5,27853.60000000894,28217.40000000596,33947.20000000298,34341.29999999702,34743.60000000894,35093,35527.10000000894,36797.29999999702,37127.10000000894,37465.10000000894,37889.10000000894,38713.20000000298,39431,40314.90000000596,40779.29999999702,41237.10000000894,41627.20000000298,41979.29999999702,42470.90000000596,42829.20000000298],"key_events":[],"mouse_events":[2015.7000000029802,2181.7999999970198,3429.7999999970198,4719.70000000298,5872,6971.9000000059605,8613.90000000596,10703.90000000596,12009.79999999702,17309.90000000596,19465.70000000298,19905.40000000596,20219.29999999702,20939.5,21307.29999999702,21617.60000000894,21999.5,22507.60000000894,22867.29999999702,23205.79999999702,23555.60000000894,23851.5,24169.70000000298,24497.29999999702,24953.40000000596,25305.40000000596,25647.40000000596,26115.79999999702,26525.29999999702,26869.70000000298,27121.70000000298,27509.5,27853.60000000894,28217.40000000596,31117.60000000894,31893.20000000298,32187.29999999702,32515.20000000298,33947.20000000298,34341.29999999702,34743.60000000894,35093,35527.10000000894,35983.10000000894,36411,36797.29999999702,37127.10000000894,37465.10000000894,37889.10000000894,38561.20000000298,38713.20000000298,39162.90000000596,39431,39861.20000000298,40314.90000000596,40779.29999999702,41237.10000000894,41627.20000000298,41979.29999999702,42470.90000000596,42829.20000000298,43237.40000000596],"honeypot":0,"survey":"mace","page":10,"trial_type":"survey-mace","trial_index":18,"time_elapsed":545298,"internal_node_id":"0.0-18.0","task_version":"prescreen-v0.3","browser_interactions":0,"instructed":0},{"rt":14730.09999999404,"trial_type":"mental-health-alert","trial_index":19,"time_elapsed":560035,"internal_node_id":"0.0-19.0","task_version":"prescreen-v0.3","interactions":"[]"}]