[{"view_history":[{"page_index":0,"viewing_time":6841.299999237061},{"page_index":1,"viewing_time":5180.800000190735},{"page_index":2,"viewing_time":5222.5},{"page_index":3,"viewing_time":1480.6999998092651}],"rt":18727.5,"trial_type":"instructions","trial_index":0,"time_elapsed":18753,"internal_node_id":"0.0-0.0","task_version":"prescreen-v0.3"},{"rt":15488.89999961853,"responses":{"age":"22","gender-categorical":"Female","gender-free-response":"","ethnicity":"Not Hispanic or Latino","race":["White"],"education":"Bachelor degree"},"trial_type":"survey-demo","trial_index":1,"time_elapsed":34259,"internal_node_id":"0.0-1.0","task_version":"prescreen-v0.3"},{"responses":{"Q06":"2","Q13":"1","Q16":"2","Q17":"1","Q21":"3","Q02":"1","Q04":"0","Q07":"1","Q01":"1","Q14":"1","Q03":"3","Q05":"2","Q12":"1","Q19":"1","Q08":"1","Q10":"1","Q11":"2","Q18":"1","Q09":"1","Q15":"1","Q20":"1"},"rt":101390,"item_order":[5,12,15,16,20,1,3,6,0,13,2,4,11,18,7,9,10,17,8,14,19],"radio_events":[10249.39999961853,13322.199999809265,18238.89999961853,21994.89999961853,28434.599999427795,33932.699999809265,36874.79999923706,47911.599999427795,49639.599999427795,53011.699999809265,55085.099999427795,63929.199999809265,69150,73166.69999980927,76447.89999961853,80882.19999980927,84353.0999994278,87981.19999980927,91833.69999980927,98386.69999980927,100193.5],"key_events":[],"mouse_events":[10249.39999961853,13322.199999809265,18238.89999961853,21994.89999961853,28434.599999427795,33932.699999809265,36874.79999923706,47911.599999427795,49639.599999427795,53011.699999809265,55085.099999427795,63929.199999809265,69150,73166.69999980927,76447.89999961853,80882.19999980927,84353.0999994278,87981.19999980927,91833.69999980927,98386.69999980927,100193.5,101383.5],"straightlining":0.6666666666666666,"zigzagging":0.45,"honeypot":0,"survey":"sns","trial_type":"survey-template","trial_index":2,"time_elapsed":135666,"internal_node_id":"0.0-2.0","task_version":"prescreen-v0.3","browser_interactions":0,"infrequency":0},{"responses":{"Q07":"3","Q01":"3","Q13":"0","Q04":"3","Q12":"2","Q06":"3","Q03":"3","Q02":"2","Q10":"2","Q05":"3","Q09":"2","Q11":"2","Q08":"3"},"rt":58852.300000190735,"item_order":[6,0,12,3,11,5,2,1,9,4,8,10,7],"radio_events":[9431.39999961853,11577.800000190735,14072.300000190735,19576.39999961853,24896.099999427795,29423.800000190735,32901.300000190735,41535.39999961853,45382.5,49207.699999809265,52232.800000190735,55371.89999961853,57836],"key_events":[],"mouse_events":[9431.39999961853,11143.099999427795,11577.800000190735,14072.300000190735,19576.39999961853,24896.099999427795,29423.800000190735,32901.300000190735,41535.39999961853,45382.5,49207.699999809265,52232.800000190735,55371.89999961853,57836,58848.699999809265],"straightlining":0.5384615384615384,"zigzagging":0.6666666666666666,"honeypot":0,"survey":"bisbas","trial_type":"survey-template","trial_index":3,"time_elapsed":194531,"internal_node_id":"0.0-3.0","task_version":"prescreen-v0.3","browser_interactions":0,"infrequency":0},{"responses":{"Q01":"4","Q02":"4","Q03":"3"},"rt":27277,"radio_events":[17200.79999923706,21117.79999923706,26325],"key_events":[],"mouse_events":[12950.099999427795,17200.79999923706,21117.79999923706,26325,27275.099999427795],"survey":"map","page":1,"trial_type":"survey-map","trial_index":4,"time_elapsed":221816,"internal_node_id":"0.0-4.0","task_version":"prescreen-v0.3","browser_interactions":0},{"responses":{"Q04":"4","Q05":"4","Q06":"3"},"rt":15994.800000190735,"radio_events":[8895,13018,14924.099999427795],"key_events":[],"mouse_events":[8895,13018,14924.099999427795,15993.099999427795],"survey":"map","page":2,"trial_type":"survey-map","trial_index":5,"time_elapsed":237818,"internal_node_id":"0.0-5.0","task_version":"prescreen-v0.3","browser_interactions":0},{"responses":{"Q07":"4","Q08":"2","Q09":"3"},"rt":16931,"radio_events":[7105,13444.800000190735,15874.400000572205],"key_events":[],"mouse_events":[3463,7105,13444.800000190735,15874.400000572205,16929],"survey":"map","page":3,"trial_type":"survey-map","trial_index":6,"time_elapsed":254757,"internal_node_id":"0.0-6.0","task_version":"prescreen-v0.3","browser_interactions":0},{"responses":{"Q10":"3","Q11":"3","Q12":"1","Q13":"1","Q16":"0","Q14":"3","Q15":"3"},"rt":31703.599999427795,"radio_events":[8495.800000190735,10733.89999961853,15175.5,19639.099999427795,23378.699999809265,27670.800000190735,30687.599999427795],"key_events":[],"mouse_events":[8495.800000190735,10733.89999961853,15175.5,19639.099999427795,23378.699999809265,27670.800000190735,30687.599999427795,31700.800000190735],"survey":"map","page":4,"trial_type":"survey-map","trial_index":7,"time_elapsed":286471,"internal_node_id":"0.0-7.0","task_version":"prescreen-v0.3","browser_interactions":0,"infrequency":0},{"view_history":[{"page_index":0,"viewing_time":3304.300000190735},{"page_index":1,"viewing_time":6475.5}],"rt":9781.60000038147,"trial_type":"instructions","trial_index":8,"time_elapsed":296256,"internal_node_id":"0.0-8.0","task_version":"prescreen-v0.3"},{"responses":{"01":"No","02":"No","03":"No","04":"No","05":"No","06":"No"},"rt":36784.199999809265,"item_order":[0,1,2,3,4,5],"radio_events":[12456.89999961853,19446.300000190735,23732.300000190735,28314.89999961853,29865.60000038147,33614.10000038147,35694.699999809265],"checkbox_events":[],"key_events":[],"mouse_events":[0.6999998092651367,12456.89999961853,19446.300000190735,23732.300000190735,28314.89999961853,29865.60000038147,33614.10000038147,35694.699999809265,36774.199999809265],"honeypot":0,"survey":"mace","page":1,"trial_type":"survey-mace","trial_index":9,"time_elapsed":333071,"internal_node_id":"0.0-9.0","task_version":"prescreen-v0.3","browser_interactions":0},{"responses":{"01":"No","02":"No","03":"No","04":"No","05":"No","06":"No","07":"No","08":"No"},"rt":25579.099999427795,"item_order":[0,1,2,3,4,5,6,7],"radio_events":[3719.199999809265,6812.699999809265,8364.599999427795,14946.099999427795,19733.800000190735,21382.800000190735,23650.599999427795,24663.199999809265],"checkbox_events":[],"key_events":[],"mouse_events":[3719.199999809265,6812.699999809265,8364.599999427795,14946.099999427795,19733.800000190735,21382.800000190735,23650.599999427795,24663.199999809265,25568.300000190735],"honeypot":0,"survey":"mace","page":2,"trial_type":"survey-mace","trial_index":10,"time_elapsed":358666,"internal_node_id":"0.0-10.0","task_version":"prescreen-v0.3","browser_interactions":0},{"responses":{"01":"No","02":"No","03":"No","04":"No"},"rt":9835.39999961853,"item_order":[0,1,2,3],"radio_events":[3433.5,4785.39999961853,6535,8509.099999427795,8915.29999923706],"checkbox_events":[],"key_events":[],"mouse_events":[3433.5,4785.39999961853,6535,8509.099999427795,8915.29999923706,9828.89999961853],"honeypot":0,"survey":"mace","page":3,"trial_type":"survey-mace","trial_index":11,"time_elapsed":368512,"internal_node_id":"0.0-11.0","task_version":"prescreen-v0.3","browser_interactions":0},{"responses":{"01":"No","02":"No"},"rt":12735,"item_order":[0,1],"radio_events":[8306.300000190735,11606.300000190735],"checkbox_events":[],"key_events":[],"mouse_events":[8306.300000190735,11606.300000190735,12731.800000190735],"honeypot":0,"survey":"mace","page":4,"trial_type":"survey-mace","trial_index":12,"time_elapsed":381255,"internal_node_id":"0.0-12.0","task_version":"prescreen-v0.3","browser_interactions":0},{"responses":{"01":"No","02":"No","03":"No","04":"No","05":"No"},"rt":36828.400000572205,"item_order":[0,1,2,3,4],"radio_events":[17610.900000572205,21217.199999809265,28371.60000038147,32663.60000038147,35765.699999809265],"checkbox_events":[],"key_events":[],"mouse_events":[17610.900000572205,21217.199999809265,28371.60000038147,32663.60000038147,35765.699999809265,36815.300000190735],"honeypot":0,"survey":"mace","page":5,"trial_type":"survey-mace","trial_index":13,"time_elapsed":418094,"internal_node_id":"0.0-13.0","task_version":"prescreen-v0.3","browser_interactions":0},{"responses":{"01":"Yes","01_ages_7":"7","01_ages_8":"8","01_ages_9":"9","01_ages_10":"10","01_ages_11":"11","01_ages_12":"12","02":"Yes","02_ages_7":"7","02_ages_8":"8","02_ages_9":"9","02_ages_10":"10","02_ages_11":"11","02_ages_12":"12","02_ages_13":"13","02_ages_14":"14","02_ages_15":"15","02_ages_16":"16","02_ages_17":"17","03":"No","04":"No","05":"No"},"rt":42673.400000572205,"item_order":[0,1,2,3,4],"radio_events":[6720.900000572205,20760.199999809265,36942.300000190735,39031.699999809265,41709.5],"checkbox_events":[11177.10000038147,12148.10000038147,13942.800000190735,14342.60000038147,15285.300000190735,16227.400000572205,17226.10000038147,18209.199999809265,22389.5,23395.400000572205,24293,25158.800000190735,26008.10000038147,27078.60000038147,29238.900000572205,30334.900000572205,31304.699999809265,32169.60000038147,33153.900000572205],"key_events":[],"mouse_events":[6720.900000572205,11177.10000038147,12148.10000038147,13942.800000190735,14342.60000038147,15285.300000190735,16227.400000572205,17226.10000038147,18209.199999809265,20760.199999809265,22389.5,23395.400000572205,24293,25158.800000190735,26008.10000038147,27078.60000038147,29238.900000572205,30334.900000572205,31304.699999809265,32169.60000038147,33153.900000572205,36942.300000190735,39031.699999809265,41709.5,42666.199999809265],"honeypot":0,"survey":"mace","page":6,"trial_type":"survey-mace","trial_index":14,"time_elapsed":460777,"internal_node_id":"0.0-14.0","task_version":"prescreen-v0.3","browser_interactions":0},{"responses":{"01":"No","02":"No","03":"No","04":"No","05":"No","06":"No","07":"No"},"rt":15060.699999809265,"item_order":[0,1,2,3,4,5,6],"radio_events":[3804.1000003814697,6403.60000038147,7996.5,9214.89999961853,11388.800000190735,12784.60000038147,14072.39999961853],"checkbox_events":[],"key_events":[],"mouse_events":[3804.1000003814697,6403.60000038147,7996.5,9214.89999961853,11388.800000190735,12784.60000038147,14072.39999961853,15050.89999961853],"honeypot":0,"survey":"mace","page":7,"trial_type":"survey-mace","trial_index":15,"time_elapsed":475851,"internal_node_id":"0.0-15.0","task_version":"prescreen-v0.3","browser_interactions":0},{"responses":{"01":"No","02":"No","03":"No","04":"No"},"rt":21181.79999923706,"item_order":[0,1,2,3],"radio_events":[11267,14333.699999809265,17018.39999961853,20091.79999923706],"checkbox_events":[],"key_events":[],"mouse_events":[11267,14333.699999809265,17018.39999961853,20091.79999923706,21176.099999427795],"honeypot":0,"survey":"mace","page":8,"trial_type":"survey-mace","trial_index":16,"time_elapsed":497044,"internal_node_id":"0.0-16.0","task_version":"prescreen-v0.3","browser_interactions":0},{"responses":{"01":"Yes","01_ages_1":"1","01_ages_2":"2","01_ages_3":"3","01_ages_4":"4","01_ages_5":"5","01_ages_6":"6","01_ages_7":"7","01_ages_8":"8","01_ages_9":"9","01_ages_10":"10","01_ages_11":"11","01_ages_12":"12","01_ages_13":"13","01_ages_14":"14","01_ages_15":"15","01_ages_16":"16","01_ages_17":"17","01_ages_18":"18","02":"Yes","02_ages_1":"1","02_ages_2":"2","02_ages_3":"3","02_ages_4":"4","02_ages_5":"5","02_ages_6":"6","02_ages_7":"7","02_ages_8":"8","02_ages_9":"9","02_ages_10":"10","02_ages_11":"11","02_ages_12":"12","02_ages_13":"13","02_ages_14":"14","02_ages_15":"15","02_ages_16":"16","02_ages_17":"17","02_ages_18":"18","03":"Yes","03_ages_1":"1","03_ages_2":"2","03_ages_3":"3","03_ages_4":"4","03_ages_5":"5","03_ages_6":"6","03_ages_7":"7","03_ages_8":"8","03_ages_9":"9","03_ages_10":"10","03_ages_11":"11","03_ages_12":"12","03_ages_13":"13","03_ages_14":"14","03_ages_15":"15","03_ages_16":"16","03_ages_17":"17","03_ages_18":"18","04":"Yes","04_ages_1":"1","04_ages_2":"2","04_ages_3":"3","04_ages_4":"4","04_ages_5":"5","04_ages_6":"6","04_ages_7":"7","04_ages_8":"8","04_ages_9":"9","04_ages_10":"10","04_ages_11":"11","04_ages_12":"12","04_ages_13":"13","04_ages_14":"14","04_ages_15":"15","04_ages_16":"16","04_ages_17":"17","04_ages_18":"18"},"rt":107389.4000005722,"item_order":[0,1,2,3],"radio_events":[6818.800000190735,35248.10000038147,58996.900000572205,83322],"checkbox_events":[14793.300000190735,16189.10000038147,17132.199999809265,18933.900000572205,19320.800000190735,19914.800000190735,20892.699999809265,21828.60000038147,22655.699999809265,23547.10000038147,24440.400000572205,25375.699999809265,26317.699999809265,27181.400000572205,28060.300000190735,29085.900000572205,30871.300000190735,31879.60000038147,32777.10000038147,33591,36850.199999809265,38966.300000190735,39816,40715.199999809265,41699.699999809265,43449.60000038147,44349.199999809265,45368.60000038147,46473.5,47373.300000190735,48357.699999809265,49208.300000190735,50021.60000038147,50991.60000038147,52755.400000572205,53625.699999809265,54547.60000038147,55596,60432.10000038147,61388.60000038147,62252.5,64001.300000190735,64865.5,65806.60000038147,68202.30000019073,69115.80000019073,69923.10000038147,70872.69999980927,71778.60000038147,72749,73634.30000019073,74526.5,75412.5,76332.60000038147,77253.69999980927,78046.19999980927,86700.10000038147,87713.69999980927,88599,91154.69999980927,92104.10000038147,92932.60000038147,93952.30000019073,95055.30000019073,95886.19999980927,96735.9000005722,98393.19999980927,99186.19999980927,100446.9000005722,102592.80000019073,103429,104286.9000005722,105369.10000038147,106405.19999980927],"key_events":[],"mouse_events":[6818.800000190735,13760.300000190735,14793.300000190735,16189.10000038147,17132.199999809265,18933.900000572205,19320.800000190735,19914.800000190735,20892.699999809265,21828.60000038147,22655.699999809265,23547.10000038147,24440.400000572205,25375.699999809265,26317.699999809265,27181.400000572205,28060.300000190735,29085.900000572205,30008.300000190735,30871.300000190735,31879.60000038147,32777.10000038147,33591,35248.10000038147,36850.199999809265,38559.5,38966.300000190735,39816,40715.199999809265,41699.699999809265,43057.300000190735,43449.60000038147,44349.199999809265,45368.60000038147,46473.5,47373.300000190735,48357.699999809265,49208.300000190735,50021.60000038147,50991.60000038147,52362.800000190735,52755.400000572205,53625.699999809265,54547.60000038147,55596,58996.900000572205,60432.10000038147,61388.60000038147,62252.5,63594.699999809265,64001.300000190735,64865.5,65806.60000038147,66954.5,68202.30000019073,69115.80000019073,69923.10000038147,70872.69999980927,71778.60000038147,72749,73634.30000019073,74526.5,75412.5,76332.60000038147,77253.69999980927,78046.19999980927,83322,86700.10000038147,87713.69999980927,88599,89920.60000038147,90405.10000038147,91154.69999980927,92104.10000038147,92932.60000038147,93952.30000019073,95055.30000019073,95886.19999980927,96735.9000005722,97993,98393.19999980927,99186.19999980927,100446.9000005722,102201.10000038147,102592.80000019073,103429,104286.9000005722,105369.10000038147,106405.19999980927,107383],"honeypot":0,"survey":"mace","page":9,"trial_type":"survey-mace","trial_index":17,"time_elapsed":604443,"internal_node_id":"0.0-17.0","task_version":"prescreen-v0.3","browser_interactions":0},{"responses":{"01":"No","02":"No","03":"No","04":"No","05":"No","06":"Yes","06_ages_17":"17","07":"Yes","07_ages_1":"1","07_ages_2":"2","07_ages_3":"3","07_ages_4":"4","07_ages_5":"5","07_ages_6":"6","07_ages_7":"7","07_ages_8":"8","07_ages_9":"9","07_ages_10":"10","07_ages_11":"11","07_ages_12":"12","07_ages_13":"13","07_ages_14":"14","07_ages_15":"15","07_ages_16":"16","07_ages_17":"17","07_ages_18":"18","08":"Yes","08_ages_1":"1","08_ages_2":"2","08_ages_3":"3","08_ages_4":"4","08_ages_5":"5","08_ages_6":"6","08_ages_7":"7","08_ages_8":"8","08_ages_9":"9","08_ages_10":"10","08_ages_11":"11","08_ages_12":"12","08_ages_13":"13","08_ages_14":"14","08_ages_15":"15","08_ages_16":"16","08_ages_17":"17","08_ages_18":"18"},"rt":65984.5999994278,"item_order":[0,1,2,3,4,5,6,7],"radio_events":[5985.39999961853,7190.599999427795,9123.599999427795,10816.79999923706,13245.29999923706,15171.89999961853,23295,43564.199999809265],"checkbox_events":[16518,25703.5,26629.79999923706,28209.199999809265,29130.699999809265,30192.79999923706,31269.29999923706,32097.79999923706,33110.5,33953.5,34859.79999923706,35758.89999961853,36672.39999961853,37572.5,38457.5,39476.89999961853,40540,41439.29999923706,42254.5,45198.79999923706,46183.39999961853,47925.29999923706,48790.099999427795,49766.79999923706,50808.5,51772.099999427795,53564.199999809265,54364.5,55326.199999809265,56389,57820.39999961853,58939,59966.5,60829.89999961853,62622.89999961853,63443.699999809265,64499.29999923706],"key_events":[],"mouse_events":[5985.39999961853,7190.599999427795,9123.599999427795,10816.79999923706,13245.29999923706,15171.89999961853,16518,23295,25703.5,26629.79999923706,27816.79999923706,28209.199999809265,29130.699999809265,30192.79999923706,31269.29999923706,32097.79999923706,33110.5,33953.5,34859.79999923706,35758.89999961853,36672.39999961853,37572.5,38457.5,39476.89999961853,40540,41439.29999923706,42254.5,43564.199999809265,45198.79999923706,46183.39999961853,47526,47925.29999923706,48790.099999427795,49766.79999923706,50808.5,51772.099999427795,53163.89999961853,53564.199999809265,54364.5,55326.199999809265,56389,57820.39999961853,58939,59966.5,60829.89999961853,61737,62622.89999961853,63443.699999809265,64499.29999923706,65972.69999980927],"honeypot":0,"survey":"mace","page":10,"trial_type":"survey-mace","trial_index":18,"time_elapsed":670441,"internal_node_id":"0.0-18.0","task_version":"prescreen-v0.3","browser_interactions":0,"instructed":0},{"rt":15085.699999809265,"trial_type":"mental-health-alert","trial_index":19,"time_elapsed":685533,"internal_node_id":"0.0-19.0","task_version":"prescreen-v0.3","interactions":"[]"}]