[{"view_history":[{"page_index":0,"viewing_time":3179.5},{"page_index":1,"viewing_time":6439.700000047684},{"page_index":2,"viewing_time":5150.399999856949},{"page_index":3,"viewing_time":1279.9000000953674}],"rt":16050.799999952316,"trial_type":"instructions","trial_index":0,"time_elapsed":16200,"internal_node_id":"0.0-0.0","task_version":"prescreen-v0.3"},{"rt":21545.60000014305,"responses":{"age":"20","gender-categorical":"Male","gender-free-response":"","ethnicity":"Hispanic or Latino","race":["White"],"education":"Some college"},"trial_type":"survey-demo","trial_index":1,"time_elapsed":37841,"internal_node_id":"0.0-1.0","task_version":"prescreen-v0.3"},{"responses":{"Q07":"1","Q12":"2","Q17":"1","Q08":"1","Q14":"3","Q21":"3","Q10":"1","Q13":"3","Q01":"2","Q06":"2","Q11":"0","Q03":"0","Q02":"1","Q20":"0","Q09":"1","Q04":"2","Q18":"3","Q15":"3","Q05":"2","Q16":"3","Q19":"2"},"rt":138560.29999995232,"item_order":[6,11,16,7,13,20,9,12,0,5,10,2,1,19,8,3,17,14,4,15,18],"radio_events":[8293.799999952316,17330.700000047684,24262.599999904633,25936.799999952316,28800.39999985695,33391.89999985695,41340.59999990463,48488.89999985695,52189,60331.700000047684,63976,67755.79999995232,71989.39999985695,76188,86639.39999985695,94087.29999995232,98184.79999995232,101145.79999995232,105332.89999985695,114468.20000004768,122956.20000004768,126554.20000004768,137007.5],"key_events":[],"mouse_events":[8293.799999952316,17330.700000047684,24262.599999904633,25936.799999952316,28800.39999985695,33391.89999985695,41340.59999990463,48488.89999985695,50855.89999985695,52189,60331.700000047684,63976,67755.79999995232,71989.39999985695,76188,86639.39999985695,94087.29999995232,98184.79999995232,101145.79999995232,105332.89999985695,114468.20000004768,122956.20000004768,126554.20000004768,137007.5,138556.79999995232],"straightlining":0.2857142857142857,"zigzagging":0.55,"honeypot":0,"survey":"sns","trial_type":"survey-template","trial_index":2,"time_elapsed":176411,"internal_node_id":"0.0-2.0","task_version":"prescreen-v0.3","browser_interactions":0,"infrequency":0},{"responses":{"Q12":"1","Q02":"1","Q07":"3","Q04":"3","Q06":"2","Q08":"3","Q13":"0","Q10":"1","Q03":"3","Q05":"3","Q11":"2","Q09":"2","Q01":"3"},"rt":83188,"item_order":[11,1,6,3,5,7,12,9,2,4,10,8,0],"radio_events":[6713.800000190735,13816.200000047684,18502.900000095367,23230.60000014305,28323.400000095367,32731.800000190735,45809.700000047684,51161,55692.300000190735,63882.60000014305,72544.5,79824.30000019073,81856.20000004768],"key_events":[],"mouse_events":[6713.800000190735,13816.200000047684,18502.900000095367,23230.60000014305,28323.400000095367,32731.800000190735,45809.700000047684,51161,55692.300000190735,63882.60000014305,72544.5,79824.30000019073,81856.20000004768,83185.90000009537],"straightlining":0.46153846153846156,"zigzagging":0.5,"honeypot":0,"survey":"bisbas","trial_type":"survey-template","trial_index":3,"time_elapsed":259605,"internal_node_id":"0.0-3.0","task_version":"prescreen-v0.3","browser_interactions":0,"infrequency":0},{"responses":{"Q01":"3","Q02":"2","Q03":"1"},"rt":27521.099999904633,"radio_events":[7274.5,15783.099999904633,25107.099999904633],"key_events":[],"mouse_events":[7274.5,15783.099999904633,25107.099999904633,27520.099999904633],"survey":"map","page":1,"trial_type":"survey-map","trial_index":4,"time_elapsed":287132,"internal_node_id":"0.0-4.0","task_version":"prescreen-v0.3","browser_interactions":0},{"responses":{"Q04":"2","Q05":"4","Q06":"2"},"rt":19926.200000047684,"radio_events":[5960,13390.700000047684,18798.10000014305],"key_events":[],"mouse_events":[5960,11527.400000095367,13390.700000047684,17366.400000095367,18798.10000014305,19925.300000190735],"survey":"map","page":2,"trial_type":"survey-map","trial_index":5,"time_elapsed":307066,"internal_node_id":"0.0-5.0","task_version":"prescreen-v0.3","browser_interactions":0},{"responses":{"Q07":"1","Q08":"0","Q09":"3"},"rt":21254.200000047684,"radio_events":[6814.5,15673.299999952316,20058.099999904633],"key_events":[],"mouse_events":[6814.5,15673.299999952316,20058.099999904633,21253.39999985695],"survey":"map","page":3,"trial_type":"survey-map","trial_index":6,"time_elapsed":328324,"internal_node_id":"0.0-6.0","task_version":"prescreen-v0.3","browser_interactions":0},{"responses":{"Q10":"4","Q11":"2","Q12":"2","Q13":"1","Q16":"0","Q14":"1","Q15":"2"},"rt":45786.799999952316,"radio_events":[6576.899999856949,16095.799999952316,19200.200000047684,24465.599999904633,27953.39999985695,40281.89999985695,44533.89999985695],"key_events":[],"mouse_events":[6576.899999856949,16095.799999952316,19200.200000047684,24465.599999904633,27953.39999985695,40281.89999985695,44533.89999985695,45785.09999990463],"survey":"map","page":4,"trial_type":"survey-map","trial_index":7,"time_elapsed":374115,"internal_node_id":"0.0-7.0","task_version":"prescreen-v0.3","browser_interactions":0,"infrequency":0},{"view_history":[{"page_index":0,"viewing_time":2312.7999999523163},{"page_index":1,"viewing_time":6117.899999856949}],"rt":8431.899999856949,"trial_type":"instructions","trial_index":8,"time_elapsed":382549,"internal_node_id":"0.0-8.0","task_version":"prescreen-v0.3"},{"responses":{"01":"No","02":"No","03":"No","04":"No","05":"No","06":"Yes","06_ages_5":"5","06_ages_6":"6","06_ages_7":"7","06_ages_8":"8","06_ages_9":"9","06_ages_10":"10"},"rt":64226.39999985695,"item_order":[0,1,2,3,4,5],"radio_events":[11251.399999856949,17251.799999952316,18781.39999985695,24301.5,27151.200000047684,32094.700000047684,62250.799999952316],"checkbox_events":[36682.09999990463,38552.799999952316,40463.299999952316,42951.39999985695,43607.700000047684,45680.799999952316,46998.09999990463,48935.59999990463,50281.09999990463,52602.299999952316,55890.799999952316,57448.299999952316],"key_events":[],"mouse_events":[7.799999952316284,11251.399999856949,17251.799999952316,18781.39999985695,24301.5,27151.200000047684,29057.799999952316,32094.700000047684,36275.200000047684,36682.09999990463,38552.799999952316,40463.299999952316,41558.39999985695,42951.39999985695,43607.700000047684,45680.799999952316,46998.09999990463,48935.59999990463,50281.09999990463,52602.299999952316,55890.799999952316,57448.299999952316,59122.700000047684,62250.799999952316,64221.5],"honeypot":0,"survey":"mace","page":1,"trial_type":"survey-mace","trial_index":9,"time_elapsed":446787,"internal_node_id":"0.0-9.0","task_version":"prescreen-v0.3","browser_interactions":0},{"responses":{"01":"No","02":"No","03":"Yes","03_ages_5":"5","03_ages_6":"6","03_ages_7":"7","03_ages_8":"8","03_ages_9":"9","03_ages_10":"10","04":"Yes","04_ages_5":"5","04_ages_6":"6","04_ages_7":"7","04_ages_8":"8","04_ages_9":"9","04_ages_10":"10","05":"No","06":"No","07":"No","08":"No"},"rt":71439.90000009537,"item_order":[0,1,2,3,4,5,6,7],"radio_events":[3048.300000190735,7890.600000143051,11263.100000143051,51333.200000047684,65733.90000009537,67150.80000019073,68383.80000019073,70193.20000004768],"checkbox_events":[34716.90000009537,38331.40000009537,40323.40000009537,43113.700000047684,45186.200000047684,46865.40000009537,53867.800000190735,54738.200000047684,55693.10000014305,57438.700000047684,58458.5,59498],"key_events":[],"mouse_events":[3048.300000190735,6435.600000143051,7890.600000143051,11263.100000143051,34716.90000009537,37902,38331.40000009537,40323.40000009537,41920.90000009537,43113.700000047684,44056.700000047684,45186.200000047684,46865.40000009537,51333.200000047684,52831.700000047684,53867.800000190735,54738.200000047684,55693.10000014305,56619.200000047684,57438.700000047684,58458.5,59498,65733.90000009537,67150.80000019073,68383.80000019073,70193.20000004768,71433.90000009537],"honeypot":0,"survey":"mace","page":2,"trial_type":"survey-mace","trial_index":10,"time_elapsed":518236,"internal_node_id":"0.0-10.0","task_version":"prescreen-v0.3","browser_interactions":0},{"responses":{"01":"No","02":"No","03":"No","04":"No"},"rt":12655,"item_order":[0,1,2,3],"radio_events":[4411.599999904633,8176.399999856949,10587.399999856949,11798.699999809265],"checkbox_events":[],"key_events":[],"mouse_events":[4411.599999904633,8176.399999856949,10587.399999856949,11798.699999809265,12651.799999952316],"honeypot":0,"survey":"mace","page":3,"trial_type":"survey-mace","trial_index":11,"time_elapsed":530902,"internal_node_id":"0.0-11.0","task_version":"prescreen-v0.3","browser_interactions":0},{"responses":{"01":"No","02":"No"},"rt":16452.700000047684,"item_order":[0,1],"radio_events":[5236,15517.400000095367],"checkbox_events":[],"key_events":[],"mouse_events":[5236,15517.400000095367,16450.900000095367],"honeypot":0,"survey":"mace","page":4,"trial_type":"survey-mace","trial_index":12,"time_elapsed":547356,"internal_node_id":"0.0-12.0","task_version":"prescreen-v0.3","browser_interactions":0},{"responses":{"01":"No","02":"No","03":"No","04":"No","05":"No"},"rt":25932,"item_order":[0,1,2,3,4],"radio_events":[12489.299999952316,16094.5,18610.700000047684,21559.099999904633,24561.900000095367],"checkbox_events":[],"key_events":[],"mouse_events":[12489.299999952316,16094.5,18610.700000047684,21559.099999904633,24561.900000095367,25928.299999952316],"honeypot":0,"survey":"mace","page":5,"trial_type":"survey-mace","trial_index":13,"time_elapsed":573294,"internal_node_id":"0.0-13.0","task_version":"prescreen-v0.3","browser_interactions":0},{"responses":{"01":"Yes","01_ages_5":"5","01_ages_6":"6","01_ages_7":"7","01_ages_8":"8","01_ages_9":"9","01_ages_10":"10","01_ages_11":"11","01_ages_12":"12","01_ages_13":"13","01_ages_14":"14","01_ages_17":"17","02":"No","03":"No","04":"No","05":"No"},"rt":44370.700000047684,"item_order":[0,1,2,3,4],"radio_events":[6221.900000095367,36834.200000047684,39455.700000047684,41592.799999952316,42615.5],"checkbox_events":[10061,12142,13049.900000095367,13957,14903.5,15701.900000095367,16499.900000095367,18095.799999952316,19316.400000095367,20099.099999904633,20849.700000047684,22194.900000095367,23353.200000047684,26318.799999952316,28032],"key_events":[],"mouse_events":[6221.900000095367,10061,11328.200000047684,12142,13049.900000095367,13957,14903.5,15701.900000095367,16499.900000095367,18095.799999952316,19316.400000095367,20099.099999904633,20849.700000047684,22194.900000095367,23353.200000047684,26318.799999952316,28032,35380.59999990463,36834.200000047684,38000,39455.700000047684,41592.799999952316,42615.5,44366.799999952316],"honeypot":0,"survey":"mace","page":6,"trial_type":"survey-mace","trial_index":14,"time_elapsed":617668,"internal_node_id":"0.0-14.0","task_version":"prescreen-v0.3","browser_interactions":0},{"responses":{"01":"Yes","01_ages_12":"12","02":"No","03":"No","04":"No","05":"No","06":"No","07":"No"},"rt":26139.099999904633,"item_order":[0,1,2,3,4,5,6],"radio_events":[4695.799999952316,13768.099999904633,15596,16789.599999904633,21636.599999904633,23597.299999952316,24743.799999952316],"checkbox_events":[7407],"key_events":[],"mouse_events":[4695.799999952316,7407,13768.099999904633,15596,16789.599999904633,21636.599999904633,23597.299999952316,24743.799999952316,26133.799999952316],"honeypot":0,"survey":"mace","page":7,"trial_type":"survey-mace","trial_index":15,"time_elapsed":643814,"internal_node_id":"0.0-15.0","task_version":"prescreen-v0.3","browser_interactions":0},{"responses":{"01":"No","02":"No","03":"Yes","03_ages_14":"14","03_ages_15":"15","03_ages_16":"16","03_ages_17":"17","03_ages_18":"18","04":"No"},"rt":35785.200000047684,"item_order":[0,1,2,3],"radio_events":[10626.599999904633,13757.900000095367,17032.700000047684,34918.40000009537],"checkbox_events":[22157.200000047684,22998.200000047684,23868.700000047684,25327.299999952316,27069.599999904633],"key_events":[],"mouse_events":[10626.599999904633,13757.900000095367,17032.700000047684,22157.200000047684,22998.200000047684,23868.700000047684,25327.299999952316,26213.799999952316,27069.599999904633,34918.40000009537,35782],"honeypot":0,"survey":"mace","page":8,"trial_type":"survey-mace","trial_index":16,"time_elapsed":679607,"internal_node_id":"0.0-16.0","task_version":"prescreen-v0.3","browser_interactions":0},{"responses":{"01":"Yes","01_ages_1":"1","01_ages_2":"2","01_ages_3":"3","01_ages_4":"4","01_ages_5":"5","01_ages_6":"6","01_ages_7":"7","01_ages_8":"8","01_ages_9":"9","01_ages_10":"10","01_ages_11":"11","01_ages_12":"12","01_ages_13":"13","01_ages_14":"14","01_ages_15":"15","01_ages_16":"16","01_ages_17":"17","01_ages_18":"18","02":"Yes","02_ages_1":"1","02_ages_2":"2","02_ages_3":"3","02_ages_4":"4","02_ages_5":"5","02_ages_6":"6","02_ages_7":"7","02_ages_8":"8","02_ages_9":"9","02_ages_10":"10","02_ages_11":"11","02_ages_12":"12","02_ages_13":"13","02_ages_14":"14","02_ages_15":"15","02_ages_16":"16","02_ages_17":"17","02_ages_18":"18","03":"Yes","03_ages_1":"1","03_ages_2":"2","03_ages_3":"3","03_ages_4":"4","03_ages_5":"5","03_ages_6":"6","03_ages_7":"7","03_ages_8":"8","03_ages_9":"9","03_ages_10":"10","03_ages_11":"11","03_ages_12":"12","03_ages_13":"13","03_ages_14":"14","03_ages_15":"15","03_ages_16":"16","03_ages_17":"17","03_ages_18":"18","04":"Yes","04_ages_1":"1","04_ages_2":"2","04_ages_3":"3","04_ages_4":"4","04_ages_5":"5","04_ages_6":"6","04_ages_7":"7","04_ages_8":"8","04_ages_9":"9","04_ages_10":"10","04_ages_11":"11","04_ages_12":"12","04_ages_13":"13","04_ages_14":"14","04_ages_15":"15","04_ages_16":"16","04_ages_17":"17","04_ages_18":"18"},"rt":131052.5,"item_order":[0,1,2,3],"radio_events":[3092.2999999523163,35410.299999952316,61625.5,84955.70000004768],"checkbox_events":[6661.799999952316,7712.399999856949,8746,11104.099999904633,14247.700000047684,18006.099999904633,19289.799999952316,20207.39999985695,21010.099999904633,21827,23527.799999952316,24627.200000047684,25585.799999952316,26447.89999985695,27357.299999952316,28226.299999952316,29087.299999952316,29936.599999904633,36947.200000047684,37754.700000047684,38660.09999990463,40097.5,41026.700000047684,42015.89999985695,42836.89999985695,43636.09999990463,44580.700000047684,45419.89999985695,47159.200000047684,48176.299999952316,49327.299999952316,50302.799999952316,51392.799999952316,52633.59999990463,53780,54720.39999985695,64672.299999952316,66330,69336.09999990463,76127.29999995232,76856.5,78212.59999990463,78586.89999985695,79402.79999995232,80793.20000004768,88166.20000004768,89076.39999985695,90993.79999995232,91905.89999985695,92996.39999985695,93886.29999995232,96358.5,97325.59999990463,98462.39999985695,100017.79999995232,101102.29999995232,102112.70000004768,103056.39999985695,104028.39999985695,105770.5,107046.79999995232,109000.39999985695,109970.79999995232,111425.59999990463,112566.89999985695,116256.29999995232,117172.5,118042.89999985695,119893.20000004768,121286.09999990463,122967.79999995232,124056.89999985695,125040,127110.5,128187.5,129913],"key_events":[],"mouse_events":[3092.2999999523163,6661.799999952316,7712.399999856949,8746,11104.099999904633,14247.700000047684,15196.799999952316,16732.799999952316,18006.099999904633,18667,19289.799999952316,20207.39999985695,21010.099999904633,21827,22636.89999985695,23527.799999952316,24627.200000047684,25585.799999952316,26447.89999985695,27357.299999952316,28226.299999952316,29087.299999952316,29936.599999904633,35410.299999952316,36947.200000047684,37754.700000047684,38660.09999990463,40097.5,41026.700000047684,42015.89999985695,42836.89999985695,43636.09999990463,44580.700000047684,45419.89999985695,46267.200000047684,47159.200000047684,48176.299999952316,49327.299999952316,50302.799999952316,51392.799999952316,52633.59999990463,53780,54720.39999985695,61625.5,64672.299999952316,66330,69336.09999990463,76127.29999995232,76856.5,78212.59999990463,78586.89999985695,79402.79999995232,80793.20000004768,84955.70000004768,86362.39999985695,87293,88166.20000004768,89076.39999985695,90993.79999995232,91905.89999985695,92996.39999985695,93886.29999995232,96358.5,97325.59999990463,98462.39999985695,99297.79999995232,100017.79999995232,101102.29999995232,102112.70000004768,103056.39999985695,104028.39999985695,104955.70000004768,105770.5,107046.79999995232,108143.09999990463,109000.39999985695,109970.79999995232,110790.59999990463,111425.59999990463,112566.89999985695,115332.29999995232,116256.29999995232,117172.5,118042.89999985695,118996,119893.20000004768,121286.09999990463,122186.39999985695,122967.79999995232,124056.89999985695,125040,127110.5,128187.5,129913,131049],"honeypot":0,"survey":"mace","page":9,"trial_type":"survey-mace","trial_index":17,"time_elapsed":810668,"internal_node_id":"0.0-17.0","task_version":"prescreen-v0.3","browser_interactions":0},{"responses":{"01":"No","02":"No","03":"No","04":"No","05":"No","06":"Yes","06_ages_17":"17","07":"Yes","07_ages_1":"1","07_ages_2":"2","07_ages_3":"3","07_ages_4":"4","07_ages_5":"5","07_ages_6":"6","07_ages_7":"7","07_ages_8":"8","07_ages_9":"9","07_ages_10":"10","07_ages_11":"11","07_ages_12":"12","07_ages_13":"13","07_ages_14":"14","07_ages_15":"15","07_ages_16":"16","07_ages_17":"17","07_ages_18":"18","08":"Yes","08_ages_1":"1","08_ages_2":"2","08_ages_3":"3","08_ages_4":"4","08_ages_5":"5","08_ages_6":"6","08_ages_7":"7","08_ages_8":"8","08_ages_9":"9","08_ages_10":"10"},"rt":77435.79999995232,"item_order":[0,1,2,3,4,5,6,7],"radio_events":[4648.900000095367,8299.5,11742.900000095367,14448.299999952316,16336,18431.700000047684,20962.400000095367,27699.700000047684,58857],"checkbox_events":[23220.400000095367,34674.10000014305,35331,39579.60000014305,40268.200000047684,41355.700000047684,47135.299999952316,47497.40000009537,48357.5,50229.700000047684,50821.299999952316,51899.299999952316,52473,52953.299999952316,53709,54205.40000009537,54599.299999952316,55157.200000047684,55811.10000014305,61313.299999952316,61913.299999952316,62629.299999952316,63023,63423.299999952316,64345.299999952316,64715.40000009537,65053.10000014305,66125.20000004768,66509.40000009537,67123.10000014305,67919.10000014305,69501,70147.20000004768,70699.5,71327],"key_events":[],"mouse_events":[3040.7999999523163,4648.900000095367,6675.5,8299.5,11742.900000095367,14448.299999952316,16336,18431.700000047684,20962.400000095367,23220.400000095367,27699.700000047684,34674.10000014305,35331,37279.90000009537,39579.60000014305,40268.200000047684,41355.700000047684,47135.299999952316,47497.40000009537,48357.5,48773.299999952316,49427.200000047684,50229.700000047684,50821.299999952316,51591.5,51899.299999952316,52473,52953.299999952316,53339.60000014305,53709,54205.40000009537,54599.299999952316,55157.200000047684,55811.10000014305,58857,61313.299999952316,61913.299999952316,62629.299999952316,63023,63423.299999952316,64023.40000009537,64345.299999952316,64715.40000009537,65053.10000014305,65422.60000014305,65723.29999995232,66125.20000004768,66509.40000009537,66848.90000009537,67123.10000014305,67509.10000014305,67919.10000014305,69501,70147.20000004768,70699.5,71327,77429.79999995232],"honeypot":0,"survey":"mace","page":10,"trial_type":"survey-mace","trial_index":18,"time_elapsed":888112,"internal_node_id":"0.0-18.0","task_version":"prescreen-v0.3","browser_interactions":0,"instructed":0},{"rt":3649.5,"trial_type":"mental-health-alert","trial_index":19,"time_elapsed":891765,"internal_node_id":"0.0-19.0","task_version":"prescreen-v0.3","interactions":"[]"}]