[{"view_history":[{"page_index":0,"viewing_time":4924.299999999814},{"page_index":1,"viewing_time":5502.200000000186},{"page_index":2,"viewing_time":4150.100000000093},{"page_index":3,"viewing_time":1181.1999999997206}],"rt":15758.600000000093,"trial_type":"instructions","trial_index":0,"time_elapsed":15765,"internal_node_id":"0.0-0.0","task_version":"prescreen-v0.3"},{"rt":14778.5,"responses":{"age":"24","gender-categorical":"Female","gender-free-response":"","ethnicity":"Not Hispanic or Latino","race":["White"],"education":"Bachelor degree"},"trial_type":"survey-demo","trial_index":1,"time_elapsed":30548,"internal_node_id":"0.0-1.0","task_version":"prescreen-v0.3"},{"responses":{"Q19":"1","Q11":"2","Q10":"1","Q07":"0","Q08":"1","Q01":"2","Q20":"0","Q14":"2","Q09":"2","Q12":"0","Q13":"2","Q16":"1","Q04":"2","Q06":"1","Q17":"1","Q02":"0","Q21":"3","Q05":"2","Q18":"2","Q15":"2","Q03":"1"},"rt":138144.5,"item_order":[18,10,9,6,7,0,19,13,8,11,12,15,3,5,16,1,20,4,17,14,2],"radio_events":[17758.900000000373,20762.30000000028,24564.80000000028,30582.700000000186,35791.80000000028,39155.5,42429.30000000028,51057.700000000186,55377.80000000028,60338.700000000186,64839,69507,79171,84964.70000000019,88339.5,91961.80000000028,95989.20000000019,109522.80000000028,115068.90000000037,127702.5,134902.2000000002,137320.90000000037],"key_events":[],"mouse_events":[17758.900000000373,20762.30000000028,24564.80000000028,30582.700000000186,35791.80000000028,39155.5,42429.30000000028,51057.700000000186,55377.80000000028,60338.700000000186,64839,69507,79171,84964.70000000019,88339.5,91961.80000000028,95989.20000000019,109522.80000000028,115068.90000000037,125474.80000000028,127702.5,128917.20000000019,134902.2000000002,136027.40000000037,137320.90000000037,138141.90000000037],"straightlining":0.42857142857142855,"zigzagging":0.6,"honeypot":0,"survey":"sns","trial_type":"survey-template","trial_index":2,"time_elapsed":168701,"internal_node_id":"0.0-2.0","task_version":"prescreen-v0.3","browser_interactions":0,"infrequency":0},{"responses":{"Q10":"2","Q12":"0","Q13":"0","Q07":"2","Q09":"2","Q02":"3","Q04":"3","Q08":"2","Q06":"2","Q11":"1","Q03":"3","Q01":"3","Q05":"2"},"rt":62825.30000000028,"item_order":[9,11,12,6,8,1,3,7,5,10,2,0,4],"radio_events":[11862.700000000186,17206.30000000028,20018.5,23303.400000000373,26892.30000000028,30031,34204.700000000186,37388.30000000028,41753.200000000186,50066.40000000037,54679.10000000009,57378.90000000037,59269.200000000186,61890.200000000186],"key_events":[],"mouse_events":[11862.700000000186,17206.30000000028,20018.5,23303.400000000373,26892.30000000028,30031,34204.700000000186,37388.30000000028,41753.200000000186,50066.40000000037,54679.10000000009,57378.90000000037,59269.200000000186,61890.200000000186,62823.80000000028],"straightlining":0.46153846153846156,"zigzagging":0.3333333333333333,"honeypot":0,"survey":"bisbas","trial_type":"survey-template","trial_index":3,"time_elapsed":231531,"internal_node_id":"0.0-3.0","task_version":"prescreen-v0.3","browser_interactions":0,"infrequency":0},{"responses":{"Q01":"2","Q02":"3","Q03":"3"},"rt":28009,"radio_events":[12044.600000000093,20211.900000000373,26252.80000000028],"key_events":[],"mouse_events":[12044.600000000093,20211.900000000373,26252.80000000028,28008.100000000093],"survey":"map","page":1,"trial_type":"survey-map","trial_index":4,"time_elapsed":259543,"internal_node_id":"0.0-4.0","task_version":"prescreen-v0.3","browser_interactions":0},{"responses":{"Q04":"3","Q05":"3","Q06":"3"},"rt":23599.299999999814,"radio_events":[7882.5,12169.100000000093,15915.299999999814,22800.100000000093],"key_events":[],"mouse_events":[7882.5,12169.100000000093,15915.299999999814,22800.100000000093,23598.5],"survey":"map","page":2,"trial_type":"survey-map","trial_index":5,"time_elapsed":283145,"internal_node_id":"0.0-5.0","task_version":"prescreen-v0.3","browser_interactions":0},{"responses":{"Q07":"4","Q08":"4","Q09":"1"},"rt":15207.899999999907,"radio_events":[4800.899999999907,7894.700000000186,10774.700000000186,13215.80000000028],"key_events":[],"mouse_events":[4800.899999999907,7894.700000000186,10774.700000000186,13215.80000000028,15207.100000000093],"survey":"map","page":3,"trial_type":"survey-map","trial_index":6,"time_elapsed":298356,"internal_node_id":"0.0-6.0","task_version":"prescreen-v0.3","browser_interactions":0},{"responses":{"Q10":"2","Q11":"2","Q12":"3","Q13":"3","Q16":"0","Q14":"3","Q15":"4"},"rt":35536.10000000009,"radio_events":[4372.899999999907,7061.600000000093,10863.799999999814,16320.100000000093,22417.399999999907,29887,33037.10000000009,34128.39999999991],"key_events":[],"mouse_events":[4372.899999999907,7061.600000000093,10863.799999999814,16320.100000000093,22417.399999999907,29887,33037.10000000009,34128.39999999991,35534.799999999814],"survey":"map","page":4,"trial_type":"survey-map","trial_index":7,"time_elapsed":333903,"internal_node_id":"0.0-7.0","task_version":"prescreen-v0.3","browser_interactions":0,"infrequency":0},{"view_history":[{"page_index":0,"viewing_time":2910.7000000001863},{"page_index":1,"viewing_time":4668.299999999814}],"rt":7579.399999999907,"trial_type":"instructions","trial_index":8,"time_elapsed":341485,"internal_node_id":"0.0-8.0","task_version":"prescreen-v0.3"},{"responses":{"01":"No","02":"No","03":"No","04":"No","05":"No","06":"No"},"rt":33895.59999999963,"item_order":[0,1,2,3,4,5],"radio_events":[16218.69999999972,22259.799999999814,24959.5,26905.399999999907,28750.899999999907,30967],"checkbox_events":[],"key_events":[],"mouse_events":[0.09999999962747097,15521.19999999972,16218.69999999972,22259.799999999814,24959.5,26905.399999999907,28750.899999999907,30967,33892.59999999963],"honeypot":0,"survey":"mace","page":1,"trial_type":"survey-mace","trial_index":9,"time_elapsed":375389,"internal_node_id":"0.0-9.0","task_version":"prescreen-v0.3","browser_interactions":0},{"responses":{"01":"No","02":"No","03":"No","04":"No","05":"No","06":"No","07":"No","08":"No"},"rt":16915.100000000093,"item_order":[0,1,2,3,4,5,6,7],"radio_events":[2389.399999999907,5044.399999999907,7058.200000000186,8813.200000000186,11501.700000000186,13132.899999999907,14629,15956.80000000028],"checkbox_events":[],"key_events":[],"mouse_events":[2389.399999999907,5044.399999999907,7058.200000000186,8813.200000000186,11501.700000000186,13132.899999999907,14629,15956.80000000028,16912.200000000186],"honeypot":0,"survey":"mace","page":2,"trial_type":"survey-mace","trial_index":10,"time_elapsed":392308,"internal_node_id":"0.0-10.0","task_version":"prescreen-v0.3","browser_interactions":0},{"responses":{"01":"No","02":"No","03":"No","04":"No"},"rt":18334.399999999907,"item_order":[0,1,2,3],"radio_events":[2571.1999999997206,12864.899999999907,14901,16656.099999999627],"checkbox_events":[],"key_events":[],"mouse_events":[2571.1999999997206,12864.899999999907,14901,16656.099999999627,18332.19999999972],"honeypot":0,"survey":"mace","page":3,"trial_type":"survey-mace","trial_index":11,"time_elapsed":410645,"internal_node_id":"0.0-11.0","task_version":"prescreen-v0.3","browser_interactions":0},{"responses":{"01":"No","02":"No"},"rt":6386.299999999814,"item_order":[0,1],"radio_events":[3077.6999999997206,5384],"checkbox_events":[],"key_events":[],"mouse_events":[3077.6999999997206,5384,6385],"honeypot":0,"survey":"mace","page":4,"trial_type":"survey-mace","trial_index":12,"time_elapsed":417034,"internal_node_id":"0.0-12.0","task_version":"prescreen-v0.3","browser_interactions":0},{"responses":{"01":"No","02":"No","03":"No","04":"No","05":"No"},"rt":24928.5,"item_order":[0,1,2,3,4],"radio_events":[9209.600000000093,12416.299999999814,15622.19999999972,17939.5,20718.100000000093],"checkbox_events":[],"key_events":[],"mouse_events":[9209.600000000093,12416.299999999814,15622.19999999972,17939.5,20718.100000000093,24925.5],"honeypot":0,"survey":"mace","page":5,"trial_type":"survey-mace","trial_index":13,"time_elapsed":441966,"internal_node_id":"0.0-13.0","task_version":"prescreen-v0.3","browser_interactions":0},{"responses":{"01":"No","02":"No","03":"No","04":"No","05":"No"},"rt":27030.69999999972,"item_order":[0,1,2,3,4],"radio_events":[8219.30000000028,12043.100000000093,15327.999999999534,19816.69999999972,20626.80000000028],"checkbox_events":[],"key_events":[],"mouse_events":[8219.30000000028,12043.100000000093,15327.999999999534,19816.69999999972,20626.80000000028,27027.999999999534],"honeypot":0,"survey":"mace","page":6,"trial_type":"survey-mace","trial_index":14,"time_elapsed":469000,"internal_node_id":"0.0-14.0","task_version":"prescreen-v0.3","browser_interactions":0},{"responses":{"01":"No","02":"No","03":"No","04":"No","05":"No","06":"No","07":"No"},"rt":18852.5,"item_order":[0,1,2,3,4,5,6],"radio_events":[6047,8004.299999999814,9917,11829.099999999627,13663.099999999627,15148.099999999627,18151.5],"checkbox_events":[],"key_events":[],"mouse_events":[6047,8004.299999999814,9917,11829.099999999627,13663.099999999627,15148.099999999627,18151.5,18849.099999999627],"honeypot":0,"survey":"mace","page":7,"trial_type":"survey-mace","trial_index":15,"time_elapsed":487856,"internal_node_id":"0.0-15.0","task_version":"prescreen-v0.3","browser_interactions":0},{"responses":{"01":"Yes","01_ages_10":"10","01_ages_11":"11","01_ages_12":"12","01_ages_13":"13","01_ages_14":"14","01_ages_15":"15","02":"Yes","02_ages_1":"1","02_ages_2":"2","02_ages_3":"3","02_ages_4":"4","02_ages_5":"5","02_ages_6":"6","02_ages_7":"7","03":"No","04":"No"},"rt":71679.70000000019,"item_order":[0,1,2,3],"radio_events":[12357.099999999627,47400.299999999814,59336.09999999963,62699.89999999944],"checkbox_events":[28782.39999999944,29254.799999999814,29659.5,30064.700000000186,30773.39999999944,31313.200000000186,49594,50167.89999999944,50685.200000000186,51247.700000000186,51720.200000000186,52282.799999999814,53351.5],"key_events":[],"mouse_events":[12357.099999999627,28782.39999999944,29254.799999999814,29659.5,30064.700000000186,30773.39999999944,31313.200000000186,47400.299999999814,49594,50167.89999999944,50685.200000000186,51247.700000000186,51720.200000000186,52282.799999999814,53351.5,59336.09999999963,62699.89999999944,71677.5],"honeypot":0,"survey":"mace","page":8,"trial_type":"survey-mace","trial_index":16,"time_elapsed":559541,"internal_node_id":"0.0-16.0","task_version":"prescreen-v0.3","browser_interactions":0},{"responses":{"01":"Yes","01_ages_1":"1","01_ages_2":"2","01_ages_3":"3","01_ages_4":"4","01_ages_5":"5","01_ages_6":"6","01_ages_7":"7","01_ages_8":"8","01_ages_9":"9","01_ages_10":"10","01_ages_11":"11","01_ages_12":"12","01_ages_13":"13","01_ages_14":"14","01_ages_15":"15","01_ages_16":"16","01_ages_17":"17","01_ages_18":"18","02":"Yes","02_ages_1":"1","02_ages_2":"2","02_ages_3":"3","02_ages_4":"4","02_ages_5":"5","02_ages_6":"6","02_ages_7":"7","02_ages_8":"8","02_ages_9":"9","02_ages_10":"10","02_ages_11":"11","02_ages_12":"12","02_ages_13":"13","02_ages_14":"14","02_ages_15":"15","02_ages_16":"16","02_ages_17":"17","02_ages_18":"18","03":"Yes","03_ages_1":"1","03_ages_2":"2","03_ages_3":"3","03_ages_4":"4","03_ages_5":"5","03_ages_6":"6","03_ages_7":"7","03_ages_8":"8","03_ages_9":"9","03_ages_10":"10","03_ages_11":"11","03_ages_12":"12","03_ages_13":"13","03_ages_14":"14","03_ages_15":"15","03_ages_16":"16","03_ages_17":"17","03_ages_18":"18","04":"Yes","04_ages_1":"1","04_ages_2":"2","04_ages_3":"3","04_ages_4":"4","04_ages_5":"5","04_ages_6":"6","04_ages_7":"7","04_ages_8":"8","04_ages_9":"9","04_ages_10":"10","04_ages_11":"11","04_ages_12":"12","04_ages_13":"13","04_ages_14":"14","04_ages_15":"15","04_ages_16":"16","04_ages_17":"17","04_ages_18":"18"},"rt":64863.39999999944,"item_order":[0,1,2,3],"radio_events":[5642.399999999441,20525.89999999944,36073.09999999963,52261.39999999944],"checkbox_events":[8443.700000000186,8871.299999999814,9411.5,10310.5,10806.299999999814,11301.299999999814,11683.799999999814,12088.700000000186,12482.5,12898.5,13360,13798.700000000186,14305,15272.299999999814,16127.399999999441,16667.39999999944,17286.099999999627,17882.200000000186,21617.299999999814,22078.39999999944,22607.200000000186,23102.299999999814,23597.299999999814,24373.5,24744.700000000186,26016,27174.599999999627,27703.299999999814,28220.89999999944,28715.89999999944,29334.200000000186,29728.39999999944,30133.200000000186,30662.099999999627,31089.39999999944,31775.700000000186,38446.89999999944,38998.09999999963,39414.39999999944,39785.700000000186,40179.39999999944,40831.89999999944,41349.39999999944,41754.299999999814,42418,42868.09999999963,43430.39999999944,44893,45534.299999999814,46040.5,46546.59999999963,46917.700000000186,47334.200000000186,47817.700000000186,53296.39999999944,53870.5,55287.799999999814,55737.700000000186,56120.299999999814,56739.09999999963,57245.200000000186,57796.5,58437.59999999963,58876.299999999814,59663.89999999944,60170.09999999963,60991.5,61430.200000000186,61868.89999999944,62352.5,62915.09999999963,63657.5],"key_events":[],"mouse_events":[5642.399999999441,8443.700000000186,8871.299999999814,9411.5,9939.200000000186,10310.5,10806.299999999814,11301.299999999814,11683.799999999814,12088.700000000186,12482.5,12898.5,13360,13798.700000000186,14305,15272.299999999814,15677.5,16127.399999999441,16667.39999999944,17286.099999999627,17882.200000000186,20525.89999999944,21617.299999999814,22078.39999999944,22607.200000000186,23102.299999999814,23597.299999999814,24058.39999999944,24373.5,24744.700000000186,25453.5,26016,27174.599999999627,27703.299999999814,28220.89999999944,28715.89999999944,29334.200000000186,29728.39999999944,30133.200000000186,30662.099999999627,31089.39999999944,31775.700000000186,36073.09999999963,38446.89999999944,38998.09999999963,39414.39999999944,39785.700000000186,40179.39999999944,40831.89999999944,41349.39999999944,41754.299999999814,42418,42868.09999999963,43430.39999999944,44893,45534.299999999814,46040.5,46546.59999999963,46917.700000000186,47334.200000000186,47817.700000000186,52261.39999999944,53296.39999999944,53870.5,55287.799999999814,55737.700000000186,56120.299999999814,56739.09999999963,57245.200000000186,57796.5,58437.59999999963,58876.299999999814,59663.89999999944,60170.09999999963,60991.5,61430.200000000186,61868.89999999944,62352.5,62915.09999999963,63657.5,64861.200000000186],"honeypot":0,"survey":"mace","page":9,"trial_type":"survey-mace","trial_index":17,"time_elapsed":624408,"internal_node_id":"0.0-17.0","task_version":"prescreen-v0.3","browser_interactions":0},{"responses":{"01":"No","02":"No","03":"Yes","03_ages_10":"10","03_ages_11":"11","03_ages_12":"12","03_ages_13":"13","03_ages_14":"14","03_ages_15":"15","03_ages_16":"16","03_ages_17":"17","03_ages_18":"18","04":"Yes","04_ages_10":"10","04_ages_11":"11","04_ages_12":"12","04_ages_13":"13","04_ages_14":"14","04_ages_15":"15","04_ages_16":"16","04_ages_17":"17","04_ages_18":"18","05":"No","06":"Yes","06_ages_17":"17","07":"Yes","07_ages_1":"1","07_ages_2":"2","07_ages_3":"3","07_ages_4":"4","07_ages_5":"5","07_ages_6":"6","07_ages_7":"7","07_ages_8":"8","07_ages_9":"9","07_ages_10":"10","07_ages_11":"11","07_ages_12":"12","07_ages_13":"13","07_ages_14":"14","07_ages_15":"15","07_ages_16":"16","07_ages_17":"17","07_ages_18":"18","08":"Yes","08_ages_1":"1","08_ages_2":"2","08_ages_3":"3","08_ages_4":"4","08_ages_5":"5","08_ages_6":"6","08_ages_7":"7","08_ages_8":"8","08_ages_9":"9","08_ages_10":"10","08_ages_11":"11","08_ages_12":"12","08_ages_13":"13","08_ages_14":"14","08_ages_15":"15","08_ages_16":"16","08_ages_17":"17","08_ages_18":"18"},"rt":68847.59999999963,"item_order":[0,1,2,3,4,5,6,7],"radio_events":[6036.5999999996275,7892.399999999441,10311.299999999814,22168.700000000186,31494.39999999944,34745.5,42935.59999999963,56367.799999999814],"checkbox_events":[13551.299999999814,15294.799999999814,15880,16273.700000000186,16791,17184.89999999944,17668.599999999627,18613,19029.39999999944,24002.099999999627,24497.200000000186,24902.299999999814,25296.099999999627,25836.099999999627,26207.200000000186,26769.799999999814,27140.89999999944,27737.099999999627,36287,44769.5,45365.59999999963,45882.89999999944,46299.299999999814,46681.59999999963,47098.299999999814,47536.700000000186,47919.299999999814,48301.59999999963,48684.09999999963,49100.39999999944,49483.09999999963,50281.700000000186,50765.39999999944,51339.299999999814,52115.39999999944,52857.89999999944,53465.39999999944,57436.5,57909.09999999963,58347.799999999814,58752.59999999963,59225.200000000186,59619.09999999963,60046.700000000186,60755.200000000186,61238.700000000186,61722.799999999814,62409.09999999963,63691.299999999814,64130.200000000186,64973.89999999944,65625.79999999981,66683.79999999981,67303,67775.09999999963],"key_events":[],"mouse_events":[6036.5999999996275,7892.399999999441,10311.299999999814,13551.299999999814,15294.799999999814,15880,16273.700000000186,16791,17184.89999999944,17668.599999999627,18613,19029.39999999944,22168.700000000186,24002.099999999627,24497.200000000186,24902.299999999814,25296.099999999627,25836.099999999627,26207.200000000186,26769.799999999814,27140.89999999944,27737.099999999627,31494.39999999944,34745.5,36287,42935.59999999963,44769.5,45365.59999999963,45882.89999999944,46299.299999999814,46681.59999999963,47098.299999999814,47536.700000000186,47919.299999999814,48301.59999999963,48684.09999999963,49100.39999999944,49483.09999999963,50281.700000000186,50765.39999999944,51339.299999999814,52115.39999999944,52857.89999999944,53465.39999999944,56367.799999999814,57436.5,57909.09999999963,58347.799999999814,58752.59999999963,59225.200000000186,59619.09999999963,60046.700000000186,60755.200000000186,61238.700000000186,61722.799999999814,62409.09999999963,63083.89999999944,63691.299999999814,64130.200000000186,64973.89999999944,65625.79999999981,66683.79999999981,67303,67775.09999999963,68843.70000000019],"honeypot":0,"survey":"mace","page":10,"trial_type":"survey-mace","trial_index":18,"time_elapsed":693261,"internal_node_id":"0.0-18.0","task_version":"prescreen-v0.3","browser_interactions":0,"instructed":0},{"rt":9140.099999999627,"trial_type":"mental-health-alert","trial_index":19,"time_elapsed":702403,"internal_node_id":"0.0-19.0","task_version":"prescreen-v0.3","interactions":"[]"}]