[{"view_history":[{"page_index":0,"viewing_time":3098.8000000715256},{"page_index":1,"viewing_time":4487.699999928474},{"page_index":2,"viewing_time":3728},{"page_index":3,"viewing_time":36256}],"rt":47571.5,"trial_type":"instructions","trial_index":0,"time_elapsed":47662,"internal_node_id":"0.0-0.0","task_version":"prescreen-v0.3"},{"rt":18394.300000071526,"responses":{"age":"28","gender-categorical":"Male","gender-free-response":"","ethnicity":"Not Hispanic or Latino","race":["White"],"education":"Some college","siblings":"3"},"trial_type":"survey-demo","trial_index":1,"time_elapsed":66064,"internal_node_id":"0.0-1.0","task_version":"prescreen-v0.3"},{"responses":{"Q15":"3","Q09":"2","Q20":"1","Q17":"3","Q13":"2","Q04":"2","Q10":"1","Q18":"2","Q08":"3","Q21":"3","Q06":"1","Q07":"1","Q14":"3","Q19":"2","Q05":"2","Q16":"1","Q02":"1","Q03":"1","Q11":"2","Q12":"2","Q01":"1"},"rt":120533.90000009537,"item_order":[14,8,19,16,12,3,9,17,7,20,5,6,13,18,4,15,1,2,10,11,0],"radio_events":[9987.200000047684,14827.400000095367,19907.100000023842,26395.200000047684,30307.300000071526,37587.200000047684,41611,46523.200000047684,51683,56107.200000047684,62034.90000009537,68859.10000002384,72195.40000009537,77890.90000009537,91915,97170.90000009537,102867,105891,111899.20000004768,116619,119434.90000009537],"key_events":[],"mouse_events":[9987.200000047684,14411.300000071526,14827.400000095367,19907.100000023842,26395.200000047684,29747.700000047684,30307.300000071526,37587.200000047684,41611,46523.200000047684,51683,56107.200000047684,62034.90000009537,67883.20000004768,68339,68859.10000002384,72195.40000009537,77890.90000009537,91915,96643.20000004768,97170.90000009537,102867,105891,111427.20000004768,111899.20000004768,116091.20000004768,116619,119434.90000009537,120531.30000007153],"straightlining":0.38095238095238093,"zigzagging":0.5,"honeypot":0,"survey":"sns","trial_type":"survey-template","trial_index":2,"time_elapsed":186609,"internal_node_id":"0.0-2.0","task_version":"prescreen-v0.3","browser_interactions":0,"infrequency":0},{"responses":{"Q08":"2","Q10":"2","Q06":"3","Q05":"3","Q04":"2","Q12":"1","Q09":"1","Q07":"3","Q02":"2","Q03":"2","Q13":"0","Q11":"2","Q01":"3"},"rt":49372.39999997616,"item_order":[7,9,5,4,3,11,8,6,1,2,12,10,0],"radio_events":[6146.899999976158,10738.600000023842,14114.899999976158,16970.700000047684,20130.899999976158,23674.899999976158,27474.799999952316,30218.700000047684,33010.700000047684,38362.799999952316,41354.60000002384,46842.799999952316,48818.799999952316],"key_events":[],"mouse_events":[6146.899999976158,9819.100000023842,10738.600000023842,13803.299999952316,14114.899999976158,16970.700000047684,20130.899999976158,23674.899999976158,26803,27474.799999952316,30218.700000047684,33010.700000047684,38362.799999952316,40891,41354.60000002384,46842.799999952316,48818.799999952316,49370.89999997616],"straightlining":0.46153846153846156,"zigzagging":0.4166666666666667,"honeypot":0,"survey":"bisbas","trial_type":"survey-template","trial_index":3,"time_elapsed":235991,"internal_node_id":"0.0-3.0","task_version":"prescreen-v0.3","browser_interactions":0,"infrequency":0},{"responses":{"Q01":"3","Q02":"3","Q03":"4"},"rt":23998,"radio_events":[8309.200000047684,16925.200000047684,22757.200000047684,23453.100000023842],"key_events":[],"mouse_events":[7565.700000047684,7877.100000023842,8309.200000047684,16925.200000047684,22757.200000047684,23453.100000023842,23997.200000047684],"survey":"map","page":1,"trial_type":"survey-map","trial_index":4,"time_elapsed":259998,"internal_node_id":"0.0-4.0","task_version":"prescreen-v0.3","browser_interactions":0},{"responses":{"Q04":"1","Q05":"2","Q06":"1"},"rt":13175.899999976158,"radio_events":[5623,8959.199999928474,12207.100000023842],"key_events":[],"mouse_events":[5623,8959.199999928474,12207.100000023842,13175.199999928474],"survey":"map","page":2,"trial_type":"survey-map","trial_index":5,"time_elapsed":273182,"internal_node_id":"0.0-5.0","task_version":"prescreen-v0.3","browser_interactions":0},{"responses":{"Q07":"3","Q08":"1","Q09":"2"},"rt":21001.399999976158,"radio_events":[6200.5,15632.5,20232.600000023842],"key_events":[],"mouse_events":[5464.5,6200.5,15632.5,20232.600000023842,21000.600000023842],"survey":"map","page":3,"trial_type":"survey-map","trial_index":6,"time_elapsed":294190,"internal_node_id":"0.0-6.0","task_version":"prescreen-v0.3","browser_interactions":0},{"responses":{"Q10":"2","Q11":"1","Q12":"1","Q13":"1","Q16":"0","Q14":"2","Q15":"2"},"rt":42705.800000071526,"radio_events":[8656.399999976158,13185,18120.200000047684,23936.300000071526,28320.300000071526,38136.300000071526,41992.300000071526],"key_events":[],"mouse_events":[8656.399999976158,12592.5,13185,18120.200000047684,23936.300000071526,28320.300000071526,38136.300000071526,41992.300000071526,42704.39999997616],"survey":"map","page":4,"trial_type":"survey-map","trial_index":7,"time_elapsed":336903,"internal_node_id":"0.0-7.0","task_version":"prescreen-v0.3","browser_interactions":0,"infrequency":0},{"view_history":[{"page_index":0,"viewing_time":3087.899999976158},{"page_index":1,"viewing_time":4007.8000000715256}],"rt":7096.5,"trial_type":"instructions","trial_index":8,"time_elapsed":344005,"internal_node_id":"0.0-8.0","task_version":"prescreen-v0.3"},{"responses":{"01":"No","02":"No","03":"No","04":"No","05":"No","06":"Yes","06_ages_5":"5","06_ages_6":"6","06_ages_7":"7","06_ages_8":"8","06_ages_9":"9","06_ages_10":"10"},"rt":46196.200000047684,"item_order":[0,1,2,3,4,5],"radio_events":[14560.200000047684,19360,22360.200000047684,25992.100000023842,27200.100000023842,31056],"checkbox_events":[39688.40000009537,40088.200000047684,40543.90000009537,41207.90000009537,41536,41992.200000047684],"key_events":[],"mouse_events":[0.10000002384185791,14560.200000047684,19360,22360.200000047684,25016.100000023842,25992.100000023842,27200.100000023842,31056,39688.40000009537,40088.200000047684,40543.90000009537,41207.90000009537,41536,41992.200000047684,46192.5],"honeypot":0,"survey":"mace","page":1,"trial_type":"survey-mace","trial_index":9,"time_elapsed":390211,"internal_node_id":"0.0-9.0","task_version":"prescreen-v0.3","browser_interactions":0},{"responses":{"01":"No","02":"No","03":"Yes","03_ages_4":"4","03_ages_5":"5","03_ages_6":"6","03_ages_7":"7","03_ages_8":"8","03_ages_9":"9","03_ages_10":"10","04":"No","05":"No","06":"No","07":"No","08":"No"},"rt":30438.799999952316,"item_order":[0,1,2,3,4,5,6,7],"radio_events":[4042.600000023842,8362.100000023842,10481.700000047684,19082.100000023842,23474,27642.5,28409.700000047684,29649.799999952316],"checkbox_events":[12458,13730,14050.100000023842,14737.799999952316,15057.700000047684,15369.600000023842,15890],"key_events":[],"mouse_events":[4042.600000023842,8362.100000023842,10481.700000047684,12458,13065.899999976158,13730,14050.100000023842,14329.899999976158,14737.799999952316,15057.700000047684,15369.600000023842,15890,19082.100000023842,23474,26234.100000023842,27642.5,28409.700000047684,29649.799999952316,30434.100000023842],"honeypot":0,"survey":"mace","page":2,"trial_type":"survey-mace","trial_index":10,"time_elapsed":420659,"internal_node_id":"0.0-10.0","task_version":"prescreen-v0.3","browser_interactions":0},{"responses":{"01":"No","02":"No","03":"No","04":"No"},"rt":14708.299999952316,"item_order":[0,1,2,3],"radio_events":[4466,8825.899999976158,11401.899999976158,13114],"checkbox_events":[],"key_events":[],"mouse_events":[4466,7817.899999976158,8825.899999976158,11401.899999976158,13114,14705.899999976158],"honeypot":0,"survey":"mace","page":3,"trial_type":"survey-mace","trial_index":11,"time_elapsed":435376,"internal_node_id":"0.0-11.0","task_version":"prescreen-v0.3","browser_interactions":0},{"responses":{"01":"No","02":"No"},"rt":9975.100000023842,"item_order":[0,1],"radio_events":[2742,9173.899999976158],"checkbox_events":[],"key_events":[],"mouse_events":[2742,9173.899999976158,9973.899999976158],"honeypot":0,"survey":"mace","page":4,"trial_type":"survey-mace","trial_index":12,"time_elapsed":445358,"internal_node_id":"0.0-12.0","task_version":"prescreen-v0.3","browser_interactions":0},{"responses":{"01":"No","02":"No","03":"No","04":"No","05":"No"},"rt":29042.299999952316,"item_order":[0,1,2,3,4],"radio_events":[16119.299999952316,20551.299999952316,24055.299999952316,26839.199999928474,28335.600000023842],"checkbox_events":[],"key_events":[],"mouse_events":[16119.299999952316,20551.299999952316,24055.299999952316,26839.199999928474,28335.600000023842,29039.299999952316],"honeypot":0,"survey":"mace","page":5,"trial_type":"survey-mace","trial_index":13,"time_elapsed":474409,"internal_node_id":"0.0-13.0","task_version":"prescreen-v0.3","browser_interactions":0},{"responses":{"01":"Yes","01_ages_6":"6","01_ages_7":"7","01_ages_8":"8","01_ages_9":"9","01_ages_10":"10","01_ages_11":"11","01_ages_12":"12","01_ages_13":"13","01_ages_14":"14","01_ages_15":"15","01_ages_16":"16","02":"Yes","02_ages_6":"6","02_ages_7":"7","02_ages_8":"8","02_ages_9":"9","02_ages_10":"10","02_ages_11":"11","02_ages_12":"12","02_ages_13":"13","02_ages_14":"14","02_ages_15":"15","02_ages_16":"16","03":"No","04":"Yes","04_ages_10":"10","04_ages_11":"11","04_ages_12":"12","04_ages_13":"13","04_ages_14":"14","04_ages_15":"15","04_ages_16":"16","04_ages_17":"17","04_ages_18":"18","05":"No"},"rt":49304.200000047684,"item_order":[0,1,2,3,4],"radio_events":[6749.100000023842,22389,31260.899999976158,37612.89999997616,48292.89999997616],"checkbox_events":[10189,10525.100000023842,11853.100000023842,12197,13077,13661.5,14276.800000071526,14773.200000047684,15285.399999976158,16413,16861,23301,23597,23948.899999976158,24276.700000047684,24581,25452.899999976158,25940.700000047684,26508.899999976158,26893.100000023842,27212.899999976158,27660.899999976158,40477,41573.300000071526,42205.10000002384,42637.200000047684,42996.800000071526,43300.800000071526,43716.700000047684,44268.800000071526,44788.700000047684],"key_events":[],"mouse_events":[6749.100000023842,10189,10525.100000023842,10781,11260.600000023842,11548.700000047684,11853.100000023842,12197,12525.200000047684,12805.300000071526,13077,13661.5,14276.800000071526,14773.200000047684,15285.399999976158,16413,16861,22389,23301,23597,23948.899999976158,24276.700000047684,24581,24884.899999976158,25196.700000047684,25452.899999976158,25940.700000047684,26508.899999976158,26893.100000023842,27212.899999976158,27660.899999976158,31260.899999976158,37612.89999997616,40477,40836.60000002384,41076.700000047684,41573.300000071526,41957.200000047684,42205.10000002384,42637.200000047684,42996.800000071526,43300.800000071526,43716.700000047684,44268.800000071526,44788.700000047684,48292.89999997616,49301.39999997616],"honeypot":0,"survey":"mace","page":6,"trial_type":"survey-mace","trial_index":14,"time_elapsed":523722,"internal_node_id":"0.0-14.0","task_version":"prescreen-v0.3","browser_interactions":0},{"responses":{"01":"No","02":"No","03":"No","04":"No","05":"No","06":"No","07":"No"},"rt":16544.199999928474,"item_order":[0,1,2,3,4,5,6],"radio_events":[5219.899999976158,7732,10515.799999952316,11971.899999976158,14315.699999928474,15123.699999928474,15819.699999928474],"checkbox_events":[],"key_events":[],"mouse_events":[5219.899999976158,7732,10515.799999952316,11971.899999976158,14315.699999928474,15123.699999928474,15819.699999928474,16540],"honeypot":0,"survey":"mace","page":7,"trial_type":"survey-mace","trial_index":15,"time_elapsed":540275,"internal_node_id":"0.0-15.0","task_version":"prescreen-v0.3","browser_interactions":0},{"responses":{"01":"Yes","01_ages_12":"12","01_ages_13":"13","01_ages_14":"14","01_ages_15":"15","01_ages_16":"16","02":"Yes","02_ages_12":"12","02_ages_13":"13","02_ages_14":"14","02_ages_15":"15","02_ages_16":"16","03":"No","04":"No"},"rt":28973.699999928474,"item_order":[0,1,2,3],"radio_events":[11011,19443.099999904633,25611,28307],"checkbox_events":[14371.199999928474,14659.099999904633,15147,15475,16003.199999928474,20659.299999952316,21082.899999976158,21859.699999928474,22403,23082.899999976158],"key_events":[],"mouse_events":[11011,14371.199999928474,14659.099999904633,15147,15475,16003.199999928474,19443.099999904633,20283.099999904633,20659.299999952316,21082.899999976158,21603.099999904633,21859.699999928474,22403,23082.899999976158,25611,28307,28971.199999928474],"honeypot":0,"survey":"mace","page":8,"trial_type":"survey-mace","trial_index":16,"time_elapsed":569256,"internal_node_id":"0.0-16.0","task_version":"prescreen-v0.3","browser_interactions":0},{"responses":{"01":"Yes","01_ages_1":"1","01_ages_2":"2","01_ages_3":"3","01_ages_4":"4","01_ages_5":"5","01_ages_6":"6","01_ages_7":"7","01_ages_8":"8","01_ages_9":"9","01_ages_10":"10","01_ages_11":"11","01_ages_12":"12","01_ages_13":"13","01_ages_14":"14","01_ages_15":"15","01_ages_16":"16","01_ages_17":"17","01_ages_18":"18","02":"Yes","02_ages_1":"1","02_ages_2":"2","02_ages_3":"3","02_ages_4":"4","02_ages_5":"5","02_ages_6":"6","02_ages_7":"7","02_ages_8":"8","02_ages_9":"9","02_ages_10":"10","02_ages_11":"11","02_ages_12":"12","02_ages_13":"13","02_ages_14":"14","02_ages_15":"15","02_ages_16":"16","02_ages_17":"17","02_ages_18":"18","03":"Yes","03_ages_1":"1","03_ages_2":"2","03_ages_3":"3","03_ages_4":"4","03_ages_5":"5","03_ages_6":"6","03_ages_7":"7","03_ages_8":"8","03_ages_9":"9","03_ages_10":"10","03_ages_11":"11","03_ages_12":"12","03_ages_13":"13","03_ages_14":"14","03_ages_15":"15","03_ages_16":"16","03_ages_17":"17","03_ages_18":"18","04":"Yes","04_ages_1":"1","04_ages_2":"2","04_ages_3":"3","04_ages_4":"4","04_ages_5":"5","04_ages_6":"6","04_ages_7":"7","04_ages_8":"8","04_ages_9":"9","04_ages_10":"10","04_ages_11":"11","04_ages_12":"12","04_ages_13":"13","04_ages_14":"14","04_ages_15":"15","04_ages_16":"16","04_ages_17":"17","04_ages_18":"18"},"rt":66735.79999995232,"item_order":[0,1,2,3],"radio_events":[5637.5,25277.600000023842,40757,55013.10000002384],"checkbox_events":[8749.399999976158,9085.199999928474,9421.299999952316,10045.199999928474,10940.899999976158,11517.199999928474,14717.5,15685.199999928474,16997,17341.199999928474,18077.199999928474,18581.199999928474,19077,19605.199999928474,20117.699999928474,20557.199999928474,20989.100000023842,21477.199999928474,26453.100000023842,27957.100000023842,28325,28925.199999928474,29381.299999952316,29828.899999976158,30693.199999928474,31397.199999928474,31949.100000023842,32477.399999976158,32925.10000002384,33653,34349.199999928474,35005.299999952316,35645.10000002384,36317.299999952316,36844.89999997616,37477.199999928474,41693.10000002384,42077.199999928474,42404.89999997616,43141.10000002384,43781.10000002384,44485.199999928474,45140.89999997616,45669.10000002384,46260.89999997616,46701.39999997616,47045.10000002384,47413.39999997616,47749.10000002384,48101.39999997616,48693.10000002384,49413.199999928474,49757.39999997616,50157.60000002384,57221.10000002384,57565.10000002384,57893,58797.5,59741.10000002384,60237.10000002384,60573.299999952316,60917.10000002384,61285.10000002384,61733.10000002384,62477.10000002384,63013,63613.10000002384,64117.5,64661,65141.10000002384,65661.10000002384,66117.10000002384],"key_events":[],"mouse_events":[5637.5,8749.399999976158,9085.199999928474,9421.299999952316,9749.100000023842,10045.199999928474,10381.100000023842,10940.899999976158,11517.199999928474,12101.199999928474,14717.5,15685.199999928474,16589.100000023842,16997,17341.199999928474,18077.199999928474,18581.199999928474,19077,19605.199999928474,20117.699999928474,20557.199999928474,20989.100000023842,21477.199999928474,25277.600000023842,26453.100000023842,27101.100000023842,27484.799999952316,27957.100000023842,28325,28925.199999928474,29381.299999952316,29828.899999976158,30693.199999928474,31397.199999928474,31949.100000023842,32477.399999976158,32925.10000002384,33653,34349.199999928474,35005.299999952316,35645.10000002384,36317.299999952316,36844.89999997616,37477.199999928474,40757,41693.10000002384,42077.199999928474,42404.89999997616,43141.10000002384,43781.10000002384,44485.199999928474,45140.89999997616,45669.10000002384,46260.89999997616,46701.39999997616,47045.10000002384,47413.39999997616,47749.10000002384,48101.39999997616,48693.10000002384,49413.199999928474,49757.39999997616,50157.60000002384,54405.39999997616,55013.10000002384,56141.199999928474,56748.89999997616,57221.10000002384,57565.10000002384,57893,58197.39999997616,58797.5,59197.10000002384,59741.10000002384,60237.10000002384,60573.299999952316,60917.10000002384,61285.10000002384,61733.10000002384,62477.10000002384,63013,63613.10000002384,64117.5,64661,65141.10000002384,65661.10000002384,66117.10000002384,66733.39999997616],"honeypot":0,"survey":"mace","page":9,"trial_type":"survey-mace","trial_index":17,"time_elapsed":636000,"internal_node_id":"0.0-17.0","task_version":"prescreen-v0.3","browser_interactions":0},{"responses":{"01":"No","02":"No","03":"No","04":"No","05":"Yes","05_ages_4":"4","05_ages_5":"5","05_ages_6":"6","05_ages_7":"7","05_ages_8":"8","05_ages_9":"9","05_ages_10":"10","06":"Yes","06_ages_17":"17","07":"Yes","07_ages_5":"5","07_ages_6":"6","07_ages_7":"7","07_ages_8":"8","07_ages_9":"9","07_ages_10":"10","07_ages_11":"11","07_ages_12":"12","07_ages_13":"13","07_ages_14":"14","07_ages_15":"15","07_ages_16":"16","07_ages_17":"17","07_ages_18":"18","08":"Yes","08_ages_10":"10","08_ages_11":"11","08_ages_12":"12","08_ages_13":"13","08_ages_14":"14","08_ages_15":"15","08_ages_16":"16","08_ages_17":"17","08_ages_18":"18"},"rt":53458.299999952316,"item_order":[0,1,2,3,4,5,6,7],"radio_events":[7253.100000023842,8572.799999952316,10733,12852.799999952316,15820.699999928474,16629.100000023842,25532.699999928474,31204.600000023842,47636.5],"checkbox_events":[19916.799999952316,20276.899999976158,20597,21484.699999928474,21812.699999928474,22364.399999976158,22876.799999952316,26828.600000023842,33788.89999997616,35164.60000002384,36092.799999952316,36468.699999928474,37260.60000002384,37612.699999928474,37973.5,38340.60000002384,38660.60000002384,38973.10000002384,40036.39999997616,40404.89999997616,41636.60000002384,42124.5,42700.5,43804.799999952316,44324.5,44948.5,49884.89999997616,50204.60000002384,50508.60000002384,50837.199999928474,51140.5,51476.60000002384,51796.5,52348.5,52748.5],"key_events":[],"mouse_events":[7253.100000023842,8572.799999952316,10733,12852.799999952316,15820.699999928474,16629.100000023842,19916.799999952316,20276.899999976158,20597,20876.799999952316,21164.899999976158,21484.699999928474,21812.699999928474,22364.399999976158,22876.799999952316,25532.699999928474,26828.600000023842,31204.600000023842,33788.89999997616,34797.5,35164.60000002384,36092.799999952316,36468.699999928474,37260.60000002384,37612.699999928474,37973.5,38340.60000002384,38660.60000002384,38973.10000002384,39292.89999997616,40036.39999997616,40404.89999997616,40924.89999997616,41636.60000002384,42124.5,42700.5,43253.299999952316,43804.799999952316,44324.5,44948.5,47636.5,49188.799999952316,49884.89999997616,50204.60000002384,50508.60000002384,50837.199999928474,51140.5,51476.60000002384,51796.5,52348.5,52748.5,53453.5],"honeypot":0,"survey":"mace","page":10,"trial_type":"survey-mace","trial_index":18,"time_elapsed":689468,"internal_node_id":"0.0-18.0","task_version":"prescreen-v0.3","browser_interactions":0,"instructed":0},{"rt":6330.199999928474,"trial_type":"mental-health-alert","trial_index":19,"time_elapsed":695805,"internal_node_id":"0.0-19.0","task_version":"prescreen-v0.3","interactions":"[]"}]