[{"view_history":[{"page_index":0,"viewing_time":2567},{"page_index":1,"viewing_time":1650},{"page_index":2,"viewing_time":1899},{"page_index":3,"viewing_time":764}],"rt":6880,"trial_type":"instructions","trial_index":0,"time_elapsed":6891,"internal_node_id":"0.0-0.0","task_version":"prescreen-v0.3"},{"rt":16869,"responses":{"age":"18","gender-categorical":"Female","gender-free-response":"","ethnicity":"Not Hispanic or Latino","race":["White"],"education":"High school"},"trial_type":"survey-demo","trial_index":1,"time_elapsed":23780,"internal_node_id":"0.0-1.0","task_version":"prescreen-v0.3"},{"responses":{"Q05":"0","Q16":"2","Q04":"3","Q19":"0","Q01":"2","Q09":"1","Q07":"0","Q13":"2","Q03":"0","Q20":"0","Q12":"1","Q11":"0","Q10":"0","Q14":"1","Q06":"0","Q02":"0","Q15":"1","Q17":"0","Q21":"3","Q08":"1","Q18":"0"},"rt":84621,"item_order":[4,15,3,18,0,8,6,12,2,19,11,10,9,13,5,1,14,16,20,7,17],"radio_events":[7396,13391,17925,24369,25436,31547,32726,34180,35071,37306,40596,41760,44433,46699,49850,54394,55082,63417,65887,68215,73351,79719,83207],"key_events":[],"mouse_events":[7396,13391,17925,24369,25436,28910,30789,31547,32726,34180,34662,35071,37306,40596,41760,44433,46699,48526,49850,51757,54394,55082,63417,65887,68215,73351,74495,79719,82861,83207,84620],"straightlining":0.5238095238095238,"zigzagging":0.6,"honeypot":0,"survey":"sns","trial_type":"survey-template","trial_index":2,"time_elapsed":108417,"internal_node_id":"0.0-2.0","task_version":"prescreen-v0.3","browser_interactions":0,"infrequency":0},{"responses":{"Q04":"3","Q11":"1","Q10":"1","Q06":"2","Q05":"3","Q02":"3","Q08":"2","Q09":"1","Q03":"3","Q01":"3","Q07":"2","Q13":"0","Q12":"1"},"rt":45713,"item_order":[3,10,9,5,4,1,7,8,2,0,6,12,11],"radio_events":[5466,9905,12659,16232,17984,18899,29805,32353,33732,34862,35962,37355,42725,45033],"key_events":[],"mouse_events":[5466,9905,12659,16232,17984,18899,29805,32353,33732,34862,35962,37355,42725,45033,45712],"straightlining":0.38461538461538464,"zigzagging":0.5,"honeypot":0,"survey":"bisbas","trial_type":"survey-template","trial_index":3,"time_elapsed":154141,"internal_node_id":"0.0-3.0","task_version":"prescreen-v0.3","browser_interactions":0,"infrequency":0},{"responses":{"Q01":"4","Q02":"4","Q03":"4"},"rt":13374,"radio_events":[9968,10953,12862],"key_events":[],"mouse_events":[9630,9968,10953,12862,13374],"survey":"map","page":1,"trial_type":"survey-map","trial_index":4,"time_elapsed":167524,"internal_node_id":"0.0-4.0","task_version":"prescreen-v0.3","browser_interactions":2},{"responses":{"Q04":"3","Q05":"4","Q06":"4"},"rt":11857,"radio_events":[5864,9827,11448],"key_events":[],"mouse_events":[5864,9827,11094,11448,11857],"survey":"map","page":2,"trial_type":"survey-map","trial_index":5,"time_elapsed":179386,"internal_node_id":"0.0-5.0","task_version":"prescreen-v0.3","browser_interactions":0},{"responses":{"Q07":"2","Q08":"4","Q09":"4"},"rt":15029,"radio_events":[9823,12800,13538],"key_events":[],"mouse_events":[9823,10717,12800,13538,15029],"survey":"map","page":3,"trial_type":"survey-map","trial_index":6,"time_elapsed":194421,"internal_node_id":"0.0-6.0","task_version":"prescreen-v0.3","browser_interactions":0},{"responses":{"Q10":"3","Q11":"0","Q12":"2","Q13":"2","Q16":"0","Q14":"2","Q15":"2"},"rt":30812,"radio_events":[2706,7225,9710,18252,21107,27319,30224],"key_events":[],"mouse_events":[2706,7225,9710,18252,21107,27319,29541,30224,30812],"survey":"map","page":4,"trial_type":"survey-map","trial_index":7,"time_elapsed":225239,"internal_node_id":"0.0-7.0","task_version":"prescreen-v0.3","browser_interactions":0,"infrequency":0},{"view_history":[{"page_index":0,"viewing_time":1393},{"page_index":1,"viewing_time":2352}],"rt":3748,"trial_type":"instructions","trial_index":8,"time_elapsed":228988,"internal_node_id":"0.0-8.0","task_version":"prescreen-v0.3"},{"responses":{"01":"No","02":"No","03":"No","04":"No","05":"No","06":"No"},"rt":19029,"item_order":[0,1,2,3,4,5],"radio_events":[6390,7370,8146,10130,15811,16565],"checkbox_events":[],"key_events":[],"mouse_events":[1,6390,7370,8146,8982,10130,15811,16565,19029],"honeypot":0,"survey":"mace","page":1,"trial_type":"survey-mace","trial_index":9,"time_elapsed":248039,"internal_node_id":"0.0-9.0","task_version":"prescreen-v0.3","browser_interactions":0},{"responses":{"01":"No","02":"No","03":"No","04":"No","05":"No","06":"No","07":"No","08":"No"},"rt":11480,"item_order":[0,1,2,3,4,5,6,7],"radio_events":[2807,3322,4307,5532,6667,8619,10624,11121],"checkbox_events":[],"key_events":[],"mouse_events":[1881,2406,2807,3322,4307,5532,6667,8619,8970,10052,10624,11121,11480],"honeypot":0,"survey":"mace","page":2,"trial_type":"survey-mace","trial_index":10,"time_elapsed":259533,"internal_node_id":"0.0-10.0","task_version":"prescreen-v0.3","browser_interactions":0},{"responses":{"01":"No","02":"No","03":"No","04":"No"},"rt":7886,"item_order":[0,1,2,3],"radio_events":[2864,4341,5829,6902],"checkbox_events":[],"key_events":[],"mouse_events":[2864,4341,5829,6902,7886],"honeypot":0,"survey":"mace","page":3,"trial_type":"survey-mace","trial_index":11,"time_elapsed":267429,"internal_node_id":"0.0-11.0","task_version":"prescreen-v0.3","browser_interactions":0},{"responses":{"01":"No","02":"No"},"rt":6281,"item_order":[0,1],"radio_events":[2150,3778],"checkbox_events":[],"key_events":[],"mouse_events":[2150,3065,3778,6281],"honeypot":0,"survey":"mace","page":4,"trial_type":"survey-mace","trial_index":12,"time_elapsed":273719,"internal_node_id":"0.0-12.0","task_version":"prescreen-v0.3","browser_interactions":0},{"responses":{"01":"No","02":"No","03":"No","04":"No","05":"No"},"rt":10827,"item_order":[0,1,2,3,4],"radio_events":[3227,4182,7682,8755,9974],"checkbox_events":[],"key_events":[],"mouse_events":[3227,4182,7682,8406,8755,9974,10827],"honeypot":0,"survey":"mace","page":5,"trial_type":"survey-mace","trial_index":13,"time_elapsed":284560,"internal_node_id":"0.0-13.0","task_version":"prescreen-v0.3","browser_interactions":0},{"responses":{"01":"No","02":"No","03":"No","04":"No","05":"No"},"rt":15766,"item_order":[0,1,2,3,4],"radio_events":[8742,9513,10438,14820,15278],"checkbox_events":[],"key_events":[],"mouse_events":[8742,9513,10438,14820,15278,15765],"honeypot":0,"survey":"mace","page":6,"trial_type":"survey-mace","trial_index":14,"time_elapsed":300336,"internal_node_id":"0.0-14.0","task_version":"prescreen-v0.3","browser_interactions":0},{"responses":{"01":"No","02":"No","03":"No","04":"No","05":"No","06":"No","07":"No"},"rt":8269,"item_order":[0,1,2,3,4,5,6],"radio_events":[2054,2814,4014,4654,5710,6743,7780],"checkbox_events":[],"key_events":[],"mouse_events":[2054,2814,4014,4654,5710,6516,6743,7780,8269],"honeypot":0,"survey":"mace","page":7,"trial_type":"survey-mace","trial_index":15,"time_elapsed":308619,"internal_node_id":"0.0-15.0","task_version":"prescreen-v0.3","browser_interactions":0},{"responses":{"01":"No","02":"Yes","02_ages_13":"13","02_ages_14":"14","02_ages_15":"15","02_ages_16":"16","02_ages_17":"17","02_ages_18":"18","03":"Yes","03_ages_10":"10","03_ages_11":"11","03_ages_12":"12","03_ages_13":"13","03_ages_14":"14","03_ages_15":"15","03_ages_16":"16","03_ages_17":"17","03_ages_18":"18","04":"No"},"rt":30814,"item_order":[0,1,2,3],"radio_events":[5116,7468,19394,30320],"checkbox_events":[13637,14294,14912,15264,15602,16709,21345,22067,22839,23214,24010,24947,25366,26014,26414],"key_events":[],"mouse_events":[5116,7468,13637,13926,14294,14583,14912,15264,15602,16709,19029,19394,21345,21612,22067,22839,23214,23515,24010,24947,25366,26014,26414,30320,30814],"honeypot":0,"survey":"mace","page":8,"trial_type":"survey-mace","trial_index":16,"time_elapsed":339446,"internal_node_id":"0.0-16.0","task_version":"prescreen-v0.3","browser_interactions":0},{"responses":{"01":"Yes","01_ages_1":"1","01_ages_2":"2","01_ages_3":"3","01_ages_4":"4","01_ages_5":"5","01_ages_6":"6","01_ages_7":"7","01_ages_8":"8","01_ages_9":"9","01_ages_10":"10","01_ages_11":"11","01_ages_12":"12","01_ages_13":"13","01_ages_14":"14","01_ages_15":"15","01_ages_16":"16","01_ages_17":"17","01_ages_18":"18","02":"Yes","02_ages_1":"1","02_ages_2":"2","02_ages_3":"3","02_ages_4":"4","02_ages_5":"5","02_ages_6":"6","02_ages_7":"7","02_ages_8":"8","02_ages_9":"9","02_ages_10":"10","02_ages_11":"11","02_ages_12":"12","02_ages_13":"13","02_ages_14":"14","02_ages_15":"15","02_ages_16":"16","02_ages_17":"17","02_ages_18":"18","03":"Yes","03_ages_1":"1","03_ages_2":"2","03_ages_3":"3","03_ages_4":"4","03_ages_5":"5","03_ages_6":"6","03_ages_7":"7","03_ages_8":"8","03_ages_9":"9","03_ages_10":"10","03_ages_11":"11","03_ages_12":"12","03_ages_13":"13","03_ages_14":"14","03_ages_15":"15","03_ages_16":"16","03_ages_17":"17","03_ages_18":"18","04":"Yes","04_ages_1":"1","04_ages_2":"2","04_ages_3":"3","04_ages_4":"4","04_ages_5":"5","04_ages_6":"6","04_ages_7":"7","04_ages_8":"8","04_ages_9":"9","04_ages_10":"10","04_ages_11":"11","04_ages_12":"12","04_ages_13":"13","04_ages_14":"14","04_ages_15":"15","04_ages_16":"16","04_ages_17":"17","04_ages_18":"18"},"rt":52305,"item_order":[0,1,2,3],"radio_events":[2518,15708,28108,42867],"checkbox_events":[5849,6494,6835,7269,7623,7976,8384,8761,9156,9509,10159,10456,11082,11805,12238,13105,13380,13706,18020,18463,18854,19404,20135,20435,20779,21131,21506,23175,23473,23855,24234,24596,24918,25617,26017,26428,28886,29297,29718,30035,30389,30785,31636,31941,32374,32917,33490,34080,36808,37937,38347,38804,39172,39672,43975,44327,44680,45049,45699,46248,46530,46934,47303,47710,48103,48873,49206,49575,49994,50328,50723,51677],"key_events":[],"mouse_events":[2518,5849,6161,6494,6835,7269,7623,7976,8384,8761,9156,9509,9862,10159,10456,10760,11082,11460,11805,12238,12655,13105,13380,13706,15708,16449,17122,18020,18463,18854,19404,20135,20435,20779,21131,21506,21953,22397,22774,23175,23473,23855,24234,24596,24918,25617,26017,26428,27768,28108,28886,29297,29718,30035,30389,30785,31636,31941,32374,32917,33490,33851,34080,36808,37279,37561,37937,38347,38804,39172,39672,42867,43975,44327,44680,45049,45699,45997,46248,46530,46934,47303,47710,48103,48471,48873,49206,49575,49994,50328,50723,51044,51326,51677,52305],"honeypot":0,"survey":"mace","page":9,"trial_type":"survey-mace","trial_index":17,"time_elapsed":391769,"internal_node_id":"0.0-17.0","task_version":"prescreen-v0.3","browser_interactions":0},{"responses":{"01":"No","02":"No","03":"Yes","03_ages_8":"8","03_ages_9":"9","03_ages_10":"10","03_ages_11":"11","03_ages_12":"12","04":"No","05":"No","06":"Yes","06_ages_17":"17","07":"Yes","07_ages_1":"1","07_ages_2":"2","07_ages_3":"3","07_ages_4":"4","07_ages_5":"5","07_ages_6":"6","07_ages_7":"7","07_ages_8":"8","07_ages_9":"9","07_ages_10":"10","07_ages_11":"11","07_ages_12":"12","07_ages_13":"13","07_ages_14":"14","07_ages_15":"15","07_ages_16":"16","07_ages_17":"17","07_ages_18":"18","08":"Yes","08_ages_1":"1","08_ages_2":"2","08_ages_3":"3","08_ages_4":"4","08_ages_5":"5","08_ages_6":"6","08_ages_7":"7","08_ages_8":"8","08_ages_9":"9","08_ages_10":"10","08_ages_11":"11","08_ages_12":"12","08_ages_13":"13","08_ages_14":"14","08_ages_15":"15","08_ages_16":"16","08_ages_17":"17","08_ages_18":"18"},"rt":45778,"item_order":[0,1,2,3,4,5,6,7],"radio_events":[1993,3642,4275,12952,16724,17341,22682,36165],"checkbox_events":[6714,7089,7443,9821,10455,20716,24625,25147,25710,26382,26722,27048,27391,29067,29994,31704,32084,32743,33208,33570,34199,34485,34865,35568,37868,38341,39034,39484,39951,40343,40794,41185,41756,42153,42538,42871,43275,43615,44071,44416,44912,45335],"key_events":[],"mouse_events":[1993,2644,3642,4275,6714,7089,7443,9821,10182,10455,12952,16724,17341,19039,20716,22682,24625,25147,25467,25710,26085,26382,26722,27048,27391,27806,28321,29067,29517,29994,30323,31437,31704,32084,32466,32743,33208,33570,33971,34199,34485,34865,35286,35568,36165,37306,37868,38341,38785,39034,39484,39951,40343,40794,41185,41756,42153,42538,42871,43275,43615,44071,44416,44912,45335,45778],"honeypot":0,"survey":"mace","page":10,"trial_type":"survey-mace","trial_index":18,"time_elapsed":437566,"internal_node_id":"0.0-18.0","task_version":"prescreen-v0.3","browser_interactions":0,"instructed":0},{"rt":3377,"trial_type":"mental-health-alert","trial_index":19,"time_elapsed":440946,"internal_node_id":"0.0-19.0","task_version":"prescreen-v0.3","interactions":"[{\"event\":\"focus\",\"trial\":0,\"time\":4},{\"event\":\"blur\",\"trial\":1,\"time\":15068},{\"event\":\"focus\",\"trial\":1,\"time\":18010},{\"event\":\"blur\",\"trial\":4,\"time\":155768},{\"event\":\"focus\",\"trial\":4,\"time\":157511}]"}]