[{"view_history":[{"page_index":0,"viewing_time":3680},{"page_index":1,"viewing_time":8358},{"page_index":2,"viewing_time":6710},{"page_index":3,"viewing_time":1485}],"rt":20234,"trial_type":"instructions","trial_index":0,"time_elapsed":20244,"internal_node_id":"0.0-0.0","task_version":"prescreen-v0.3"},{"rt":37301,"responses":{"age":"64","gender-categorical":"Female","gender-free-response":"","ethnicity":"Not Hispanic or Latino","race":["White"],"education":"Some college"},"trial_type":"survey-demo","trial_index":1,"time_elapsed":57551,"internal_node_id":"0.0-1.0","task_version":"prescreen-v0.3"},{"responses":{"Q17":"2","Q21":"3","Q07":"2","Q10":"2","Q12":"2","Q16":"3","Q06":"2","Q05":"1","Q01":"2","Q02":"2","Q19":"3","Q09":"3","Q13":"2","Q20":"3","Q14":"2","Q03":"2","Q18":"2","Q04":"2","Q11":"2","Q15":"3","Q08":"3"},"rt":229071,"item_order":[16,20,6,9,11,15,5,4,0,1,18,8,12,19,13,2,17,3,10,14,7],"radio_events":[16383.999999999993,24977.999999999993,37325.99999999999,45463.99999999999,52889.99999999999,70607,81796,95272.00000000003,98837,106956,122130,129018,133530,138431,185125,187922,193661,204787,209529,216060,227965],"key_events":[],"mouse_events":[16383.999999999993,24977.999999999993,37325.99999999999,45463.99999999999,52889.99999999999,70607,81796,95272.00000000003,98837,106956,122130,129018,133530,138431,185125,187922,193661,199738.00000000003,204787,209529,216060,227965,229060],"straightlining":0.6190476190476191,"zigzagging":0.55,"honeypot":0,"survey":"sns","trial_type":"survey-template","trial_index":2,"time_elapsed":286619,"internal_node_id":"0.0-2.0","task_version":"prescreen-v0.3","browser_interactions":0,"infrequency":0},{"responses":{"Q05":"2","Q07":"2","Q09":"2","Q13":"0","Q10":"1","Q01":"2","Q08":"1","Q06":"2","Q03":"3","Q02":"3","Q12":"1","Q04":"3","Q11":"2"},"rt":110654.99999999994,"item_order":[4,6,8,12,9,0,7,5,2,1,11,3,10],"radio_events":[12952,19116.99999999994,28950.99999999994,33726,42057.99999999994,46590.99999999994,57356.99999999994,77243.99999999994,83195.99999999994,85226.99999999994,93187.99999999994,100767.99999999994,109300.99999999994],"key_events":[],"mouse_events":[12952,19116.99999999994,28950.99999999994,33726,42057.99999999994,46590.99999999994,57356.99999999994,77243.99999999994,83195.99999999994,85226.99999999994,93187.99999999994,100767.99999999994,109300.99999999994,110647.99999999994],"straightlining":0.46153846153846156,"zigzagging":0.5,"honeypot":0,"survey":"bisbas","trial_type":"survey-template","trial_index":3,"time_elapsed":397276,"internal_node_id":"0.0-3.0","task_version":"prescreen-v0.3","browser_interactions":0,"infrequency":0},{"responses":{"Q01":"2","Q02":"2","Q03":"1"},"rt":45557,"radio_events":[19204,34765.00000000006,43953],"key_events":[],"mouse_events":[19204,33029,34765.00000000006,43953,45554],"survey":"map","page":1,"trial_type":"survey-map","trial_index":4,"time_elapsed":442834,"internal_node_id":"0.0-4.0","task_version":"prescreen-v0.3","browser_interactions":0},{"responses":{"Q04":"0","Q05":"1","Q06":"2"},"rt":24377.00000000006,"radio_events":[11790,15476,23279],"key_events":[],"mouse_events":[11790,15476,23279,24374],"survey":"map","page":2,"trial_type":"survey-map","trial_index":5,"time_elapsed":467214,"internal_node_id":"0.0-5.0","task_version":"prescreen-v0.3","browser_interactions":0},{"responses":{"Q07":"4","Q08":"0","Q09":"2"},"rt":30356,"radio_events":[18521.00000000006,24968,29030],"key_events":[],"mouse_events":[18521.00000000006,24968,29030,30352],"survey":"map","page":3,"trial_type":"survey-map","trial_index":6,"time_elapsed":497572,"internal_node_id":"0.0-6.0","task_version":"prescreen-v0.3","browser_interactions":0},{"responses":{"Q10":"0","Q11":"0","Q12":"0","Q13":"1","Q16":"0","Q14":"0","Q15":"0"},"rt":66859,"radio_events":[13667.000000000058,20658,30165,42372,50668,58489,64667],"key_events":[],"mouse_events":[13667.000000000058,20658,30165,42372,50668,58489,64667,66855],"survey":"map","page":4,"trial_type":"survey-map","trial_index":7,"time_elapsed":564432,"internal_node_id":"0.0-7.0","task_version":"prescreen-v0.3","browser_interactions":0,"infrequency":0},{"view_history":[{"page_index":0,"viewing_time":3223.0000000001164},{"page_index":1,"viewing_time":6728.999999999884}],"rt":9952,"trial_type":"instructions","trial_index":8,"time_elapsed":574384,"internal_node_id":"0.0-8.0","task_version":"prescreen-v0.3"},{"responses":{"01":"No","02":"No","02_ages_8":"8","02_ages_9":"9","02_ages_10":"10","02_ages_11":"11","03":"No","04":"No","05":"No","06":"No"},"rt":53588.00000000012,"item_order":[0,1,2,3,4,5],"radio_events":[16927,21445,43128,45245,48115,49445,51765],"checkbox_events":[29643,31932,34297,35612.00000000012],"key_events":[],"mouse_events":[0,16927,21445,29643,31932,34297,35612.00000000012,43128,45245,48115,49445,51765,53582],"honeypot":0,"survey":"mace","page":1,"trial_type":"survey-mace","trial_index":9,"time_elapsed":627978,"internal_node_id":"0.0-9.0","task_version":"prescreen-v0.3","browser_interactions":0},{"responses":{"01":"No","02":"No","03":"No","04":"No","05":"No","06":"No","07":"No","08":"No"},"rt":20138,"item_order":[0,1,2,3,4,5,6,7],"radio_events":[4135,5458,7091,9305,11268.000000000116,15319,17119.000000000116,18938],"checkbox_events":[],"key_events":[],"mouse_events":[4135,5458,7091,9305,11268.000000000116,15319,17119.000000000116,18938,20132],"honeypot":0,"survey":"mace","page":2,"trial_type":"survey-mace","trial_index":10,"time_elapsed":648121,"internal_node_id":"0.0-10.0","task_version":"prescreen-v0.3","browser_interactions":0},{"responses":{"01":"No","02":"No","03":"No","04":"No"},"rt":10587.999999999884,"item_order":[0,1,2,3],"radio_events":[4125.999999999884,5481,7748.999999999884,9482.999999999884],"checkbox_events":[],"key_events":[],"mouse_events":[4125.999999999884,5481,7748.999999999884,9482.999999999884,10583.999999999884],"honeypot":0,"survey":"mace","page":3,"trial_type":"survey-mace","trial_index":11,"time_elapsed":658713,"internal_node_id":"0.0-11.0","task_version":"prescreen-v0.3","browser_interactions":0},{"responses":{"01":"No","02":"No"},"rt":7678,"item_order":[0,1],"radio_events":[3821,6477],"checkbox_events":[],"key_events":[],"mouse_events":[3821,6477,7675],"honeypot":0,"survey":"mace","page":4,"trial_type":"survey-mace","trial_index":12,"time_elapsed":666394,"internal_node_id":"0.0-12.0","task_version":"prescreen-v0.3","browser_interactions":0},{"responses":{"01":"No","02":"No","03":"No","04":"No","05":"No"},"rt":27950,"item_order":[0,1,2,3,4],"radio_events":[6357,9941,13183,21708,26366],"checkbox_events":[],"key_events":[],"mouse_events":[6357,9941,13183,21708,22978,26366,27946.000000000116],"honeypot":0,"survey":"mace","page":5,"trial_type":"survey-mace","trial_index":13,"time_elapsed":694349,"internal_node_id":"0.0-13.0","task_version":"prescreen-v0.3","browser_interactions":0},{"responses":{"01":"No","02":"No","03":"No","04":"No","05":"No"},"rt":21324.999999999884,"item_order":[0,1,2,3,4],"radio_events":[6479.999999999884,10426.999999999884,14430.999999999884,16890.999999999884,20159.999999999884],"checkbox_events":[],"key_events":[],"mouse_events":[6479.999999999884,10426.999999999884,14430.999999999884,16890.999999999884,20159.999999999884,21320.999999999884],"honeypot":0,"survey":"mace","page":6,"trial_type":"survey-mace","trial_index":14,"time_elapsed":715678,"internal_node_id":"0.0-14.0","task_version":"prescreen-v0.3","browser_interactions":0},{"responses":{"01":"No","02":"No","03":"No","04":"No","05":"No","06":"No","07":"No"},"rt":28217,"item_order":[0,1,2,3,4,5,6],"radio_events":[7170.000000000116,14138,17178,19712,23068,25332,26988],"checkbox_events":[],"key_events":[],"mouse_events":[7170.000000000116,14138,17178,19712,23068,25332,26988,28212],"honeypot":0,"survey":"mace","page":7,"trial_type":"survey-mace","trial_index":15,"time_elapsed":743899,"internal_node_id":"0.0-15.0","task_version":"prescreen-v0.3","browser_interactions":0},{"responses":{"01":"No","02":"Yes","02_ages_6":"6","02_ages_7":"7","02_ages_8":"8","02_ages_9":"9","02_ages_10":"10","02_ages_11":"11","02_ages_12":"12","03":"No","04":"No"},"rt":58327,"item_order":[0,1,2,3],"radio_events":[11020.000000000116,18065,52456,57103],"checkbox_events":[26298,27847.000000000116,28915,29844,30816,32106,33286],"key_events":[],"mouse_events":[11020.000000000116,18065,26298,27847.000000000116,28915,29844,30816,32106,33286,52456,57103,58322],"honeypot":0,"survey":"mace","page":8,"trial_type":"survey-mace","trial_index":16,"time_elapsed":802229,"internal_node_id":"0.0-16.0","task_version":"prescreen-v0.3","browser_interactions":0},{"responses":{"01":"Yes","01_ages_1":"1","01_ages_2":"2","01_ages_3":"3","01_ages_4":"4","01_ages_5":"5","01_ages_6":"6","01_ages_7":"7","01_ages_8":"8","01_ages_9":"9","01_ages_10":"10","01_ages_11":"11","01_ages_12":"12","01_ages_13":"13","01_ages_14":"14","01_ages_15":"15","01_ages_16":"16","01_ages_17":"17","01_ages_18":"18","02":"Yes","02_ages_6":"6","02_ages_7":"7","02_ages_8":"8","02_ages_9":"9","02_ages_10":"10","02_ages_11":"11","02_ages_12":"12","02_ages_13":"13","02_ages_14":"14","03":"Yes","03_ages_10":"10","03_ages_11":"11","03_ages_12":"12","03_ages_13":"13","03_ages_14":"14","03_ages_15":"15","03_ages_16":"16","03_ages_17":"17","03_ages_18":"18","04":"Yes","04_ages_5":"5","04_ages_6":"6","04_ages_15":"15","04_ages_16":"16"},"rt":110253,"item_order":[0,1,2,3],"radio_events":[8324,54102,76540,95522],"checkbox_events":[25109,26201,27578,28909.000000000116,29745,30843,32259,33442,34362,35219,36160,37142,38476,39770,41014,42032,43296,44650,57336,58535,59421,60295,61315,63599,64623,66102,67071,78466,79533,80670,81636,82502,83493,84586,85410,86667,104105,105023,108225,109295],"key_events":[],"mouse_events":[8324,25109,26201,27578,28909.000000000116,29745,30843,32259,33442,34362,35219,36160,37142,38476,39770,41014,42032,43296,44650,54102,57336,58535,59421,60295,61315,63599,64623,66102,67071,76540,78466,79533,80670,81636,82502,83493,84586,85410,86667,95522,104105,105023,108225,109295,110245],"honeypot":0,"survey":"mace","page":9,"trial_type":"survey-mace","trial_index":17,"time_elapsed":912482,"internal_node_id":"0.0-17.0","task_version":"prescreen-v0.3","browser_interactions":0},{"responses":{"01":"No","02":"No","03":"No","04":"No","05":"No","06":"Yes","06_ages_17":"17","07":"Yes","07_ages_1":"1","07_ages_2":"2","07_ages_3":"3","07_ages_4":"4","07_ages_5":"5","07_ages_6":"6","07_ages_7":"7","07_ages_8":"8","07_ages_9":"9","07_ages_10":"10","07_ages_11":"11","07_ages_12":"12","08":"Yes","08_ages_1":"1","08_ages_2":"2","08_ages_3":"3","08_ages_4":"4","08_ages_5":"5","08_ages_6":"6","08_ages_7":"7","08_ages_8":"8","08_ages_9":"9","08_ages_10":"10","08_ages_11":"11","08_ages_12":"12","08_ages_13":"13","08_ages_14":"14"},"rt":251321,"item_order":[0,1,2,3,4,5,6,7],"radio_events":[139666,143027,145770,148658.00000000023,154522,168280,192370.00000000023,238608],"checkbox_events":[159375,172995.00000000023,174073,175761,176651,177813,178767,179901,181343,182674,183703,184813,189411,195327,199738,201230,202914,204200,205284,206385,216281,217932,219417,220639.00000000023,222280,223436,224771],"key_events":[],"mouse_events":[9485,25676,139666,143027,145770,148658.00000000023,154522,159375,168280,172995.00000000023,174073,175761,176651,177813,178767,179901,181343,182674,183703,184813,189411,192370.00000000023,195327,199738,201230,202914,204200,205284,206385,213521,216281,217932,219417,220639.00000000023,222280,223436,224771,229675,238608,251313],"honeypot":0,"survey":"mace","page":10,"trial_type":"survey-mace","trial_index":18,"time_elapsed":1163744,"internal_node_id":"0.0-18.0","task_version":"prescreen-v0.3","browser_interactions":0,"instructed":0},{"rt":5622,"trial_type":"mental-health-alert","trial_index":19,"time_elapsed":1169372,"internal_node_id":"0.0-19.0","task_version":"prescreen-v0.3","interactions":"[]"}]