[{"view_history":[{"page_index":0,"viewing_time":3460.7000000476837},{"page_index":1,"viewing_time":4499.5},{"page_index":2,"viewing_time":4466.399999976158},{"page_index":3,"viewing_time":1068.8999999761581}],"rt":13496.5,"trial_type":"instructions","trial_index":0,"time_elapsed":13506,"internal_node_id":"0.0-0.0","task_version":"prescreen-v0.3"},{"rt":16848.80000001192,"responses":{"age":"36","gender-categorical":"Female","gender-free-response":"","ethnicity":"Not Hispanic or Latino","race":["White"],"education":"Associate degree"},"trial_type":"survey-demo","trial_index":1,"time_elapsed":30360,"internal_node_id":"0.0-1.0","task_version":"prescreen-v0.3"},{"responses":{"Q17":"1","Q19":"0","Q11":"0","Q05":"0","Q08":"1","Q13":"1","Q18":"1","Q16":"2","Q12":"0","Q01":"2","Q14":"3","Q07":"1","Q06":"1","Q10":"1","Q21":"3","Q03":"1","Q04":"1","Q20":"2","Q02":"1","Q15":"3","Q09":"1"},"rt":121260.89999997616,"item_order":[16,18,10,4,7,12,17,15,11,0,13,6,5,9,20,2,3,19,1,14,8],"radio_events":[8599.799999952316,13875.599999964237,16305.899999976158,18871.5,21863.899999976158,24878.5,29345,68932.69999998808,74637.39999997616,76819.79999995232,79969.89999997616,83176.19999998808,86888.59999996424,89464.09999996424,92974.79999995232,95888.59999996424,100388.19999998808,107047.89999997616,111593.69999998808,114991.19999998808,118321,120492.69999998808],"key_events":[],"mouse_events":[8599.799999952316,13875.599999964237,15900.599999964237,16305.899999976158,18871.5,21863.899999976158,24878.5,28253.099999964237,29345,68932.69999998808,74637.39999997616,76819.79999995232,79429.79999995232,79969.89999997616,83176.19999998808,86888.59999996424,89464.09999996424,92974.79999995232,95888.59999996424,100388.19999998808,107047.89999997616,111593.69999998808,114991.19999998808,118321,119929.29999995232,120492.69999998808,121257],"straightlining":0.5238095238095238,"zigzagging":0.3,"honeypot":0,"survey":"sns","trial_type":"survey-template","trial_index":2,"time_elapsed":151628,"internal_node_id":"0.0-2.0","task_version":"prescreen-v0.3","browser_interactions":2,"infrequency":0},{"responses":{"Q07":"3","Q02":"2","Q12":"2","Q10":"1","Q05":"3","Q13":"0","Q08":"2","Q01":"3","Q03":"2","Q06":"3","Q11":"2","Q04":"2","Q09":"2"},"rt":40663.5,"item_order":[6,1,11,9,4,12,7,0,2,5,10,3,8],"radio_events":[4706.199999988079,6540.199999988079,9070.599999964237,11500.699999988079,15258.599999964237,19499.399999976158,21828.599999964237,24551,26631.69999998808,29107.5,30996.69999998808,34136.39999997616,38827.69999998808],"key_events":[],"mouse_events":[4706.199999988079,6540.199999988079,9070.599999964237,11500.699999988079,13075.5,14673.599999964237,15258.599999964237,19499.399999976158,21828.599999964237,24551,26631.69999998808,29107.5,30996.69999998808,34136.39999997616,34630.30000001192,38343.69999998808,38827.69999998808,40661],"straightlining":0.5384615384615384,"zigzagging":0.5833333333333334,"honeypot":0,"survey":"bisbas","trial_type":"survey-template","trial_index":3,"time_elapsed":192295,"internal_node_id":"0.0-3.0","task_version":"prescreen-v0.3","browser_interactions":0,"infrequency":0},{"responses":{"Q01":"2","Q02":"2","Q03":"3"},"rt":13201.100000023842,"radio_events":[6136.600000023842,9050,11941.700000047684],"key_events":[],"mouse_events":[6136.600000023842,9050,11941.700000047684,13200.300000011921],"survey":"map","page":1,"trial_type":"survey-map","trial_index":4,"time_elapsed":205499,"internal_node_id":"0.0-4.0","task_version":"prescreen-v0.3","browser_interactions":0},{"responses":{"Q04":"2","Q05":"2","Q06":"2"},"rt":11125.600000023842,"radio_events":[5117.300000011921,8301,10539.800000011921],"key_events":[],"mouse_events":[5117.300000011921,8301,10539.800000011921,11124.399999976158],"survey":"map","page":2,"trial_type":"survey-map","trial_index":5,"time_elapsed":216627,"internal_node_id":"0.0-5.0","task_version":"prescreen-v0.3","browser_interactions":0},{"responses":{"Q07":"3","Q08":"0","Q09":"4"},"rt":14443.300000011921,"radio_events":[8872.900000035763,11651.400000035763,13722.5],"key_events":[],"mouse_events":[8872.900000035763,11269.699999988079,11651.400000035763,13722.5,14442.100000023842],"survey":"map","page":3,"trial_type":"survey-map","trial_index":6,"time_elapsed":231072,"internal_node_id":"0.0-6.0","task_version":"prescreen-v0.3","browser_interactions":0},{"responses":{"Q10":"1","Q11":"1","Q12":"1","Q13":"2","Q16":"0","Q14":"1","Q15":"2"},"rt":27842.100000023842,"radio_events":[5261.300000011921,7837.200000047684,11301.800000011921,14485.600000023842,18738,24351.700000047684,27176.30000001192],"key_events":[],"mouse_events":[5261.300000011921,7837.200000047684,11301.800000011921,14485.600000023842,18366.80000001192,18738,24351.700000047684,26500.600000023842,27176.30000001192,27839.900000035763],"survey":"map","page":4,"trial_type":"survey-map","trial_index":7,"time_elapsed":258917,"internal_node_id":"0.0-7.0","task_version":"prescreen-v0.3","browser_interactions":0,"infrequency":0},{"view_history":[{"page_index":0,"viewing_time":3437.800000011921},{"page_index":1,"viewing_time":5377.5}],"rt":8816.300000011921,"trial_type":"instructions","trial_index":8,"time_elapsed":267735,"internal_node_id":"0.0-8.0","task_version":"prescreen-v0.3"},{"responses":{"01":"Yes","01_ages_13":"13","01_ages_14":"14","01_ages_15":"15","01_ages_16":"16","02":"Yes","02_ages_15":"15","02_ages_16":"16","02_ages_17":"17","03":"No","04":"No","05":"No","06":"No"},"rt":40827.89999997616,"item_order":[0,1,2,3,4,5],"radio_events":[10042.199999988079,25582.19999998808,33655.5,35163.09999996424,36388.80000001192,39561.59999996424],"checkbox_events":[15553.699999988079,16746.899999976158,17973.30000001192,18737.19999998808,19232.899999976158,20683.599999964237,26668.5,27050.80000001192,29099],"key_events":[],"mouse_events":[0.09999996423721313,10042.199999988079,15553.699999988079,16746.899999976158,17973.30000001192,18737.19999998808,19232.899999976158,20683.599999964237,25582.19999998808,26668.5,27050.80000001192,29099,33655.5,35163.09999996424,36388.80000001192,39561.59999996424,40822.19999998808],"honeypot":0,"survey":"mace","page":1,"trial_type":"survey-mace","trial_index":9,"time_elapsed":308569,"internal_node_id":"0.0-9.0","task_version":"prescreen-v0.3","browser_interactions":0},{"responses":{"01":"No","02":"No","03":"No","04":"No","05":"No","06":"No","07":"No","08":"No"},"rt":16094.300000011921,"item_order":[0,1,2,3,4,5,6,7],"radio_events":[4668.899999976158,6018.800000011921,7470.300000011921,9147.300000011921,10812.099999964237,13163.399999976158,14389.699999988079,15582],"checkbox_events":[],"key_events":[],"mouse_events":[4668.899999976158,6018.800000011921,7470.300000011921,9147.300000011921,10812.099999964237,13163.399999976158,14389.699999988079,15582,16087.800000011921],"honeypot":0,"survey":"mace","page":2,"trial_type":"survey-mace","trial_index":10,"time_elapsed":324667,"internal_node_id":"0.0-10.0","task_version":"prescreen-v0.3","browser_interactions":0},{"responses":{"01":"No","02":"No","03":"No","04":"No"},"rt":7924.5,"item_order":[0,1,2,3],"radio_events":[3624.199999988079,4434.399999976158,6032.100000023842,7427.100000023842],"checkbox_events":[],"key_events":[],"mouse_events":[3624.199999988079,4434.399999976158,6032.100000023842,7427.100000023842,7920.899999976158],"honeypot":0,"survey":"mace","page":3,"trial_type":"survey-mace","trial_index":11,"time_elapsed":332595,"internal_node_id":"0.0-11.0","task_version":"prescreen-v0.3","browser_interactions":0},{"responses":{"01":"No","02":"No"},"rt":6859.5,"item_order":[0,1],"radio_events":[4191.100000023842,5011.800000011921],"checkbox_events":[],"key_events":[],"mouse_events":[4191.100000023842,5011.800000011921,6857.199999988079],"honeypot":0,"survey":"mace","page":4,"trial_type":"survey-mace","trial_index":12,"time_elapsed":339456,"internal_node_id":"0.0-12.0","task_version":"prescreen-v0.3","browser_interactions":0},{"responses":{"01":"No","02":"No","03":"No","04":"No","05":"No"},"rt":14117.399999976158,"item_order":[0,1,2,3,4],"radio_events":[4967.600000023842,6857.699999988079,8567.5,12077.399999976158,13415.699999988079],"checkbox_events":[],"key_events":[],"mouse_events":[4967.600000023842,6857.699999988079,8567.5,12077.399999976158,13415.699999988079,14113],"honeypot":0,"survey":"mace","page":5,"trial_type":"survey-mace","trial_index":13,"time_elapsed":353577,"internal_node_id":"0.0-13.0","task_version":"prescreen-v0.3","browser_interactions":0},{"responses":{"01":"Yes","01_ages_8":"8","01_ages_9":"9","01_ages_10":"10","01_ages_11":"11","01_ages_12":"12","01_ages_13":"13","01_ages_14":"14","01_ages_15":"15","01_ages_16":"16","01_ages_17":"17","02":"Yes","02_ages_8":"8","02_ages_9":"9","02_ages_10":"10","02_ages_11":"11","02_ages_12":"12","02_ages_13":"13","02_ages_14":"14","02_ages_15":"15","02_ages_16":"16","02_ages_17":"17","03":"Yes","03_ages_13":"13","03_ages_14":"14","03_ages_15":"15","03_ages_16":"16","03_ages_17":"17","04":"Yes","04_ages_15":"15","04_ages_16":"16","04_ages_17":"17","05":"No"},"rt":45974.80000001192,"item_order":[0,1,2,3,4],"radio_events":[6282,19106.600000023842,27117.30000001192,38519.10000002384,45442.30000001192],"checkbox_events":[11536.100000023842,11986.100000023842,12413.900000035763,12852.300000011921,13212.300000011921,13538.400000035763,13932.5,14279.900000035763,14641,15056.900000035763,21064.900000035763,21423.900000035763,21964.80000001192,22302.200000047684,22696,23067,23438.200000047684,23798.80000001192,24135.900000035763,24518.30000001192,30402.400000035763,31167.600000023842,32584.80000001192,33180.5,33675.10000002384,41122.5,41505.200000047684,41921.80000001192],"key_events":[],"mouse_events":[6282,11536.100000023842,11986.100000023842,12413.900000035763,12852.300000011921,13212.300000011921,13538.400000035763,13932.5,14279.900000035763,14641,15056.900000035763,19106.600000023842,21064.900000035763,21423.900000035763,21964.80000001192,22302.200000047684,22696,23067,23438.200000047684,23798.80000001192,24135.900000035763,24518.30000001192,27117.30000001192,30402.400000035763,31167.600000023842,32584.80000001192,33180.5,33675.10000002384,34170.90000003576,38519.10000002384,41122.5,41505.200000047684,41921.80000001192,42281.700000047684,44621.700000047684,45442.30000001192,45971.10000002384],"honeypot":0,"survey":"mace","page":6,"trial_type":"survey-mace","trial_index":14,"time_elapsed":399555,"internal_node_id":"0.0-14.0","task_version":"prescreen-v0.3","browser_interactions":0},{"responses":{"01":"No","02":"No","03":"No","04":"No","05":"No","06":"No","07":"No"},"rt":12307.899999976158,"item_order":[0,1,2,3,4,5,6],"radio_events":[3458.699999988079,4887.5,6406.399999976158,7857.699999988079,8566,9893.899999976158,11188.099999964237],"checkbox_events":[],"key_events":[],"mouse_events":[3458.699999988079,4887.5,6406.399999976158,7857.699999988079,8566,9544.299999952316,9893.899999976158,10782,11188.099999964237,12301.5],"honeypot":0,"survey":"mace","page":7,"trial_type":"survey-mace","trial_index":15,"time_elapsed":411867,"internal_node_id":"0.0-15.0","task_version":"prescreen-v0.3","browser_interactions":0},{"responses":{"01":"No","02":"No","03":"No","04":"No"},"rt":23077.799999952316,"item_order":[0,1,2,3],"radio_events":[9518,11037.299999952316,15098.799999952316,16110.599999964237],"checkbox_events":[],"key_events":[],"mouse_events":[9518,11037.299999952316,15098.799999952316,16110.599999964237,23074.19999998808],"honeypot":0,"survey":"mace","page":8,"trial_type":"survey-mace","trial_index":16,"time_elapsed":434948,"internal_node_id":"0.0-16.0","task_version":"prescreen-v0.3","browser_interactions":0},{"responses":{"01":"Yes","01_ages_1":"1","01_ages_2":"2","01_ages_3":"3","01_ages_4":"4","01_ages_5":"5","01_ages_6":"6","01_ages_7":"7","01_ages_8":"8","01_ages_9":"9","01_ages_10":"10","01_ages_11":"11","01_ages_12":"12","01_ages_13":"13","01_ages_14":"14","01_ages_15":"15","01_ages_16":"16","01_ages_17":"17","01_ages_18":"18","02":"Yes","02_ages_1":"1","02_ages_2":"2","02_ages_3":"3","02_ages_4":"4","02_ages_5":"5","02_ages_6":"6","02_ages_7":"7","02_ages_8":"8","02_ages_9":"9","02_ages_10":"10","02_ages_11":"11","02_ages_12":"12","02_ages_13":"13","02_ages_14":"14","02_ages_15":"15","03":"Yes","03_ages_1":"1","03_ages_2":"2","03_ages_3":"3","03_ages_4":"4","03_ages_5":"5","03_ages_6":"6","03_ages_7":"7","03_ages_8":"8","03_ages_9":"9","03_ages_10":"10","03_ages_11":"11","03_ages_12":"12","03_ages_13":"13","03_ages_14":"14","03_ages_15":"15","03_ages_16":"16","03_ages_17":"17","03_ages_18":"18","04":"Yes","04_ages_1":"1","04_ages_2":"2","04_ages_3":"3","04_ages_4":"4","04_ages_5":"5","04_ages_6":"6","04_ages_7":"7","04_ages_8":"8","04_ages_9":"9","04_ages_10":"10","04_ages_11":"11","04_ages_12":"12","04_ages_13":"13","04_ages_14":"14","04_ages_15":"15","04_ages_16":"16","04_ages_17":"17","04_ages_18":"18"},"rt":68554.60000002384,"item_order":[0,1,2,3],"radio_events":[7970.100000023842,24495.899999976158,39686.19999998808,55225.19999998808],"checkbox_events":[10041.100000023842,10412.399999976158,11525.800000011921,11897.300000011921,12292.199999988079,12852.5,13572.199999988079,13922.100000023842,14293.399999976158,14787,15226.399999976158,15632.199999988079,16149.100000023842,16633,17037.80000001192,17487.600000023842,17869.69999998808,18410,26690.600000023842,27129.19999998808,27579.600000023842,28051.399999976158,28467.30000001192,28918.69999998808,29312.399999976158,29738.899999976158,30178.100000023842,30605.69999998808,31550.100000023842,31944.5,32405.600000023842,33755.60000002384,40697.10000002384,41495.80000001192,41911.19999998808,42304.89999997616,42721.10000002384,43081.5,43880.5,44229.19999998808,44577.89999997616,44982.39999997616,45409.80000001192,45792.5,46175.69999998808,46929.39999997616,47323.5,47705.69999998808,48099.10000002384,48751.19999998808,50259.30000001192,56806.89999997616,57246,57683.80000001192,58079.80000001192,58471.5,58944.30000001192,59315.19999998808,59799.19999998808,60136.5,61126.80000001192,61520.30000001192,61914.39999997616,62352.39999997616,63894.80000001192,64737.80000001192,65783.60000002384,66267.5,66662.19999998808],"key_events":[],"mouse_events":[7970.100000023842,10041.100000023842,10412.399999976158,10805.199999988079,11525.800000011921,11897.300000011921,12292.199999988079,12852.5,13234.300000011921,13572.199999988079,13922.100000023842,14293.399999976158,14787,15226.399999976158,15632.199999988079,16149.100000023842,16633,17037.80000001192,17487.600000023842,17869.69999998808,18410,24495.899999976158,26690.600000023842,27129.19999998808,27579.600000023842,28051.399999976158,28467.30000001192,28918.69999998808,29312.399999976158,29738.899999976158,30178.100000023842,30605.69999998808,31550.100000023842,31944.5,32405.600000023842,33755.60000002384,39686.19999998808,40697.10000002384,41495.80000001192,41911.19999998808,42304.89999997616,42721.10000002384,43081.5,43508.5,43880.5,44229.19999998808,44577.89999997616,44982.39999997616,45409.80000001192,45792.5,46175.69999998808,46929.39999997616,47323.5,47705.69999998808,48099.10000002384,48751.19999998808,50259.30000001192,55225.19999998808,56806.89999997616,57246,57683.80000001192,58079.80000001192,58471.5,58944.30000001192,59315.19999998808,59799.19999998808,60136.5,61126.80000001192,61520.30000001192,61914.39999997616,62352.39999997616,63894.80000001192,64276.89999997616,64737.80000001192,65121.19999998808,65783.60000002384,66267.5,66662.19999998808,68551.10000002384],"honeypot":0,"survey":"mace","page":9,"trial_type":"survey-mace","trial_index":17,"time_elapsed":503506,"internal_node_id":"0.0-17.0","task_version":"prescreen-v0.3","browser_interactions":0},{"responses":{"01":"No","02":"No","03":"No","04":"Yes","04_ages_13":"13","04_ages_14":"14","04_ages_15":"15","04_ages_16":"16","04_ages_17":"17","04_ages_18":"18","05":"No","06":"Yes","06_ages_17":"17","07":"No","08":"No"},"rt":39173.39999997616,"item_order":[0,1,2,3,4,5,6,7],"radio_events":[2558.300000011921,3481.399999976158,9657,11987.100000023842,23405.399999976158,25125.600000023842,32877.69999998808,38693.30000001192],"checkbox_events":[17509.19999998808,17971.399999976158,18724.5,19163.399999976158,19556.399999976158,20524.399999976158,26295.69999998808],"key_events":[],"mouse_events":[2558.300000011921,3481.399999976158,9657,11987.100000023842,17509.19999998808,17971.399999976158,18724.5,19163.399999976158,19556.399999976158,20524.399999976158,21008,23405.399999976158,25125.600000023842,26295.69999998808,26903.899999976158,32877.69999998808,38693.30000001192,39166.39999997616],"honeypot":0,"survey":"mace","page":10,"trial_type":"survey-mace","trial_index":18,"time_elapsed":542684,"internal_node_id":"0.0-18.0","task_version":"prescreen-v0.3","browser_interactions":0,"instructed":0},{"rt":4444.899999976158,"trial_type":"mental-health-alert","trial_index":19,"time_elapsed":547130,"internal_node_id":"0.0-19.0","task_version":"prescreen-v0.3","interactions":"[{\"event\":\"blur\",\"trial\":2,\"time\":69562},{\"event\":\"focus\",\"trial\":2,\"time\":94399}]"}]