[{"view_history":[{"page_index":0,"viewing_time":7471},{"page_index":1,"viewing_time":3692},{"page_index":2,"viewing_time":8282},{"page_index":3,"viewing_time":1610}],"rt":21056,"trial_type":"instructions","trial_index":0,"time_elapsed":21061,"internal_node_id":"0.0-0.0","task_version":"prescreen-v0.3"},{"rt":21148,"responses":{"age":"22","gender-categorical":"Female","gender-free-response":"","ethnicity":"Not Hispanic or Latino","race":["Black or African American"],"education":"Bachelor degree"},"trial_type":"survey-demo","trial_index":1,"time_elapsed":42215,"internal_node_id":"0.0-1.0","task_version":"prescreen-v0.3"},{"responses":{"Q12":"2","Q13":"0","Q21":"3","Q07":"1","Q11":"0","Q14":"2","Q17":"0","Q10":"0","Q02":"0","Q03":"0","Q16":"0","Q15":"1","Q06":"1","Q20":"0","Q08":"2","Q19":"1","Q18":"0","Q09":"0","Q01":"0","Q05":"1","Q04":"1"},"rt":184155,"item_order":[11,12,20,6,10,13,16,9,1,2,15,14,5,19,7,18,17,8,0,4,3],"radio_events":[8744,16884,22167.000000000007,36040,41353,49439,55075,61464,65586,67997,76805.00000000001,88024,111461.00000000003,113949.00000000003,138458,155692,160437,166555,168310,173251,181424,182370],"key_events":[],"mouse_events":[8744,16884,21120.000000000007,22167.000000000007,36040,40753,41353,49439,55075,61464,65586,67997,76805.00000000001,87287.00000000001,88024,111461.00000000003,113949.00000000003,138458,155692,160437,166555,168310,173251,181424,182370,184143],"straightlining":0.5238095238095238,"zigzagging":0.35,"honeypot":0,"survey":"sns","trial_type":"survey-template","trial_index":2,"time_elapsed":226380,"internal_node_id":"0.0-2.0","task_version":"prescreen-v0.3","browser_interactions":0,"infrequency":0},{"responses":{"Q12":"2","Q09":"2","Q11":"1","Q06":"3","Q04":"3","Q01":"3","Q07":"2","Q05":"3","Q03":"1","Q10":"1","Q02":"1","Q13":"0","Q08":"2"},"rt":109351,"item_order":[11,8,10,5,3,0,6,4,2,9,1,12,7],"radio_events":[23477,27491,34725.00000000003,42052,47121,55205,58838,66615,74638.00000000006,80294,90877,96744,105325,106701],"key_events":[],"mouse_events":[23477,27491,34725.00000000003,42052,47121,55205,58838,66615,74638.00000000006,80294,90877,96744,105325,106701,109343],"straightlining":0.3076923076923077,"zigzagging":0.3333333333333333,"honeypot":0,"survey":"bisbas","trial_type":"survey-template","trial_index":3,"time_elapsed":335739,"internal_node_id":"0.0-3.0","task_version":"prescreen-v0.3","browser_interactions":0,"infrequency":0},{"responses":{"Q01":"3","Q02":"4","Q03":"4"},"rt":34494,"radio_events":[13283,28860,33468],"key_events":[],"mouse_events":[13283,28860,33468,34492],"survey":"map","page":1,"trial_type":"survey-map","trial_index":4,"time_elapsed":370237,"internal_node_id":"0.0-4.0","task_version":"prescreen-v0.3","browser_interactions":0},{"responses":{"Q04":"2","Q05":"3","Q06":"2"},"rt":20761,"radio_events":[8176,17105,19650.00000000006],"key_events":[],"mouse_events":[8176,17105,19650.00000000006,20758.00000000006],"survey":"map","page":2,"trial_type":"survey-map","trial_index":5,"time_elapsed":391001,"internal_node_id":"0.0-5.0","task_version":"prescreen-v0.3","browser_interactions":0},{"responses":{"Q07":"4","Q08":"4","Q09":"3"},"rt":40625.99999999994,"radio_events":[20555.99999999994,32531.99999999994,39413.99999999994],"key_events":[],"mouse_events":[20555.99999999994,32531.99999999994,39413.99999999994,40622.99999999994],"survey":"map","page":3,"trial_type":"survey-map","trial_index":6,"time_elapsed":431631,"internal_node_id":"0.0-6.0","task_version":"prescreen-v0.3","browser_interactions":0},{"responses":{"Q10":"2","Q11":"2","Q12":"3","Q13":"3","Q16":"0","Q14":"3","Q15":"3"},"rt":55191,"radio_events":[6137,11918,21486,31238,37582,46610,51028,52910,53581],"key_events":[],"mouse_events":[6137,11918,21486,30446,31238,37582,46610,51028,52910,53581,54569,55187],"survey":"map","page":4,"trial_type":"survey-map","trial_index":7,"time_elapsed":486826,"internal_node_id":"0.0-7.0","task_version":"prescreen-v0.3","browser_interactions":0,"infrequency":0},{"view_history":[{"page_index":0,"viewing_time":184053},{"page_index":1,"viewing_time":3356}],"rt":187409,"trial_type":"instructions","trial_index":8,"time_elapsed":674188,"internal_node_id":"0.0-8.0","task_version":"prescreen-v0.3"},{"responses":{"01":"No","02":"No","03":"No","04":"No","05":"No","06":"No"},"rt":47657.99999999988,"item_order":[0,1,2,3,4,5],"radio_events":[30557.999999999884,35077,39303.99999999988,41193.99999999988,42932.99999999988,46347.99999999988],"checkbox_events":[],"key_events":[],"mouse_events":[0,30557.999999999884,35077,38267.99999999988,39303.99999999988,41193.99999999988,42932.99999999988,46347.99999999988,47649.99999999988],"honeypot":0,"survey":"mace","page":1,"trial_type":"survey-mace","trial_index":9,"time_elapsed":721854,"internal_node_id":"0.0-9.0","task_version":"prescreen-v0.3","browser_interactions":0},{"responses":{"01":"No","02":"No","03":"Yes","03_ages_7":"7","03_ages_8":"8","03_ages_9":"9","03_ages_10":"10","03_ages_11":"11","03_ages_12":"12","04":"No","05":"No","06":"No","07":"No","08":"No"},"rt":63795,"item_order":[0,1,2,3,4,5,6,7],"radio_events":[3858,13559,16937.000000000116,49903.00000000012,54964,56954,58799,61287],"checkbox_events":[35053,36178,37193,38795,42116,42836.00000000012],"key_events":[],"mouse_events":[3858,13559,16937.000000000116,35053,36178,36768,37193,38795,42116,42836.00000000012,45486,46242,48734,49903.00000000012,54964,56954,58799,61287,63787],"honeypot":0,"survey":"mace","page":2,"trial_type":"survey-mace","trial_index":10,"time_elapsed":785654,"internal_node_id":"0.0-10.0","task_version":"prescreen-v0.3","browser_interactions":0},{"responses":{"01":"No","02":"No","03":"No","04":"No"},"rt":17636.000000000116,"item_order":[0,1,2,3],"radio_events":[7826,11188,14606,15755],"checkbox_events":[],"key_events":[],"mouse_events":[7826,11188,14606,15755,17632],"honeypot":0,"survey":"mace","page":3,"trial_type":"survey-mace","trial_index":11,"time_elapsed":803296,"internal_node_id":"0.0-11.0","task_version":"prescreen-v0.3","browser_interactions":0},{"responses":{"01":"No","02":"No"},"rt":6574,"item_order":[0,1],"radio_events":[2545,4834],"checkbox_events":[],"key_events":[],"mouse_events":[2545,4834,6570],"honeypot":0,"survey":"mace","page":4,"trial_type":"survey-mace","trial_index":12,"time_elapsed":809873,"internal_node_id":"0.0-12.0","task_version":"prescreen-v0.3","browser_interactions":0},{"responses":{"01":"Yes","01_ages_7":"7","01_ages_8":"8","01_ages_9":"9","01_ages_10":"10","02":"No","03":"No","04":"No","05":"No"},"rt":67202,"item_order":[0,1,2,3,4],"radio_events":[8354,51102,58262,63420,66325],"checkbox_events":[34047,38837,44019.00000000012,45718,46624,47939],"key_events":[],"mouse_events":[8354,34047,38837,44019.00000000012,45718,46624,47939,51102,58262,63420,66325,67195],"honeypot":0,"survey":"mace","page":5,"trial_type":"survey-mace","trial_index":13,"time_elapsed":877079,"internal_node_id":"0.0-13.0","task_version":"prescreen-v0.3","browser_interactions":0},{"responses":{"01":"No","02":"No","03":"Yes","03_ages_10":"10","03_ages_11":"11","03_ages_12":"12","04":"No","05":"No"},"rt":51239,"item_order":[0,1,2,3,4],"radio_events":[14976,20002,21971,44110.00000000012,44822],"checkbox_events":[36479,37151,37863],"key_events":[],"mouse_events":[14976,20002,21971,36479,37151,37863,44110.00000000012,44822,51233],"honeypot":0,"survey":"mace","page":6,"trial_type":"survey-mace","trial_index":14,"time_elapsed":928323,"internal_node_id":"0.0-14.0","task_version":"prescreen-v0.3","browser_interactions":0},{"responses":{"01":"No","02":"No","03":"No","04":"No","05":"No","06":"No","07":"No"},"rt":20798,"item_order":[0,1,2,3,4,5,6],"radio_events":[3473,7761,13514,14502,16387,17811,19344],"checkbox_events":[],"key_events":[],"mouse_events":[3473,7761,13514,14502,16387,17811,19344,20792],"honeypot":0,"survey":"mace","page":7,"trial_type":"survey-mace","trial_index":15,"time_elapsed":949125,"internal_node_id":"0.0-15.0","task_version":"prescreen-v0.3","browser_interactions":0},{"responses":{"01":"Yes","01_ages_12":"12","01_ages_13":"13","01_ages_14":"14","01_ages_15":"15","01_ages_16":"16","01_ages_17":"17","01_ages_18":"18","02":"No","03":"Yes","03_ages_15":"15","03_ages_16":"16","03_ages_17":"17","03_ages_18":"18","04":"No"},"rt":76034,"item_order":[0,1,2,3],"radio_events":[23489,26448,27960,34212,47537],"checkbox_events":[54848,55479,56122,56931,57651,58784,59391.00000000012,70959,71476,72034,72811],"key_events":[],"mouse_events":[23489,26448,27960,34212,47537,54848,55479,56122,56931,57651,58784,59391.00000000012,70959,71476,72034,72811,76028.00000000012],"honeypot":0,"survey":"mace","page":8,"trial_type":"survey-mace","trial_index":16,"time_elapsed":1025162,"internal_node_id":"0.0-16.0","task_version":"prescreen-v0.3","browser_interactions":0},{"responses":{"01":"Yes","01_ages_1":"1","01_ages_2":"2","01_ages_3":"3","01_ages_4":"4","01_ages_5":"5","01_ages_6":"6","01_ages_7":"7","01_ages_8":"8","01_ages_9":"9","01_ages_10":"10","01_ages_11":"11","01_ages_12":"12","01_ages_13":"13","01_ages_14":"14","01_ages_15":"15","01_ages_16":"16","01_ages_17":"17","01_ages_18":"18","02":"Yes","02_ages_1":"1","02_ages_2":"2","02_ages_3":"3","02_ages_4":"4","02_ages_5":"5","02_ages_6":"6","02_ages_7":"7","02_ages_8":"8","02_ages_9":"9","02_ages_10":"10","02_ages_11":"11","02_ages_12":"12","02_ages_13":"13","02_ages_14":"14","02_ages_15":"15","02_ages_16":"16","02_ages_17":"17","02_ages_18":"18","03":"Yes","03_ages_1":"1","03_ages_2":"2","03_ages_3":"3","03_ages_4":"4","03_ages_5":"5","03_ages_6":"6","03_ages_7":"7","03_ages_8":"8","03_ages_9":"9","03_ages_10":"10","03_ages_11":"11","03_ages_12":"12","03_ages_13":"13","03_ages_14":"14","03_ages_15":"15","03_ages_16":"16","03_ages_17":"17","03_ages_18":"18","04":"Yes","04_ages_1":"1","04_ages_2":"2","04_ages_3":"3","04_ages_4":"4","04_ages_5":"5","04_ages_6":"6","04_ages_7":"7","04_ages_8":"8","04_ages_9":"9","04_ages_10":"10","04_ages_11":"11","04_ages_12":"12","04_ages_13":"13","04_ages_14":"14","04_ages_15":"15","04_ages_16":"16","04_ages_17":"17","04_ages_18":"18"},"rt":102405.99999999988,"item_order":[0,1,2,3],"radio_events":[9971,36999.00000000012,63673.99999999988,81791.99999999988],"checkbox_events":[17655,18334.999999999767,19284.999999999884,19956.999999999884,20531,21542.999999999884,22294.999999999884,22885.999999999884,23456.999999999884,23892.999999999884,24403.000000000116,25519.999999999884,26004.999999999884,26506.999999999884,27057.000000000116,27663.999999999884,28234.999999999884,28727.999999999884,46110.99999999988,47057.99999999988,47894.99999999988,48461.99999999988,49043.99999999988,49723.99999999988,50224.99999999988,51009.99999999988,51592.99999999988,52393.99999999988,53474.99999999988,54088.99999999988,54622.99999999988,55288.00000000012,56355.99999999988,57139.99999999988,57734.99999999988,58665.99999999988,69103.99999999988,70228.99999999988,70697.99999999988,71094.99999999988,71733.99999999988,72194.99999999988,72849.99999999988,73279.99999999988,73962.99999999988,74456.99999999988,74990.00000000012,75742.99999999988,76268.99999999988,76682.00000000012,77786.99999999988,78396.99999999988,78874.99999999988,79817.00000000012,88419.99999999988,89051.99999999988,89827.99999999988,90305.99999999988,90944.99999999988,92146.99999999988,93132.99999999988,93610.99999999988,94112.99999999988,94759.99999999988,95390.99999999988,96451.00000000012,97146.99999999988,97830.99999999988,98574.99999999988,99246.99999999988,100241.99999999988,100969.99999999988],"key_events":[],"mouse_events":[9971,17655,18334.999999999767,19284.999999999884,19956.999999999884,20531,21023.999999999884,21542.999999999884,22294.999999999884,22885.999999999884,23456.999999999884,23892.999999999884,24403.000000000116,25519.999999999884,26004.999999999884,26506.999999999884,27057.000000000116,27663.999999999884,28234.999999999884,28727.999999999884,36999.00000000012,46110.99999999988,47057.99999999988,47894.99999999988,48461.99999999988,49043.99999999988,49723.99999999988,50224.99999999988,51009.99999999988,51592.99999999988,52393.99999999988,53474.99999999988,54088.99999999988,54622.99999999988,55288.00000000012,55925.99999999988,56355.99999999988,57139.99999999988,57734.99999999988,58665.99999999988,63673.99999999988,68435.99999999988,69103.99999999988,70228.99999999988,70697.99999999988,71094.99999999988,71733.99999999988,72194.99999999988,72849.99999999988,73279.99999999988,73962.99999999988,74456.99999999988,74990.00000000012,75394.99999999988,75742.99999999988,76268.99999999988,76682.00000000012,77786.99999999988,78396.99999999988,78874.99999999988,79817.00000000012,81791.99999999988,88419.99999999988,89051.99999999988,89827.99999999988,90305.99999999988,90944.99999999988,91591.99999999988,92146.99999999988,92607.99999999988,93132.99999999988,93610.99999999988,94112.99999999988,94759.99999999988,95390.99999999988,96451.00000000012,97146.99999999988,97830.99999999988,98574.99999999988,99246.99999999988,99699.99999999988,100241.99999999988,100969.99999999988,102398.99999999988],"honeypot":0,"survey":"mace","page":9,"trial_type":"survey-mace","trial_index":17,"time_elapsed":1127572,"internal_node_id":"0.0-17.0","task_version":"prescreen-v0.3","browser_interactions":0},{"responses":{"01":"No","02":"No","03":"No","04":"No","05":"No","06":"Yes","06_ages_17":"17","07":"Yes","07_ages_1":"1","07_ages_2":"2","07_ages_3":"3","07_ages_4":"4","07_ages_5":"5","07_ages_6":"6","07_ages_7":"7","07_ages_8":"8","07_ages_9":"9","07_ages_10":"10","07_ages_11":"11","07_ages_12":"12","07_ages_13":"13","07_ages_14":"14","07_ages_15":"15","07_ages_16":"16","07_ages_17":"17","07_ages_18":"18","08":"Yes","08_ages_1":"1","08_ages_2":"2","08_ages_3":"3","08_ages_4":"4","08_ages_5":"5","08_ages_6":"6","08_ages_7":"7","08_ages_8":"8","08_ages_9":"9","08_ages_10":"10","08_ages_11":"11","08_ages_12":"12","08_ages_13":"13","08_ages_14":"14","08_ages_15":"15","08_ages_16":"16","08_ages_17":"17","08_ages_18":"18"},"rt":73956,"item_order":[0,1,2,3,4,5,6,7],"radio_events":[6440,7508,11425,12804,19813,24656,37582,55408],"checkbox_events":[26878,40726,41357,41754,42506,42992,44217,44744,45731,46151,46670,47721,48624,49295,49894,50792,51666,52313,53434,57371,57994,59029,59653,60421,61412,62020.00000000023,62643,63598,64738,65321,66660,68149,68918,69687,70427,71228,71964],"key_events":[],"mouse_events":[6440,7508,11425,12804,19813,24656,26878,35689,37582,40726,41357,41754,42506,42992,44217,44744,45335,45731,46151,46670,47268,47721,48624,49295,49894,50792,51666,52313,53434,55408,57371,57994,58568.00000000023,59029,59653,60421,61412,62020.00000000023,62643,63598,64253,64738,65321,66223,66660,68149,68918,69687,70427,71228,71964,73948],"honeypot":0,"survey":"mace","page":10,"trial_type":"survey-mace","trial_index":18,"time_elapsed":1201533,"internal_node_id":"0.0-18.0","task_version":"prescreen-v0.3","browser_interactions":0,"instructed":0},{"rt":8435,"trial_type":"mental-health-alert","trial_index":19,"time_elapsed":1209972,"internal_node_id":"0.0-19.0","task_version":"prescreen-v0.3","interactions":"[]"}]