[{"view_history":[{"page_index":0,"viewing_time":3904.8000000044703},{"page_index":1,"viewing_time":5931.39999999851},{"page_index":2,"viewing_time":4050.7999999970198},{"page_index":3,"viewing_time":1177.6000000014901}],"rt":15065.30000000447,"trial_type":"instructions","trial_index":0,"time_elapsed":15077,"internal_node_id":"0.0-0.0","task_version":"prescreen-v0.3"},{"rt":12904.59999999404,"responses":{"age":"20","gender-categorical":"Female","gender-free-response":"","ethnicity":"Hispanic or Latino","race":["White"],"education":"Some college"},"trial_type":"survey-demo","trial_index":1,"time_elapsed":27985,"internal_node_id":"0.0-1.0","task_version":"prescreen-v0.3"},{"responses":{"Q10":"2","Q01":"2","Q07":"1","Q08":"1","Q03":"0","Q05":"1","Q18":"1","Q15":"2","Q16":"2","Q19":"2","Q21":"3","Q09":"1","Q04":"0","Q11":"2","Q13":"1","Q02":"2","Q20":"3","Q06":"1","Q17":"1","Q12":"2","Q14":"1"},"rt":124768,"item_order":[9,0,6,7,2,4,17,14,15,18,20,8,3,10,12,1,19,5,16,11,13],"radio_events":[7105.0999999940395,9828.19999999553,16068.5,23418,26921.19999999553,33805.89999999851,40668.09999999404,49908.59999999404,58878,67526.09999999404,72340.89999999851,81341.29999999702,84775.59999999404,88015,91930.69999999553,96048.39999999851,98456.09999999404,110920.89999999851,114843.09999999404,118788.69999999553,123926.19999999553],"key_events":[],"mouse_events":[7105.0999999940395,9828.19999999553,16068.5,23418,26921.19999999553,33805.89999999851,40668.09999999404,49908.59999999404,58878,67526.09999999404,72340.89999999851,81341.29999999702,84775.59999999404,88015,91930.69999999553,96048.39999999851,98456.09999999404,110920.89999999851,114843.09999999404,118788.69999999553,123926.19999999553,124766],"straightlining":0.42857142857142855,"zigzagging":0.55,"honeypot":0,"survey":"sns","trial_type":"survey-template","trial_index":2,"time_elapsed":152757,"internal_node_id":"0.0-2.0","task_version":"prescreen-v0.3","browser_interactions":0,"infrequency":0},{"responses":{"Q09":"2","Q06":"2","Q02":"1","Q13":"0","Q07":"3","Q08":"3","Q01":"2","Q10":"2","Q03":"1","Q11":"2","Q05":"3","Q12":"1","Q04":"3"},"rt":76308,"item_order":[8,5,1,12,6,7,0,9,2,10,4,11,3],"radio_events":[5086.79999999702,8124.39999999851,11034.79999999702,14259.39999999851,19239.5,28180.29999999702,29934.89999999851,47169.59999999404,54519.29999999702,59589.89999999851,63205,69294.19999999553,74686.39999999851],"key_events":[],"mouse_events":[5086.79999999702,8124.39999999851,11034.79999999702,14259.39999999851,19239.5,28180.29999999702,29934.89999999851,47169.59999999404,54519.29999999702,59589.89999999851,63205,69294.19999999553,74686.39999999851,76307.19999999553],"straightlining":0.38461538461538464,"zigzagging":0.5833333333333334,"honeypot":0,"survey":"bisbas","trial_type":"survey-template","trial_index":3,"time_elapsed":229068,"internal_node_id":"0.0-3.0","task_version":"prescreen-v0.3","browser_interactions":0,"infrequency":0},{"responses":{"Q01":"4","Q02":"2","Q03":"4"},"rt":46857.79999999702,"radio_events":[9364.79999999702,23291.5,43564.59999999404,45746.59999999404],"key_events":[],"mouse_events":[9364.79999999702,23291.5,43564.59999999404,45312.39999999851,45746.59999999404,46857.19999999553],"survey":"map","page":1,"trial_type":"survey-map","trial_index":4,"time_elapsed":275928,"internal_node_id":"0.0-4.0","task_version":"prescreen-v0.3","browser_interactions":0},{"responses":{"Q04":"4","Q05":"2","Q06":"4"},"rt":18844.90000000596,"radio_events":[9124.80000000447,13835,18305.10000000149],"key_events":[],"mouse_events":[9124.80000000447,13835,18305.10000000149,18844.40000000596],"survey":"map","page":2,"trial_type":"survey-map","trial_index":5,"time_elapsed":294774,"internal_node_id":"0.0-5.0","task_version":"prescreen-v0.3","browser_interactions":0},{"responses":{"Q07":"4","Q08":"0","Q09":"4"},"rt":18914.10000000149,"radio_events":[6612.89999999851,11818.5,17660.80000000447],"key_events":[],"mouse_events":[6612.89999999851,11818.5,17660.80000000447,18913.60000000149],"survey":"map","page":3,"trial_type":"survey-map","trial_index":6,"time_elapsed":313690,"internal_node_id":"0.0-6.0","task_version":"prescreen-v0.3","browser_interactions":0},{"responses":{"Q10":"3","Q11":"4","Q12":"1","Q13":"2","Q16":"0","Q14":"2","Q15":"1"},"rt":49416.29999999702,"radio_events":[6267.69999999553,13723.09999999404,25115.39999999851,31220,36635.39999999851,42334.5,47773.29999999702],"key_events":[],"mouse_events":[6267.69999999553,13723.09999999404,25115.39999999851,31220,36635.39999999851,42334.5,47773.29999999702,49415.5],"survey":"map","page":4,"trial_type":"survey-map","trial_index":7,"time_elapsed":363108,"internal_node_id":"0.0-7.0","task_version":"prescreen-v0.3","browser_interactions":0,"infrequency":0},{"view_history":[{"page_index":0,"viewing_time":2832.6999999955297},{"page_index":1,"viewing_time":5001.80000000447}],"rt":7835,"trial_type":"instructions","trial_index":8,"time_elapsed":370944,"internal_node_id":"0.0-8.0","task_version":"prescreen-v0.3"},{"responses":{"01":"No","02":"No","03":"No","04":"No","05":"No","06":"No"},"rt":47758.80000000447,"item_order":[0,1,2,3,4,5],"radio_events":[12821,21806.60000000149,33109.40000000596,37653.60000000149,40084.20000000298,42258.40000000596,45896.10000000149],"checkbox_events":[],"key_events":[],"mouse_events":[0,12821,21806.60000000149,33109.40000000596,37653.60000000149,40084.20000000298,42258.40000000596,45896.10000000149,47756.80000000447],"honeypot":0,"survey":"mace","page":1,"trial_type":"survey-mace","trial_index":9,"time_elapsed":418708,"internal_node_id":"0.0-9.0","task_version":"prescreen-v0.3","browser_interactions":0},{"responses":{"01":"No","02":"No","03":"Yes","03_ages_5":"5","03_ages_6":"6","04":"No","05":"No","06":"No","07":"No","08":"No"},"rt":41705.30000000447,"item_order":[0,1,2,3,4,5,6,7],"radio_events":[4239.5,10613.60000000149,18002.30000000447,20319,31719.70000000298,34689.39999999851,36624.70000000298,39324.70000000298,40824.10000000149],"checkbox_events":[25600.20000000298,28052.10000000149],"key_events":[],"mouse_events":[4239.5,10613.60000000149,18002.30000000447,20319,25600.20000000298,26597.30000000447,28052.10000000149,31719.70000000298,34689.39999999851,36624.70000000298,39324.70000000298,40824.10000000149,41702.5],"honeypot":0,"survey":"mace","page":2,"trial_type":"survey-mace","trial_index":10,"time_elapsed":460416,"internal_node_id":"0.0-10.0","task_version":"prescreen-v0.3","browser_interactions":0},{"responses":{"01":"No","02":"No","03":"No","04":"No"},"rt":15235.39999999851,"item_order":[0,1,2,3],"radio_events":[7104.0999999940395,9166.09999999404,12654.09999999404,14611.39999999851],"checkbox_events":[],"key_events":[],"mouse_events":[7104.0999999940395,9166.09999999404,12654.09999999404,13921.09999999404,14611.39999999851,15233.59999999404],"honeypot":0,"survey":"mace","page":3,"trial_type":"survey-mace","trial_index":11,"time_elapsed":475655,"internal_node_id":"0.0-11.0","task_version":"prescreen-v0.3","browser_interactions":0},{"responses":{"01":"No","02":"No"},"rt":15919.10000000149,"item_order":[0,1],"radio_events":[8276.10000000149,14958.10000000149],"checkbox_events":[],"key_events":[],"mouse_events":[8276.10000000149,14958.10000000149,15918.5],"honeypot":0,"survey":"mace","page":4,"trial_type":"survey-mace","trial_index":12,"time_elapsed":491576,"internal_node_id":"0.0-12.0","task_version":"prescreen-v0.3","browser_interactions":0},{"responses":{"01":"No","02":"No","03":"No","04":"No","05":"No"},"rt":26736.5,"item_order":[0,1,2,3,4],"radio_events":[7669.89999999851,9987.89999999851,17944.80000000447,21702.39999999851,25797.30000000447],"checkbox_events":[],"key_events":[],"mouse_events":[7669.89999999851,9987.89999999851,17944.80000000447,20442.89999999851,21702.39999999851,25797.30000000447,26734.5],"honeypot":0,"survey":"mace","page":5,"trial_type":"survey-mace","trial_index":13,"time_elapsed":518315,"internal_node_id":"0.0-13.0","task_version":"prescreen-v0.3","browser_interactions":0},{"responses":{"01":"Yes","01_ages_10":"10","01_ages_11":"11","01_ages_12":"12","02":"Yes","02_ages_10":"10","02_ages_11":"11","02_ages_12":"12","03":"No","04":"No","05":"No"},"rt":61116,"item_order":[0,1,2,3,4],"radio_events":[23703.89999999851,46016.39999999851,54326.5,56561.5,59516.5],"checkbox_events":[29666.5,32838.80000000447,40489,49601.10000000149,50433.70000000298,51296.70000000298],"key_events":[],"mouse_events":[23703.89999999851,29666.5,32838.80000000447,40489,46016.39999999851,49601.10000000149,50433.70000000298,51296.70000000298,54326.5,56561.5,59516.5,61114.39999999851],"honeypot":0,"survey":"mace","page":6,"trial_type":"survey-mace","trial_index":14,"time_elapsed":579433,"internal_node_id":"0.0-14.0","task_version":"prescreen-v0.3","browser_interactions":0},{"responses":{"01":"No","02":"No","03":"No","04":"No","05":"No","06":"No","07":"No"},"rt":53667.60000000149,"item_order":[0,1,2,3,4,5,6],"radio_events":[36512.89999999851,42587.5,45783.29999999702,46833.10000000149,48355.69999999553,52450.69999999553,53050.5],"checkbox_events":[],"key_events":[],"mouse_events":[36512.89999999851,42587.5,45783.29999999702,46833.10000000149,48355.69999999553,50426.10000000149,52450.69999999553,53050.5,53665.60000000149],"honeypot":0,"survey":"mace","page":7,"trial_type":"survey-mace","trial_index":15,"time_elapsed":633104,"internal_node_id":"0.0-15.0","task_version":"prescreen-v0.3","browser_interactions":0},{"responses":{"01":"No","02":"No","03":"No","04":"No"},"rt":25347,"item_order":[0,1,2,3],"radio_events":[11695.60000000149,15115.10000000149,18858.10000000149,24460.60000000149],"checkbox_events":[],"key_events":[],"mouse_events":[11695.60000000149,15115.10000000149,18858.10000000149,24460.60000000149,25345.70000000298],"honeypot":0,"survey":"mace","page":8,"trial_type":"survey-mace","trial_index":16,"time_elapsed":658453,"internal_node_id":"0.0-16.0","task_version":"prescreen-v0.3","browser_interactions":0},{"responses":{"01":"Yes","01_ages_1":"1","01_ages_2":"2","01_ages_3":"3","01_ages_4":"4","01_ages_5":"5","01_ages_6":"6","01_ages_7":"7","01_ages_8":"8","01_ages_9":"9","01_ages_10":"10","01_ages_11":"11","01_ages_12":"12","01_ages_13":"13","01_ages_14":"14","01_ages_15":"15","01_ages_16":"16","01_ages_17":"17","01_ages_18":"18","02":"Yes","02_ages_1":"1","02_ages_2":"2","02_ages_3":"3","02_ages_4":"4","02_ages_5":"5","02_ages_6":"6","02_ages_7":"7","02_ages_8":"8","02_ages_9":"9","02_ages_10":"10","02_ages_11":"11","02_ages_12":"12","02_ages_13":"13","02_ages_14":"14","02_ages_15":"15","02_ages_16":"16","02_ages_17":"17","02_ages_18":"18","03":"Yes","03_ages_1":"1","03_ages_2":"2","03_ages_3":"3","03_ages_4":"4","03_ages_5":"5","03_ages_6":"6","03_ages_7":"7","03_ages_8":"8","03_ages_9":"9","03_ages_10":"10","03_ages_11":"11","03_ages_12":"12","03_ages_13":"13","03_ages_14":"14","03_ages_15":"15","03_ages_16":"16","03_ages_17":"17","03_ages_18":"18","04":"Yes","04_ages_1":"1","04_ages_2":"2","04_ages_3":"3","04_ages_4":"4","04_ages_5":"5","04_ages_6":"6","04_ages_7":"7","04_ages_8":"8","04_ages_9":"9","04_ages_10":"10","04_ages_11":"11","04_ages_12":"12","04_ages_13":"13","04_ages_14":"14","04_ages_15":"15","04_ages_16":"16","04_ages_17":"17","04_ages_18":"18"},"rt":91190.70000000298,"item_order":[0,1,2,3],"radio_events":[6303,26516.30000000447,43699,60491.20000000298],"checkbox_events":[10968.80000000447,11516,11883.70000000298,12348.60000000149,12746.5,13135.70000000298,13675.90000000596,14163.70000000298,14853.40000000596,15229,16368.60000000149,16841.20000000298,17478.5,17891.40000000596,18318.90000000596,18799.80000000447,19226.10000000149,19834.10000000149,29808.60000000149,30183.30000000447,30611.10000000149,31001.60000000149,31405.90000000596,32501,32907.40000000596,35816.20000000298,36191.40000000596,36588.60000000149,36963.40000000596,37331.80000000447,37714.10000000149,38126.90000000596,38546.40000000596,38943.60000000149,39364.10000000149,39858.70000000298,45611.70000000298,46932,47351.60000000149,47823.90000000596,48236.5,48685.70000000298,49113.90000000596,49579.20000000298,50208.30000000447,50718.90000000596,51635.5,52436.70000000298,53254.10000000149,53711.30000000447,54424,55159,55602,56096.30000000447,69258,81273.80000000447,81633.90000000596,82001.40000000596,82744.20000000298,83126.90000000596,83793.60000000149,84536.40000000596,84881.60000000149,85623.10000000149,86006.80000000447,86809.10000000149,87529,88368.70000000298,88758.70000000298,89110.70000000298,89516.10000000149,90326.5],"key_events":[],"mouse_events":[6303,10968.80000000447,11516,11883.70000000298,12348.60000000149,12746.5,13135.70000000298,13675.90000000596,14163.70000000298,14853.40000000596,15229,15693.70000000298,16368.60000000149,16841.20000000298,17478.5,17891.40000000596,18318.90000000596,18799.80000000447,19226.10000000149,19834.10000000149,26516.30000000447,28383.20000000298,29808.60000000149,30183.30000000447,30611.10000000149,31001.60000000149,31405.90000000596,31886.40000000596,32501,32907.40000000596,35816.20000000298,36191.40000000596,36588.60000000149,36963.40000000596,37331.80000000447,37714.10000000149,38126.90000000596,38546.40000000596,38943.60000000149,39364.10000000149,39858.70000000298,43699,45611.70000000298,46121.5,46932,47351.60000000149,47823.90000000596,48236.5,48685.70000000298,49113.90000000596,49579.20000000298,50208.30000000447,50718.90000000596,51169.10000000149,51635.5,52076.10000000149,52436.70000000298,52893,53254.10000000149,53711.30000000447,54424,55159,55602,56096.30000000447,60491.20000000298,69258,80929,81273.80000000447,81633.90000000596,82001.40000000596,82361.40000000596,82744.20000000298,83126.90000000596,83793.60000000149,84536.40000000596,84881.60000000149,85623.10000000149,86006.80000000447,86434.10000000149,86809.10000000149,87169.20000000298,87529,88368.70000000298,88758.70000000298,89110.70000000298,89516.10000000149,90326.5,91188.90000000596],"honeypot":0,"survey":"mace","page":9,"trial_type":"survey-mace","trial_index":17,"time_elapsed":749646,"internal_node_id":"0.0-17.0","task_version":"prescreen-v0.3","browser_interactions":0},{"responses":{"01":"No","02":"No","03":"No","04":"Yes","04_ages_14":"14","04_ages_15":"15","05":"No","06":"Yes","06_ages_17":"17","07":"Yes","07_ages_1":"1","07_ages_2":"2","07_ages_3":"3","07_ages_4":"4","07_ages_5":"5","07_ages_6":"6","07_ages_7":"7","07_ages_8":"8","07_ages_9":"9","07_ages_10":"10","07_ages_11":"11","07_ages_12":"12","07_ages_13":"13","07_ages_14":"14","07_ages_15":"15","07_ages_16":"16","07_ages_17":"17","07_ages_18":"18","08":"Yes","08_ages_12":"12","08_ages_13":"13","08_ages_14":"14","08_ages_15":"15","08_ages_16":"16","08_ages_17":"17","08_ages_18":"18"},"rt":64354.59999999404,"item_order":[0,1,2,3,4,5,6,7],"radio_events":[3407.7999999970198,4307.5,6669.39999999851,11125,27586.89999999851,28757,33497.09999999404,46570.09999999404],"checkbox_events":[14522.89999999851,15062.79999999702,30392.79999999702,34885.09999999404,35327.19999999553,35693.69999999553,36032.79999999702,36407.59999999404,37480.09999999404,37885,38282.5,38649.89999999851,39062.19999999553,39895.39999999851,40615.19999999553,41027.19999999553,41634.69999999553,42085.79999999702,42475.39999999851,43127.5,43509.5,48115.89999999851,48482.69999999553,48879.5,49539.5,50335,51040.19999999553,51400,51798,52210.29999999702,53132.69999999553,56215.19999999553,58915.29999999702,59755.59999999404,60295,61892.59999999404,62282.69999999553,62747.79999999702],"key_events":[],"mouse_events":[3407.7999999970198,4307.5,6669.39999999851,11125,14522.89999999851,15062.79999999702,27586.89999999851,28757,30392.79999999702,33497.09999999404,34885.09999999404,35327.19999999553,35693.69999999553,36032.79999999702,36407.59999999404,36887.89999999851,37480.09999999404,37885,38282.5,38649.89999999851,39062.19999999553,39527.19999999553,39895.39999999851,40284.89999999851,40615.19999999553,41027.19999999553,41634.69999999553,42085.79999999702,42475.39999999851,43127.5,43509.5,46570.09999999404,48115.89999999851,48482.69999999553,48879.5,49539.5,49922.59999999404,50335,51040.19999999553,51400,51798,52210.29999999702,52742.89999999851,53132.69999999553,56215.19999999553,58240.59999999404,58915.29999999702,59755.59999999404,60295,61892.59999999404,62282.69999999553,62747.79999999702,64352.19999999553],"honeypot":0,"survey":"mace","page":10,"trial_type":"survey-mace","trial_index":18,"time_elapsed":814004,"internal_node_id":"0.0-18.0","task_version":"prescreen-v0.3","browser_interactions":0,"instructed":0},{"rt":5973.10000000149,"trial_type":"mental-health-alert","trial_index":19,"time_elapsed":819979,"internal_node_id":"0.0-19.0","task_version":"prescreen-v0.3","interactions":"[]"}]