[{"view_history":[{"page_index":0,"viewing_time":4593.400000095367},{"page_index":1,"viewing_time":4943.799999952316},{"page_index":2,"viewing_time":5303.899999976158},{"page_index":3,"viewing_time":1551.7000000476837}],"rt":16393.700000047684,"trial_type":"instructions","trial_index":0,"time_elapsed":16402,"internal_node_id":"0.0-0.0","task_version":"prescreen-v0.3"},{"rt":22883.099999904633,"responses":{"age":"40","gender-categorical":"Female","gender-free-response":"","ethnicity":"Not Hispanic or Latino","race":["White"],"education":"Master degree or higher"},"trial_type":"survey-demo","trial_index":1,"time_elapsed":39290,"internal_node_id":"0.0-1.0","task_version":"prescreen-v0.3"},{"responses":{"Q02":"0","Q19":"1","Q07":"1","Q17":"1","Q21":"3","Q11":"2","Q10":"1","Q18":"1","Q16":"1","Q12":"1","Q01":"0","Q03":"1","Q05":"2","Q04":"1","Q13":"1","Q14":"1","Q15":"1","Q06":"1","Q20":"0","Q09":"2","Q08":"1"},"rt":152289.5,"item_order":[1,18,6,16,20,10,9,17,15,11,0,2,4,3,12,13,14,5,19,8,7],"radio_events":[10793.599999904633,18769.399999976158,35065,39272.799999952316,46816.699999928474,51032.799999952316,52288.59999990463,53016.699999928474,63872.299999952316,70216.29999995232,74680.29999995232,80328.09999990463,83368,87087.89999997616,98527.69999992847,107735.5,112303.39999997616,118199.19999992847,128119,135278.89999997616,139094.79999995232,145406.69999992847,150734.79999995232],"key_events":[],"mouse_events":[10793.599999904633,18769.399999976158,35065,39272.799999952316,46816.699999928474,51032.799999952316,52288.59999990463,53016.699999928474,63872.299999952316,70216.29999995232,74680.29999995232,80328.09999990463,83368,87087.89999997616,98527.69999992847,107735.5,112303.39999997616,118199.19999992847,128119,135278.89999997616,139094.79999995232,145406.69999992847,150734.79999995232,152286.79999995232],"straightlining":0.6666666666666666,"zigzagging":0.45,"honeypot":0,"survey":"sns","trial_type":"survey-template","trial_index":2,"time_elapsed":191577,"internal_node_id":"0.0-2.0","task_version":"prescreen-v0.3","browser_interactions":0,"infrequency":0},{"responses":{"Q04":"2","Q08":"2","Q05":"2","Q13":"0","Q07":"2","Q09":"2","Q03":"1","Q01":"2","Q12":"2","Q11":"2","Q06":"2","Q02":"1","Q10":"2"},"rt":78663.60000002384,"item_order":[3,7,4,12,6,8,2,0,11,10,5,1,9],"radio_events":[20127.299999952316,27407.100000023842,30807.100000023842,35702.89999997616,39911,43230.700000047684,50990.799999952316,54142.60000002384,57406.60000002384,62174.39999997616,67878.39999997616,74094.10000002384,77894.10000002384],"key_events":[],"mouse_events":[20127.299999952316,27407.100000023842,30807.100000023842,35702.89999997616,39911,43230.700000047684,50990.799999952316,54142.60000002384,57406.60000002384,62174.39999997616,67878.39999997616,74094.10000002384,77894.10000002384,78662],"straightlining":0.7692307692307693,"zigzagging":0.3333333333333333,"honeypot":0,"survey":"bisbas","trial_type":"survey-template","trial_index":3,"time_elapsed":270242,"internal_node_id":"0.0-3.0","task_version":"prescreen-v0.3","browser_interactions":0,"infrequency":0},{"responses":{"Q01":"3","Q02":"3","Q03":"3"},"rt":27297.900000095367,"radio_events":[12505.600000023842,18457.300000071526,26081.100000023842],"key_events":[],"mouse_events":[12505.600000023842,18457.300000071526,26081.100000023842,27297.100000023842],"survey":"map","page":1,"trial_type":"survey-map","trial_index":4,"time_elapsed":297544,"internal_node_id":"0.0-4.0","task_version":"prescreen-v0.3","browser_interactions":0},{"responses":{"Q04":"2","Q05":"2","Q06":"2"},"rt":21532.800000071526,"radio_events":[8532.100000023842,9628.100000023842,15315.900000095367,20076],"key_events":[],"mouse_events":[8532.100000023842,9628.100000023842,15315.900000095367,20076,21532.200000047684],"survey":"map","page":2,"trial_type":"survey-map","trial_index":5,"time_elapsed":319076,"internal_node_id":"0.0-5.0","task_version":"prescreen-v0.3","browser_interactions":0},{"responses":{"Q07":"2","Q08":"4","Q09":"3"},"rt":30804.300000071526,"radio_events":[21331.900000095367,25956.800000071526,29115.800000071526],"key_events":[],"mouse_events":[21331.900000095367,25956.800000071526,29115.800000071526,30803.600000023842],"survey":"map","page":3,"trial_type":"survey-map","trial_index":6,"time_elapsed":349883,"internal_node_id":"0.0-6.0","task_version":"prescreen-v0.3","browser_interactions":2},{"responses":{"Q10":"2","Q11":"2","Q12":"2","Q13":"2","Q16":"0","Q14":"2","Q15":"2"},"rt":40100.5,"radio_events":[7523.700000047684,11467.899999976158,17283.600000023842,24579.399999976158,27859.600000023842,32291.399999976158,38483],"key_events":[],"mouse_events":[7523.700000047684,11467.899999976158,17283.600000023842,24579.399999976158,27859.600000023842,32291.399999976158,38483,40099.200000047684],"survey":"map","page":4,"trial_type":"survey-map","trial_index":7,"time_elapsed":389984,"internal_node_id":"0.0-7.0","task_version":"prescreen-v0.3","browser_interactions":0,"infrequency":0},{"view_history":[{"page_index":0,"viewing_time":2875.7000000476837},{"page_index":1,"viewing_time":4591.799999952316}],"rt":7468.399999976158,"trial_type":"instructions","trial_index":8,"time_elapsed":397454,"internal_node_id":"0.0-8.0","task_version":"prescreen-v0.3"},{"responses":{"01":"No","02":"No","03":"No","04":"No","05":"No","06":"No"},"rt":26827.899999976158,"item_order":[0,1,2,3,4,5],"radio_events":[10409.099999904633,14816.699999928474,19488.699999928474,21184.399999976158,23000.5,25792.299999952316],"checkbox_events":[],"key_events":[],"mouse_events":[0,10409.099999904633,14816.699999928474,19488.699999928474,21184.399999976158,23000.5,25792.299999952316,26824.5],"honeypot":0,"survey":"mace","page":1,"trial_type":"survey-mace","trial_index":9,"time_elapsed":424288,"internal_node_id":"0.0-9.0","task_version":"prescreen-v0.3","browser_interactions":0},{"responses":{"01":"No","02":"No","03":"Yes","03_ages_6":"6","03_ages_7":"7","03_ages_8":"8","03_ages_9":"9","04":"No","05":"Yes","05_ages_6":"6","05_ages_7":"7","05_ages_8":"8","05_ages_9":"9","06":"No","07":"No","08":"No"},"rt":38530.39999997616,"item_order":[0,1,2,3,4,5,6,7],"radio_events":[5598.5,9718.199999928474,14254,25085.799999952316,27389.899999976158,32973.799999952316,35213.699999928474,37533.39999997616],"checkbox_events":[20398.199999928474,20918.199999928474,21574,22238.100000023842,28805.899999976158,29261.799999952316,29885.799999952316,30853.699999928474],"key_events":[],"mouse_events":[5598.5,9718.199999928474,14254,20398.199999928474,20918.199999928474,21574,22238.100000023842,25085.799999952316,27389.899999976158,28805.899999976158,29261.799999952316,29885.799999952316,30853.699999928474,32973.799999952316,35213.699999928474,37533.39999997616,38526],"honeypot":0,"survey":"mace","page":2,"trial_type":"survey-mace","trial_index":10,"time_elapsed":462825,"internal_node_id":"0.0-10.0","task_version":"prescreen-v0.3","browser_interactions":0},{"responses":{"01":"No","02":"No","03":"No","04":"No"},"rt":13927.699999928474,"item_order":[0,1,2,3],"radio_events":[4429.600000023842,7981.399999976158,10469.399999976158,12989.100000023842],"checkbox_events":[],"key_events":[],"mouse_events":[4429.600000023842,7981.399999976158,10469.399999976158,12989.100000023842,13925.399999976158],"honeypot":0,"survey":"mace","page":3,"trial_type":"survey-mace","trial_index":11,"time_elapsed":476757,"internal_node_id":"0.0-11.0","task_version":"prescreen-v0.3","browser_interactions":0},{"responses":{"01":"No","02":"No"},"rt":8642.899999976158,"item_order":[0,1],"radio_events":[3233.899999976158,7953.600000023842],"checkbox_events":[],"key_events":[],"mouse_events":[3233.899999976158,7953.600000023842,8641.600000023842],"honeypot":0,"survey":"mace","page":4,"trial_type":"survey-mace","trial_index":12,"time_elapsed":485400,"internal_node_id":"0.0-12.0","task_version":"prescreen-v0.3","browser_interactions":0},{"responses":{"01":"No","02":"No","03":"No","04":"No","05":"No"},"rt":25725.399999976158,"item_order":[0,1,2,3,4],"radio_events":[10378.600000023842,13570.5,18634.5,22018.299999952316,24730.299999952316],"checkbox_events":[],"key_events":[],"mouse_events":[10378.600000023842,13570.5,18634.5,22018.299999952316,24730.299999952316,25722.200000047684],"honeypot":0,"survey":"mace","page":5,"trial_type":"survey-mace","trial_index":13,"time_elapsed":511130,"internal_node_id":"0.0-13.0","task_version":"prescreen-v0.3","browser_interactions":0},{"responses":{"01":"No","02":"No","03":"No","04":"No","05":"No"},"rt":18762.200000047684,"item_order":[0,1,2,3,4],"radio_events":[7919.600000023842,10359.5,12191.399999976158,14207.399999976158,17871.299999952316],"checkbox_events":[],"key_events":[],"mouse_events":[7919.600000023842,10359.5,12191.399999976158,14207.399999976158,17871.299999952316,18759.399999976158],"honeypot":0,"survey":"mace","page":6,"trial_type":"survey-mace","trial_index":14,"time_elapsed":529897,"internal_node_id":"0.0-14.0","task_version":"prescreen-v0.3","browser_interactions":0},{"responses":{"01":"No","02":"No","03":"No","04":"No","05":"No","06":"No","07":"No"},"rt":23346.600000023842,"item_order":[0,1,2,3,4,5,6],"radio_events":[6551.299999952316,10543,13502.899999976158,16006.799999952316,19318.899999976158,20958.799999952316,22734.699999928474],"checkbox_events":[],"key_events":[],"mouse_events":[6551.299999952316,10543,13502.899999976158,16006.799999952316,19318.899999976158,20958.799999952316,22734.699999928474,23342.699999928474],"honeypot":0,"survey":"mace","page":7,"trial_type":"survey-mace","trial_index":15,"time_elapsed":553248,"internal_node_id":"0.0-15.0","task_version":"prescreen-v0.3","browser_interactions":0},{"responses":{"01":"No","02":"No","03":"No","04":"No"},"rt":22584.5,"item_order":[0,1,2,3],"radio_events":[11046.299999952316,14318.399999976158,17558.299999952316,21582.599999904633],"checkbox_events":[],"key_events":[],"mouse_events":[11046.299999952316,14318.399999976158,17558.299999952316,21582.599999904633,22582.299999952316],"honeypot":0,"survey":"mace","page":8,"trial_type":"survey-mace","trial_index":16,"time_elapsed":575837,"internal_node_id":"0.0-16.0","task_version":"prescreen-v0.3","browser_interactions":0},{"responses":{"01":"Yes","01_ages_1":"1","01_ages_2":"2","01_ages_3":"3","01_ages_4":"4","01_ages_5":"5","01_ages_6":"6","01_ages_7":"7","01_ages_8":"8","01_ages_9":"9","01_ages_10":"10","01_ages_11":"11","01_ages_12":"12","01_ages_13":"13","01_ages_14":"14","01_ages_15":"15","01_ages_16":"16","01_ages_17":"17","01_ages_18":"18","02":"Yes","02_ages_1":"1","02_ages_2":"2","02_ages_3":"3","02_ages_4":"4","02_ages_5":"5","02_ages_6":"6","02_ages_7":"7","02_ages_8":"8","02_ages_9":"9","02_ages_10":"10","02_ages_11":"11","02_ages_12":"12","02_ages_13":"13","02_ages_14":"14","02_ages_15":"15","02_ages_16":"16","02_ages_17":"17","02_ages_18":"18","03":"Yes","03_ages_1":"1","03_ages_2":"2","03_ages_3":"3","03_ages_4":"4","03_ages_5":"5","03_ages_6":"6","03_ages_7":"7","03_ages_8":"8","03_ages_9":"9","03_ages_10":"10","03_ages_11":"11","03_ages_12":"12","03_ages_13":"13","03_ages_14":"14","03_ages_15":"15","03_ages_16":"16","03_ages_17":"17","03_ages_18":"18","04":"Yes","04_ages_1":"1","04_ages_2":"2","04_ages_3":"3","04_ages_4":"4","04_ages_5":"5","04_ages_6":"6","04_ages_7":"7","04_ages_8":"8","04_ages_9":"9","04_ages_10":"10","04_ages_11":"11","04_ages_12":"12","04_ages_13":"13","04_ages_14":"14","04_ages_15":"15","04_ages_16":"16","04_ages_17":"17","04_ages_18":"18"},"rt":74410.09999990463,"item_order":[0,1,2,3],"radio_events":[7049.099999904633,21896.699999928474,42536.199999928474,56279.89999997616],"checkbox_events":[9377.399999976158,9809.699999928474,10153.299999952316,10505,11456.899999976158,11961,12464.699999928474,13049.099999904633,14313.199999928474,14656.699999928474,15160.899999976158,15824.799999952316,16224.899999976158,16608.899999976158,16953.299999952316,17416.699999928474,18080.899999976158,19048.799999952316,22688.599999904633,23272.599999904633,24344.699999928474,24952.599999904633,25496.899999976158,26904.899999976158,27352.5,27792.599999904633,28232.699999928474,28672.5,29440.699999928474,29888.699999928474,31592.5,32424.599999904633,32840.799999952316,33272.89999997616,34184.39999997616,34616.5,43544.299999952316,44160.299999952316,44576.39999997616,45048.299999952316,45496.59999990463,45880.199999928474,46288.199999928474,46744.39999997616,47160.59999990463,48256,48752.09999990463,49192.09999990463,49600,50032.09999990463,50424,50840.09999990463,51280.5,51696.199999928474,57359.89999997616,57928,58336,58736.09999990463,59280,59727.799999952316,60951.59999990463,61535.799999952316,61999.89999997616,63319.89999997616,64103.89999997616,64799.799999952316,70591.59999990463,71215.69999992847,71847.79999995232,72775.59999990463,73207.69999992847,73727.69999992847],"key_events":[],"mouse_events":[7049.099999904633,9377.399999976158,9809.699999928474,10153.299999952316,10505,10880.899999976158,11456.899999976158,11961,12464.699999928474,13049.099999904633,13608.799999952316,14313.199999928474,14656.699999928474,15160.899999976158,15824.799999952316,16224.899999976158,16608.899999976158,16953.299999952316,17416.699999928474,18080.899999976158,19048.799999952316,21896.699999928474,22688.599999904633,23272.599999904633,24344.699999928474,24952.599999904633,25496.899999976158,26904.899999976158,27352.5,27792.599999904633,28232.699999928474,28672.5,29025,29440.699999928474,29888.699999928474,31592.5,32424.599999904633,32840.799999952316,33272.89999997616,33624.5,34184.39999997616,34616.5,42536.199999928474,43544.299999952316,44160.299999952316,44576.39999997616,45048.299999952316,45496.59999990463,45880.199999928474,46288.199999928474,46744.39999997616,47160.59999990463,47576.199999928474,48256,48752.09999990463,49192.09999990463,49600,50032.09999990463,50424,50840.09999990463,51280.5,51696.199999928474,56279.89999997616,57359.89999997616,57928,58336,58736.09999990463,59280,59727.799999952316,60096,60951.59999990463,61535.799999952316,61999.89999997616,62471.799999952316,62927.799999952316,63319.89999997616,63743.59999990463,64103.89999997616,64799.799999952316,70591.59999990463,71215.69999992847,71847.79999995232,72391.89999997616,72775.59999990463,73207.69999992847,73727.69999992847,74407.79999995232],"honeypot":0,"survey":"mace","page":9,"trial_type":"survey-mace","trial_index":17,"time_elapsed":650249,"internal_node_id":"0.0-17.0","task_version":"prescreen-v0.3","browser_interactions":0},{"responses":{"01":"No","02":"No","03":"No","04":"No","05":"No","06":"Yes","06_ages_17":"17","07":"Yes","07_ages_1":"1","07_ages_2":"2","07_ages_3":"3","07_ages_4":"4","07_ages_5":"5","07_ages_6":"6","07_ages_7":"7","07_ages_8":"8","07_ages_9":"9","07_ages_10":"10","07_ages_11":"11","07_ages_12":"12","07_ages_13":"13","07_ages_14":"14","07_ages_15":"15","07_ages_16":"16","07_ages_17":"17","07_ages_18":"18","08":"Yes","08_ages_1":"1","08_ages_2":"2","08_ages_3":"3","08_ages_4":"4","08_ages_5":"5","08_ages_6":"6","08_ages_7":"7","08_ages_8":"8","08_ages_9":"9","08_ages_10":"10","08_ages_11":"11","08_ages_12":"12","08_ages_13":"13","08_ages_14":"14","08_ages_15":"15","08_ages_16":"16","08_ages_17":"17","08_ages_18":"18"},"rt":65035.5,"item_order":[0,1,2,3,4,5,6,7],"radio_events":[9791.899999976158,12016.099999904633,16103.899999976158,18679.799999952316,22087.599999904633,27975.5,36575.39999997616,52383],"checkbox_events":[29343.5,38303.299999952316,38983.59999990463,39471.699999928474,39879.299999952316,40647.5,41047.299999952316,41407.199999928474,41791.5,42567.39999997616,42999.199999928474,43663.5,44183.5,45255.299999952316,45711.199999928474,46279.199999928474,46655.5,47159.5,47583.199999928474,49151.299999952316,49655.09999990463,53663.09999990463,54015,54655,55350.799999952316,55902.799999952316,56247.199999928474,56943.199999928474,57310.89999997616,57727,58222.89999997616,58655,59423.199999928474,59911,60735.09999990463,61799,62815.09999990463,63270.699999928474,63686.89999997616,64087.09999990463,64455],"key_events":[],"mouse_events":[9791.899999976158,12016.099999904633,16103.899999976158,18679.799999952316,22087.599999904633,27975.5,29343.5,36575.39999997616,38303.299999952316,38983.59999990463,39471.699999928474,39879.299999952316,40223.199999928474,40647.5,41047.299999952316,41407.199999928474,41791.5,42567.39999997616,42999.199999928474,43663.5,44183.5,45255.299999952316,45711.199999928474,46279.199999928474,46655.5,47159.5,47583.199999928474,49151.299999952316,49655.09999990463,52383,53663.09999990463,54015,54655,55015.199999928474,55350.799999952316,55902.799999952316,56247.199999928474,56943.199999928474,57310.89999997616,57727,58222.89999997616,58655,59423.199999928474,59911,60735.09999990463,61799,62815.09999990463,63270.699999928474,63686.89999997616,64087.09999990463,64455,65031],"honeypot":0,"survey":"mace","page":10,"trial_type":"survey-mace","trial_index":18,"time_elapsed":715289,"internal_node_id":"0.0-18.0","task_version":"prescreen-v0.3","browser_interactions":0,"instructed":0},{"rt":12021.899999976158,"trial_type":"mental-health-alert","trial_index":19,"time_elapsed":727312,"internal_node_id":"0.0-19.0","task_version":"prescreen-v0.3","interactions":"[{\"event\":\"blur\",\"trial\":6,\"time\":320575},{\"event\":\"focus\",\"trial\":6,\"time\":330314}]"}]