[{"view_history":[{"page_index":0,"viewing_time":2406.5},{"page_index":1,"viewing_time":3335.7000000476837},{"page_index":2,"viewing_time":2486.2999999523163},{"page_index":3,"viewing_time":1065.8999999761581}],"rt":9295.5,"trial_type":"instructions","trial_index":0,"time_elapsed":9755,"internal_node_id":"0.0-0.0","task_version":"prescreen-v0.3"},{"rt":17192.700000047684,"responses":{"age":"37","gender-categorical":"Male","gender-free-response":"","ethnicity":"Not Hispanic or Latino","race":["White"],"education":"Master degree or higher","siblings":"2"},"trial_type":"survey-demo","trial_index":1,"time_elapsed":26977,"internal_node_id":"0.0-1.0","task_version":"prescreen-v0.3"},{"responses":{"Q15":"1","Q17":"2","Q11":"3","Q07":"1","Q10":"2","Q09":"1","Q06":"1","Q08":"2","Q14":"0","Q13":"0","Q03":"1","Q16":"0","Q19":"0","Q01":"2","Q02":"1","Q04":"1","Q18":"0","Q21":"3","Q20":"0","Q05":"1","Q12":"0"},"rt":75748.39999997616,"item_order":[14,16,10,6,9,8,5,7,13,12,2,15,18,0,1,3,17,20,19,4,11],"radio_events":[6736.100000023842,9908,14235.700000047684,18057.700000047684,21637.600000023842,27481.799999952316,35055.700000047684,37257.799999952316,40271.60000002384,42778.200000047684,45893.5,47937.39999997616,49891.700000047684,51973.60000002384,53897.5,56973.700000047684,60321.700000047684,62941.39999997616,66145.5,67547.39999997616,72189.39999997616,74903.5],"key_events":[],"mouse_events":[6736.100000023842,9908,12706,13641.799999952316,14235.700000047684,18057.700000047684,21637.600000023842,27481.799999952316,33294,34390.60000002384,35055.700000047684,36482,37257.799999952316,39717.89999997616,40271.60000002384,42178.200000047684,42778.200000047684,45893.5,47937.39999997616,49891.700000047684,51973.60000002384,53897.5,56973.700000047684,57741.60000002384,60321.700000047684,62941.39999997616,66145.5,67547.39999997616,72189.39999997616,74903.5,75745.70000004768],"straightlining":0.38095238095238093,"zigzagging":0.65,"honeypot":0,"survey":"sns","trial_type":"survey-template","trial_index":2,"time_elapsed":102736,"internal_node_id":"0.0-2.0","task_version":"prescreen-v0.3","browser_interactions":0,"infrequency":0},{"responses":{"Q09":"3","Q03":"1","Q01":"1","Q10":"3","Q12":"1","Q13":"0","Q06":"3","Q05":"3","Q08":"3","Q11":"3","Q02":"1","Q07":"2","Q04":"3"},"rt":40881.60000002384,"item_order":[8,2,0,9,11,12,5,4,7,10,1,6,3],"radio_events":[5010.699999928474,8400.299999952316,9938.5,12100.5,15200.799999952316,16938.299999952316,23310.5,27156.5,29350.5,32940.39999997616,35760.39999997616,37442.5,40438.10000002384],"key_events":[],"mouse_events":[5010.699999928474,8400.299999952316,9938.5,11668.799999952316,12100.5,15200.799999952316,16938.299999952316,22710.600000023842,23310.5,27156.5,29046.199999928474,29350.5,32516.5,32940.39999997616,35176.699999928474,35760.39999997616,37442.5,40438.10000002384,40880.199999928474],"straightlining":0.5384615384615384,"zigzagging":0.3333333333333333,"honeypot":0,"survey":"bisbas","trial_type":"survey-template","trial_index":3,"time_elapsed":143626,"internal_node_id":"0.0-3.0","task_version":"prescreen-v0.3","browser_interactions":0,"infrequency":0},{"responses":{"Q01":"4","Q02":"3","Q03":"4"},"rt":12753.799999952316,"radio_events":[5159.200000047684,9213.100000023842,12161],"key_events":[],"mouse_events":[4605.399999976158,5159.200000047684,7883,8315.100000023842,8834.899999976158,9213.100000023842,12161,12752.899999976158],"survey":"map","page":1,"trial_type":"survey-map","trial_index":4,"time_elapsed":156387,"internal_node_id":"0.0-4.0","task_version":"prescreen-v0.3","browser_interactions":0},{"responses":{"Q04":"4","Q05":"3","Q06":"4"},"rt":7092.899999976158,"radio_events":[3366.5,5386.800000071526,6586.899999976158],"key_events":[],"mouse_events":[3366.5,5386.800000071526,6586.899999976158,7092.300000071526],"survey":"map","page":2,"trial_type":"survey-map","trial_index":5,"time_elapsed":163486,"internal_node_id":"0.0-5.0","task_version":"prescreen-v0.3","browser_interactions":0},{"responses":{"Q07":"4","Q08":"4","Q09":"3"},"rt":11202.5,"radio_events":[3637.399999976158,9567.5,10617.199999928474],"key_events":[],"mouse_events":[3637.399999976158,6699.399999976158,7244.199999928474,9567.5,10223.299999952316,10617.199999928474,11201.299999952316],"survey":"map","page":3,"trial_type":"survey-map","trial_index":6,"time_elapsed":174695,"internal_node_id":"0.0-6.0","task_version":"prescreen-v0.3","browser_interactions":0},{"responses":{"Q10":"3","Q11":"4","Q12":"3","Q13":"4","Q16":"0","Q14":"4","Q15":"4"},"rt":21975.800000071526,"radio_events":[3702.7000000476837,7498.800000071526,8597.100000023842,11168.800000071526,14236.5,17120.600000023842,19394.600000023842,21270.5],"key_events":[],"mouse_events":[3702.7000000476837,4726.600000023842,6032.600000023842,6514.700000047684,6882.800000071526,7498.800000071526,8597.100000023842,11168.800000071526,14236.5,17120.600000023842,19394.600000023842,20942.600000023842,21270.5,21974.600000023842],"survey":"map","page":4,"trial_type":"survey-map","trial_index":7,"time_elapsed":196677,"internal_node_id":"0.0-7.0","task_version":"prescreen-v0.3","browser_interactions":0,"infrequency":0},{"view_history":[{"page_index":0,"viewing_time":2862.2999999523163},{"page_index":1,"viewing_time":3210.899999976158}],"rt":6074.199999928474,"trial_type":"instructions","trial_index":8,"time_elapsed":202756,"internal_node_id":"0.0-8.0","task_version":"prescreen-v0.3"},{"responses":{"01":"No","02":"No","03":"No","04":"No","05":"No","06":"No"},"rt":14896.299999952316,"item_order":[0,1,2,3,4,5],"radio_events":[7052.099999904633,8051.399999976158,11121.799999952316,12153.199999928474,13659.099999904633,14485.5],"checkbox_events":[],"key_events":[],"mouse_events":[0.19999992847442627,7052.099999904633,8051.399999976158,11121.799999952316,12153.199999928474,13091.799999952316,13659.099999904633,14189.599999904633,14485.5,14893.299999952316],"honeypot":0,"survey":"mace","page":1,"trial_type":"survey-mace","trial_index":9,"time_elapsed":217661,"internal_node_id":"0.0-9.0","task_version":"prescreen-v0.3","browser_interactions":0},{"responses":{"01":"No","02":"No","03":"No","04":"No","05":"No","06":"No","07":"No","08":"No"},"rt":11038.5,"item_order":[0,1,2,3,4,5,6,7],"radio_events":[2719.899999976158,3986.100000023842,5596.100000023842,6260.100000023842,7142.5,8263.799999952316,9921.399999976158,10625.899999976158],"checkbox_events":[],"key_events":[],"mouse_events":[2399.6999999284744,2719.899999976158,3986.100000023842,5179.600000023842,5596.100000023842,6260.100000023842,7142.5,8263.799999952316,9383.600000023842,9921.399999976158,10625.899999976158,11034.100000023842],"honeypot":0,"survey":"mace","page":2,"trial_type":"survey-mace","trial_index":10,"time_elapsed":228709,"internal_node_id":"0.0-10.0","task_version":"prescreen-v0.3","browser_interactions":0},{"responses":{"01":"No","02":"No","03":"No","04":"No"},"rt":6886.199999928474,"item_order":[0,1,2,3],"radio_events":[3094.6999999284744,3920.5,5138.5,6508.5],"checkbox_events":[],"key_events":[],"mouse_events":[2550.899999976158,3094.6999999284744,3920.5,4666.899999976158,5138.5,6074.299999952316,6508.5,6884.299999952316],"honeypot":0,"survey":"mace","page":3,"trial_type":"survey-mace","trial_index":11,"time_elapsed":235604,"internal_node_id":"0.0-11.0","task_version":"prescreen-v0.3","browser_interactions":0},{"responses":{"01":"No","02":"No"},"rt":3317,"item_order":[0,1],"radio_events":[1937.5,2265.0999999046326],"checkbox_events":[],"key_events":[],"mouse_events":[1937.5,2265.0999999046326,3315.7999999523163],"honeypot":0,"survey":"mace","page":4,"trial_type":"survey-mace","trial_index":12,"time_elapsed":238927,"internal_node_id":"0.0-12.0","task_version":"prescreen-v0.3","browser_interactions":0},{"responses":{"01":"No","02":"No","03":"No","04":"No","05":"No"},"rt":12290.899999976158,"item_order":[0,1,2,3,4],"radio_events":[7408,8450.399999976158,9860.100000023842,11301.799999952316,11869.600000023842],"checkbox_events":[],"key_events":[],"mouse_events":[4332,4757.899999976158,6056,7408,8450.399999976158,9331.600000023842,9860.100000023842,11301.799999952316,11869.600000023842,12288.399999976158],"honeypot":0,"survey":"mace","page":5,"trial_type":"survey-mace","trial_index":13,"time_elapsed":251227,"internal_node_id":"0.0-13.0","task_version":"prescreen-v0.3","browser_interactions":0},{"responses":{"01":"No","02":"No","03":"No","04":"No","05":"No"},"rt":19083.200000047684,"item_order":[0,1,2,3,4],"radio_events":[8007,15072.800000071526,16315,17028.800000071526,18630.899999976158],"checkbox_events":[],"key_events":[],"mouse_events":[6732.899999976158,8007,12366.300000071526,15072.800000071526,15578.200000047684,16315,17028.800000071526,18630.899999976158,19078.800000071526],"honeypot":0,"survey":"mace","page":6,"trial_type":"survey-mace","trial_index":14,"time_elapsed":270321,"internal_node_id":"0.0-14.0","task_version":"prescreen-v0.3","browser_interactions":0},{"responses":{"01":"No","02":"No","03":"No","04":"No","05":"No","06":"No","07":"No"},"rt":10276.700000047684,"item_order":[0,1,2,3,4,5,6],"radio_events":[3752.9000000953674,4865.100000023842,5322.900000095367,6267,6844.900000095367,8526.800000071526,9662.300000071526],"checkbox_events":[],"key_events":[],"mouse_events":[3752.9000000953674,4160.900000095367,4865.100000023842,5322.900000095367,5794.700000047684,6267,6844.900000095367,7764.5,8526.800000071526,9662.300000071526,10273.200000047684],"honeypot":0,"survey":"mace","page":7,"trial_type":"survey-mace","trial_index":15,"time_elapsed":280607,"internal_node_id":"0.0-15.0","task_version":"prescreen-v0.3","browser_interactions":0},{"responses":{"01":"No","02":"No","03":"No","04":"No"},"rt":44989.59999990463,"item_order":[0,1,2,3],"radio_events":[1597.2999999523163,3055.6999999284744,43585.5,44571.09999990463],"checkbox_events":[],"key_events":[],"mouse_events":[1597.2999999523163,3055.6999999284744,3743.399999976158,43585.5,44571.09999990463,44987.59999990463],"honeypot":0,"survey":"mace","page":8,"trial_type":"survey-mace","trial_index":16,"time_elapsed":325605,"internal_node_id":"0.0-16.0","task_version":"prescreen-v0.3","browser_interactions":0},{"responses":{"01":"Yes","01_ages_1":"1","01_ages_2":"2","01_ages_3":"3","01_ages_4":"4","01_ages_5":"5","01_ages_6":"6","01_ages_7":"7","01_ages_8":"8","01_ages_9":"9","01_ages_10":"10","01_ages_11":"11","01_ages_12":"12","01_ages_13":"13","01_ages_14":"14","01_ages_15":"15","01_ages_16":"16","01_ages_17":"17","01_ages_18":"18","02":"Yes","02_ages_1":"1","02_ages_2":"2","02_ages_3":"3","02_ages_4":"4","02_ages_5":"5","02_ages_6":"6","02_ages_7":"7","02_ages_8":"8","02_ages_9":"9","02_ages_10":"10","02_ages_11":"11","02_ages_12":"12","02_ages_13":"13","02_ages_14":"14","02_ages_15":"15","02_ages_16":"16","02_ages_17":"17","02_ages_18":"18","03":"Yes","03_ages_1":"1","03_ages_2":"2","03_ages_3":"3","03_ages_4":"4","03_ages_5":"5","03_ages_6":"6","03_ages_7":"7","03_ages_8":"8","03_ages_9":"9","03_ages_10":"10","03_ages_11":"11","03_ages_12":"12","03_ages_13":"13","03_ages_14":"14","03_ages_15":"15","03_ages_16":"16","03_ages_17":"17","03_ages_18":"18","04":"No"},"rt":72803.80000007153,"item_order":[0,1,2,3],"radio_events":[2247.3000000715256,33809,58911.200000047684,60049.10000002384],"checkbox_events":[6791.400000095367,7359.300000071526,8130.300000071526,10829.300000071526,11260.900000095367,11989,13015.300000071526,13439.200000047684,13801.300000071526,14217.300000071526,14577.300000071526,14977.300000071526,16011.600000023842,16618.800000071526,17021.5,17412.800000071526,17982.900000095367,18431.300000071526,35050.90000009537,35779.200000047684,36245.10000002384,37037,37974.800000071526,38535.700000047684,39457.10000002384,39921,40353.60000002384,40883.200000047684,41363.300000071526,42492.60000002384,43149.90000009537,47133.200000047684,48727.10000002384,49413.800000071526,49863.300000071526,50609.10000002384,60841.10000002384,61428.700000047684,61867.10000002384,62692.700000047684,63484.800000071526,64037.10000002384,64767.5,65143,65585.10000002384,65984.90000009537,66425.10000002384,66928.90000009537,68170.90000009537,68645.20000004768,69533,70327.30000007153,71103.10000002384,71985.5],"key_events":[],"mouse_events":[2247.3000000715256,6367.800000071526,6791.400000095367,7359.300000071526,8130.300000071526,8705.100000023842,9699.400000095367,10829.300000071526,11260.900000095367,11654.5,11989,12494.800000071526,13015.300000071526,13439.200000047684,13801.300000071526,14217.300000071526,14577.300000071526,14977.300000071526,15611.100000023842,16011.600000023842,16618.800000071526,17021.5,17412.800000071526,17982.900000095367,18431.300000071526,33809,35050.90000009537,35379.10000002384,35779.200000047684,36245.10000002384,36708.800000071526,37037,37461,37974.800000071526,38535.700000047684,38983,39457.10000002384,39921,40353.60000002384,40883.200000047684,41363.300000071526,41795.300000071526,42492.60000002384,43149.90000009537,47133.200000047684,47533.10000002384,48036.700000047684,48391.10000002384,48727.10000002384,49413.800000071526,49863.300000071526,50609.10000002384,58911.200000047684,60049.10000002384,60841.10000002384,61428.700000047684,61867.10000002384,62692.700000047684,63484.800000071526,64037.10000002384,64375.300000071526,64767.5,65143,65585.10000002384,65984.90000009537,66425.10000002384,66928.90000009537,68170.90000009537,68645.20000004768,69213.10000002384,69533,69933.10000002384,70327.30000007153,70791.10000002384,71103.10000002384,71985.5,72801.90000009537],"honeypot":0,"survey":"mace","page":9,"trial_type":"survey-mace","trial_index":17,"time_elapsed":398417,"internal_node_id":"0.0-17.0","task_version":"prescreen-v0.3","browser_interactions":0},{"responses":{"01":"No","02":"No","03":"No","04":"No","05":"No","06":"Yes","06_ages_17":"17","07":"Yes","07_ages_1":"1","07_ages_2":"2","07_ages_3":"3","07_ages_4":"4","07_ages_5":"5","07_ages_6":"6","07_ages_7":"7","07_ages_8":"8","07_ages_9":"9","07_ages_10":"10","07_ages_11":"11","07_ages_12":"12","07_ages_13":"13","07_ages_14":"14","07_ages_15":"15","07_ages_16":"16","07_ages_17":"17","07_ages_18":"18","08":"Yes","08_ages_1":"1","08_ages_2":"2","08_ages_3":"3","08_ages_4":"4","08_ages_5":"5","08_ages_6":"6","08_ages_7":"7","08_ages_8":"8","08_ages_9":"9","08_ages_10":"10","08_ages_11":"11","08_ages_12":"12","08_ages_13":"13","08_ages_14":"14","08_ages_15":"15","08_ages_16":"16","08_ages_17":"17","08_ages_18":"18"},"rt":116986.10000002384,"item_order":[0,1,2,3,4,5,6,7],"radio_events":[13952.400000095367,14824.800000071526,16796.800000071526,76260.5,77404.30000007153,78502.5,82196.80000007153,83974.60000002384,103700.60000002384],"checkbox_events":[79744.5,85376.60000002384,86666.40000009537,87282.5,87698.40000009537,88196.30000007153,93494.20000004768,93910.30000007153,94592.5,94936.60000002384,95344.40000009537,96034.5,97388.40000009537,97772.30000007153,98428.40000009537,98886.30000007153,99318.40000009537,100262.90000009537,100896.5,104734.5,105150,106800.60000002384,107240.30000007153,107770.70000004768,108450.20000004768,109332.60000002384,111046.5,111486.10000002384,111982.90000009537,112568.60000002384,113216.60000002384,113634.20000004768,114034.5,115130.30000007153,115588.5,116116.30000007153,116572.60000002384],"key_events":[],"mouse_events":[13952.400000095367,14824.800000071526,15426.700000047684,16796.800000071526,76260.5,77404.30000007153,78502.5,79744.5,82196.80000007153,83276.30000007153,83974.60000002384,84998.60000002384,85376.60000002384,85776.5,86666.40000009537,87282.5,87698.40000009537,88196.30000007153,93494.20000004768,93910.30000007153,94592.5,94936.60000002384,95344.40000009537,96034.5,96490.60000002384,97388.40000009537,97772.30000007153,98124.10000002384,98428.40000009537,98886.30000007153,99318.40000009537,99815.10000002384,100262.90000009537,100896.5,103700.60000002384,104734.5,105150,105694.40000009537,106312.60000002384,106800.60000002384,107240.30000007153,107770.70000004768,108123.90000009537,108450.20000004768,109332.60000002384,111046.5,111486.10000002384,111982.90000009537,112568.60000002384,113216.60000002384,113634.20000004768,114034.5,114586.70000004768,115130.30000007153,115588.5,116116.30000007153,116572.60000002384,116982.10000002384],"honeypot":0,"survey":"mace","page":10,"trial_type":"survey-mace","trial_index":18,"time_elapsed":515414,"internal_node_id":"0.0-18.0","task_version":"prescreen-v0.3","browser_interactions":0,"instructed":0},{"rt":11587.5,"trial_type":"mental-health-alert","trial_index":19,"time_elapsed":527008,"internal_node_id":"0.0-19.0","task_version":"prescreen-v0.3","interactions":"[]"}]