[{"view_history":[{"page_index":0,"viewing_time":95703},{"page_index":1,"viewing_time":888},{"page_index":2,"viewing_time":754},{"page_index":3,"viewing_time":1084}],"rt":98430,"trial_type":"instructions","trial_index":0,"time_elapsed":98434,"internal_node_id":"0.0-0.0","task_version":"prescreen-v0.3"},{"rt":17316,"responses":{"age":"45","gender-categorical":"Male","gender-free-response":"","ethnicity":"Not Hispanic or Latino","race":["White"],"education":"Master degree or higher"},"trial_type":"survey-demo","trial_index":1,"time_elapsed":115764,"internal_node_id":"0.0-1.0","task_version":"prescreen-v0.3"},{"responses":{"Q17":"1","Q09":"0","Q05":"1","Q19":"0","Q20":"1","Q11":"0","Q06":"1","Q14":"1","Q01":"0","Q07":"1","Q03":"0","Q21":"1","Q08":"0","Q10":"1","Q16":"1","Q02":"0","Q12":"1","Q18":"0","Q04":"1","Q15":"0","Q13":"1"},"rt":211649,"item_order":[16,8,4,18,19,10,5,13,0,6,2,20,7,9,15,1,11,17,3,14,12],"radio_events":[183757,184950,186915,187826,188567,189375,190144,191237,193562,194631,195628,196541,197776,199535,200337,201735,202624,204047,205217,206081,207065,207952],"key_events":[],"mouse_events":[182907,183757,184950,186915,187826,188567,189375,190144,191237,193562,194631,195628,196541,197776,198812,199535,200337,201735,202624,204047,205217,206081,207065,207952,211648],"straightlining":0.5714285714285714,"zigzagging":0.9,"honeypot":0,"survey":"sns","trial_type":"survey-template","trial_index":2,"time_elapsed":327421,"internal_node_id":"0.0-2.0","task_version":"prescreen-v0.3","browser_interactions":2,"infrequency":1},{"responses":{"Q01":"2","Q04":"2","Q05":"2","Q12":"3","Q11":"2","Q07":"2","Q13":"2","Q02":"2","Q09":"3","Q08":"2","Q03":"2","Q10":"2","Q06":"2"},"rt":79812,"item_order":[0,3,4,11,10,6,12,1,8,7,2,9,5],"radio_events":[43971,44451,67441,68902,69743,70898,71362,72862,74151,74820,75301,77540,78587],"key_events":[],"mouse_events":[43507,43971,44451,45292,67441,68022,68902,69743,70253,70898,71362,72862,73704,74151,74820,75301,75779,76823,77540,78587,79812],"straightlining":0.8461538461538461,"zigzagging":0.3333333333333333,"honeypot":0,"survey":"bisbas","trial_type":"survey-template","trial_index":3,"time_elapsed":407238,"internal_node_id":"0.0-3.0","task_version":"prescreen-v0.3","browser_interactions":6,"infrequency":1},{"responses":{"Q01":"2","Q02":"2","Q03":"1"},"rt":23977,"radio_events":[16533,17697,18859],"key_events":[],"mouse_events":[16533,17697,18859,23977],"survey":"map","page":1,"trial_type":"survey-map","trial_index":4,"time_elapsed":431219,"internal_node_id":"0.0-4.0","task_version":"prescreen-v0.3","browser_interactions":2},{"responses":{"Q04":"1","Q05":"2","Q06":"1"},"rt":18618,"radio_events":[14876,15984,17541],"key_events":[],"mouse_events":[14876,15984,17541,18618],"survey":"map","page":2,"trial_type":"survey-map","trial_index":5,"time_elapsed":449839,"internal_node_id":"0.0-5.0","task_version":"prescreen-v0.3","browser_interactions":2},{"responses":{"Q07":"2","Q08":"1","Q09":"2"},"rt":34249,"radio_events":[11929,31204,32731],"key_events":[],"mouse_events":[11929,30269,31204,32731,34249],"survey":"map","page":3,"trial_type":"survey-map","trial_index":6,"time_elapsed":484091,"internal_node_id":"0.0-6.0","task_version":"prescreen-v0.3","browser_interactions":4},{"responses":{"Q10":"2","Q11":"3","Q12":"2","Q13":"3","Q16":"2","Q14":"2","Q15":"2"},"rt":36927,"radio_events":[24751,27683,28971,30701,31566,34042,34938],"key_events":[],"mouse_events":[24751,27683,28971,30701,31566,32965,34042,34938,36927],"survey":"map","page":4,"trial_type":"survey-map","trial_index":7,"time_elapsed":521022,"internal_node_id":"0.0-7.0","task_version":"prescreen-v0.3","browser_interactions":2,"infrequency":1},{"view_history":[{"page_index":0,"viewing_time":7600},{"page_index":1,"viewing_time":10769}],"rt":18369,"trial_type":"instructions","trial_index":8,"time_elapsed":539392,"internal_node_id":"0.0-8.0","task_version":"prescreen-v0.3"},{"responses":{"01":"Yes","01_ages_10":"10","01_ages_14":"14","02":"No","03":"No","04":"No","05":"No","06":"No"},"rt":52525,"item_order":[0,1,2,3,4,5],"radio_events":[28654,32615,45375,46193,47569,49196,49879],"checkbox_events":[39628,41986],"key_events":[],"mouse_events":[0,28654,32615,39628,41986,45375,46193,46901,47569,49196,49879,52524],"honeypot":0,"survey":"mace","page":1,"trial_type":"survey-mace","trial_index":9,"time_elapsed":591930,"internal_node_id":"0.0-9.0","task_version":"prescreen-v0.3","browser_interactions":2},{"responses":{"01":"No","02":"No","03":"No","04":"No","05":"No","06":"Yes","06_ages_14":"14","06_ages_15":"15","06_ages_16":"16","07":"No","08":"No"},"rt":59736,"item_order":[0,1,2,3,4,5,6,7],"radio_events":[39485,40215,43172,45161,47309,51662,58062,58817],"checkbox_events":[53016,55175,56395],"key_events":[],"mouse_events":[39485,40215,43172,45161,47309,51662,53016,55175,56395,58062,58817,59736],"honeypot":0,"survey":"mace","page":2,"trial_type":"survey-mace","trial_index":10,"time_elapsed":651674,"internal_node_id":"0.0-10.0","task_version":"prescreen-v0.3","browser_interactions":2},{"responses":{"01":"No","02":"No","03":"Yes","03_ages_15":"15","04":"No"},"rt":120343,"item_order":[0,1,2,3],"radio_events":[109647,110433,113528,119486],"checkbox_events":[116844],"key_events":[],"mouse_events":[108357,109647,110433,113528,115351,115814,116844,119486,120343],"honeypot":0,"survey":"mace","page":3,"trial_type":"survey-mace","trial_index":11,"time_elapsed":772022,"internal_node_id":"0.0-11.0","task_version":"prescreen-v0.3","browser_interactions":2},{"responses":{"01":"No","02":"No"},"rt":19960,"item_order":[0,1],"radio_events":[18348,19156],"checkbox_events":[],"key_events":[],"mouse_events":[18348,19156,19959],"honeypot":0,"survey":"mace","page":4,"trial_type":"survey-mace","trial_index":12,"time_elapsed":791987,"internal_node_id":"0.0-12.0","task_version":"prescreen-v0.3","browser_interactions":2},{"responses":{"01":"Yes","01_ages_11":"11","01_ages_12":"12","01_ages_13":"13","02":"No","03":"No","04":"No","05":"No"},"rt":51255,"item_order":[0,1,2,3,4],"radio_events":[38216,46789,47662,49492,50231],"checkbox_events":[41407,42758,44047],"key_events":[],"mouse_events":[38216,40755,41407,42246,42758,44047,46789,47662,48746,49492,50231,51255],"honeypot":0,"survey":"mace","page":5,"trial_type":"survey-mace","trial_index":13,"time_elapsed":843249,"internal_node_id":"0.0-13.0","task_version":"prescreen-v0.3","browser_interactions":2},{"responses":{"01":"Yes","01_ages_12":"12","01_ages_13":"13","02":"No","03":"Yes","03_ages_14":"14","03_ages_15":"15","03_ages_16":"16","04":"No","05":"No"},"rt":43138,"item_order":[0,1,2,3,4],"radio_events":[24214,28264,34749,40252,41037],"checkbox_events":[25463,26564,36204,37494,38004],"key_events":[],"mouse_events":[23695,24214,25463,26030,26564,28264,34749,36204,37494,38004,39599,40252,41037,43138],"honeypot":0,"survey":"mace","page":6,"trial_type":"survey-mace","trial_index":14,"time_elapsed":886393,"internal_node_id":"0.0-14.0","task_version":"prescreen-v0.3","browser_interactions":2},{"responses":{"01":"No","02":"No","03":"No","04":"No","05":"No","06":"No","07":"No"},"rt":32447,"item_order":[0,1,2,3,4,5,6],"radio_events":[24422,25609,26473,28477,29349,30262,31205],"checkbox_events":[],"key_events":[],"mouse_events":[24422,24940,25609,26473,27032,28477,29349,30262,31205,32447],"honeypot":0,"survey":"mace","page":7,"trial_type":"survey-mace","trial_index":15,"time_elapsed":918851,"internal_node_id":"0.0-15.0","task_version":"prescreen-v0.3","browser_interactions":2},{"responses":{"01":"No","02":"No","03":"No","04":"No"},"rt":34426,"item_order":[0,1,2,3],"radio_events":[30510,31219,32334,33677],"checkbox_events":[],"key_events":[],"mouse_events":[30510,31219,32334,32900,33677,34426],"honeypot":0,"survey":"mace","page":8,"trial_type":"survey-mace","trial_index":16,"time_elapsed":953284,"internal_node_id":"0.0-16.0","task_version":"prescreen-v0.3","browser_interactions":2},{"responses":{"01":"Yes","01_ages_12":"12","01_ages_13":"13","02":"Yes","02_ages_12":"12","02_ages_13":"13","02_ages_14":"14","03":"Yes","03_ages_12":"12","03_ages_13":"13","03_ages_14":"14","04":"Yes","04_ages_15":"15"},"rt":73017,"item_order":[0,1,2,3],"radio_events":[47590,54908,61618,68896],"checkbox_events":[49054,49562,56698,57264,57799,63080,63552,65062,71491],"key_events":[],"mouse_events":[47590,49054,49562,54908,56698,57264,57799,61618,63080,63552,63939,65062,68896,71491,73017],"honeypot":0,"survey":"mace","page":9,"trial_type":"survey-mace","trial_index":17,"time_elapsed":1026308,"internal_node_id":"0.0-17.0","task_version":"prescreen-v0.3","browser_interactions":2},{"responses":{"01":"No","02":"No","03":"Yes","03_ages_16":"16","03_ages_17":"17","03_ages_18":"18","04":"Yes","04_ages_17":"17","04_ages_18":"18","05":"No","06":"Yes","06_ages_17":"17","07":"Yes","07_ages_13":"13","07_ages_14":"14","07_ages_15":"15","07_ages_16":"16","07_ages_17":"17","07_ages_18":"18","08":"Yes","08_ages_11":"11","08_ages_12":"12","08_ages_13":"13","08_ages_14":"14","08_ages_15":"15","08_ages_16":"16","08_ages_17":"17","08_ages_18":"18"},"rt":111913,"item_order":[0,1,2,3,4,5,6,7],"radio_events":[59959,60880,69449,79161,86214,88527,94967,103593],"checkbox_events":[70646,71220,72061,80379,80946,89832,97452,97932,98474,98993,99513,100181,106110,106566,107069,107596,108634,109137,109774,110575],"key_events":[],"mouse_events":[59959,60880,69449,70646,71220,72061,79161,80379,80946,86214,88527,89832,94967,95833,96321,96799,97452,97932,98474,98993,99513,100181,103593,106110,106566,107069,107596,108090,108634,109137,109774,110575,111913],"honeypot":0,"survey":"mace","page":10,"trial_type":"survey-mace","trial_index":18,"time_elapsed":1138232,"internal_node_id":"0.0-18.0","task_version":"prescreen-v0.3","browser_interactions":2,"instructed":0},{"rt":20648,"trial_type":"mental-health-alert","trial_index":19,"time_elapsed":1158882,"internal_node_id":"0.0-19.0","task_version":"prescreen-v0.3","interactions":"[{\"event\":\"focus\",\"trial\":0,\"time\":94300},{\"event\":\"blur\",\"trial\":1,\"time\":110064},{\"event\":\"focus\",\"trial\":1,\"time\":114534},{\"event\":\"blur\",\"trial\":2,\"time\":117433},{\"event\":\"focus\",\"trial\":2,\"time\":294754},{\"event\":\"blur\",\"trial\":3,\"time\":329058},{\"event\":\"focus\",\"trial\":3,\"time\":360532},{\"event\":\"blur\",\"trial\":3,\"time\":362193},{\"event\":\"focus\",\"trial\":3,\"time\":364198},{\"event\":\"blur\",\"trial\":3,\"time\":375297},{\"event\":\"focus\",\"trial\":3,\"time\":393293},{\"event\":\"blur\",\"trial\":4,\"time\":409827},{\"event\":\"focus\",\"trial\":4,\"time\":422147},{\"event\":\"blur\",\"trial\":5,\"time\":432669},{\"event\":\"focus\",\"trial\":5,\"time\":444499},{\"event\":\"blur\",\"trial\":6,\"time\":453043},{\"event\":\"focus\",\"trial\":6,\"time\":460402},{\"event\":\"blur\",\"trial\":6,\"time\":462844},{\"event\":\"focus\",\"trial\":6,\"time\":478085},{\"event\":\"blur\",\"trial\":7,\"time\":485481},{\"event\":\"focus\",\"trial\":7,\"time\":506624},{\"event\":\"blur\",\"trial\":8,\"time\":522874},{\"event\":\"focus\",\"trial\":8,\"time\":527503},{\"event\":\"blur\",\"trial\":8,\"time\":529809},{\"event\":\"focus\",\"trial\":8,\"time\":538315},{\"event\":\"blur\",\"trial\":9,\"time\":540699},{\"event\":\"focus\",\"trial\":9,\"time\":565890},{\"event\":\"blur\",\"trial\":10,\"time\":594995},{\"event\":\"focus\",\"trial\":10,\"time\":628341},{\"event\":\"blur\",\"trial\":11,\"time\":653691},{\"event\":\"focus\",\"trial\":11,\"time\":757232},{\"event\":\"blur\",\"trial\":12,\"time\":774488},{\"event\":\"focus\",\"trial\":12,\"time\":789308},{\"event\":\"blur\",\"trial\":13,\"time\":793726},{\"event\":\"focus\",\"trial\":13,\"time\":825019},{\"event\":\"blur\",\"trial\":14,\"time\":844301},{\"event\":\"focus\",\"trial\":14,\"time\":864964},{\"event\":\"blur\",\"trial\":15,\"time\":888003},{\"event\":\"focus\",\"trial\":15,\"time\":908926},{\"event\":\"blur\",\"trial\":16,\"time\":920110},{\"event\":\"focus\",\"trial\":16,\"time\":947970},{\"event\":\"blur\",\"trial\":17,\"time\":954366},{\"event\":\"focus\",\"trial\":17,\"time\":998703},{\"event\":\"blur\",\"trial\":18,\"time\":1027692},{\"event\":\"focus\",\"trial\":18,\"time\":1083420},{\"event\":\"blur\",\"trial\":19,\"time\":1145025},{\"event\":\"focus\",\"trial\":19,\"time\":1156962}]"}]