[{"view_history":[{"page_index":0,"viewing_time":7247},{"page_index":1,"viewing_time":3884},{"page_index":2,"viewing_time":4352},{"page_index":3,"viewing_time":1136}],"rt":16621,"trial_type":"instructions","trial_index":0,"time_elapsed":16856,"internal_node_id":"0.0-0.0","task_version":"prescreen-v0.3"},{"rt":20162,"responses":{"age":"49","gender-categorical":"Male","gender-free-response":"","ethnicity":"Not Hispanic or Latino","race":["Black or African American"],"education":"Bachelor degree","siblings":"5"},"trial_type":"survey-demo","trial_index":1,"time_elapsed":37040,"internal_node_id":"0.0-1.0","task_version":"prescreen-v0.3"},{"responses":{"Q19":"0","Q15":"0","Q04":"2","Q07":"1","Q05":"0","Q21":"3","Q14":"0","Q16":"0","Q10":"0","Q11":"2","Q18":"0","Q13":"0","Q20":"0","Q06":"0","Q17":"2","Q03":"2","Q08":"1","Q09":"0","Q02":"2","Q12":"1","Q01":"2"},"rt":145779,"item_order":[18,14,3,6,4,20,13,15,9,10,17,12,19,5,16,2,7,8,1,11,0],"radio_events":[7207,36263,39399,49247,55735,63695,65802,68824,73167,75486,79374,84119,87499,90719,94735,100887,104415,109911,118655,134959,137071,141991,144743],"key_events":[],"mouse_events":[6232,7207,34744,36263,39399,49247,54895,55735,63695,65802,68824,73167,75486,79374,84119,86896,87499,90719,94735,100887,104415,109911,118655,134959,136463,137071,141991,144743,145775],"straightlining":0.5238095238095238,"zigzagging":0.4,"honeypot":0,"survey":"sns","trial_type":"survey-template","trial_index":2,"time_elapsed":182855,"internal_node_id":"0.0-2.0","task_version":"prescreen-v0.3","browser_interactions":0,"infrequency":0},{"responses":{"Q08":"2","Q07":"3","Q05":"3","Q04":"2","Q09":"2","Q12":"2","Q06":"2","Q10":"2","Q01":"1","Q02":"1","Q11":"2","Q03":"1","Q13":"0"},"rt":40894,"item_order":[7,6,4,3,8,11,5,9,0,1,10,2,12],"radio_events":[5244,6212,8348,17980,20268,21804,23916,26468,30556,31668,34028,37108,39876],"key_events":[],"mouse_events":[4100,5244,6212,8348,17980,20268,21804,23916,26468,30556,31668,34028,37108,39180,39876,40892],"straightlining":0.5384615384615384,"zigzagging":0.5,"honeypot":0,"survey":"bisbas","trial_type":"survey-template","trial_index":3,"time_elapsed":223762,"internal_node_id":"0.0-3.0","task_version":"prescreen-v0.3","browser_interactions":0,"infrequency":0},{"responses":{"Q01":"1","Q02":"0","Q03":"2"},"rt":76723,"radio_events":[8410,12626,25338,76050],"key_events":[],"mouse_events":[8410,12626,25338,76050,76722],"survey":"map","page":1,"trial_type":"survey-map","trial_index":4,"time_elapsed":300495,"internal_node_id":"0.0-4.0","task_version":"prescreen-v0.3","browser_interactions":0},{"responses":{"Q04":"3","Q05":"3","Q06":"3"},"rt":39653,"radio_events":[23429,31261,34069,35133,37501,38660],"key_events":[],"mouse_events":[23429,31261,34069,35133,37501,38660,39652],"survey":"map","page":2,"trial_type":"survey-map","trial_index":5,"time_elapsed":340159,"internal_node_id":"0.0-5.0","task_version":"prescreen-v0.3","browser_interactions":0},{"responses":{"Q07":"3","Q08":"0","Q09":"3"},"rt":26944,"radio_events":[8583,9791,15119,19862],"key_events":[],"mouse_events":[8583,9791,13039,15119,19862,26943],"survey":"map","page":3,"trial_type":"survey-map","trial_index":6,"time_elapsed":367111,"internal_node_id":"0.0-6.0","task_version":"prescreen-v0.3","browser_interactions":0},{"responses":{"Q10":"1","Q11":"1","Q12":"1","Q13":"1","Q16":"0","Q14":"4","Q15":"4"},"rt":36176,"radio_events":[5951,7502,13382,21766,25870,29670,35374],"key_events":[],"mouse_events":[5951,7502,13382,21766,25870,29670,35374,36174],"survey":"map","page":4,"trial_type":"survey-map","trial_index":7,"time_elapsed":403296,"internal_node_id":"0.0-7.0","task_version":"prescreen-v0.3","browser_interactions":0,"infrequency":0},{"view_history":[{"page_index":0,"viewing_time":2613},{"page_index":1,"viewing_time":3016}],"rt":5630,"trial_type":"instructions","trial_index":8,"time_elapsed":408934,"internal_node_id":"0.0-8.0","task_version":"prescreen-v0.3"},{"responses":{"01":"No","02":"Yes","02_ages_10":"10","02_ages_11":"11","02_ages_12":"12","03":"No","04":"No","05":"No","06":"No"},"rt":55449,"item_order":[0,1,2,3,4,5],"radio_events":[9972,11236,25228,48819,50219,51764,54139],"checkbox_events":[34909,35683,36483,38443,45795],"key_events":[],"mouse_events":[0,4802,9972,11236,25228,34909,35683,36483,38443,45795,48819,50219,51764,54139,55444],"honeypot":0,"survey":"mace","page":1,"trial_type":"survey-mace","trial_index":9,"time_elapsed":464397,"internal_node_id":"0.0-9.0","task_version":"prescreen-v0.3","browser_interactions":0},{"responses":{"01":"No","02":"No","03":"Yes","03_ages_2":"2","03_ages_3":"3","03_ages_4":"4","03_ages_5":"5","03_ages_6":"6","03_ages_7":"7","03_ages_8":"8","03_ages_9":"9","03_ages_10":"10","03_ages_11":"11","04":"No","05":"Yes","05_ages_2":"2","05_ages_3":"3","05_ages_4":"4","05_ages_5":"5","05_ages_6":"6","05_ages_7":"7","05_ages_8":"8","05_ages_9":"9","05_ages_10":"10","05_ages_11":"11","06":"No","07":"No","08":"No"},"rt":48709,"item_order":[0,1,2,3,4,5,6,7],"radio_events":[6461,7982,10357,27221,32253,44877,45932,47981],"checkbox_events":[15622,16717,17326,18133,18732,19973,21077,21661,22357,23309,34261,35117,35821,36525,37501,38269,39037,39581,40485,41541],"key_events":[],"mouse_events":[6461,7982,10357,15622,16221,16717,17326,18133,18732,19973,20509,21077,21661,22357,23309,27221,30893,32253,34261,35117,35821,36525,37501,38269,39037,39581,40485,41109,41541,44877,45932,47981,48702],"honeypot":0,"survey":"mace","page":2,"trial_type":"survey-mace","trial_index":10,"time_elapsed":513123,"internal_node_id":"0.0-10.0","task_version":"prescreen-v0.3","browser_interactions":0},{"responses":{"01":"No","02":"No","03":"No","04":"No"},"rt":13046,"item_order":[0,1,2,3],"radio_events":[3859,6939,8611,11547],"checkbox_events":[],"key_events":[],"mouse_events":[3859,6939,8611,11547,13043],"honeypot":0,"survey":"mace","page":3,"trial_type":"survey-mace","trial_index":11,"time_elapsed":526187,"internal_node_id":"0.0-11.0","task_version":"prescreen-v0.3","browser_interactions":0},{"responses":{"01":"No","02":"No"},"rt":6844,"item_order":[0,1],"radio_events":[3978,5738],"checkbox_events":[],"key_events":[],"mouse_events":[3978,5738,6842],"honeypot":0,"survey":"mace","page":4,"trial_type":"survey-mace","trial_index":12,"time_elapsed":533041,"internal_node_id":"0.0-12.0","task_version":"prescreen-v0.3","browser_interactions":0},{"responses":{"01":"No","02":"No","03":"No","04":"No","05":"No"},"rt":18833,"item_order":[0,1,2,3,4],"radio_events":[3164,4764,7228,9644,12860],"checkbox_events":[],"key_events":[],"mouse_events":[3164,4764,7228,9644,12860,18828],"honeypot":0,"survey":"mace","page":5,"trial_type":"survey-mace","trial_index":13,"time_elapsed":551883,"internal_node_id":"0.0-13.0","task_version":"prescreen-v0.3","browser_interactions":0},{"responses":{"01":"Yes","01_ages_9":"9","01_ages_10":"10","01_ages_11":"11","01_ages_12":"12","01_ages_13":"13","02":"Yes","02_ages_9":"9","02_ages_10":"10","02_ages_11":"11","02_ages_12":"12","02_ages_13":"13","03":"No","04":"No","05":"No"},"rt":48686,"item_order":[0,1,2,3,4],"radio_events":[11977,15585,30353,41233,43721,47505],"checkbox_events":[22441,23289,23761,24249,25329,33960,34561,35465,36313,37697],"key_events":[],"mouse_events":[11977,15585,22441,23289,23761,24249,25329,29353,30353,33960,34561,35465,36313,37697,41233,43721,47505,48682],"honeypot":0,"survey":"mace","page":6,"trial_type":"survey-mace","trial_index":14,"time_elapsed":600581,"internal_node_id":"0.0-14.0","task_version":"prescreen-v0.3","browser_interactions":0},{"responses":{"01":"No","02":"No","03":"No","04":"No","05":"No","06":"No","07":"No"},"rt":17910,"item_order":[0,1,2,3,4,5,6],"radio_events":[3527,4679,6743,8207,10575,12512,15231],"checkbox_events":[],"key_events":[],"mouse_events":[3527,4679,6743,8207,10575,12512,15231,17904],"honeypot":0,"survey":"mace","page":7,"trial_type":"survey-mace","trial_index":15,"time_elapsed":618503,"internal_node_id":"0.0-15.0","task_version":"prescreen-v0.3","browser_interactions":0},{"responses":{"01":"No","02":"No","03":"No","04":"No"},"rt":23651,"item_order":[0,1,2,3],"radio_events":[6503,13303,16439,19543],"checkbox_events":[],"key_events":[],"mouse_events":[6503,13303,16439,19543,23647],"honeypot":0,"survey":"mace","page":8,"trial_type":"survey-mace","trial_index":16,"time_elapsed":642163,"internal_node_id":"0.0-16.0","task_version":"prescreen-v0.3","browser_interactions":0},{"responses":{"01":"Yes","01_ages_1":"1","01_ages_2":"2","01_ages_3":"3","01_ages_4":"4","01_ages_5":"5","01_ages_6":"6","01_ages_7":"7","01_ages_8":"8","01_ages_9":"9","01_ages_10":"10","01_ages_11":"11","01_ages_12":"12","01_ages_13":"13","01_ages_14":"14","01_ages_15":"15","01_ages_16":"16","01_ages_17":"17","01_ages_18":"18","02":"Yes","02_ages_1":"1","02_ages_2":"2","02_ages_3":"3","02_ages_4":"4","02_ages_5":"5","02_ages_6":"6","02_ages_7":"7","02_ages_8":"8","02_ages_9":"9","02_ages_10":"10","02_ages_11":"11","02_ages_12":"12","02_ages_13":"13","02_ages_14":"14","02_ages_15":"15","02_ages_16":"16","02_ages_17":"17","02_ages_18":"18","03":"Yes","03_ages_1":"1","03_ages_2":"2","03_ages_3":"3","03_ages_4":"4","03_ages_5":"5","03_ages_6":"6","03_ages_7":"7","03_ages_8":"8","03_ages_9":"9","03_ages_10":"10","03_ages_11":"11","03_ages_12":"12","03_ages_13":"13","03_ages_14":"14","03_ages_15":"15","03_ages_16":"16","03_ages_17":"17","03_ages_18":"18","04":"Yes","04_ages_1":"1","04_ages_2":"2","04_ages_3":"3","04_ages_4":"4","04_ages_5":"5","04_ages_6":"6","04_ages_7":"7","04_ages_8":"8","04_ages_9":"9","04_ages_10":"10","04_ages_11":"11","04_ages_12":"12","04_ages_13":"13","04_ages_14":"14","04_ages_15":"15","04_ages_16":"16","04_ages_17":"17","04_ages_18":"18"},"rt":112093,"item_order":[0,1,2,3],"radio_events":[7850,30625,62898,94146],"checkbox_events":[16090,16722,17299,17914,18402,19266,19874,20642,21306,22282,23154,23882,24634,25370,26138,26890,28194,29234,32889,33634,34458,35978,36474,37138,37802,38410,38986,39633,40371,41810,42554,43530,44970,45658,46362,47204,64066,64586,65634,66250,67362,68738,69322,70058,70882,71690,72489,73666,74866,76418,78850,80562,82226,83346,95314,96098,97122,97794,98458,99330,99962,101018,101618,102530,103594,104442,105234,106098,106842,107578,108585,109546],"key_events":[],"mouse_events":[6434,7850,16090,16722,17299,17914,18402,19266,19874,20642,21306,22282,23154,23882,24634,25370,26138,26890,28194,29234,30625,32889,33634,34458,35978,36474,37138,37802,38410,38986,39633,40371,41810,42554,43530,44970,45658,46362,47204,62898,64066,64586,65634,66250,67362,68050,68738,69322,70058,70882,71690,72489,73666,74866,76418,78850,80562,82226,83346,94146,95314,96098,97122,97794,98458,99330,99962,101018,101618,102530,103594,104442,105234,106098,106842,107578,108585,109546,112090],"honeypot":0,"survey":"mace","page":9,"trial_type":"survey-mace","trial_index":17,"time_elapsed":754267,"internal_node_id":"0.0-17.0","task_version":"prescreen-v0.3","browser_interactions":0},{"responses":{"01":"No","02":"No","03":"No","04":"No","05":"No","06":"Yes","06_ages_17":"17","07":"Yes","07_ages_1":"1","07_ages_2":"2","07_ages_3":"3","07_ages_4":"4","07_ages_5":"5","07_ages_6":"6","07_ages_7":"7","07_ages_8":"8","07_ages_9":"9","07_ages_10":"10","07_ages_11":"11","07_ages_12":"12","07_ages_13":"13","07_ages_14":"14","07_ages_15":"15","07_ages_16":"16","07_ages_17":"17","07_ages_18":"18","08":"Yes","08_ages_1":"1","08_ages_2":"2","08_ages_3":"3","08_ages_4":"4","08_ages_5":"5","08_ages_6":"6","08_ages_7":"7","08_ages_8":"8","08_ages_9":"9","08_ages_10":"10","08_ages_11":"11","08_ages_12":"12","08_ages_13":"13","08_ages_14":"14","08_ages_15":"15","08_ages_16":"16","08_ages_17":"17","08_ages_18":"18"},"rt":190759,"item_order":[0,1,2,3,4,5,6,7],"radio_events":[20272,21088,25840,27264,31096,140648,160864,188544],"checkbox_events":[32912,143312,144119,144887,146424,147033,147656,148152,148656,149664,151496,152128,152800,153775,154312,155312,155944,156704,157863,162072,162648,163200,163800,164368,166144,166744,167288,168055,168744,169519,170128,170792,171312,171863,172584,173239,174224],"key_events":[],"mouse_events":[20272,21088,22216,25840,27264,31096,32912,138583,140648,143312,144119,144887,145440,146031,146424,147033,147656,148152,148656,149664,151496,152128,152800,153775,154312,155312,155944,156704,157863,160864,162072,162648,163200,163800,164368,166144,166744,167288,168055,168744,169519,170128,170792,171312,171863,172584,173239,174224,175216,183121,188544,190752],"honeypot":0,"survey":"mace","page":10,"trial_type":"survey-mace","trial_index":18,"time_elapsed":945038,"internal_node_id":"0.0-18.0","task_version":"prescreen-v0.3","browser_interactions":0,"instructed":0},{"rt":7392,"trial_type":"mental-health-alert","trial_index":19,"time_elapsed":952437,"internal_node_id":"0.0-19.0","task_version":"prescreen-v0.3","interactions":"[]"}]