[{"view_history":[{"page_index":0,"viewing_time":3030.0000000000005},{"page_index":1,"viewing_time":6186},{"page_index":2,"viewing_time":3408.000000000002},{"page_index":3,"viewing_time":1184.9999999999982}],"rt":13810.000000000002,"trial_type":"instructions","trial_index":0,"time_elapsed":13815,"internal_node_id":"0.0-0.0","task_version":"prescreen-v0.3"},{"rt":22981,"responses":{"age":"18","gender-categorical":"Female","gender-free-response":"","ethnicity":"Not Hispanic or Latino","race":["White"],"education":"High school"},"trial_type":"survey-demo","trial_index":1,"time_elapsed":36803,"internal_node_id":"0.0-1.0","task_version":"prescreen-v0.3"},{"responses":{"Q04":"0","Q08":"3","Q14":"3","Q02":"1","Q07":"0","Q06":"0","Q13":"3","Q12":"3","Q20":"0","Q09":"2","Q18":"2","Q21":"3","Q16":"3","Q01":"1","Q05":"2","Q10":"3","Q19":"1","Q15":"3","Q03":"0","Q17":"1","Q11":"1"},"rt":115599,"item_order":[3,7,13,1,6,5,12,11,19,8,17,20,15,0,4,9,18,14,2,16,10],"radio_events":[9168.999999999993,10352.999999999993,12961.999999999993,14808,20325.999999999993,26336.999999999993,28529.000000000007,29511.999999999993,38367.99999999999,43788.00000000001,47952.99999999999,53003.99999999999,57306.00000000001,68182,69311,74557,79008,81370,89806,94688,99739.00000000003,105042,109007.00000000003,111666,114510],"key_events":[],"mouse_events":[9168.999999999993,10352.999999999993,12961.999999999993,14808,20325.999999999993,26336.999999999993,28529.000000000007,29511.999999999993,38367.99999999999,43788.00000000001,47952.99999999999,53003.99999999999,57306.00000000001,62663.99999999999,68182,69311,74557,79008,81370,89806,94688,99739.00000000003,105042,109007.00000000003,111666,114510,115582],"straightlining":0.38095238095238093,"zigzagging":0.45,"honeypot":0,"survey":"sns","trial_type":"survey-template","trial_index":2,"time_elapsed":152403,"internal_node_id":"0.0-2.0","task_version":"prescreen-v0.3","browser_interactions":0,"infrequency":0},{"responses":{"Q07":"3","Q09":"0","Q01":"3","Q03":"3","Q05":"3","Q08":"2","Q12":"0","Q13":"0","Q10":"1","Q11":"1","Q04":"3","Q02":"3","Q06":"2"},"rt":65889,"item_order":[6,8,0,2,4,7,11,12,9,10,3,1,5],"radio_events":[9075,13290.00000000003,16141.00000000003,21151,24302.00000000003,29813,30578,35761,40201.00000000003,51062,52826.00000000003,57717,61165.00000000003,65275],"key_events":[],"mouse_events":[9075,13290.00000000003,16141.00000000003,21151,24302.00000000003,29064.00000000003,29813,30578,35761,40201.00000000003,48323,51062,51634,52286,52826.00000000003,57717,60602,61165.00000000003,65275,65879.00000000003],"straightlining":0.46153846153846156,"zigzagging":0.4166666666666667,"honeypot":0,"survey":"bisbas","trial_type":"survey-template","trial_index":3,"time_elapsed":218303,"internal_node_id":"0.0-3.0","task_version":"prescreen-v0.3","browser_interactions":0,"infrequency":0},{"responses":{"Q01":"4","Q02":"3","Q03":"3"},"rt":24037,"radio_events":[12375,17208,22952],"key_events":[],"mouse_events":[12375,16531,17208,21945,22952,24031],"survey":"map","page":1,"trial_type":"survey-map","trial_index":4,"time_elapsed":242359,"internal_node_id":"0.0-4.0","task_version":"prescreen-v0.3","browser_interactions":0},{"responses":{"Q04":"2","Q05":"3","Q06":"3"},"rt":19438,"radio_events":[6806,13438,18755.00000000003],"key_events":[],"mouse_events":[6806,13438,18755.00000000003,19432],"survey":"map","page":2,"trial_type":"survey-map","trial_index":5,"time_elapsed":261801,"internal_node_id":"0.0-5.0","task_version":"prescreen-v0.3","browser_interactions":0},{"responses":{"Q07":"1","Q08":"0","Q09":"4"},"rt":20215,"radio_events":[10805,14728,19669],"key_events":[],"mouse_events":[10805,14728,19669,20209],"survey":"map","page":3,"trial_type":"survey-map","trial_index":6,"time_elapsed":282020,"internal_node_id":"0.0-6.0","task_version":"prescreen-v0.3","browser_interactions":0},{"responses":{"Q10":"1","Q11":"2","Q12":"0","Q13":"2","Q16":"0","Q14":"0","Q15":"0"},"rt":41926.00000000006,"radio_events":[8104.000000000058,13735,17731,25321,27012,30308,35995,39790],"key_events":[],"mouse_events":[8104.000000000058,13735,17731,25321,27012,30308,35995,39790,41918],"survey":"map","page":4,"trial_type":"survey-map","trial_index":7,"time_elapsed":323949,"internal_node_id":"0.0-7.0","task_version":"prescreen-v0.3","browser_interactions":0,"infrequency":0},{"view_history":[{"page_index":0,"viewing_time":2759},{"page_index":1,"viewing_time":9970}],"rt":12730,"trial_type":"instructions","trial_index":8,"time_elapsed":336681,"internal_node_id":"0.0-8.0","task_version":"prescreen-v0.3"},{"responses":{"01":"No","02":"Yes","02_ages_7":"7","02_ages_8":"8","02_ages_9":"9","02_ages_10":"10","02_ages_11":"11","02_ages_12":"12","02_ages_13":"13","02_ages_14":"14","02_ages_15":"15","02_ages_16":"16","02_ages_17":"17","02_ages_18":"18","03":"No","04":"No","05":"No","06":"Yes","06_ages_6":"6","06_ages_7":"7","06_ages_8":"8","06_ages_9":"9"},"rt":87907,"item_order":[0,1,2,3,4,5],"radio_events":[15023,20115,68249,70988,73027.00000000006,80344],"checkbox_events":[50812,51473,52012,52746,53463,53939,54583,55292,56138,56645,57386,58281,58950.00000000006,63802,83422,84066,84646,85129],"key_events":[],"mouse_events":[1,15023,20115,50812,51473,52012,52746,53463,53939,54583,55292,56138,56645,57386,57902.00000000006,58281,58950.00000000006,63802,68249,70988,73027.00000000006,80344,83422,84066,84646,85129,87893],"honeypot":0,"survey":"mace","page":1,"trial_type":"survey-mace","trial_index":9,"time_elapsed":424594,"internal_node_id":"0.0-9.0","task_version":"prescreen-v0.3","browser_interactions":0},{"responses":{"01":"Yes","01_ages_4":"4","01_ages_5":"5","01_ages_6":"6","01_ages_7":"7","02":"No","03":"Yes","03_ages_4":"4","03_ages_5":"5","03_ages_6":"6","03_ages_7":"7","04":"Yes","04_ages_4":"4","04_ages_5":"5","04_ages_6":"6","04_ages_7":"7","05":"No","06":"No","07":"Yes","07_ages_3":"3","07_ages_4":"4","07_ages_5":"5","07_ages_6":"6","08":"Yes","08_ages_3":"3","08_ages_4":"4","08_ages_5":"5","08_ages_6":"6"},"rt":66870,"item_order":[0,1,2,3,4,5,6,7],"radio_events":[9512,18818,20525.00000000006,32224,38041,41909,51159,55052,62189],"checkbox_events":[12082,12509,13347.000000000058,13790,22064,22499,23820,24295,33546,34021,34730,35423,57516,57999,58443,58878,63519,64083,64533,64977.00000000006],"key_events":[],"mouse_events":[9512,12082,12509,12977.000000000058,13347.000000000058,13790,18818,20525.00000000006,22064,22499,23063,23820,24295,32224,33546,34021,34730,35423,38041,41909,51159,55052,57516,57999,58443,58878,62189,63519,64083,64533,64977.00000000006,66855],"honeypot":0,"survey":"mace","page":2,"trial_type":"survey-mace","trial_index":10,"time_elapsed":491468,"internal_node_id":"0.0-10.0","task_version":"prescreen-v0.3","browser_interactions":0},{"responses":{"01":"Yes","01_ages_4":"4","01_ages_5":"5","01_ages_6":"6","01_ages_7":"7","02":"No","03":"No","04":"No"},"rt":22826.99999999994,"item_order":[0,1,2,3],"radio_events":[13317.999999999942,19045.99999999994,21665,22172.99999999994],"checkbox_events":[14260.999999999942,14632,15009.999999999942,16241.999999999942],"key_events":[],"mouse_events":[13317.999999999942,14260.999999999942,14632,15009.999999999942,15476.999999999942,16241.999999999942,19045.99999999994,20714,21665,22172.99999999994,22816.99999999994],"honeypot":0,"survey":"mace","page":3,"trial_type":"survey-mace","trial_index":11,"time_elapsed":514299,"internal_node_id":"0.0-11.0","task_version":"prescreen-v0.3","browser_interactions":0},{"responses":{"01":"Yes","01_ages_3":"3","01_ages_4":"4","01_ages_5":"5","01_ages_6":"6","01_ages_7":"7","02":"No"},"rt":22385,"item_order":[0,1],"radio_events":[13322,21726],"checkbox_events":[16038,16432,16859,17246,17641,18769,19124],"key_events":[],"mouse_events":[13322,16038,16432,16859,17246,17641,18769,19124,21726,22378],"honeypot":0,"survey":"mace","page":4,"trial_type":"survey-mace","trial_index":12,"time_elapsed":536688,"internal_node_id":"0.0-12.0","task_version":"prescreen-v0.3","browser_interactions":0},{"responses":{"01":"No","02":"No","03":"No","04":"No","05":"No"},"rt":19499,"item_order":[0,1,2,3,4],"radio_events":[10330,12385,14302,17461,18919],"checkbox_events":[],"key_events":[],"mouse_events":[10330,12385,13737,14302,17461,18919,19491],"honeypot":0,"survey":"mace","page":5,"trial_type":"survey-mace","trial_index":13,"time_elapsed":556193,"internal_node_id":"0.0-13.0","task_version":"prescreen-v0.3","browser_interactions":0},{"responses":{"01":"Yes","01_ages_10":"10","01_ages_11":"11","01_ages_12":"12","01_ages_13":"13","01_ages_14":"14","01_ages_15":"15","01_ages_18":"18","02":"Yes","02_ages_8":"8","02_ages_9":"9","02_ages_10":"10","02_ages_11":"11","02_ages_12":"12","02_ages_13":"13","03":"No","04":"Yes","04_ages_13":"13","04_ages_14":"14","04_ages_15":"15","04_ages_16":"16","05":"No"},"rt":52968.99999999988,"item_order":[0,1,2,3,4],"radio_events":[10073.999999999884,27923,41957.99999999988,44616.99999999988,52424.99999999988],"checkbox_events":[13925.999999999884,15198.999999999884,15641.999999999884,16060.999999999884,16536.999999999884,18518.999999999884,21290.999999999884,30967.999999999884,32958.99999999988,35116.99999999988,35536.99999999988,35955.99999999988,36382.99999999988,36841.99999999988,39064.99999999988,46721.99999999988,47977.99999999988,48500.99999999988,49169.99999999988],"key_events":[],"mouse_events":[10073.999999999884,13925.999999999884,14529.999999999884,15198.999999999884,15641.999999999884,16060.999999999884,16536.999999999884,18518.999999999884,21290.999999999884,27923,30967.999999999884,32958.99999999988,35116.99999999988,35536.99999999988,35955.99999999988,36382.99999999988,36841.99999999988,38331.99999999988,39064.99999999988,41957.99999999988,44616.99999999988,46721.99999999988,47098.99999999988,47977.99999999988,48500.99999999988,49169.99999999988,52424.99999999988,52956.99999999988],"honeypot":0,"survey":"mace","page":6,"trial_type":"survey-mace","trial_index":14,"time_elapsed":609166,"internal_node_id":"0.0-14.0","task_version":"prescreen-v0.3","browser_interactions":0},{"responses":{"01":"No","02":"No","03":"No","04":"No","05":"No","06":"No","07":"No"},"rt":14751.000000000116,"item_order":[0,1,2,3,4,5,6],"radio_events":[6176,7506,8811,10133,11591,13058,14267],"checkbox_events":[],"key_events":[],"mouse_events":[6176,7506,8811,10133,11591,13058,14267,14742],"honeypot":0,"survey":"mace","page":7,"trial_type":"survey-mace","trial_index":15,"time_elapsed":623923,"internal_node_id":"0.0-15.0","task_version":"prescreen-v0.3","browser_interactions":0},{"responses":{"01":"No","02":"Yes","02_ages_1":"1","02_ages_2":"2","02_ages_3":"3","02_ages_4":"4","02_ages_5":"5","02_ages_6":"6","02_ages_7":"7","02_ages_8":"8","02_ages_9":"9","02_ages_10":"10","02_ages_11":"11","02_ages_12":"12","02_ages_13":"13","02_ages_14":"14","02_ages_15":"15","02_ages_16":"16","02_ages_17":"17","02_ages_18":"18","03":"Yes","03_ages_10":"10","03_ages_11":"11","03_ages_12":"12","03_ages_13":"13","03_ages_14":"14","03_ages_15":"15","03_ages_16":"16","03_ages_17":"17","03_ages_18":"18","04":"No"},"rt":54176,"item_order":[0,1,2,3],"radio_events":[16563,19634,41824,53515],"checkbox_events":[22470,22896,23339,23742,24128,24499,25619,26425,27513,27963,28382,28849,29599,30066,30582,31041,31903,32322.000000000116,44241,44756,45337,45934,46473,47560,48036,48471.00000000012,48914],"key_events":[],"mouse_events":[16563,19634,22470,22896,23339,23742,24128,24499,25232,25619,26425,27513,27963,28382,28849,29599,30066,30582,31041,31903,32322.000000000116,41824,44241,44756,45337,45934,46473,47205,47560,48036,48471.00000000012,48914,53515,54167],"honeypot":0,"survey":"mace","page":8,"trial_type":"survey-mace","trial_index":16,"time_elapsed":678102,"internal_node_id":"0.0-16.0","task_version":"prescreen-v0.3","browser_interactions":0},{"responses":{"01":"Yes","01_ages_1":"1","01_ages_2":"2","01_ages_3":"3","01_ages_4":"4","01_ages_5":"5","01_ages_6":"6","01_ages_7":"7","01_ages_8":"8","01_ages_9":"9","01_ages_10":"10","01_ages_11":"11","01_ages_12":"12","01_ages_13":"13","01_ages_14":"14","01_ages_15":"15","01_ages_16":"16","01_ages_17":"17","01_ages_18":"18","02":"Yes","02_ages_1":"1","02_ages_2":"2","02_ages_3":"3","02_ages_4":"4","02_ages_5":"5","02_ages_6":"6","02_ages_7":"7","02_ages_8":"8","02_ages_9":"9","02_ages_10":"10","02_ages_11":"11","02_ages_12":"12","02_ages_13":"13","02_ages_14":"14","02_ages_15":"15","02_ages_16":"16","02_ages_17":"17","02_ages_18":"18","03":"Yes","03_ages_17":"17","04":"Yes","04_ages_1":"1","04_ages_2":"2","04_ages_3":"3","04_ages_4":"4","04_ages_5":"5","04_ages_6":"6","04_ages_7":"7","04_ages_8":"8","04_ages_9":"9","04_ages_10":"10","04_ages_11":"11","04_ages_12":"12","04_ages_13":"13","04_ages_14":"14","04_ages_15":"15","04_ages_16":"16","04_ages_17":"17","04_ages_18":"18"},"rt":72255.00000000012,"item_order":[0,1,2,3],"radio_events":[5537,20150,32147,60606.00000000012],"checkbox_events":[6640.000000000116,7253,7672,8058.000000000116,8477,9451,9847,10305,10870,11232,11611.000000000116,12030,13279.000000000116,13746,14189,15446,16565,17065,21828,22254,23038,23438.000000000116,23818,24229,24615,25422,25825,26177,26905,27290,27676,28267,28652,29023,29424,30206,33293,34688.00000000012,35155,35671,37058.00000000012,38363,38919,39417,41434,61753,62124,62495,62831,63612,64395,64921,65354,65836,66691,67432,68190,68811,69238,69656,70123,70785,71259],"key_events":[],"mouse_events":[5537,6640.000000000116,7253,7672,8058.000000000116,8477,8831,9451,9847,10305,10870,11232,11611.000000000116,12030,12794,13279.000000000116,13746,14189,14865,15446,16026,16565,17065,20150,21828,22254,22617,23038,23438.000000000116,23818,24229,24615,25422,25825,26177,26905,27290,27676,28267,28652,29023,29424,30206,32147,33293,34688.00000000012,35155,35671,37058.00000000012,37508,38363,38919,39417,41434,60606.00000000012,61753,62124,62495,62831,63612,64395,64921,65354,65836,66691,67432,68190,68811,69238,69656,70123,70785,71259,72244],"honeypot":0,"survey":"mace","page":9,"trial_type":"survey-mace","trial_index":17,"time_elapsed":750361,"internal_node_id":"0.0-17.0","task_version":"prescreen-v0.3","browser_interactions":0},{"responses":{"01":"No","02":"No","03":"Yes","03_ages_15":"15","03_ages_16":"16","03_ages_17":"17","03_ages_18":"18","04":"Yes","04_ages_14":"14","04_ages_15":"15","04_ages_16":"16","04_ages_17":"17","04_ages_18":"18","05":"Yes","05_ages_10":"10","05_ages_11":"11","05_ages_12":"12","05_ages_13":"13","05_ages_14":"14","05_ages_15":"15","05_ages_16":"16","05_ages_17":"17","05_ages_18":"18","06":"Yes","06_ages_17":"17","07":"Yes","07_ages_1":"1","07_ages_2":"2","07_ages_3":"3","07_ages_4":"4","07_ages_5":"5","07_ages_6":"6","07_ages_7":"7","07_ages_8":"8","07_ages_9":"9","07_ages_10":"10","07_ages_11":"11","07_ages_12":"12","07_ages_13":"13","07_ages_14":"14","07_ages_15":"15","07_ages_16":"16","07_ages_17":"17","07_ages_18":"18","08":"No"},"rt":97886,"item_order":[0,1,2,3,4,5,6,7],"radio_events":[18222,18777.000000000116,26878.000000000116,32969.00000000012,36064,42049,51089,55020,97415],"checkbox_events":[28088,28224.000000000116,28830.000000000116,29239,29939,30398,37151,37943,38370,38746,39439,43260,44056,44848,45281,45684,46110,46867,47426.00000000012,47842,52386,56168,56657,57126,57522.00000000012,57971,59228,59960,60622,79333,79728,80130,80557,81501,82299,82918,83763,84683,94522.00000000012],"key_events":[],"mouse_events":[17318,18222,18777.000000000116,26878.000000000116,28088,28224.000000000116,28830.000000000116,29239,29939,30398,32969.00000000012,35637,36064,37151,37943,38370,38746,39439,42049,43260,43654,44056,44491,44848,45281,45684,46110,46466,46867,47426.00000000012,47842,51089,52386,55020,56168,56657,57126,57522.00000000012,57971,59228,59960,60622,79333,79728,80130,80557,81501,82299,82918,83763,84683,94522.00000000012,97415,97875],"honeypot":0,"survey":"mace","page":10,"trial_type":"survey-mace","trial_index":18,"time_elapsed":848252,"internal_node_id":"0.0-18.0","task_version":"prescreen-v0.3","browser_interactions":4,"instructed":0},{"rt":4809.999999999884,"trial_type":"mental-health-alert","trial_index":19,"time_elapsed":853067,"internal_node_id":"0.0-19.0","task_version":"prescreen-v0.3","interactions":"[{\"event\":\"blur\",\"trial\":18,\"time\":834105},{\"event\":\"focus\",\"trial\":18,\"time\":834514},{\"event\":\"blur\",\"trial\":18,\"time\":835443},{\"event\":\"focus\",\"trial\":18,\"time\":842749}]"}]