[{"view_history":[{"page_index":0,"viewing_time":4282.800000011921},{"page_index":1,"viewing_time":4043.100000023842},{"page_index":2,"viewing_time":3599.300000011921},{"page_index":3,"viewing_time":973.8999999761581}],"rt":12901.5,"trial_type":"instructions","trial_index":0,"time_elapsed":12948,"internal_node_id":"0.0-0.0","task_version":"prescreen-v0.3"},{"rt":17366.80000001192,"responses":{"age":"19","gender-categorical":"Female","gender-free-response":"","ethnicity":"Hispanic or Latino","race":["White"],"education":"Some college"},"trial_type":"survey-demo","trial_index":1,"time_elapsed":30356,"internal_node_id":"0.0-1.0","task_version":"prescreen-v0.3"},{"responses":{"Q15":"3","Q02":"1","Q19":"1","Q13":"2","Q20":"1","Q16":"2","Q04":"0","Q21":"3","Q18":"0","Q03":"0","Q12":"2","Q05":"1","Q09":"1","Q01":"0","Q06":"2","Q10":"2","Q11":"2","Q07":"1","Q14":"1","Q17":"0","Q08":"2"},"rt":112462.90000003576,"item_order":[14,1,18,12,19,15,3,20,17,2,11,4,8,0,5,9,10,6,13,16,7],"radio_events":[9830,19375.600000023842,24936.100000023842,31363.600000023842,34237.30000001192,39413.30000001192,40677.10000002384,44392.40000003576,49578.60000002384,50125.60000002384,54017.90000003576,57556.30000001192,62220.30000001192,62748.80000001192,66622.69999998808,73131.10000002384,74701.40000003576,89518.90000003576,90224.60000002384,93333.40000003576,98981.40000003576,102945.5,106380.10000002384,108421.80000001192,110808,111647.90000003576],"key_events":[],"mouse_events":[9830,19375.600000023842,24936.100000023842,31363.600000023842,34237.30000001192,39413.30000001192,40677.10000002384,44347.5,44392.40000003576,49578.60000002384,50125.60000002384,54017.90000003576,57556.30000001192,62220.30000001192,62748.80000001192,66622.69999998808,73131.10000002384,74701.40000003576,89518.90000003576,90224.60000002384,92661.19999998808,93333.40000003576,98981.40000003576,102945.5,106380.10000002384,108421.80000001192,110808,111647.90000003576,112450.5],"straightlining":0.3333333333333333,"zigzagging":0.45,"honeypot":0,"survey":"sns","trial_type":"survey-template","trial_index":2,"time_elapsed":142857,"internal_node_id":"0.0-2.0","task_version":"prescreen-v0.3","browser_interactions":0,"infrequency":0},{"responses":{"Q01":"3","Q11":"3","Q05":"3","Q08":"3","Q03":"3","Q09":"3","Q12":"1","Q04":"3","Q07":"3","Q10":"3","Q02":"2","Q13":"0","Q06":"3"},"rt":52039.69999998808,"item_order":[0,10,4,7,2,8,11,3,6,9,1,12,5],"radio_events":[8086.099999964237,11474.199999988079,13272.800000011921,15779.800000011921,20189.599999964237,24160.69999998808,30097.69999998808,33417.5,35304,37308.09999996424,40489.69999998808,45861.89999997616,51038.30000001192],"key_events":[],"mouse_events":[8086.099999964237,11474.199999988079,13272.800000011921,15779.800000011921,20189.599999964237,24160.69999998808,30097.69999998808,33417.5,35304,37308.09999996424,40489.69999998808,44833.89999997616,45861.89999997616,51038.30000001192,52033.80000001192],"straightlining":0.7692307692307693,"zigzagging":0.16666666666666666,"honeypot":0,"survey":"bisbas","trial_type":"survey-template","trial_index":3,"time_elapsed":194914,"internal_node_id":"0.0-3.0","task_version":"prescreen-v0.3","browser_interactions":0,"infrequency":0},{"responses":{"Q01":"4","Q02":"4","Q03":"4"},"rt":12870.099999964237,"radio_events":[5632.5,8312.899999976158,12167.5],"key_events":[],"mouse_events":[5632.5,8312.899999976158,12167.5,12865.699999988079],"survey":"map","page":1,"trial_type":"survey-map","trial_index":4,"time_elapsed":207800,"internal_node_id":"0.0-4.0","task_version":"prescreen-v0.3","browser_interactions":0},{"responses":{"Q04":"4","Q05":"2","Q06":"2"},"rt":23159.599999964237,"radio_events":[7109.199999988079,14464.199999988079,16636.5,20593.099999964237,21159.299999952316],"key_events":[],"mouse_events":[7109.199999988079,14464.199999988079,16636.5,20593.099999964237,21159.299999952316,23158.399999976158],"survey":"map","page":2,"trial_type":"survey-map","trial_index":5,"time_elapsed":230968,"internal_node_id":"0.0-5.0","task_version":"prescreen-v0.3","browser_interactions":0},{"responses":{"Q07":"3","Q08":"0","Q09":"3"},"rt":12209.199999988079,"radio_events":[4910.799999952316,7681.299999952316,10333.799999952316],"key_events":[],"mouse_events":[4910.799999952316,7681.299999952316,10333.799999952316,12207.199999988079],"survey":"map","page":3,"trial_type":"survey-map","trial_index":6,"time_elapsed":243183,"internal_node_id":"0.0-6.0","task_version":"prescreen-v0.3","browser_interactions":0},{"responses":{"Q10":"4","Q11":"3","Q12":"3","Q13":"4","Q16":"0","Q14":"4","Q15":"4"},"rt":36997.60000002384,"radio_events":[3872,11621.700000047684,17248.900000035763,21614.100000023842,25535.100000023842,31379.5,35570],"key_events":[],"mouse_events":[3872,11621.700000047684,17248.900000035763,21614.100000023842,25535.100000023842,31379.5,35570,36992.30000001192],"survey":"map","page":4,"trial_type":"survey-map","trial_index":7,"time_elapsed":280194,"internal_node_id":"0.0-7.0","task_version":"prescreen-v0.3","browser_interactions":0,"infrequency":0},{"view_history":[{"page_index":0,"viewing_time":3952.699999988079},{"page_index":1,"viewing_time":5637}],"rt":9591.100000023842,"trial_type":"instructions","trial_index":8,"time_elapsed":289790,"internal_node_id":"0.0-8.0","task_version":"prescreen-v0.3"},{"responses":{"01":"Yes","01_ages_7":"7","01_ages_8":"8","01_ages_9":"9","01_ages_10":"10","01_ages_11":"11","01_ages_12":"12","01_ages_13":"13","01_ages_14":"14","02":"Yes","02_ages_7":"7","02_ages_8":"8","02_ages_9":"9","02_ages_10":"10","02_ages_11":"11","02_ages_12":"12","02_ages_13":"13","02_ages_14":"14","02_ages_15":"15","03":"Yes","03_ages_7":"7","03_ages_8":"8","03_ages_9":"9","03_ages_10":"10","03_ages_11":"11","03_ages_12":"12","03_ages_13":"13","03_ages_14":"14","03_ages_15":"15","03_ages_16":"16","04":"No","05":"No","06":"Yes","06_ages_5":"5","06_ages_6":"6","06_ages_7":"7","06_ages_8":"8","06_ages_9":"9","06_ages_10":"10","06_ages_11":"11","06_ages_12":"12","06_ages_13":"13"},"rt":64590,"item_order":[0,1,2,3,4,5],"radio_events":[7197.699999988079,21827.399999976158,32116.099999964237,41870.09999996424,42863.299999952316,45034.69999998808,48833.09999996424],"checkbox_events":[13682.899999976158,13976.199999988079,14456.399999976158,15193.899999976158,15875.699999988079,18028.399999976158,18269.5,18762,23408.299999952316,23734,25311.299999952316,25750.69999998808,26220.69999998808,26602.69999998808,27241.099999964237,27542.299999952316,27824.799999952316,33214.5,33898.39999997616,35039.39999997616,35328.09999996424,35627,35993.89999997616,36276.39999997616,36661.19999998808,36982.5,37332.5,37891,38221.299999952316,38984.69999998808,39578.69999998808,53724.59999996424,54012.5,54752,55284.89999997616,55653,56362.299999952316,56866.19999998808,57402.09999996424,58695.69999998808,63044.299999952316,63409],"key_events":[],"mouse_events":[0.2999999523162842,7197.699999988079,13682.899999976158,13976.199999988079,14456.399999976158,15193.899999976158,15875.699999988079,18028.399999976158,18269.5,18762,21827.399999976158,23408.299999952316,23734,25311.299999952316,25750.69999998808,26220.69999998808,26602.69999998808,27241.099999964237,27542.299999952316,27824.799999952316,32116.099999964237,33214.5,33898.39999997616,35039.39999997616,35328.09999996424,35627,35993.89999997616,36276.39999997616,36661.19999998808,36982.5,37332.5,37891,38221.299999952316,38984.69999998808,39578.69999998808,41870.09999996424,42863.299999952316,45034.69999998808,48833.09999996424,53724.59999996424,54012.5,54752,55284.89999997616,55653,56362.299999952316,56866.19999998808,57402.09999996424,58695.69999998808,63044.299999952316,63409,64585.89999997616],"honeypot":0,"survey":"mace","page":1,"trial_type":"survey-mace","trial_index":9,"time_elapsed":354408,"internal_node_id":"0.0-9.0","task_version":"prescreen-v0.3","browser_interactions":0},{"responses":{"01":"No","02":"No","03":"Yes","03_ages_6":"6","03_ages_7":"7","03_ages_8":"8","03_ages_9":"9","03_ages_10":"10","03_ages_11":"11","03_ages_12":"12","03_ages_13":"13","04":"No","05":"No","06":"No","07":"No","08":"No"},"rt":35456.700000047684,"item_order":[0,1,2,3,4,5,6,7],"radio_events":[7037.900000035763,10860.400000035763,13868.900000035763,22473.900000035763,28302.600000023842,30899.80000001192,33271.700000047684,34620.40000003576],"checkbox_events":[15747.400000035763,16049.800000011921,16306.700000047684,16691.5,17284.700000047684,17654.700000047684,18046.80000001192,18399.400000035763],"key_events":[],"mouse_events":[7037.900000035763,10860.400000035763,13868.900000035763,15747.400000035763,16049.800000011921,16306.700000047684,16691.5,17284.700000047684,17654.700000047684,18046.80000001192,18399.400000035763,22473.900000035763,28302.600000023842,30899.80000001192,33271.700000047684,34620.40000003576,35436.60000002384],"honeypot":0,"survey":"mace","page":2,"trial_type":"survey-mace","trial_index":10,"time_elapsed":389879,"internal_node_id":"0.0-10.0","task_version":"prescreen-v0.3","browser_interactions":0},{"responses":{"01":"No","02":"No","03":"No","04":"No"},"rt":14428.099999964237,"item_order":[0,1,2,3],"radio_events":[7504.300000011921,8061.699999988079,9316.199999988079,13491.699999988079],"checkbox_events":[],"key_events":[],"mouse_events":[7504.300000011921,8061.699999988079,9316.199999988079,13491.699999988079,14418.5],"honeypot":0,"survey":"mace","page":3,"trial_type":"survey-mace","trial_index":11,"time_elapsed":404322,"internal_node_id":"0.0-11.0","task_version":"prescreen-v0.3","browser_interactions":0},{"responses":{"01":"No","02":"No"},"rt":8354.100000023842,"item_order":[0,1],"radio_events":[6177.5,6786.900000035763],"checkbox_events":[],"key_events":[],"mouse_events":[6177.5,6786.900000035763,8349.300000011921],"honeypot":0,"survey":"mace","page":4,"trial_type":"survey-mace","trial_index":12,"time_elapsed":412687,"internal_node_id":"0.0-12.0","task_version":"prescreen-v0.3","browser_interactions":0},{"responses":{"01":"No","02":"No","03":"No","04":"No","05":"No"},"rt":12807.5,"item_order":[0,1,2,3,4],"radio_events":[4762.300000011921,6426.900000035763,8214.600000023842,9676.600000023842,11799.100000023842],"checkbox_events":[],"key_events":[],"mouse_events":[4762.300000011921,6426.900000035763,8214.600000023842,9676.600000023842,11799.100000023842,12792.800000011921],"honeypot":0,"survey":"mace","page":5,"trial_type":"survey-mace","trial_index":13,"time_elapsed":425509,"internal_node_id":"0.0-13.0","task_version":"prescreen-v0.3","browser_interactions":0},{"responses":{"01":"Yes","01_ages_7":"7","01_ages_8":"8","01_ages_9":"9","01_ages_10":"10","01_ages_11":"11","01_ages_12":"12","01_ages_13":"13","01_ages_14":"14","01_ages_15":"15","02":"Yes","02_ages_7":"7","02_ages_8":"8","02_ages_9":"9","02_ages_10":"10","02_ages_11":"11","02_ages_12":"12","02_ages_13":"13","02_ages_14":"14","02_ages_15":"15","03":"Yes","03_ages_7":"7","03_ages_8":"8","03_ages_9":"9","03_ages_10":"10","03_ages_11":"11","03_ages_12":"12","03_ages_13":"13","03_ages_14":"14","03_ages_15":"15","04":"Yes","04_ages_7":"7","04_ages_8":"8","04_ages_9":"9","04_ages_10":"10","04_ages_11":"11","04_ages_12":"12","04_ages_13":"13","04_ages_14":"14","04_ages_15":"15","05":"No"},"rt":75459.09999996424,"item_order":[0,1,2,3,4],"radio_events":[4562,18847.30000001192,32296.099999964237,40568.30000001192,43083.80000001192,67198.59999996424],"checkbox_events":[7255,7671.899999976158,8084.199999988079,8468.899999976158,9003.099999964237,9414.199999988079,9893.300000011921,10364.800000011921,10815.599999964237,14172.599999964237,14539.300000011921,15170.199999988079,20944.30000001192,21280.30000001192,21734.099999964237,22217.899999976158,22651.5,23069.399999976158,23449.599999964237,23898.899999976158,24301.899999976158,24761.099999964237,25203.30000001192,25652.30000001192,34954.19999998808,35362.69999998808,35812.69999998808,36223.39999997616,36634.5,37052.69999998808,37493.59999996424,37885.59999996424,38214.5,57544.59999996424,57848.39999997616,58310.5,60310.80000001192,60773.69999998808,61111.89999997616,69531.89999997616,69748.5,70040.30000001192,70334.69999998808,70710.09999996424,71040,71359.5,71770.69999998808,72090.69999998808],"key_events":[],"mouse_events":[4562,7255,7671.899999976158,8084.199999988079,8468.899999976158,9003.099999964237,9414.199999988079,9893.300000011921,10364.800000011921,10815.599999964237,13257.199999988079,14172.599999964237,14539.300000011921,15170.199999988079,18847.30000001192,20944.30000001192,21280.30000001192,21734.099999964237,22217.899999976158,22651.5,23069.399999976158,23449.599999964237,23898.899999976158,24301.899999976158,24761.099999964237,25203.30000001192,25652.30000001192,32296.099999964237,34954.19999998808,35362.69999998808,35812.69999998808,36223.39999997616,36634.5,37052.69999998808,37493.59999996424,37885.59999996424,38214.5,40568.30000001192,43083.80000001192,57544.59999996424,57848.39999997616,58310.5,60310.80000001192,60773.69999998808,61111.89999997616,67198.59999996424,69531.89999997616,69748.5,70040.30000001192,70334.69999998808,70710.09999996424,71040,71359.5,71770.69999998808,72090.69999998808,75446.5],"honeypot":0,"survey":"mace","page":6,"trial_type":"survey-mace","trial_index":14,"time_elapsed":500986,"internal_node_id":"0.0-14.0","task_version":"prescreen-v0.3","browser_interactions":0},{"responses":{"01":"No","02":"No","03":"No","04":"No","05":"No","06":"No","07":"No"},"rt":20977,"item_order":[0,1,2,3,4,5,6],"radio_events":[4654.199999988079,6904.800000011921,10017.599999964237,14000.399999976158,14381.800000011921,18077.69999998808,20196.30000001192],"checkbox_events":[],"key_events":[],"mouse_events":[4654.199999988079,6904.800000011921,10017.599999964237,14000.399999976158,14381.800000011921,18077.69999998808,20196.30000001192,20955.69999998808],"honeypot":0,"survey":"mace","page":7,"trial_type":"survey-mace","trial_index":15,"time_elapsed":521977,"internal_node_id":"0.0-15.0","task_version":"prescreen-v0.3","browser_interactions":0},{"responses":{"01":"No","02":"Yes","02_ages_7":"7","02_ages_8":"8","02_ages_9":"9","02_ages_10":"10","02_ages_11":"11","02_ages_12":"12","02_ages_13":"13","02_ages_14":"14","02_ages_15":"15","02_ages_16":"16","02_ages_17":"17","02_ages_18":"18","03":"Yes","03_ages_7":"7","03_ages_8":"8","03_ages_9":"9","03_ages_10":"10","03_ages_11":"11","03_ages_12":"12","03_ages_13":"13","03_ages_14":"14","03_ages_15":"15","03_ages_16":"16","03_ages_17":"17","03_ages_18":"18","04":"No"},"rt":40699.30000001192,"item_order":[0,1,2,3],"radio_events":[7926.100000023842,16798.19999998808,29014.399999976158,39746.39999997616],"checkbox_events":[19858.899999976158,20260.100000023842,20656.600000023842,21138.5,21536.600000023842,21966.5,22336.80000001192,22693.600000023842,23087.30000001192,23537.30000001192,23898.100000023842,24158.600000023842,31248,31584.600000023842,32022.899999976158,32315.399999976158,32735.30000001192,33066.10000002384,33414.80000001192,33776.60000002384,34194.80000001192,34564.5,34916.5,35786.60000002384],"key_events":[],"mouse_events":[7926.100000023842,16798.19999998808,19858.899999976158,20260.100000023842,20656.600000023842,21138.5,21536.600000023842,21966.5,22336.80000001192,22693.600000023842,23087.30000001192,23537.30000001192,23898.100000023842,24158.600000023842,29014.399999976158,31248,31584.600000023842,32022.899999976158,32315.399999976158,32735.30000001192,33066.10000002384,33414.80000001192,33776.60000002384,34194.80000001192,34564.5,34916.5,35786.60000002384,39746.39999997616,40693.60000002384],"honeypot":0,"survey":"mace","page":8,"trial_type":"survey-mace","trial_index":16,"time_elapsed":562691,"internal_node_id":"0.0-16.0","task_version":"prescreen-v0.3","browser_interactions":0},{"responses":{"01":"Yes","01_ages_6":"6","01_ages_7":"7","01_ages_8":"8","01_ages_9":"9","01_ages_10":"10","01_ages_11":"11","01_ages_12":"12","01_ages_13":"13","01_ages_14":"14","01_ages_15":"15","01_ages_16":"16","01_ages_17":"17","01_ages_18":"18","02":"Yes","02_ages_6":"6","02_ages_7":"7","02_ages_8":"8","02_ages_9":"9","02_ages_10":"10","02_ages_11":"11","02_ages_12":"12","02_ages_13":"13","02_ages_14":"14","02_ages_15":"15","02_ages_16":"16","02_ages_17":"17","02_ages_18":"18","03":"Yes","03_ages_6":"6","03_ages_7":"7","03_ages_8":"8","03_ages_9":"9","03_ages_10":"10","03_ages_11":"11","03_ages_12":"12","03_ages_13":"13","03_ages_14":"14","03_ages_15":"15","03_ages_16":"16","03_ages_17":"17","03_ages_18":"18","04":"Yes","04_ages_1":"1","04_ages_2":"2","04_ages_3":"3","04_ages_4":"4","04_ages_5":"5","04_ages_6":"6","04_ages_7":"7","04_ages_8":"8","04_ages_9":"9","04_ages_10":"10","04_ages_11":"11","04_ages_12":"12","04_ages_13":"13","04_ages_14":"14","04_ages_15":"15","04_ages_16":"16","04_ages_17":"17","04_ages_18":"18"},"rt":48739.80000001192,"item_order":[0,1,2,3],"radio_events":[3224.900000035763,12649.700000047684,28294.400000035763,37547.40000003576],"checkbox_events":[5065.700000047684,5377.900000035763,5746.600000023842,6211.700000047684,6682.300000011921,7102.5,7472.100000023842,7868.600000023842,8323.600000023842,8868,9332.400000035763,9796.700000047684,10218.200000047684,16955.900000035763,17474.400000035763,17801.80000001192,18179.100000023842,18538.30000001192,18904.5,19308.900000035763,19733.100000023842,20092.600000023842,20444,20822.700000047684,21192.600000023842,21533.100000023842,29314.700000047684,29667.600000023842,30060.100000023842,30389,30782.100000023842,31109.5,31460.900000035763,31823.600000023842,32255.200000047684,32592.5,33009.80000001192,33420.90000003576,33804.80000001192,39974.60000002384,40291.200000047684,40601.40000003576,40922.10000002384,41270.60000002384,41720.700000047684,42089.90000003576,42643.10000002384,43051,43464.200000047684,43915.80000001192,44374.90000003576,44841.700000047684,45184.40000003576,45654.30000001192,46102.10000002384,46542.5,46942.40000003576],"key_events":[],"mouse_events":[3224.900000035763,5065.700000047684,5377.900000035763,5746.600000023842,6211.700000047684,6682.300000011921,7102.5,7472.100000023842,7868.600000023842,8323.600000023842,8868,9332.400000035763,9796.700000047684,10218.200000047684,12649.700000047684,16955.900000035763,17474.400000035763,17801.80000001192,18179.100000023842,18538.30000001192,18904.5,19308.900000035763,19733.100000023842,20092.600000023842,20444,20822.700000047684,21192.600000023842,21533.100000023842,28294.400000035763,29314.700000047684,29667.600000023842,30060.100000023842,30389,30782.100000023842,31109.5,31460.900000035763,31823.600000023842,32255.200000047684,32592.5,33009.80000001192,33420.90000003576,33804.80000001192,37547.40000003576,39974.60000002384,40291.200000047684,40601.40000003576,40922.10000002384,41270.60000002384,41720.700000047684,42089.90000003576,42643.10000002384,43051,43464.200000047684,43915.80000001192,44374.90000003576,44841.700000047684,45184.40000003576,45654.30000001192,46102.10000002384,46542.5,46942.40000003576,48730],"honeypot":0,"survey":"mace","page":9,"trial_type":"survey-mace","trial_index":17,"time_elapsed":611444,"internal_node_id":"0.0-17.0","task_version":"prescreen-v0.3","browser_interactions":0},{"responses":{"01":"No","02":"No","03":"No","04":"Yes","04_ages_6":"6","04_ages_7":"7","04_ages_8":"8","04_ages_9":"9","05":"No","06":"Yes","06_ages_17":"17","07":"Yes","07_ages_1":"1","07_ages_2":"2","07_ages_3":"3","07_ages_4":"4","07_ages_5":"5","07_ages_6":"6","07_ages_7":"7","07_ages_8":"8","07_ages_9":"9","07_ages_10":"10","07_ages_11":"11","07_ages_12":"12","07_ages_13":"13","07_ages_14":"14","07_ages_15":"15","07_ages_16":"16","07_ages_17":"17","07_ages_18":"18","08":"Yes","08_ages_13":"13","08_ages_14":"14","08_ages_15":"15","08_ages_16":"16","08_ages_17":"17","08_ages_18":"18"},"rt":53788.60000002384,"item_order":[0,1,2,3,4,5,6,7],"radio_events":[2348.800000011921,3422.699999988079,7305.399999976158,9647.600000023842,11681.100000023842,18003.100000023842,21357.80000001192,26190.19999998808,38565.5],"checkbox_events":[13866,14105.399999976158,14435.800000011921,14889.100000023842,23178.19999998808,28299.899999976158,28561.899999976158,28766.100000023842,29095.5,29516,29941.69999998808,30421.399999976158,30759.899999976158,31105.399999976158,31471.69999998808,31863.399999976158,32239.100000023842,32616,33012.19999998808,33707.60000002384,34052.39999997616,34526.19999998808,34844.19999998808,35302,35579.80000001192,39656.39999997616,39951.19999998808,40310.80000001192,40682,41073.69999998808,41606.30000001192],"key_events":[],"mouse_events":[2348.800000011921,3422.699999988079,7305.399999976158,9647.600000023842,11681.100000023842,13866,14105.399999976158,14435.800000011921,14889.100000023842,18003.100000023842,21357.80000001192,23178.19999998808,26190.19999998808,28299.899999976158,28561.899999976158,28766.100000023842,29095.5,29516,29941.69999998808,30421.399999976158,30759.899999976158,31105.399999976158,31471.69999998808,31863.399999976158,32239.100000023842,32616,33012.19999998808,33707.60000002384,34052.39999997616,34526.19999998808,34844.19999998808,35302,35579.80000001192,38565.5,39656.39999997616,39951.19999998808,40310.80000001192,40682,41073.69999998808,41606.30000001192,53775.5],"honeypot":0,"survey":"mace","page":10,"trial_type":"survey-mace","trial_index":18,"time_elapsed":665249,"internal_node_id":"0.0-18.0","task_version":"prescreen-v0.3","browser_interactions":0,"instructed":0},{"rt":5467.199999988079,"trial_type":"mental-health-alert","trial_index":19,"time_elapsed":670723,"internal_node_id":"0.0-19.0","task_version":"prescreen-v0.3","interactions":"[]"}]