[{"view_history":[{"page_index":0,"viewing_time":5547.399999976158},{"page_index":1,"viewing_time":3470.900000035763},{"page_index":2,"viewing_time":6043.799999952316},{"page_index":3,"viewing_time":1504.4000000357628}],"rt":16570.69999998808,"trial_type":"instructions","trial_index":0,"time_elapsed":16578,"internal_node_id":"0.0-0.0","task_version":"prescreen-v0.3"},{"rt":19482.30000001192,"responses":{"age":"47","gender-categorical":"Male","gender-free-response":"","ethnicity":"Not Hispanic or Latino","race":["White"],"education":"High school","siblings":"2"},"trial_type":"survey-demo","trial_index":1,"time_elapsed":36087,"internal_node_id":"0.0-1.0","task_version":"prescreen-v0.3"},{"responses":{"Q20":"0","Q11":"2","Q17":"1","Q09":"2","Q19":"2","Q07":"1","Q03":"0","Q08":"2","Q02":"2","Q10":"2","Q21":"3","Q01":"0","Q18":"1","Q04":"0","Q12":"1","Q05":"0","Q13":"1","Q14":"2","Q16":"1","Q06":"1","Q15":"1"},"rt":150374.5,"item_order":[19,10,16,8,18,6,2,7,1,9,20,0,17,3,11,4,12,13,15,5,14],"radio_events":[9474.100000023842,12977.399999976158,19289.30000001192,22469.600000023842,34253.5,41685.89999997616,45946.60000002384,51361.5,57311.80000001192,63963.69999998808,68449.60000002384,71744.30000001192,86253.19999998808,93716.89999997616,102009.30000001192,106602.10000002384,110445.39999997616,118774.19999998808,126589.69999998808,128982.60000002384,134447.39999997616,149285.89999997616],"key_events":[],"mouse_events":[9474.100000023842,12977.399999976158,19289.30000001192,21714.100000023842,22469.600000023842,34253.5,41685.89999997616,45946.60000002384,51361.5,57311.80000001192,63963.69999998808,68449.60000002384,71744.30000001192,86253.19999998808,93716.89999997616,102009.30000001192,106602.10000002384,110445.39999997616,118774.19999998808,126589.69999998808,128982.60000002384,134447.39999997616,149285.89999997616,150367.39999997616],"straightlining":0.38095238095238093,"zigzagging":0.65,"honeypot":0,"survey":"sns","trial_type":"survey-template","trial_index":2,"time_elapsed":186489,"internal_node_id":"0.0-2.0","task_version":"prescreen-v0.3","browser_interactions":0,"infrequency":0},{"responses":{"Q11":"2","Q08":"2","Q03":"3","Q05":"3","Q09":"2","Q04":"3","Q10":"2","Q07":"3","Q12":"1","Q06":"2","Q01":"3","Q13":"0","Q02":"2"},"rt":58826.90000003576,"item_order":[10,7,2,4,8,3,9,6,11,5,0,12,1],"radio_events":[6565.699999988079,11489.400000035763,18111.400000035763,22079.19999998808,25236,29814,33547.80000001192,36255.80000001192,40485.5,43038.90000003576,47369.10000002384,49691.30000001192,53388.90000003576,57803.19999998808],"key_events":[],"mouse_events":[6565.699999988079,11489.400000035763,18111.400000035763,22079.19999998808,25236,29814,33547.80000001192,36255.80000001192,40485.5,43038.90000003576,47369.10000002384,49691.30000001192,53388.90000003576,57803.19999998808,58822.30000001192],"straightlining":0.46153846153846156,"zigzagging":0.6666666666666666,"honeypot":0,"survey":"bisbas","trial_type":"survey-template","trial_index":3,"time_elapsed":245337,"internal_node_id":"0.0-3.0","task_version":"prescreen-v0.3","browser_interactions":0,"infrequency":0},{"responses":{"Q01":"2","Q02":"2","Q03":"3"},"rt":23099.19999998808,"radio_events":[6526.800000011921,15942.199999988079,21978.400000035763],"key_events":[],"mouse_events":[6526.800000011921,15942.199999988079,21978.400000035763,23096.80000001192],"survey":"map","page":1,"trial_type":"survey-map","trial_index":4,"time_elapsed":268457,"internal_node_id":"0.0-4.0","task_version":"prescreen-v0.3","browser_interactions":0},{"responses":{"Q04":"2","Q05":"3","Q06":"3"},"rt":22451.30000001192,"radio_events":[9692.300000011921,16159.800000011921,21454.19999998808],"key_events":[],"mouse_events":[9692.300000011921,16159.800000011921,20573.900000035763,21454.19999998808,22449.5],"survey":"map","page":2,"trial_type":"survey-map","trial_index":5,"time_elapsed":290923,"internal_node_id":"0.0-5.0","task_version":"prescreen-v0.3","browser_interactions":0},{"responses":{"Q07":"3","Q08":"4","Q09":"2"},"rt":25184.80000001192,"radio_events":[10687.100000023842,16552.900000035763,23993.19999998808],"key_events":[],"mouse_events":[10687.100000023842,16552.900000035763,23205.100000023842,23993.19999998808,25183.100000023842],"survey":"map","page":3,"trial_type":"survey-map","trial_index":6,"time_elapsed":316123,"internal_node_id":"0.0-6.0","task_version":"prescreen-v0.3","browser_interactions":0},{"responses":{"Q10":"2","Q11":"3","Q12":"3","Q13":"4","Q16":"0","Q14":"2","Q15":"3"},"rt":51648.39999997616,"radio_events":[9577.899999976158,15449.5,20258.69999998808,35592.59999996424,40223.39999997616,45278.89999997616,50619],"key_events":[],"mouse_events":[9577.899999976158,15449.5,20258.69999998808,35592.59999996424,40223.39999997616,45278.89999997616,50619,51644.59999996424],"survey":"map","page":4,"trial_type":"survey-map","trial_index":7,"time_elapsed":367787,"internal_node_id":"0.0-7.0","task_version":"prescreen-v0.3","browser_interactions":0,"infrequency":0},{"view_history":[{"page_index":0,"viewing_time":5792.600000023842},{"page_index":1,"viewing_time":5989.099999964237}],"rt":11784.399999976158,"trial_type":"instructions","trial_index":8,"time_elapsed":379585,"internal_node_id":"0.0-8.0","task_version":"prescreen-v0.3"},{"responses":{"01":"No","02":"No","03":"Yes","03_ages_9":"9","03_ages_10":"10","03_ages_11":"11","04":"No","05":"No","06":"Yes","06_ages_9":"9","06_ages_10":"10","06_ages_11":"11"},"rt":41670.59999996424,"item_order":[0,1,2,3,4,5],"radio_events":[9409.699999988079,15272.5,18590.69999998808,31432.69999998808,34297.19999998808,36518.80000001192],"checkbox_events":[25793.69999998808,26495.19999998808,27852.80000001192,39175,39798.80000001192,40508.80000001192],"key_events":[],"mouse_events":[0.3999999761581421,9409.699999988079,15272.5,18590.69999998808,25793.69999998808,26495.19999998808,27852.80000001192,31432.69999998808,34297.19999998808,36518.80000001192,39175,39798.80000001192,40508.80000001192,41660],"honeypot":0,"survey":"mace","page":1,"trial_type":"survey-mace","trial_index":9,"time_elapsed":421277,"internal_node_id":"0.0-9.0","task_version":"prescreen-v0.3","browser_interactions":0},{"responses":{"01":"No","02":"No","03":"Yes","03_ages_9":"9","03_ages_10":"10","03_ages_11":"11","04":"Yes","04_ages_8":"8","04_ages_9":"9","04_ages_10":"10","04_ages_11":"11","05":"Yes","05_ages_9":"9","05_ages_10":"10","06":"No","07":"No","08":"No"},"rt":64170.39999997616,"item_order":[0,1,2,3,4,5,6,7],"radio_events":[5409.099999964237,13789.899999976158,17485.5,19245.399999976158,32001.80000001192,53298,58808.09999996424,61121.69999998808,62974.09999996424],"checkbox_events":[23961,25010.099999964237,27241.69999998808,44438,45285.59999996424,46846,47740.30000001192,55627.89999997616,56361.59999996424],"key_events":[],"mouse_events":[5409.099999964237,13789.899999976158,17485.5,19245.399999976158,23961,25010.099999964237,27241.69999998808,32001.80000001192,44438,45285.59999996424,46846,47740.30000001192,53298,55627.89999997616,56361.59999996424,58808.09999996424,61121.69999998808,62974.09999996424,64157.5],"honeypot":0,"survey":"mace","page":2,"trial_type":"survey-mace","trial_index":10,"time_elapsed":485468,"internal_node_id":"0.0-10.0","task_version":"prescreen-v0.3","browser_interactions":0},{"responses":{"01":"Yes","01_ages_9":"9","01_ages_10":"10","02":"No","03":"No","04":"No"},"rt":36256.59999996424,"item_order":[0,1,2,3],"radio_events":[21577.599999964237,31581.19999998808,33773.30000001192,35285],"checkbox_events":[25089.399999976158,25869.30000001192],"key_events":[],"mouse_events":[20667.19999998808,21577.599999964237,25089.399999976158,25869.30000001192,31581.19999998808,33773.30000001192,35285,36249.80000001192],"honeypot":0,"survey":"mace","page":3,"trial_type":"survey-mace","trial_index":11,"time_elapsed":521742,"internal_node_id":"0.0-11.0","task_version":"prescreen-v0.3","browser_interactions":0},{"responses":{"01":"No","02":"No"},"rt":9853.199999988079,"item_order":[0,1],"radio_events":[6852.800000011921,8974.800000011921],"checkbox_events":[],"key_events":[],"mouse_events":[6852.800000011921,8974.800000011921,9849.5],"honeypot":0,"survey":"mace","page":4,"trial_type":"survey-mace","trial_index":12,"time_elapsed":531611,"internal_node_id":"0.0-12.0","task_version":"prescreen-v0.3","browser_interactions":0},{"responses":{"01":"No","02":"No","03":"No","04":"No","05":"No"},"rt":29091.69999998808,"item_order":[0,1,2,3,4],"radio_events":[11462.699999988079,14980.600000023842,19341.900000035763,22399,27895.19999998808],"checkbox_events":[],"key_events":[],"mouse_events":[11462.699999988079,14980.600000023842,19341.900000035763,22399,27895.19999998808,29082.30000001192],"honeypot":0,"survey":"mace","page":5,"trial_type":"survey-mace","trial_index":13,"time_elapsed":560720,"internal_node_id":"0.0-13.0","task_version":"prescreen-v0.3","browser_interactions":0},{"responses":{"01":"Yes","01_ages_15":"15","01_ages_16":"16","02":"Yes","02_ages_14":"14","02_ages_15":"15","02_ages_16":"16","03":"Yes","03_ages_17":"17","04":"No","05":"No"},"rt":56829.200000047684,"item_order":[0,1,2,3,4],"radio_events":[17137.30000001192,28524,45267.5,51465.200000047684,54929.60000002384],"checkbox_events":[21877.80000001192,22696,32569.30000001192,34559.200000047684,36281.90000003576,46555],"key_events":[],"mouse_events":[17137.30000001192,21877.80000001192,22696,28524,32569.30000001192,33225.40000003576,34559.200000047684,36281.90000003576,45267.5,46555,51465.200000047684,54929.60000002384,56821.30000001192],"honeypot":0,"survey":"mace","page":6,"trial_type":"survey-mace","trial_index":14,"time_elapsed":617569,"internal_node_id":"0.0-14.0","task_version":"prescreen-v0.3","browser_interactions":0},{"responses":{"01":"No","02":"No","03":"Yes","03_ages_12":"12","03_ages_13":"13","04":"No","05":"No","06":"No","07":"No"},"rt":41168.19999998808,"item_order":[0,1,2,3,4,5,6],"radio_events":[8216.800000011921,10608.599999964237,12654.899999976158,14198.5,17672.19999998808,19570.599999964237,21662.099999964237,25952.5],"checkbox_events":[33401.80000001192,34805.09999996424],"key_events":[],"mouse_events":[8216.800000011921,10608.599999964237,12654.899999976158,14198.5,17672.19999998808,19570.599999964237,21662.099999964237,25952.5,33401.80000001192,34805.09999996424,41156.69999998808],"honeypot":0,"survey":"mace","page":7,"trial_type":"survey-mace","trial_index":15,"time_elapsed":658757,"internal_node_id":"0.0-15.0","task_version":"prescreen-v0.3","browser_interactions":0},{"responses":{"01":"No","02":"Yes","02_ages_7":"7","02_ages_8":"8","02_ages_9":"9","02_ages_10":"10","02_ages_11":"11","02_ages_12":"12","02_ages_13":"13","02_ages_14":"14","02_ages_15":"15","03":"No","04":"Yes","04_ages_7":"7","04_ages_8":"8","04_ages_9":"9","04_ages_10":"10","04_ages_11":"11","04_ages_12":"12","04_ages_13":"13","04_ages_14":"14","04_ages_15":"15"},"rt":62138.10000002384,"item_order":[0,1,2,3],"radio_events":[10798,19412.80000001192,41200.90000003576,48925.90000003576],"checkbox_events":[28735.69999998808,29770.100000023842,30410.19999998808,31560.30000001192,32215.600000023842,32855.90000003576,33435.90000003576,33998.69999998808,34980.10000002384,54514.40000003576,55277.90000003576,55910.30000001192,56836.19999998808,57570.19999998808,58202.60000002384,58749.90000003576,59360.40000003576,59915.80000001192],"key_events":[],"mouse_events":[10798,19412.80000001192,28735.69999998808,29770.100000023842,30410.19999998808,31560.30000001192,32215.600000023842,32855.90000003576,33435.90000003576,33998.69999998808,34980.10000002384,41200.90000003576,48925.90000003576,54514.40000003576,55277.90000003576,55910.30000001192,56836.19999998808,57570.19999998808,58202.60000002384,58749.90000003576,59360.40000003576,59915.80000001192,62130.90000003576],"honeypot":0,"survey":"mace","page":8,"trial_type":"survey-mace","trial_index":16,"time_elapsed":720912,"internal_node_id":"0.0-16.0","task_version":"prescreen-v0.3","browser_interactions":0},{"responses":{"01":"Yes","01_ages_6":"6","01_ages_7":"7","01_ages_8":"8","01_ages_9":"9","01_ages_10":"10","01_ages_11":"11","01_ages_12":"12","01_ages_13":"13","01_ages_14":"14","01_ages_15":"15","01_ages_16":"16","01_ages_17":"17","01_ages_18":"18","02":"Yes","02_ages_15":"15","02_ages_16":"16","02_ages_17":"17","02_ages_18":"18","03":"Yes","03_ages_11":"11","03_ages_12":"12","03_ages_13":"13","03_ages_14":"14","03_ages_15":"15","03_ages_16":"16","03_ages_17":"17","04":"Yes","04_ages_6":"6","04_ages_7":"7","04_ages_8":"8","04_ages_9":"9","04_ages_10":"10","04_ages_11":"11","04_ages_12":"12","04_ages_13":"13","04_ages_14":"14","04_ages_15":"15","04_ages_16":"16","04_ages_17":"17","04_ages_18":"18"},"rt":74643.89999997616,"item_order":[0,1,2,3],"radio_events":[9978.799999952316,34720.39999997616,44329.59999996424,60628.69999998808],"checkbox_events":[16708.69999998808,17332.899999976158,18283.399999976158,18968.69999998808,19487.399999976158,20520.5,21317.19999998808,23052.299999952316,23655,24141.099999964237,24934.799999952316,27212.69999998808,27737.19999998808,37075.299999952316,37816.59999996424,38457.39999997616,39121.19999998808,48110.39999997616,48598.59999996424,49517,50103.09999996424,50667.5,51190.39999997616,52324.799999952316,65582.79999995232,66193.5,67088.69999998808,67720.39999997616,68222.89999997616,68717.19999998808,69463.69999998808,70344.89999997616,70893,71464.89999997616,71972.69999998808,72598.69999998808,73424.19999998808],"key_events":[],"mouse_events":[9978.799999952316,16708.69999998808,17332.899999976158,18283.399999976158,18968.69999998808,19487.399999976158,20520.5,21317.19999998808,22250.19999998808,23052.299999952316,23655,24141.099999964237,24934.799999952316,27212.69999998808,27737.19999998808,34720.39999997616,37075.299999952316,37816.59999996424,38457.39999997616,39121.19999998808,43450.799999952316,44329.59999996424,48110.39999997616,48598.59999996424,49517,50103.09999996424,50667.5,51190.39999997616,51762.59999996424,52324.799999952316,60628.69999998808,65582.79999995232,66193.5,67088.69999998808,67720.39999997616,68222.89999997616,68717.19999998808,69463.69999998808,70344.89999997616,70893,71464.89999997616,71972.69999998808,72598.69999998808,73424.19999998808,74637.29999995232],"honeypot":0,"survey":"mace","page":9,"trial_type":"survey-mace","trial_index":17,"time_elapsed":795574,"internal_node_id":"0.0-17.0","task_version":"prescreen-v0.3","browser_interactions":0},{"responses":{"01":"No","02":"No","03":"No","04":"Yes","04_ages_10":"10","04_ages_11":"11","04_ages_12":"12","05":"No","06":"Yes","06_ages_17":"17","07":"Yes","07_ages_10":"10","07_ages_11":"11","07_ages_12":"12","07_ages_13":"13","07_ages_14":"14","07_ages_15":"15","07_ages_16":"16","07_ages_17":"17","08":"Yes","08_ages_13":"13","08_ages_14":"14","08_ages_15":"15","08_ages_16":"16","08_ages_17":"17","08_ages_18":"18"},"rt":55613.10000002384,"item_order":[0,1,2,3,4,5,6,7],"radio_events":[6370,8284.5,11388.199999988079,13718.300000011921,22435.100000023842,25220.80000001192,30506,45888.30000001192],"checkbox_events":[17006,17902.600000023842,18612.80000001192,26703.19999998808,37128.40000003576,37684.40000003576,38550.90000003576,39451.19999998808,39954.19999998808,40502.69999998808,41535.90000003576,42108.5,49615.69999998808,50480.30000001192,51052.60000002384,51785.69999998808,52456.30000001192,53236.5],"key_events":[],"mouse_events":[6370,8284.5,11388.199999988079,13718.300000011921,17006,17902.600000023842,18612.80000001192,22435.100000023842,25220.80000001192,26703.19999998808,30506,37128.40000003576,37684.40000003576,38550.90000003576,39451.19999998808,39954.19999998808,40502.69999998808,41535.90000003576,42108.5,45888.30000001192,49615.69999998808,50480.30000001192,51052.60000002384,51785.69999998808,52456.30000001192,53236.5,55599.40000003576],"honeypot":0,"survey":"mace","page":10,"trial_type":"survey-mace","trial_index":18,"time_elapsed":851209,"internal_node_id":"0.0-18.0","task_version":"prescreen-v0.3","browser_interactions":0,"instructed":0},{"rt":7864.900000035763,"trial_type":"mental-health-alert","trial_index":19,"time_elapsed":859089,"internal_node_id":"0.0-19.0","task_version":"prescreen-v0.3","interactions":"[]"}]