[{"view_history":[{"page_index":0,"viewing_time":4435.5},{"page_index":1,"viewing_time":1496.2999999821186},{"page_index":2,"viewing_time":763.1000000238419},{"page_index":3,"viewing_time":1515.0999999940395}],"rt":8212.199999988079,"trial_type":"instructions","trial_index":0,"time_elapsed":8246,"internal_node_id":"0.0-0.0","task_version":"prescreen-v0.3"},{"rt":19588.80000001192,"responses":{"age":"32","gender-categorical":"Female","gender-free-response":"","ethnicity":"Not Hispanic or Latino","race":["Asian"],"education":"Master degree or higher"},"trial_type":"survey-demo","trial_index":1,"time_elapsed":27842,"internal_node_id":"0.0-1.0","task_version":"prescreen-v0.3"},{"responses":{"Q12":"3","Q08":"3","Q06":"2","Q16":"0","Q09":"3","Q02":"3","Q15":"1","Q21":"3","Q04":"3","Q10":"3","Q03":"3","Q20":"3","Q17":"3","Q05":"1","Q13":"0","Q01":"3","Q18":"2","Q07":"3","Q14":"0","Q11":"3","Q19":"3"},"rt":91308.59999999404,"item_order":[11,7,5,15,8,1,14,20,3,9,2,19,16,4,12,0,17,6,13,10,18],"radio_events":[6863.5,11747.899999976158,13340.299999982119,20501.09999999404,22194.69999998808,25174.09999999404,30330.899999976158,36148.69999998808,39617.09999999404,45160.29999998212,46954.29999998212,48402.59999999404,56035.69999998808,58503.89999997616,67178.09999999404,68434.69999998808,72120.89999997616,73379.39999997616,80664.29999998212,83741.5,87523.29999998212,90509.89999997616],"key_events":[],"mouse_events":[5267.899999976158,6452.799999982119,6863.5,7534.0999999940395,11747.899999976158,13340.299999982119,18260,19347.5,20501.09999999404,22194.69999998808,25174.09999999404,29097.69999998808,30330.899999976158,36148.69999998808,39617.09999999404,45160.29999998212,46954.29999998212,48402.59999999404,53877.09999999404,56035.69999998808,57233.5,57810.59999999404,58503.89999997616,62668.79999998212,63265.89999997616,65290,66438.09999999404,67178.09999999404,68434.69999998808,72120.89999997616,72950,73379.39999997616,79660.5,80664.29999998212,83741.5,85454.59999999404,87523.29999998212,90509.89999997616,91305.89999997616],"straightlining":0.6666666666666666,"zigzagging":0.4,"honeypot":0,"survey":"sns","trial_type":"survey-template","trial_index":2,"time_elapsed":119170,"internal_node_id":"0.0-2.0","task_version":"prescreen-v0.3","browser_interactions":0,"infrequency":0},{"responses":{"Q11":"3","Q05":"0","Q03":"2","Q07":"2","Q08":"2","Q10":"3","Q02":"0","Q12":"2","Q04":"2","Q09":"2","Q06":"2","Q13":"0","Q01":"2"},"rt":46840.59999999404,"item_order":[10,4,2,6,7,9,1,11,3,8,5,12,0],"radio_events":[5225.5999999940395,8025.800000011921,11700.09999999404,14257,17479.30000001192,21140.69999998808,24445.5,26826.69999998808,33635.5,35010.09999999404,39306,42249.90000000596,44368.30000001192,45110.40000000596],"key_events":[],"mouse_events":[4485.199999988079,5225.5999999940395,8025.800000011921,9431.300000011921,11700.09999999404,14257,17479.30000001192,21140.69999998808,23285.30000001192,24445.5,26826.69999998808,30619,31216.59999999404,31745.69999998808,32288.80000001192,33635.5,34303.80000001192,35010.09999999404,36458.09999999404,38385.09999999404,39306,42249.90000000596,43617,44368.30000001192,45110.40000000596,46836],"straightlining":0.6153846153846154,"zigzagging":0.25,"honeypot":0,"survey":"bisbas","trial_type":"survey-template","trial_index":3,"time_elapsed":166019,"internal_node_id":"0.0-3.0","task_version":"prescreen-v0.3","browser_interactions":0,"infrequency":0},{"responses":{"Q01":"0","Q02":"0","Q03":"0"},"rt":15542.59999999404,"radio_events":[8923.199999988079,13121,14164.299999982119],"key_events":[],"mouse_events":[8923.199999988079,11070.799999982119,13121,14164.299999982119,15541.90000000596],"survey":"map","page":1,"trial_type":"survey-map","trial_index":4,"time_elapsed":181569,"internal_node_id":"0.0-4.0","task_version":"prescreen-v0.3","browser_interactions":0},{"responses":{"Q04":"0","Q05":"0","Q06":"0"},"rt":8520.199999988079,"radio_events":[4583.699999988079,5855.699999988079,7107.800000011921],"key_events":[],"mouse_events":[4056.5999999940395,4583.699999988079,5855.699999988079,7107.800000011921,8518.90000000596],"survey":"map","page":2,"trial_type":"survey-map","trial_index":5,"time_elapsed":190101,"internal_node_id":"0.0-5.0","task_version":"prescreen-v0.3","browser_interactions":0},{"responses":{"Q07":"0","Q08":"0","Q09":"0"},"rt":6895.100000023842,"radio_events":[2417.7000000178814,3935,5321.700000017881],"key_events":[],"mouse_events":[1905.4000000059605,2417.7000000178814,3555.9000000059605,3935,5321.700000017881,6894.300000011921],"survey":"map","page":3,"trial_type":"survey-map","trial_index":6,"time_elapsed":197007,"internal_node_id":"0.0-6.0","task_version":"prescreen-v0.3","browser_interactions":0},{"responses":{"Q10":"0","Q11":"0","Q12":"0","Q13":"0","Q16":"0","Q14":"0","Q15":"0"},"rt":16421.19999998808,"radio_events":[2056.800000011921,3026.5,5261.699999988079,9836.90000000596,11572.5,12708,15403.699999988079],"key_events":[],"mouse_events":[2056.800000011921,3026.5,4115.699999988079,5261.699999988079,9432.59999999404,9836.90000000596,10861.300000011921,11572.5,12708,15046.800000011921,15403.699999988079,16419.69999998808],"survey":"map","page":4,"trial_type":"survey-map","trial_index":7,"time_elapsed":213441,"internal_node_id":"0.0-7.0","task_version":"prescreen-v0.3","browser_interactions":0,"infrequency":0},{"view_history":[{"page_index":0,"viewing_time":3185},{"page_index":1,"viewing_time":4795.0999999940395}],"rt":7981.0999999940395,"trial_type":"instructions","trial_index":8,"time_elapsed":221431,"internal_node_id":"0.0-8.0","task_version":"prescreen-v0.3"},{"responses":{"01":"Yes","01_ages_12":"12","01_ages_13":"13","01_ages_14":"14","02":"Yes","02_ages_12":"12","02_ages_13":"13","02_ages_14":"14","03":"Yes","03_ages_6":"6","03_ages_7":"7","03_ages_8":"8","03_ages_9":"9","03_ages_10":"10","03_ages_11":"11","03_ages_12":"12","03_ages_13":"13","04":"Yes","04_ages_12":"12","05":"No","06":"Yes","06_ages_6":"6","06_ages_7":"7","06_ages_8":"8","06_ages_9":"9","06_ages_10":"10","06_ages_11":"11","06_ages_12":"12","06_ages_13":"13"},"rt":62136.29999998212,"item_order":[0,1,2,3,4,5],"radio_events":[5736,16910.5,22895.90000000596,34050.40000000596,43622.40000000596,51091.90000000596],"checkbox_events":[11167.40000000596,11970.5,12889.799999982119,18103,18682.19999998808,19312.59999999404,25777,26601.79999998212,27330.59999999404,28196.79999998212,28821.90000000596,29346.29999998212,30166.5,31250.59999999404,36214.5,36836.40000000596,37483.09999999404,39171.19999998808,39848.59999999404,55257.40000000596,56417.69999998808,57085.40000000596,57733,58689.29999998212,59397.29999998212,60192.59999999404,61192.09999999404],"key_events":[],"mouse_events":[0.09999999403953552,5736,11167.40000000596,11970.5,12889.799999982119,16910.5,18103,18682.19999998808,19312.59999999404,22895.90000000596,25777,26601.79999998212,27330.59999999404,28196.79999998212,28821.90000000596,29346.29999998212,30166.5,31250.59999999404,34050.40000000596,36214.5,36836.40000000596,37483.09999999404,39171.19999998808,39848.59999999404,40753.29999998212,43622.40000000596,51091.90000000596,55257.40000000596,55747.69999998808,56417.69999998808,57085.40000000596,57733,58689.29999998212,59397.29999998212,60192.59999999404,61192.09999999404,62133.69999998808],"honeypot":0,"survey":"mace","page":1,"trial_type":"survey-mace","trial_index":9,"time_elapsed":283580,"internal_node_id":"0.0-9.0","task_version":"prescreen-v0.3","browser_interactions":0},{"responses":{"01":"Yes","01_ages_6":"6","01_ages_7":"7","01_ages_8":"8","01_ages_9":"9","01_ages_10":"10","01_ages_11":"11","01_ages_12":"12","01_ages_13":"13","01_ages_14":"14","02":"No","03":"No","04":"No","05":"No","06":"No","07":"No","08":"No"},"rt":80675.40000000596,"item_order":[0,1,2,3,4,5,6,7],"radio_events":[6742.0999999940395,18215.40000000596,20931.90000000596,21938.69999998808,73410.59999999404,74343.59999999404,78743.59999999404,79904.40000000596],"checkbox_events":[8429.799999982119,8953,9541.699999988079,10198.09999999404,10780.699999988079,11444.90000000596,11959.59999999404,12450.40000000596,13333.299999982119],"key_events":[],"mouse_events":[6021.5,6742.0999999940395,8429.799999982119,8953,9541.699999988079,10198.09999999404,10780.699999988079,11444.90000000596,11959.59999999404,12450.40000000596,13333.299999982119,18215.40000000596,20931.90000000596,21938.69999998808,73410.59999999404,74343.59999999404,78743.59999999404,79904.40000000596,80669.69999998808],"honeypot":0,"survey":"mace","page":2,"trial_type":"survey-mace","trial_index":10,"time_elapsed":364268,"internal_node_id":"0.0-10.0","task_version":"prescreen-v0.3","browser_interactions":2},{"responses":{"01":"No","02":"No","03":"No","04":"No"},"rt":10664.90000000596,"item_order":[0,1,2,3],"radio_events":[5809.5999999940395,6533.199999988079,7622.800000011921,9844.199999988079],"checkbox_events":[],"key_events":[],"mouse_events":[4784.300000011921,5462.800000011921,5809.5999999940395,6533.199999988079,7622.800000011921,9844.199999988079,10660.59999999404],"honeypot":0,"survey":"mace","page":3,"trial_type":"survey-mace","trial_index":11,"time_elapsed":374943,"internal_node_id":"0.0-11.0","task_version":"prescreen-v0.3","browser_interactions":0},{"responses":{"01":"No","02":"No"},"rt":6738.399999976158,"item_order":[0,1],"radio_events":[4326,5875.199999988079],"checkbox_events":[],"key_events":[],"mouse_events":[2391.899999976158,3301.899999976158,4326,5875.199999988079,6736.5999999940395],"honeypot":0,"survey":"mace","page":4,"trial_type":"survey-mace","trial_index":12,"time_elapsed":381689,"internal_node_id":"0.0-12.0","task_version":"prescreen-v0.3","browser_interactions":0},{"responses":{"01":"No","02":"No","03":"No","04":"No","05":"No"},"rt":12471.09999999404,"item_order":[0,1,2,3,4],"radio_events":[4677,5558.4000000059605,7368,10887.200000017881,11545.800000011921],"checkbox_events":[],"key_events":[],"mouse_events":[4677,5558.4000000059605,7368,10887.200000017881,11545.800000011921,12466.90000000596],"honeypot":0,"survey":"mace","page":5,"trial_type":"survey-mace","trial_index":13,"time_elapsed":394175,"internal_node_id":"0.0-13.0","task_version":"prescreen-v0.3","browser_interactions":0},{"responses":{"01":"Yes","01_ages_12":"12","01_ages_13":"13","01_ages_14":"14","02":"Yes","02_ages_12":"12","02_ages_13":"13","02_ages_14":"14","03":"Yes","03_ages_12":"12","03_ages_13":"13","03_ages_14":"14","04":"Yes","04_ages_12":"12","04_ages_13":"13","04_ages_14":"14","05":"No"},"rt":40961.79999998212,"item_order":[0,1,2,3,4],"radio_events":[3981.699999988079,13206.799999982119,26764,31733.59999999404,40370.39999997616],"checkbox_events":[6279.299999982119,6869.699999988079,7427.699999988079,15432.699999988079,16085.699999988079,17384.5,27640,28045.399999976158,28525.79999998212,32738.59999999404,33156.79999998212,33755.39999997616],"key_events":[],"mouse_events":[3981.699999988079,6279.299999982119,6869.699999988079,7427.699999988079,12536.899999976158,13206.799999982119,15432.699999988079,16085.699999988079,17384.5,26764,27640,28045.399999976158,28525.79999998212,31093.399999976158,31733.59999999404,32738.59999999404,33156.79999998212,33755.39999997616,35550.09999999404,39999.29999998212,40370.39999997616,40956.79999998212],"honeypot":0,"survey":"mace","page":6,"trial_type":"survey-mace","trial_index":14,"time_elapsed":435146,"internal_node_id":"0.0-14.0","task_version":"prescreen-v0.3","browser_interactions":0},{"responses":{"01":"No","02":"No","03":"Yes","03_ages_6":"6","03_ages_7":"7","03_ages_8":"8","03_ages_9":"9","03_ages_10":"10","03_ages_11":"11","03_ages_12":"12","03_ages_13":"13","03_ages_14":"14","04":"Yes","04_ages_6":"6","04_ages_7":"7","04_ages_8":"8","04_ages_9":"9","04_ages_10":"10","04_ages_11":"11","04_ages_12":"12","04_ages_13":"13","04_ages_14":"14","05":"No","06":"No","07":"No"},"rt":43006.90000000596,"item_order":[0,1,2,3,4,5,6],"radio_events":[5421.9000000059605,6250.699999988079,9978.300000011921,24301.40000000596,35085.90000000596,38865.90000000596,41536.69999998808,42455.80000001192],"checkbox_events":[14990.699999988079,16163.40000000596,17396.09999999404,19174.40000000596,20294.09999999404,21240.80000001192,21751.80000001192,22268.69999998808,23375.80000001192,26193.19999998808,26659.90000000596,27268.90000000596,27742.5,28802.19999998808,29375.5,30009.30000001192,30561.5,31360.90000000596],"key_events":[],"mouse_events":[5421.9000000059605,6250.699999988079,9978.300000011921,14990.699999988079,16163.40000000596,16801.80000001192,17396.09999999404,18288.90000000596,18760.19999998808,19174.40000000596,19732.30000001192,20294.09999999404,21240.80000001192,21751.80000001192,22268.69999998808,23375.80000001192,24301.40000000596,26193.19999998808,26659.90000000596,27268.90000000596,27742.5,28334,28802.19999998808,29375.5,30009.30000001192,30561.5,31360.90000000596,35085.90000000596,36161.30000001192,38865.90000000596,41536.69999998808,42455.80000001192,42993.09999999404],"honeypot":0,"survey":"mace","page":7,"trial_type":"survey-mace","trial_index":15,"time_elapsed":478163,"internal_node_id":"0.0-15.0","task_version":"prescreen-v0.3","browser_interactions":0},{"responses":{"01":"Yes","01_ages_6":"6","01_ages_7":"7","01_ages_8":"8","01_ages_9":"9","01_ages_10":"10","01_ages_11":"11","01_ages_12":"12","01_ages_13":"13","01_ages_14":"14","02":"No","03":"No","04":"Yes","04_ages_12":"12","04_ages_13":"13","04_ages_14":"14"},"rt":32426.5,"item_order":[0,1,2,3],"radio_events":[6261.199999988079,18094.5,23252.59999999404,25049.5,26687.19999998808],"checkbox_events":[9574.799999982119,9994.799999982119,10460.90000000596,10927.09999999404,11503.40000000596,11921.40000000596,12362.799999982119,12985,13506.699999988079,28933.90000000596,30376.5,30782.19999998808],"key_events":[],"mouse_events":[6261.199999988079,9574.799999982119,9994.799999982119,10460.90000000596,10927.09999999404,11503.40000000596,11921.40000000596,12362.799999982119,12985,13506.699999988079,18094.5,23252.59999999404,25049.5,26687.19999998808,28933.90000000596,29511.69999998808,30002.09999999404,30376.5,30782.19999998808,32421.69999998808],"honeypot":0,"survey":"mace","page":8,"trial_type":"survey-mace","trial_index":16,"time_elapsed":510600,"internal_node_id":"0.0-16.0","task_version":"prescreen-v0.3","browser_interactions":0},{"responses":{"01":"No","02":"No","03":"No","04":"No"},"rt":9502.59999999404,"item_order":[0,1,2,3],"radio_events":[3735.4000000059605,4756.699999988079,6299.5,7229.5],"checkbox_events":[],"key_events":[],"mouse_events":[3735.4000000059605,4756.699999988079,6299.5,7229.5,9499.699999988079],"honeypot":0,"survey":"mace","page":9,"trial_type":"survey-mace","trial_index":17,"time_elapsed":520112,"internal_node_id":"0.0-17.0","task_version":"prescreen-v0.3","browser_interactions":0},{"responses":{"01":"No","02":"No","03":"Yes","03_ages_12":"12","03_ages_13":"13","03_ages_14":"14","04":"No","05":"No","06":"Yes","06_ages_17":"17","07":"No","08":"No"},"rt":23182.69999998808,"item_order":[0,1,2,3,4,5,6,7],"radio_events":[3574.0999999940395,4808.299999982119,7966.0999999940395,14022.299999982119,15301,16775.399999976158,20758,22673.5],"checkbox_events":[9045.399999976158,9427.59999999404,10085.799999982119,18300],"key_events":[],"mouse_events":[3574.0999999940395,4808.299999982119,7966.0999999940395,9045.399999976158,9427.59999999404,10085.799999982119,14022.299999982119,15301,16775.399999976158,18300,20758,21806.29999998212,22673.5,23175.29999998212],"honeypot":0,"survey":"mace","page":10,"trial_type":"survey-mace","trial_index":18,"time_elapsed":543307,"internal_node_id":"0.0-18.0","task_version":"prescreen-v0.3","browser_interactions":0,"instructed":0},{"rt":2404.399999976158,"trial_type":"mental-health-alert","trial_index":19,"time_elapsed":545717,"internal_node_id":"0.0-19.0","task_version":"prescreen-v0.3","interactions":"[{\"event\":\"blur\",\"trial\":10,\"time\":319558},{\"event\":\"focus\",\"trial\":10,\"time\":354848}]"}]