[{"view_history":[{"page_index":0,"viewing_time":2486},{"page_index":1,"viewing_time":2279},{"page_index":2,"viewing_time":2669},{"page_index":3,"viewing_time":1431}],"rt":8866,"trial_type":"instructions","trial_index":0,"time_elapsed":8871,"internal_node_id":"0.0-0.0","task_version":"prescreen-v0.3"},{"rt":16130,"responses":{"age":"28","gender-categorical":"Female","gender-free-response":"","ethnicity":"Hispanic or Latino","race":["Rather not say"],"education":"Some college"},"trial_type":"survey-demo","trial_index":1,"time_elapsed":25009,"internal_node_id":"0.0-1.0","task_version":"prescreen-v0.3"},{"responses":{"Q02":"0","Q09":"1","Q15":"3","Q12":"2","Q13":"3","Q17":"0","Q16":"3","Q07":"1","Q03":"1","Q05":"2","Q18":"2","Q20":"2","Q19":"2","Q11":"0","Q01":"0","Q08":"3","Q14":"3","Q06":"1","Q04":"1","Q21":"3","Q10":"0"},"rt":287790.00000000006,"item_order":[1,8,14,11,12,16,15,6,2,4,17,19,18,10,0,7,13,5,3,20,9],"radio_events":[99596,108809,112655.00000000003,122755,126337,131003,135633,140142,143791,151043,211263.00000000003,215549,219275,238427,246674,250674,264191,271593.00000000006,276743,281299,285638],"key_events":[],"mouse_events":[99596,108809,112655.00000000003,122755,126337,131003,135633,140142,143791,151043,211263.00000000003,214348,215549,219275,238427,246674,250674,261357,262151,262943,264191,271593.00000000006,276743,281299,285638,287777],"straightlining":0.2857142857142857,"zigzagging":0.4,"honeypot":0,"survey":"sns","trial_type":"survey-template","trial_index":2,"time_elapsed":312811,"internal_node_id":"0.0-2.0","task_version":"prescreen-v0.3","browser_interactions":0,"infrequency":0},{"responses":{"Q10":"0","Q08":"2","Q05":"2","Q11":"2","Q03":"2","Q02":"3","Q13":"0","Q04":"3","Q09":"1","Q01":"2","Q07":"2","Q12":"1","Q06":"2"},"rt":87612.99999999994,"item_order":[9,7,4,10,2,1,12,3,8,0,6,11,5],"radio_events":[42836.99999999994,46825.99999999994,49691.99999999994,53617.99999999994,56800.99999999994,60318.99999999994,62260.99999999994,71019,75269.99999999994,77394,81370.99999999994,83953.99999999994,86227.99999999994],"key_events":[],"mouse_events":[42836.99999999994,46825.99999999994,49691.99999999994,53617.99999999994,56800.99999999994,60318.99999999994,62260.99999999994,71019,74069.99999999994,75269.99999999994,77394,81370.99999999994,83953.99999999994,86227.99999999994,87603.99999999994],"straightlining":0.5384615384615384,"zigzagging":0.5,"honeypot":0,"survey":"bisbas","trial_type":"survey-template","trial_index":3,"time_elapsed":400430,"internal_node_id":"0.0-3.0","task_version":"prescreen-v0.3","browser_interactions":0,"infrequency":0},{"responses":{"Q01":"2","Q02":"2","Q03":"2"},"rt":25690,"radio_events":[9788,15809,24130],"key_events":[],"mouse_events":[9788,15809,24130,25684],"survey":"map","page":1,"trial_type":"survey-map","trial_index":4,"time_elapsed":426124,"internal_node_id":"0.0-4.0","task_version":"prescreen-v0.3","browser_interactions":0},{"responses":{"Q04":"2","Q05":"2","Q06":"2"},"rt":15683.999999999942,"radio_events":[6517.999999999942,10940.999999999942,13831.999999999942],"key_events":[],"mouse_events":[1054.9999999999418,6517.999999999942,10940.999999999942,13831.999999999942,15679.999999999942],"survey":"map","page":2,"trial_type":"survey-map","trial_index":5,"time_elapsed":441812,"internal_node_id":"0.0-5.0","task_version":"prescreen-v0.3","browser_interactions":0},{"responses":{"Q07":"3","Q08":"0","Q09":"3"},"rt":19654,"radio_events":[7821,14294,17929],"key_events":[],"mouse_events":[7821,14294,17929,19649],"survey":"map","page":3,"trial_type":"survey-map","trial_index":6,"time_elapsed":461470,"internal_node_id":"0.0-6.0","task_version":"prescreen-v0.3","browser_interactions":0},{"responses":{"Q10":"1","Q11":"2","Q12":"1","Q13":"1","Q16":"0","Q14":"2","Q15":"2"},"rt":91139.99999999994,"radio_events":[68185.99999999994,70866.99999999994,74518.99999999994,76667.99999999994,77779.99999999994,81944.99999999994,87558.99999999994,89962.99999999994],"key_events":[],"mouse_events":[68185.99999999994,70866.99999999994,74518.99999999994,76667.99999999994,77779.99999999994,81944.99999999994,87558.99999999994,89962.99999999994,91130.99999999994],"survey":"map","page":4,"trial_type":"survey-map","trial_index":7,"time_elapsed":552617,"internal_node_id":"0.0-7.0","task_version":"prescreen-v0.3","browser_interactions":0,"infrequency":0},{"view_history":[{"page_index":0,"viewing_time":3248.9999999998836},{"page_index":1,"viewing_time":3588}],"rt":6836.999999999884,"trial_type":"instructions","trial_index":8,"time_elapsed":559456,"internal_node_id":"0.0-8.0","task_version":"prescreen-v0.3"},{"responses":{"01":"Yes","01_ages_9":"9","01_ages_10":"10","01_ages_11":"11","01_ages_12":"12","01_ages_13":"13","01_ages_14":"14","01_ages_15":"15","01_ages_16":"16","01_ages_17":"17","01_ages_18":"18","02":"Yes","02_ages_9":"9","02_ages_10":"10","02_ages_11":"11","02_ages_12":"12","02_ages_13":"13","02_ages_14":"14","02_ages_15":"15","02_ages_16":"16","02_ages_17":"17","02_ages_18":"18","03":"Yes","03_ages_4":"4","03_ages_5":"5","03_ages_6":"6","03_ages_7":"7","03_ages_8":"8","03_ages_9":"9","03_ages_10":"10","03_ages_11":"11","03_ages_12":"12","03_ages_13":"13","03_ages_14":"14","03_ages_15":"15","03_ages_16":"16","03_ages_17":"17","03_ages_18":"18","04":"No","05":"No","06":"Yes","06_ages_4":"4","06_ages_5":"5","06_ages_6":"6","06_ages_7":"7","06_ages_8":"8","06_ages_9":"9","06_ages_10":"10","06_ages_11":"11","06_ages_12":"12","06_ages_13":"13","06_ages_14":"14","06_ages_15":"15","06_ages_16":"16","06_ages_17":"17","06_ages_18":"18"},"rt":84722,"item_order":[0,1,2,3,4,5],"radio_events":[8131,27824,41610,62655,64568,67655],"checkbox_events":[15025,15912,16769,17793,18791,19790,20757.000000000116,21909,22685.000000000116,23768,30258,31096,32085,33225,34199,35113,35991,36863,37598,38760,44782,46112,47176,48342,49662,50474,51295,52326,53219,53995,54860,55710,56615,57479,58495,70800,71772,72629,73500,74445,75301,76243,77194,78201,79161.00000000012,80165,81021,82013,83037,83885],"key_events":[],"mouse_events":[0,8131,15025,15912,16769,17793,18791,19790,20757.000000000116,21909,22685.000000000116,23768,27824,30258,31096,32085,33225,34199,35113,35991,36863,37598,38760,41610,44782,46112,47176,48342,49662,50474,51295,52326,53219,53995,54860,55710,56615,57479,58495,62655,64568,67655,70800,71772,72629,73500,74445,75301,76243,77194,78201,79161.00000000012,80165,81021,82013,83037,83885,84711],"honeypot":0,"survey":"mace","page":1,"trial_type":"survey-mace","trial_index":9,"time_elapsed":644188,"internal_node_id":"0.0-9.0","task_version":"prescreen-v0.3","browser_interactions":0},{"responses":{"01":"No","02":"No","03":"Yes","03_ages_3":"3","03_ages_4":"4","03_ages_5":"5","03_ages_6":"6","03_ages_7":"7","03_ages_8":"8","03_ages_9":"9","03_ages_10":"10","03_ages_11":"11","03_ages_12":"12","03_ages_13":"13","03_ages_14":"14","03_ages_15":"15","03_ages_16":"16","03_ages_17":"17","03_ages_18":"18","04":"No","05":"Yes","05_ages_3":"3","05_ages_4":"4","05_ages_5":"5","05_ages_6":"6","05_ages_7":"7","05_ages_8":"8","05_ages_9":"9","05_ages_10":"10","05_ages_11":"11","05_ages_12":"12","05_ages_13":"13","05_ages_14":"14","05_ages_15":"15","05_ages_16":"16","05_ages_17":"17","05_ages_18":"18","06":"No","07":"No","08":"No"},"rt":65631.99999999988,"item_order":[0,1,2,3,4,5,6,7],"radio_events":[12010.999999999884,15265.999999999884,17543.999999999884,36476.99999999988,39107.99999999988,61222.99999999988,63087.99999999988,64438.99999999988],"checkbox_events":[19300.999999999884,20284.999999999884,21084.999999999884,21995.999999999884,22827.999999999884,23808,25103.999999999884,26095.999999999884,26896.999999999884,28227.999999999884,29460.999999999884,30372.999999999884,31202,31959.999999999884,32943.99999999988,35435.99999999988,41319.99999999988,42239.99999999988,43054.99999999988,44074.99999999988,45084.99999999988,46114.99999999988,47294.99999999988,48136.99999999988,48974.99999999988,49838.99999999988,51159,52210.99999999988,53286.99999999988,54042.99999999988,54853.99999999988,55639.99999999988],"key_events":[],"mouse_events":[12010.999999999884,15265.999999999884,17543.999999999884,19300.999999999884,20284.999999999884,21084.999999999884,21995.999999999884,22827.999999999884,23808,25103.999999999884,26095.999999999884,26896.999999999884,28227.999999999884,29460.999999999884,30372.999999999884,31202,31959.999999999884,32943.99999999988,33911.99999999988,35435.99999999988,36476.99999999988,39107.99999999988,41319.99999999988,42239.99999999988,43054.99999999988,44074.99999999988,45084.99999999988,46114.99999999988,47294.99999999988,48136.99999999988,48974.99999999988,49838.99999999988,51159,52210.99999999988,53286.99999999988,54042.99999999988,54853.99999999988,55639.99999999988,61222.99999999988,63087.99999999988,64438.99999999988,65621.99999999988],"honeypot":0,"survey":"mace","page":2,"trial_type":"survey-mace","trial_index":10,"time_elapsed":709828,"internal_node_id":"0.0-10.0","task_version":"prescreen-v0.3","browser_interactions":0},{"responses":{"01":"No","02":"No","03":"No","04":"No"},"rt":16512.000000000116,"item_order":[0,1,2,3],"radio_events":[9104,11892.000000000116,14360,15488.000000000116],"checkbox_events":[],"key_events":[],"mouse_events":[9104,11892.000000000116,14360,15488.000000000116,16504],"honeypot":0,"survey":"mace","page":3,"trial_type":"survey-mace","trial_index":11,"time_elapsed":726345,"internal_node_id":"0.0-11.0","task_version":"prescreen-v0.3","browser_interactions":0},{"responses":{"01":"No","02":"No"},"rt":6829,"item_order":[0,1],"radio_events":[4569,5754.000000000116],"checkbox_events":[],"key_events":[],"mouse_events":[4569,5754.000000000116,6822],"honeypot":0,"survey":"mace","page":4,"trial_type":"survey-mace","trial_index":12,"time_elapsed":733180,"internal_node_id":"0.0-12.0","task_version":"prescreen-v0.3","browser_interactions":0},{"responses":{"01":"Yes","01_ages_5":"5","01_ages_6":"6","01_ages_7":"7","01_ages_8":"8","01_ages_9":"9","01_ages_10":"10","01_ages_11":"11","01_ages_12":"12","01_ages_13":"13","01_ages_14":"14","01_ages_15":"15","01_ages_16":"16","02":"Yes","02_ages_14":"14","02_ages_15":"15","02_ages_16":"16","03":"Yes","03_ages_16":"16","04":"No","05":"No"},"rt":47254,"item_order":[0,1,2,3,4],"radio_events":[4423,26816,39154.00000000012,44503,46346],"checkbox_events":[8259,9356.000000000116,11012,11959,13066,13959,15082.000000000116,16068.000000000116,17011,18011,18835,19701,28618,30567,32438.000000000116,33486.00000000012,34478,41358],"key_events":[],"mouse_events":[4423,8259,9356.000000000116,11012,11959,13066,13959,15082.000000000116,16068.000000000116,17011,18011,18835,19701,26816,28618,30567,32438.000000000116,33486.00000000012,34478,39154.00000000012,41358,44503,46346,47242],"honeypot":0,"survey":"mace","page":5,"trial_type":"survey-mace","trial_index":13,"time_elapsed":780441,"internal_node_id":"0.0-13.0","task_version":"prescreen-v0.3","browser_interactions":0},{"responses":{"01":"Yes","01_ages_11":"11","01_ages_12":"12","02":"Yes","02_ages_11":"11","02_ages_12":"12","03":"Yes","03_ages_11":"11","03_ages_12":"12","04":"No","05":"No"},"rt":32656,"item_order":[0,1,2,3,4],"radio_events":[8278,15605,21330,28034,31774],"checkbox_events":[11314,12537,17013,18062,22546,23470],"key_events":[],"mouse_events":[8278,11314,12537,15605,17013,18062,21330,22546,23470,28034,31774,32646],"honeypot":0,"survey":"mace","page":6,"trial_type":"survey-mace","trial_index":14,"time_elapsed":813102,"internal_node_id":"0.0-14.0","task_version":"prescreen-v0.3","browser_interactions":0},{"responses":{"01":"No","02":"No","03":"No","04":"No","05":"No","06":"No","07":"Yes","07_ages_18":"18"},"rt":27290,"item_order":[0,1,2,3,4,5,6],"radio_events":[4075,5811,7323,8727,10503,16687,19680],"checkbox_events":[26369],"key_events":[],"mouse_events":[4075,5811,7323,8727,10503,16687,19680,26369,27279],"honeypot":0,"survey":"mace","page":7,"trial_type":"survey-mace","trial_index":15,"time_elapsed":840399,"internal_node_id":"0.0-15.0","task_version":"prescreen-v0.3","browser_interactions":0},{"responses":{"01":"No","02":"No","03":"Yes","03_ages_13":"13","03_ages_14":"14","03_ages_15":"15","03_ages_16":"16","03_ages_17":"17","03_ages_18":"18","04":"No"},"rt":37168,"item_order":[0,1,2,3],"radio_events":[9918,12086,17433,36177],"checkbox_events":[27761,29016,29960,31168,32044.000000000116,32943.00000000012],"key_events":[],"mouse_events":[9918,12086,17433,27761,29016,29960,31168,32044.000000000116,32943.00000000012,36177,37161],"honeypot":0,"survey":"mace","page":8,"trial_type":"survey-mace","trial_index":16,"time_elapsed":877555,"internal_node_id":"0.0-16.0","task_version":"prescreen-v0.3","browser_interactions":0},{"responses":{"01":"Yes","01_ages_1":"1","01_ages_2":"2","01_ages_3":"3","01_ages_4":"4","01_ages_5":"5","01_ages_6":"6","01_ages_7":"7","01_ages_8":"8","01_ages_9":"9","01_ages_10":"10","01_ages_11":"11","02":"Yes","02_ages_1":"1","02_ages_2":"2","02_ages_3":"3","02_ages_4":"4","02_ages_5":"5","02_ages_6":"6","02_ages_7":"7","02_ages_8":"8","02_ages_9":"9","02_ages_10":"10","02_ages_11":"11","03":"Yes","03_ages_1":"1","03_ages_2":"2","03_ages_3":"3","03_ages_4":"4","03_ages_5":"5","03_ages_6":"6","03_ages_7":"7","03_ages_8":"8","03_ages_9":"9","03_ages_10":"10","03_ages_11":"11","04":"Yes","04_ages_1":"1","04_ages_2":"2","04_ages_3":"3","04_ages_4":"4","04_ages_5":"5","04_ages_6":"6","04_ages_7":"7","04_ages_8":"8","04_ages_9":"9","04_ages_10":"10","04_ages_11":"11","04_ages_12":"12","04_ages_13":"13","04_ages_14":"14","04_ages_15":"15","04_ages_16":"16","04_ages_17":"17","04_ages_18":"18"},"rt":75522,"item_order":[0,1,2,3],"radio_events":[4613,21782,40189,54815],"checkbox_events":[8538,9706,10905.000000000116,11926,12950,13846,14755,15642,16434,17489,18522,26834,27778,29092.000000000116,30006,31041,32065,33056,33945,34792,35806,36901,41754,43085,43964,45012,45974,47128,48151,49191,50057,51115,52210,57610,59141,60061,61045,62109,63177,64081,64928,65692,66836,67764,68897,69816,71015.00000000012,71900.00000000012,72803,73757,74643],"key_events":[],"mouse_events":[4613,8538,9706,10905.000000000116,11926,12950,13846,14755,15642,16434,17489,18522,21782,26834,27778,29092.000000000116,30006,31041,32065,33056,33945,34792,35806,36901,40189,41754,43085,43964,45012,45974,47128,48151,49191,50057,51115,52210,54815,57610,58427,59141,60061,61045,62109,63177,64081,64928,65692,66836,67764,68897,69816,71015.00000000012,71900.00000000012,72803,73757,74643,75512],"honeypot":0,"survey":"mace","page":9,"trial_type":"survey-mace","trial_index":17,"time_elapsed":953080,"internal_node_id":"0.0-17.0","task_version":"prescreen-v0.3","browser_interactions":0},{"responses":{"01":"No","02":"No","03":"Yes","03_ages_8":"8","03_ages_9":"9","03_ages_10":"10","03_ages_11":"11","03_ages_12":"12","03_ages_13":"13","03_ages_14":"14","03_ages_15":"15","03_ages_16":"16","03_ages_17":"17","03_ages_18":"18","04":"Yes","04_ages_8":"8","04_ages_9":"9","04_ages_10":"10","04_ages_11":"11","04_ages_12":"12","04_ages_13":"13","04_ages_14":"14","04_ages_15":"15","04_ages_16":"16","04_ages_17":"17","04_ages_18":"18","05":"No","06":"Yes","06_ages_17":"17","07":"No","08":"No"},"rt":83951,"item_order":[0,1,2,3,4,5,6,7],"radio_events":[4114,5637,7772,23381,70290.99999999988,73187.00000000012,80587.99999999988,83044.00000000012],"checkbox_events":[10297,11172,12062,13108,14132,16348,17165,18100,19091,20067,20927,26150.000000000116,27325,28190,29066,30241.000000000116,31073.000000000116,32125,33101,33909.00000000012,38668,39603,75039],"key_events":[],"mouse_events":[4114,5637,7772,10297,11172,12062,13108,14132,16348,17165,18100,19091,20067,20927,23381,26150.000000000116,27325,28190,29066,30241.000000000116,31073.000000000116,32125,33101,33909.00000000012,38668,39603,70290.99999999988,73187.00000000012,75039,80587.99999999988,83044.00000000012,83938.00000000012],"honeypot":0,"survey":"mace","page":10,"trial_type":"survey-mace","trial_index":18,"time_elapsed":1037038,"internal_node_id":"0.0-18.0","task_version":"prescreen-v0.3","browser_interactions":0,"instructed":0},{"rt":6098.999999999884,"trial_type":"mental-health-alert","trial_index":19,"time_elapsed":1043142,"internal_node_id":"0.0-19.0","task_version":"prescreen-v0.3","interactions":"[]"}]