[{"view_history":[{"page_index":0,"viewing_time":9768.100000023842},{"page_index":1,"viewing_time":142054.89999997616},{"page_index":2,"viewing_time":5334.300000011921},{"page_index":3,"viewing_time":1476}],"rt":158633.80000001192,"trial_type":"instructions","trial_index":0,"time_elapsed":158642,"internal_node_id":"0.0-0.0","task_version":"prescreen-v0.3"},{"rt":21007.30000001192,"responses":{"age":"19","gender-categorical":"Male","gender-free-response":"","ethnicity":"Not Hispanic or Latino","race":["Black or African American"],"education":"High school"},"trial_type":"survey-demo","trial_index":1,"time_elapsed":179652,"internal_node_id":"0.0-1.0","task_version":"prescreen-v0.3"},{"responses":{"Q16":"3","Q04":"2","Q02":"0","Q01":"3","Q17":"1","Q09":"2","Q14":"3","Q08":"3","Q05":"2","Q07":"1","Q18":"2","Q15":"3","Q12":"3","Q03":"2","Q06":"2","Q21":"3","Q19":"1","Q10":"1","Q11":"1","Q20":"1","Q13":"2"},"rt":176956.59999999404,"item_order":[15,3,1,0,16,8,13,7,4,6,17,14,11,2,5,20,18,9,10,19,12],"radio_events":[12985.199999988079,23073.19999998808,31540.19999998808,52889.90000000596,59431.90000000596,72889.09999999404,76972.30000001192,84823.19999998808,97734.5,108663.69999998808,113373.80000001192,122785.90000000596,126510.90000000596,129769.09999999404,137780.19999998808,142018.30000001192,154287.59999999404,160667.5,166404.59999999404,170542.69999998808,176223.69999998808],"key_events":[],"mouse_events":[12985.199999988079,23073.19999998808,30093.40000000596,31540.19999998808,52889.90000000596,58830.90000000596,59431.90000000596,68721.80000001192,72889.09999999404,76972.30000001192,84823.19999998808,97734.5,108663.69999998808,113373.80000001192,122785.90000000596,126510.90000000596,129769.09999999404,137780.19999998808,140844.19999998808,142018.30000001192,154287.59999999404,160667.5,166404.59999999404,170542.69999998808,175789.59999999404,176223.69999998808,176954.80000001192],"straightlining":0.3333333333333333,"zigzagging":0.55,"honeypot":0,"survey":"sns","trial_type":"survey-template","trial_index":2,"time_elapsed":356614,"internal_node_id":"0.0-2.0","task_version":"prescreen-v0.3","browser_interactions":4,"infrequency":0},{"responses":{"Q07":"3","Q09":"2","Q12":"2","Q04":"3","Q02":"2","Q06":"2","Q13":"0","Q10":"2","Q11":"2","Q05":"3","Q08":"2","Q01":"2","Q03":"1"},"rt":131118.5,"item_order":[6,8,11,3,1,5,12,9,10,4,7,0,2],"radio_events":[7123.199999988079,11743.199999988079,13787,17242.29999998212,28562.5,33703.5,37916.5,45579.79999998212,49470.79999998212,69365,77191.19999998808,112921.89999997616,120866.89999997616,123146.89999997616,130206],"key_events":[],"mouse_events":[7123.199999988079,11743.199999988079,13787,17242.29999998212,28562.5,33703.5,37916.5,45579.79999998212,49470.79999998212,69365,77191.19999998808,112921.89999997616,120866.89999997616,123146.89999997616,130206,131117.19999998808],"straightlining":0.6153846153846154,"zigzagging":0.5,"honeypot":0,"survey":"bisbas","trial_type":"survey-template","trial_index":3,"time_elapsed":487737,"internal_node_id":"0.0-3.0","task_version":"prescreen-v0.3","browser_interactions":2,"infrequency":0},{"responses":{"Q01":"1","Q02":"2","Q03":"1"},"rt":45390.09999999404,"radio_events":[12686.40000000596,20021,30464.09999999404,40447.19999998808],"key_events":[],"mouse_events":[12686.40000000596,20021,30464.09999999404,40027.09999999404,40447.19999998808,45389.40000000596],"survey":"map","page":1,"trial_type":"survey-map","trial_index":4,"time_elapsed":533131,"internal_node_id":"0.0-4.0","task_version":"prescreen-v0.3","browser_interactions":0},{"responses":{"Q04":"2","Q05":"1","Q06":"3"},"rt":22952.40000000596,"radio_events":[14031.5,19855.5,22170.5],"key_events":[],"mouse_events":[14031.5,19855.5,22170.5,22951.69999998808],"survey":"map","page":2,"trial_type":"survey-map","trial_index":5,"time_elapsed":556086,"internal_node_id":"0.0-5.0","task_version":"prescreen-v0.3","browser_interactions":0},{"responses":{"Q07":"3","Q08":"2","Q09":"1"},"rt":32368.59999999404,"radio_events":[9701.700000017881,16460.80000001192,30010],"key_events":[],"mouse_events":[9701.700000017881,16460.80000001192,30010,32368.09999999404],"survey":"map","page":3,"trial_type":"survey-map","trial_index":6,"time_elapsed":588458,"internal_node_id":"0.0-6.0","task_version":"prescreen-v0.3","browser_interactions":0},{"responses":{"Q10":"2","Q11":"2","Q12":"0","Q13":"1","Q16":"0","Q14":"1","Q15":"1"},"rt":87486.10000002384,"radio_events":[23842.80000001192,29219.90000000596,35311.10000002384,40487.10000002384,56896.30000001192,79772.80000001192,82032.80000001192,86677.70000001788],"key_events":[],"mouse_events":[23842.80000001192,29219.90000000596,34148,35311.10000002384,40487.10000002384,56896.30000001192,79772.80000001192,82032.80000001192,86677.70000001788,87485],"survey":"map","page":4,"trial_type":"survey-map","trial_index":7,"time_elapsed":675947,"internal_node_id":"0.0-7.0","task_version":"prescreen-v0.3","browser_interactions":0,"infrequency":0},{"view_history":[{"page_index":0,"viewing_time":2542.0999999940395},{"page_index":1,"viewing_time":7689.100000023842}],"rt":10231.700000017881,"trial_type":"instructions","trial_index":8,"time_elapsed":686181,"internal_node_id":"0.0-8.0","task_version":"prescreen-v0.3"},{"responses":{"01":"No","02":"No","03":"Yes","03_ages_7":"7","03_ages_8":"8","03_ages_9":"9","03_ages_10":"10","03_ages_11":"11","03_ages_12":"12","03_ages_13":"13","03_ages_14":"14","03_ages_15":"15","03_ages_16":"16","04":"Yes","04_ages_7":"7","04_ages_8":"8","04_ages_9":"9","04_ages_10":"10","04_ages_11":"11","04_ages_12":"12","04_ages_13":"13","05":"No","06":"Yes","06_ages_13":"13","06_ages_14":"14","06_ages_15":"15","06_ages_16":"16"},"rt":86676.90000000596,"item_order":[0,1,2,3,4,5],"radio_events":[23900.600000023842,33265.70000001788,51788.10000002384,58038.10000002384,66408.30000001192,71124.40000000596,74845.5],"checkbox_events":[41321,42879.90000000596,43825.90000000596,44112.90000000596,44397.70000001788,44702.10000002384,45583.60000002384,60989.30000001192,61540.10000002384,61954.20000001788,62327.20000001788,76997.40000000596,79030.20000001788,80195.20000001788,80475.5,80781.5,81130.40000000596,81459.5,81731.5,82043.40000000596,82342.5],"key_events":[],"mouse_events":[0,11241.40000000596,12755.100000023842,23900.600000023842,33265.70000001788,38173.60000002384,41321,42879.90000000596,43825.90000000596,44112.90000000596,44397.70000001788,44702.10000002384,45019.80000001192,45583.60000002384,51788.10000002384,58038.10000002384,60989.30000001192,61540.10000002384,61954.20000001788,62327.20000001788,66408.30000001192,71124.40000000596,74845.5,76997.40000000596,79030.20000001788,79676.30000001192,80195.20000001788,80475.5,80781.5,81130.40000000596,81459.5,81731.5,82043.40000000596,82342.5,83924.90000000596,86674.60000002384],"honeypot":0,"survey":"mace","page":1,"trial_type":"survey-mace","trial_index":9,"time_elapsed":772862,"internal_node_id":"0.0-9.0","task_version":"prescreen-v0.3","browser_interactions":0},{"responses":{"01":"Yes","01_ages_12":"12","02":"No","03":"Yes","03_ages_9":"9","03_ages_10":"10","03_ages_11":"11","04":"Yes","04_ages_9":"9","04_ages_10":"10","04_ages_11":"11","05":"Yes","05_ages_6":"6","05_ages_7":"7","05_ages_8":"8","05_ages_9":"9","05_ages_10":"10","05_ages_11":"11","05_ages_12":"12","05_ages_13":"13","05_ages_14":"14","05_ages_15":"15","05_ages_16":"16","06":"No","07":"No","08":"No"},"rt":48625.29999998212,"item_order":[0,1,2,3,4,5,6,7],"radio_events":[4712.5999999940395,12568.59999999404,14693.699999988079,22576.79999998212,28591.79999998212,42394.09999999404,44635.19999998808,45762],"checkbox_events":[6734.5999999940395,17184.69999998808,17604.69999998808,18558.69999998808,24786.79999998212,25801.59999999404,26130.90000000596,31393.79999998212,32821.79999998212,34161,34912.79999998212,36114.90000000596,36394.90000000596,36999,37236.79999998212,37515.79999998212,37795.90000000596,38217.69999998808,38500,38788],"key_events":[],"mouse_events":[4712.5999999940395,6734.5999999940395,11767.40000000596,12568.59999999404,14693.699999988079,17184.69999998808,17604.69999998808,17861.40000000596,18558.69999998808,22576.79999998212,24786.79999998212,25131.69999998808,25439.5,25801.59999999404,26130.90000000596,28591.79999998212,31055.90000000596,31393.79999998212,32821.79999998212,34161,34912.79999998212,36114.90000000596,36394.90000000596,36644.90000000596,36999,37236.79999998212,37515.79999998212,37795.90000000596,38217.69999998808,38500,38788,42394.09999999404,44635.19999998808,45762,48622.40000000596],"honeypot":0,"survey":"mace","page":2,"trial_type":"survey-mace","trial_index":10,"time_elapsed":821493,"internal_node_id":"0.0-10.0","task_version":"prescreen-v0.3","browser_interactions":0},{"responses":{"01":"No","02":"No","03":"No","04":"No"},"rt":17158.5,"item_order":[0,1,2,3],"radio_events":[7419.799999982119,10567.90000000596,11898.799999982119,14457.90000000596],"checkbox_events":[],"key_events":[],"mouse_events":[7419.799999982119,10567.90000000596,11898.799999982119,14457.90000000596,17157],"honeypot":0,"survey":"mace","page":3,"trial_type":"survey-mace","trial_index":11,"time_elapsed":838656,"internal_node_id":"0.0-11.0","task_version":"prescreen-v0.3","browser_interactions":0},{"responses":{"01":"No","02":"No"},"rt":6561,"item_order":[0,1],"radio_events":[4675.399999976158,6200],"checkbox_events":[],"key_events":[],"mouse_events":[4675.399999976158,6200,6560.0999999940395],"honeypot":0,"survey":"mace","page":4,"trial_type":"survey-mace","trial_index":12,"time_elapsed":845220,"internal_node_id":"0.0-12.0","task_version":"prescreen-v0.3","browser_interactions":0},{"responses":{"01":"No","02":"No","03":"No","04":"No","05":"No"},"rt":33679.40000000596,"item_order":[0,1,2,3,4],"radio_events":[25692.29999998212,26354.59999999404,28230.40000000596,32072.5,32977.59999999404],"checkbox_events":[],"key_events":[],"mouse_events":[25692.29999998212,26354.59999999404,28230.40000000596,31509.5,32072.5,32553.29999998212,32977.59999999404,33365.5,33677.59999999404],"honeypot":0,"survey":"mace","page":5,"trial_type":"survey-mace","trial_index":13,"time_elapsed":878903,"internal_node_id":"0.0-13.0","task_version":"prescreen-v0.3","browser_interactions":0},{"responses":{"01":"Yes","01_ages_10":"10","01_ages_11":"11","01_ages_12":"12","01_ages_13":"13","02":"Yes","02_ages_12":"12","02_ages_13":"13","02_ages_14":"14","03":"No","04":"Yes","04_ages_12":"12","04_ages_13":"13","04_ages_14":"14","04_ages_15":"15","04_ages_16":"16","05":"No"},"rt":55737.40000000596,"item_order":[0,1,2,3,4],"radio_events":[7313.699999988079,28086.09999999404,38777.30000001192,41616.09999999404,53659.40000000596],"checkbox_events":[11510.699999988079,12313.59999999404,13009.800000011921,14889.800000011921,16400.90000000596,19165.90000000596,30706.09999999404,31079,31589.09999999404,42750.30000001192,43262.09999999404,43724.19999998808,44981.09999999404,45315.30000001192],"key_events":[],"mouse_events":[7313.699999988079,11510.699999988079,11939.59999999404,12313.59999999404,12675.699999988079,13009.800000011921,14889.800000011921,16400.90000000596,19165.90000000596,28086.09999999404,30706.09999999404,31079,31589.09999999404,38777.30000001192,41616.09999999404,42750.30000001192,43262.09999999404,43724.19999998808,44445,44981.09999999404,45315.30000001192,53659.40000000596,55735.59999999404],"honeypot":0,"survey":"mace","page":6,"trial_type":"survey-mace","trial_index":14,"time_elapsed":934644,"internal_node_id":"0.0-14.0","task_version":"prescreen-v0.3","browser_interactions":0},{"responses":{"01":"No","02":"No","03":"Yes","03_ages_12":"12","03_ages_13":"13","04":"No","05":"No","06":"Yes","06_ages_15":"15","06_ages_16":"16","07":"Yes","07_ages_16":"16"},"rt":82409.09999999404,"item_order":[0,1,2,3,4,5,6],"radio_events":[49732.80000001192,50587.80000001192,57023,63861.09999999404,69223.19999998808,73574.09999999404,80605.40000000596],"checkbox_events":[52065.80000001192,52350.80000001192,65937.09999999404,67111,70571],"key_events":[],"mouse_events":[49732.80000001192,50587.80000001192,52065.80000001192,52350.80000001192,57023,63861.09999999404,65394,65937.09999999404,67111,69223.19999998808,70571,73574.09999999404,80605.40000000596,82406.5],"honeypot":0,"survey":"mace","page":7,"trial_type":"survey-mace","trial_index":15,"time_elapsed":1017058,"internal_node_id":"0.0-15.0","task_version":"prescreen-v0.3","browser_interactions":2},{"responses":{"01":"No","02":"No","03":"No","04":"No"},"rt":39600.40000000596,"item_order":[0,1,2,3],"radio_events":[26076.09999999404,26932.59999999404,34103.90000000596,38946.90000000596],"checkbox_events":[],"key_events":[],"mouse_events":[26076.09999999404,26932.59999999404,34103.90000000596,38946.90000000596,39598.90000000596],"honeypot":0,"survey":"mace","page":8,"trial_type":"survey-mace","trial_index":16,"time_elapsed":1056663,"internal_node_id":"0.0-16.0","task_version":"prescreen-v0.3","browser_interactions":2},{"responses":{"01":"Yes","01_ages_1":"1","01_ages_2":"2","01_ages_3":"3","01_ages_4":"4","01_ages_5":"5","01_ages_6":"6","01_ages_7":"7","01_ages_8":"8","01_ages_9":"9","01_ages_10":"10","01_ages_11":"11","01_ages_12":"12","01_ages_13":"13","01_ages_14":"14","01_ages_15":"15","01_ages_16":"16","01_ages_17":"17","01_ages_18":"18","02":"Yes","02_ages_1":"1","02_ages_2":"2","02_ages_3":"3","02_ages_4":"4","02_ages_5":"5","02_ages_6":"6","02_ages_7":"7","02_ages_8":"8","02_ages_9":"9","02_ages_10":"10","02_ages_11":"11","02_ages_12":"12","02_ages_13":"13","02_ages_14":"14","02_ages_15":"15","02_ages_16":"16","02_ages_17":"17","02_ages_18":"18","03":"Yes","03_ages_1":"1","03_ages_2":"2","03_ages_3":"3","03_ages_4":"4","03_ages_5":"5","03_ages_6":"6","03_ages_7":"7","03_ages_8":"8","03_ages_9":"9","03_ages_10":"10","03_ages_11":"11","03_ages_12":"12","03_ages_13":"13","03_ages_14":"14","03_ages_15":"15","03_ages_16":"16","03_ages_17":"17","03_ages_18":"18","04":"Yes","04_ages_1":"1","04_ages_2":"2","04_ages_3":"3","04_ages_4":"4","04_ages_5":"5","04_ages_6":"6","04_ages_7":"7","04_ages_8":"8","04_ages_9":"9","04_ages_10":"10","04_ages_11":"11","04_ages_12":"12","04_ages_13":"13","04_ages_14":"14","04_ages_15":"15","04_ages_16":"16","04_ages_17":"17","04_ages_18":"18"},"rt":85072.19999998808,"item_order":[0,1,2,3],"radio_events":[11608.299999982119,27017.5,44976.79999998212,76554.19999998808],"checkbox_events":[14878.199999988079,15299.40000000596,15575.299999982119,15853.299999982119,16480.29999998212,17127.29999998212,17474.29999998212,18648.09999999404,19026.29999998212,19417.19999998808,19663.29999998212,19999.19999998808,21248.40000000596,21575.19999998808,21860.5,22160.09999999404,22772.29999998212,23911.59999999404,28113.40000000596,28550.5,28853.5,30220.40000000596,30463.40000000596,31800.59999999404,32679.59999999404,33403.40000000596,33821.40000000596,34132.40000000596,35820.59999999404,36657.40000000596,37169.69999998808,38024.69999998808,38443.69999998808,39445.40000000596,39782.90000000596,40171.69999998808,47871.79999998212,48300.90000000596,48642.69999998808,48974.79999998212,50253,50760.90000000596,52717.90000000596,67000,67487.09999999404,70805.29999998212,71818.09999999404,72605.29999998212,73075.29999998212,73480.09999999404,73893.09999999404,74263.19999998808,74621.19999998808,75075.29999998212,77543.19999998808,77893.09999999404,78252.29999998212,78608.29999998212,78950.29999998212,79279.19999998808,79808.19999998808,80431.19999998808,80747.19999998808,81061.40000000596,81411.19999998808,81793.19999998808,82154.29999998212,82517.19999998808,83009.19999998808,83908.29999998212,84272.40000000596,84652.40000000596],"key_events":[],"mouse_events":[11608.299999982119,13851.299999982119,14878.199999988079,15299.40000000596,15575.299999982119,15853.299999982119,16140.299999982119,16480.29999998212,16759.29999998212,17127.29999998212,17474.29999998212,18058.29999998212,18648.09999999404,19026.29999998212,19417.19999998808,19663.29999998212,19999.19999998808,20315.29999998212,20721.29999998212,21248.40000000596,21575.19999998808,21860.5,22160.09999999404,22485.19999998808,22772.29999998212,23030.19999998808,23911.59999999404,27017.5,28113.40000000596,28550.5,28853.5,29095.5,30220.40000000596,30463.40000000596,31000.59999999404,31159.29999998212,31629.59999999404,31800.59999999404,32372.5,32679.59999999404,33403.40000000596,33821.40000000596,34132.40000000596,34421.29999998212,34737.5,34979.29999998212,35593.40000000596,35820.59999999404,36298.59999999404,36657.40000000596,37169.69999998808,38024.69999998808,38443.69999998808,38955.59999999404,39445.40000000596,39782.90000000596,40171.69999998808,44976.79999998212,47871.79999998212,48300.90000000596,48642.69999998808,48974.79999998212,49272.79999998212,49600.59999999404,49871.59999999404,50253,50760.90000000596,52717.90000000596,63222.09999999404,66276.09999999404,67000,67487.09999999404,67902.09999999404,68440.90000000596,70057.09999999404,70431,70805.29999998212,71106.09999999404,71818.09999999404,72231.29999998212,72605.29999998212,73075.29999998212,73480.09999999404,73893.09999999404,74263.19999998808,74621.19999998808,74957.09999999404,75075.29999998212,76026.19999998808,76554.19999998808,77543.19999998808,77893.09999999404,78252.29999998212,78608.29999998212,78950.29999998212,79279.19999998808,79808.19999998808,80148.19999998808,80431.19999998808,80747.19999998808,81061.40000000596,81411.19999998808,81793.19999998808,82154.29999998212,82517.19999998808,83009.19999998808,83359.40000000596,83908.29999998212,84272.40000000596,84652.40000000596,85070.40000000596],"honeypot":0,"survey":"mace","page":9,"trial_type":"survey-mace","trial_index":17,"time_elapsed":1141739,"internal_node_id":"0.0-17.0","task_version":"prescreen-v0.3","browser_interactions":0},{"responses":{"01":"No","02":"No","03":"Yes","03_ages_15":"15","03_ages_16":"16","03_ages_17":"17","03_ages_18":"18","04":"Yes","04_ages_17":"17","04_ages_18":"18","05":"No","06":"Yes","06_ages_17":"17","07":"Yes","07_ages_1":"1","07_ages_2":"2","07_ages_3":"3","07_ages_4":"4","07_ages_5":"5","07_ages_6":"6","07_ages_7":"7","07_ages_8":"8","07_ages_9":"9","07_ages_10":"10","07_ages_11":"11","07_ages_12":"12","07_ages_13":"13","07_ages_14":"14","07_ages_15":"15","07_ages_16":"16","07_ages_17":"17","07_ages_18":"18","08":"Yes","08_ages_1":"1","08_ages_2":"2","08_ages_3":"3","08_ages_4":"4","08_ages_5":"5","08_ages_6":"6","08_ages_7":"7","08_ages_8":"8","08_ages_9":"9","08_ages_10":"10","08_ages_11":"11","08_ages_12":"12","08_ages_13":"13","08_ages_14":"14","08_ages_15":"15","08_ages_16":"16","08_ages_17":"17","08_ages_18":"18"},"rt":68727.5,"item_order":[0,1,2,3,4,5,6,7],"radio_events":[4390.0999999940395,6476.199999988079,11544.299999982119,18076.399999976158,28101.5,33979.69999998808,42956.79999998212,58093],"checkbox_events":[13034.399999976158,13283.299999982119,13666,13953.09999999404,19115.399999976158,19434.29999998212,19705.29999998212,19962.399999976158,20536.59999999404,20759.399999976158,35491.5,46765.69999998808,47526.79999998212,47917.79999998212,48409.69999998808,48717.79999998212,49045.89999997616,49357.79999998212,50179.79999998212,50718.89999997616,51156.79999998212,51835.69999998808,52092.69999998808,52902.59999999404,53187.79999998212,53541.79999998212,53913.69999998808,54387.69999998808,54671.89999997616,59669,60028.89999997616,60400.89999997616,60696.09999999404,61021.09999999404,62211.09999999404,62456.09999999404,62774,63344.79999998212,63616,64159.09999999404,64445,64742.09999999404,65075,65373.09999999404,65769,66761.19999998808,67019.09999999404],"key_events":[],"mouse_events":[3371.7999999821186,4390.0999999940395,6476.199999988079,11544.299999982119,13034.399999976158,13283.299999982119,13666,13953.09999999404,18076.399999976158,19115.399999976158,19434.29999998212,19705.29999998212,19962.399999976158,20536.59999999404,20759.399999976158,28101.5,33979.69999998808,35491.5,42956.79999998212,46765.69999998808,47093.79999998212,47526.79999998212,47917.79999998212,48409.69999998808,48717.79999998212,49045.89999997616,49357.79999998212,49855.79999998212,50179.79999998212,50718.89999997616,51156.79999998212,51503.79999998212,51835.69999998808,52092.69999998808,52465.89999997616,52902.59999999404,53187.79999998212,53541.79999998212,53913.69999998808,54387.69999998808,54671.89999997616,58093,59392.89999997616,59669,60028.89999997616,60400.89999997616,60696.09999999404,61021.09999999404,61301,61875,62211.09999999404,62456.09999999404,62774,63040.29999998212,63344.79999998212,63616,63883,64159.09999999404,64445,64742.09999999404,65075,65373.09999999404,65769,66084,66422.89999997616,66761.19999998808,67019.09999999404,68724.29999998212],"honeypot":0,"survey":"mace","page":10,"trial_type":"survey-mace","trial_index":18,"time_elapsed":1210472,"internal_node_id":"0.0-18.0","task_version":"prescreen-v0.3","browser_interactions":0,"instructed":0},{"rt":5791.5999999940395,"trial_type":"mental-health-alert","trial_index":19,"time_elapsed":1216267,"internal_node_id":"0.0-19.0","task_version":"prescreen-v0.3","interactions":"[{\"event\":\"blur\",\"trial\":0,\"time\":3624},{\"event\":\"focus\",\"trial\":0,\"time\":9677},{\"event\":\"blur\",\"trial\":0,\"time\":19718},{\"event\":\"focus\",\"trial\":0,\"time\":150866},{\"event\":\"blur\",\"trial\":2,\"time\":216371},{\"event\":\"focus\",\"trial\":2,\"time\":217781},{\"event\":\"blur\",\"trial\":2,\"time\":217782},{\"event\":\"focus\",\"trial\":2,\"time\":228935},{\"event\":\"blur\",\"trial\":3,\"time\":441025},{\"event\":\"focus\",\"trial\":3,\"time\":469424},{\"event\":\"blur\",\"trial\":15,\"time\":940886},{\"event\":\"focus\",\"trial\":15,\"time\":984282},{\"event\":\"blur\",\"trial\":16,\"time\":1024062},{\"event\":\"focus\",\"trial\":16,\"time\":1043004}]"}]