[{"view_history":[{"page_index":0,"viewing_time":1218},{"page_index":1,"viewing_time":803.5999999940395},{"page_index":2,"viewing_time":1652.5},{"page_index":3,"viewing_time":592.5999999940395}],"rt":4267.5,"trial_type":"instructions","trial_index":0,"time_elapsed":4292,"internal_node_id":"0.0-0.0","task_version":"prescreen-v0.3"},{"rt":9971,"responses":{"age":"35","gender-categorical":"Male","gender-free-response":"","ethnicity":"Not Hispanic or Latino","race":["White"],"education":"Bachelor degree","siblings":"1"},"trial_type":"survey-demo","trial_index":1,"time_elapsed":14268,"internal_node_id":"0.0-1.0","task_version":"prescreen-v0.3"},{"responses":{"Q02":"1","Q15":"1","Q14":"0","Q07":"1","Q19":"1","Q05":"1","Q01":"1","Q09":"1","Q20":"0","Q18":"0","Q08":"1","Q16":"0","Q11":"1","Q06":"1","Q12":"1","Q21":"3","Q04":"1","Q17":"1","Q13":"1","Q10":"0","Q03":"0"},"rt":85324.5,"item_order":[1,14,13,6,18,4,0,8,19,17,7,15,10,5,11,20,3,16,12,9,2],"radio_events":[3369.5,4270.4000000059605,8076.300000011921,9215.100000023842,18266.5,21190.5,28329.40000000596,30324.30000001192,62556.30000001192,63383.40000000596,64911.60000002384,65883.5,67635.5,68820.20000001788,69362.40000000596,73769.70000001788,75083,77439.70000001788,78060.60000002384,80172.5,82809.70000001788,84745.30000001192],"key_events":[],"mouse_events":[3369.5,4270.4000000059605,8076.300000011921,9215.100000023842,15525.600000023842,16202.200000017881,17236.40000000596,17575.40000000596,18038.70000001788,18266.5,21190.5,23736.40000000596,28329.40000000596,29837.30000001192,30324.30000001192,62556.30000001192,63383.40000000596,64911.60000002384,65883.5,67635.5,68820.20000001788,69362.40000000596,73769.70000001788,75083,77439.70000001788,78060.60000002384,79554.60000002384,80172.5,82809.70000001788,84745.30000001192,85322.60000002384],"straightlining":0.6666666666666666,"zigzagging":0.35,"honeypot":0,"survey":"sns","trial_type":"survey-template","trial_index":2,"time_elapsed":99600,"internal_node_id":"0.0-2.0","task_version":"prescreen-v0.3","browser_interactions":4,"infrequency":0},{"responses":{"Q11":"2","Q01":"2","Q07":"3","Q08":"2","Q06":"2","Q02":"2","Q13":"0","Q12":"1","Q10":"2","Q04":"2","Q09":"1","Q03":"2","Q05":"3"},"rt":24467.79999998212,"item_order":[10,0,6,7,5,1,12,11,9,3,8,2,4],"radio_events":[6767.799999982119,7700.799999982119,8236.59999999404,8813.799999982119,9675.59999999404,10688.59999999404,11639.90000000596,12887.699999988079,15565.90000000596,16333.699999988079,18301.69999998808,20342.09999999404,23231.59999999404,24072.90000000596],"key_events":[],"mouse_events":[1170.699999988079,6767.799999982119,7700.799999982119,8236.59999999404,8813.799999982119,9675.59999999404,10688.59999999404,11639.90000000596,12564.799999982119,12887.699999988079,15565.90000000596,16333.699999988079,17471.19999998808,18301.69999998808,19086.90000000596,19726.59999999404,20342.09999999404,22150.5,22962.69999998808,23231.59999999404,23835.79999998212,24072.90000000596,24466.69999998808],"straightlining":0.6153846153846154,"zigzagging":0.5833333333333334,"honeypot":0,"survey":"bisbas","trial_type":"survey-template","trial_index":3,"time_elapsed":124073,"internal_node_id":"0.0-3.0","task_version":"prescreen-v0.3","browser_interactions":5,"infrequency":0},{"responses":{"Q01":"3","Q02":"2","Q03":"2"},"rt":9090.399999976158,"radio_events":[4020.699999988079,5347.899999976158,8480.699999988079],"key_events":[],"mouse_events":[4020.699999988079,5347.899999976158,6562,7169,7565,8257.699999988079,8480.699999988079,9089.59999999404],"survey":"map","page":1,"trial_type":"survey-map","trial_index":4,"time_elapsed":133168,"internal_node_id":"0.0-4.0","task_version":"prescreen-v0.3","browser_interactions":0},{"responses":{"Q04":"3","Q05":"2","Q06":"3"},"rt":6080.300000011921,"radio_events":[3232,4432.9000000059605,5633.9000000059605],"key_events":[],"mouse_events":[3232,4432.9000000059605,4979.800000011921,5440.800000011921,5633.9000000059605,6079.9000000059605],"survey":"map","page":2,"trial_type":"survey-map","trial_index":5,"time_elapsed":139253,"internal_node_id":"0.0-5.0","task_version":"prescreen-v0.3","browser_interactions":0},{"responses":{"Q07":"3","Q08":"4","Q09":"2"},"rt":6857.199999988079,"radio_events":[2831.699999988079,4685.799999982119,6396.799999982119],"key_events":[],"mouse_events":[2831.699999988079,4685.799999982119,6396.799999982119,6856.5999999940395],"survey":"map","page":3,"trial_type":"survey-map","trial_index":6,"time_elapsed":146114,"internal_node_id":"0.0-6.0","task_version":"prescreen-v0.3","browser_interactions":0},{"responses":{"Q10":"2","Q11":"2","Q12":"3","Q13":"3","Q16":"0","Q14":"3","Q15":"2"},"rt":14618.09999999404,"radio_events":[3074.800000011921,4114.9000000059605,7146.4000000059605,8242.5,10665.09999999404,12548.90000000596,13291],"key_events":[],"mouse_events":[3074.800000011921,4114.9000000059605,6501.200000017881,7146.4000000059605,8242.5,10665.09999999404,12548.90000000596,13291,14616.5],"survey":"map","page":4,"trial_type":"survey-map","trial_index":7,"time_elapsed":160736,"internal_node_id":"0.0-7.0","task_version":"prescreen-v0.3","browser_interactions":0,"infrequency":0},{"view_history":[{"page_index":0,"viewing_time":1019.6999999880791},{"page_index":1,"viewing_time":2173.9000000059605}],"rt":3193.9000000059605,"trial_type":"instructions","trial_index":8,"time_elapsed":163936,"internal_node_id":"0.0-8.0","task_version":"prescreen-v0.3"},{"responses":{"01":"No","02":"No","03":"No","04":"No","05":"No","06":"No"},"rt":7160.200000017881,"item_order":[0,1,2,3,4,5],"radio_events":[2270.0999999940395,3010.2000000178814,3858.5999999940395,4727.700000017881,5482.4000000059605,6689.700000017881],"checkbox_events":[],"key_events":[],"mouse_events":[0.09999999403953552,2270.0999999940395,3010.2000000178814,3858.5999999940395,4727.700000017881,5482.4000000059605,5966.9000000059605,6689.700000017881,7157.5999999940395],"honeypot":0,"survey":"mace","page":1,"trial_type":"survey-mace","trial_index":9,"time_elapsed":171102,"internal_node_id":"0.0-9.0","task_version":"prescreen-v0.3","browser_interactions":0},{"responses":{"01":"No","02":"No","03":"Yes","03_ages_6":"6","03_ages_7":"7","03_ages_8":"8","03_ages_9":"9","03_ages_10":"10","03_ages_11":"11","04":"No","05":"No","06":"No","07":"No","08":"No"},"rt":24414.69999998808,"item_order":[0,1,2,3,4,5,6,7],"radio_events":[1488.2999999821186,2102.5,3633.2999999821186,7778.9000000059605,18107.79999998212,18721.09999999404,19385.09999999404,20806.19999998808,22008.29999998212],"checkbox_events":[10753.799999982119,11132.40000000596,11532.5,11905.199999988079,12160.299999982119,13155.299999982119,14038.40000000596,15535],"key_events":[],"mouse_events":[1488.2999999821186,2102.5,3633.2999999821186,7778.9000000059605,10753.799999982119,11132.40000000596,11532.5,11905.199999988079,12160.299999982119,12801.699999988079,13155.299999982119,14038.40000000596,15535,18107.79999998212,18721.09999999404,19385.09999999404,20806.19999998808,21383.19999998808,22008.29999998212,24411.40000000596],"honeypot":0,"survey":"mace","page":2,"trial_type":"survey-mace","trial_index":10,"time_elapsed":195523,"internal_node_id":"0.0-10.0","task_version":"prescreen-v0.3","browser_interactions":0},{"responses":{"01":"No","02":"No","03":"No","04":"No"},"rt":4895.4000000059605,"item_order":[0,1,2,3],"radio_events":[2152.7999999821186,2907.9000000059605,3855.0999999940395,4429.699999988079],"checkbox_events":[],"key_events":[],"mouse_events":[2152.7999999821186,2907.9000000059605,3633.7999999821186,3855.0999999940395,4429.699999988079,4893.199999988079],"honeypot":0,"survey":"mace","page":3,"trial_type":"survey-mace","trial_index":11,"time_elapsed":200423,"internal_node_id":"0.0-11.0","task_version":"prescreen-v0.3","browser_interactions":0},{"responses":{"01":"No","02":"No"},"rt":3037.699999988079,"item_order":[0,1],"radio_events":[1349.7999999821186,2041.699999988079],"checkbox_events":[],"key_events":[],"mouse_events":[1349.7999999821186,2041.699999988079,3036.5999999940395],"honeypot":0,"survey":"mace","page":4,"trial_type":"survey-mace","trial_index":12,"time_elapsed":203466,"internal_node_id":"0.0-12.0","task_version":"prescreen-v0.3","browser_interactions":0},{"responses":{"01":"No","02":"No","03":"No","04":"No","05":"No"},"rt":5762.4000000059605,"item_order":[0,1,2,3,4],"radio_events":[1580,2310.199999988079,3414.300000011921,4316.5,5090.699999988079],"checkbox_events":[],"key_events":[],"mouse_events":[1580,2310.199999988079,3414.300000011921,4316.5,5090.699999988079,5760],"honeypot":0,"survey":"mace","page":5,"trial_type":"survey-mace","trial_index":13,"time_elapsed":209233,"internal_node_id":"0.0-13.0","task_version":"prescreen-v0.3","browser_interactions":0},{"responses":{"01":"No","02":"No","03":"No","04":"No","05":"No"},"rt":6053.600000023842,"item_order":[0,1,2,3,4],"radio_events":[982.7000000178814,1928.7000000178814,3384.7000000178814,5025.700000017881,5573.5],"checkbox_events":[],"key_events":[],"mouse_events":[982.7000000178814,1928.7000000178814,3384.7000000178814,4261.4000000059605,5025.700000017881,5573.5,6051.5],"honeypot":0,"survey":"mace","page":6,"trial_type":"survey-mace","trial_index":14,"time_elapsed":215292,"internal_node_id":"0.0-14.0","task_version":"prescreen-v0.3","browser_interactions":0},{"responses":{"01":"No","02":"No","03":"No","04":"No","05":"No","06":"No","07":"No"},"rt":8162.200000017881,"item_order":[0,1,2,3,4,5,6],"radio_events":[1365.9000000059605,2092.300000011921,2945.100000023842,3976.2000000178814,4875.300000011921,6605.100000023842,7416.800000011921],"checkbox_events":[],"key_events":[],"mouse_events":[1365.9000000059605,2092.300000011921,2945.100000023842,3976.2000000178814,4875.300000011921,6605.100000023842,7416.800000011921,8159.200000017881],"honeypot":0,"survey":"mace","page":7,"trial_type":"survey-mace","trial_index":15,"time_elapsed":223459,"internal_node_id":"0.0-15.0","task_version":"prescreen-v0.3","browser_interactions":0},{"responses":{"01":"No","02":"No","03":"No","04":"No"},"rt":7953.399999976158,"item_order":[0,1,2,3],"radio_events":[3395.0999999940395,4595.799999982119,5807,6504.899999976158],"checkbox_events":[],"key_events":[],"mouse_events":[3395.0999999940395,4595.799999982119,5807,6504.899999976158,7951.899999976158],"honeypot":0,"survey":"mace","page":8,"trial_type":"survey-mace","trial_index":16,"time_elapsed":231417,"internal_node_id":"0.0-16.0","task_version":"prescreen-v0.3","browser_interactions":0},{"responses":{"01":"Yes","01_ages_1":"1","01_ages_2":"2","01_ages_3":"3","01_ages_4":"4","01_ages_5":"5","01_ages_6":"6","01_ages_7":"7","01_ages_8":"8","01_ages_9":"9","01_ages_10":"10","01_ages_11":"11","01_ages_12":"12","01_ages_13":"13","01_ages_14":"14","01_ages_15":"15","01_ages_16":"16","01_ages_17":"17","01_ages_18":"18","02":"Yes","02_ages_3":"3","02_ages_4":"4","02_ages_5":"5","02_ages_6":"6","02_ages_7":"7","02_ages_8":"8","02_ages_9":"9","02_ages_10":"10","02_ages_11":"11","02_ages_12":"12","02_ages_13":"13","02_ages_14":"14","02_ages_15":"15","02_ages_16":"16","03":"Yes","03_ages_1":"1","03_ages_2":"2","03_ages_3":"3","03_ages_4":"4","03_ages_5":"5","03_ages_6":"6","03_ages_7":"7","03_ages_8":"8","03_ages_9":"9","03_ages_10":"10","03_ages_11":"11","03_ages_12":"12","03_ages_13":"13","03_ages_14":"14","03_ages_15":"15","03_ages_16":"16","03_ages_17":"17","03_ages_18":"18","04":"Yes","04_ages_1":"1","04_ages_2":"2","04_ages_3":"3","04_ages_4":"4","04_ages_5":"5","04_ages_6":"6","04_ages_7":"7","04_ages_8":"8","04_ages_9":"9","04_ages_10":"10","04_ages_11":"11","04_ages_12":"12","04_ages_13":"13","04_ages_14":"14","04_ages_15":"15","04_ages_16":"16","04_ages_17":"17","04_ages_18":"18"},"rt":309057.2999999821,"item_order":[0,1,2,3],"radio_events":[2442.2999999821186,14532.09999999404,24881.19999998808,35980.29999998212],"checkbox_events":[5845.299999982119,6429.199999988079,6687.299999982119,6981.5,7286.4000000059605,7748.9000000059605,8067.0999999940395,8329.199999988079,8673.299999982119,9091.09999999404,9510.199999988079,9872.199999988079,10160.199999988079,10501.799999982119,11103.299999982119,11649.40000000596,12019.199999988079,12676.59999999404,16850.29999998212,17133.59999999404,17418.5,17700.09999999404,18029.09999999404,18309.40000000596,19251.19999998808,19646.19999998808,20234.29999998212,20734.69999998808,21071.59999999404,22161.29999998212,22804.59999999404,23084.19999998808,25751.5,26137.29999998212,26624.09999999404,27060.59999999404,27409.09999999404,27728.40000000596,28348,28645,29348.90000000596,29649.29999998212,29943.19999998808,30532.5,31179.29999998212,31807.19999998808,32150.40000000596,32622,33167.5,33805.59999999404,36879.19999998808,37136.29999998212,37567.40000000596,37877.19999998808,38191.29999998212,38736.19999998808,39136.40000000596,39422.5,39711.09999999404,303545.1999999881,304001.1999999881,304402.40000000596,305153.59999999404,305562.6999999881,305990.2999999821,306257.5,307436.2999999821,307762.5,308255.2999999821,308537.5],"key_events":[],"mouse_events":[2442.2999999821186,5845.299999982119,6096.199999988079,6429.199999988079,6687.299999982119,6981.5,7286.4000000059605,7748.9000000059605,8067.0999999940395,8329.199999988079,8673.299999982119,9091.09999999404,9510.199999988079,9872.199999988079,10160.199999988079,10501.799999982119,10813.5,11103.299999982119,11649.40000000596,12019.199999988079,12400.59999999404,12676.59999999404,14532.09999999404,16055.299999982119,16531,16850.29999998212,17133.59999999404,17418.5,17700.09999999404,18029.09999999404,18309.40000000596,18609.19999998808,18962.40000000596,19251.19999998808,19646.19999998808,19929.69999998808,20234.29999998212,20507.5,20734.69999998808,21071.59999999404,21382.40000000596,21613.29999998212,22161.29999998212,22540.29999998212,22804.59999999404,23084.19999998808,24881.19999998808,25751.5,26137.29999998212,26624.09999999404,27060.59999999404,27409.09999999404,27728.40000000596,28038.09999999404,28348,28645,29036.09999999404,29348.90000000596,29649.29999998212,29943.19999998808,30532.5,30817.19999998808,31179.29999998212,31464.29999998212,31807.19999998808,32150.40000000596,32622,32874.29999998212,33167.5,33805.59999999404,35650.29999998212,35980.29999998212,36879.19999998808,37136.29999998212,37567.40000000596,37877.19999998808,38191.29999998212,38736.19999998808,39136.40000000596,39422.5,39711.09999999404,303015.2999999821,303545.1999999881,304001.1999999881,304402.40000000596,304875.40000000596,305153.59999999404,305562.6999999881,305990.2999999821,306257.5,306709.2999999821,307172.1999999881,307436.2999999821,307762.5,308255.2999999821,308537.5,309055.5],"honeypot":0,"survey":"mace","page":9,"trial_type":"survey-mace","trial_index":17,"time_elapsed":540480,"internal_node_id":"0.0-17.0","task_version":"prescreen-v0.3","browser_interactions":0},{"responses":{"01":"No","02":"No","03":"No","04":"No","05":"No","06":"Yes","06_ages_17":"17","07":"Yes","07_ages_1":"1","07_ages_2":"2","07_ages_3":"3","07_ages_4":"4","07_ages_5":"5","07_ages_6":"6","07_ages_7":"7","07_ages_8":"8","07_ages_9":"9","07_ages_10":"10","07_ages_11":"11","07_ages_12":"12","07_ages_13":"13","07_ages_14":"14","07_ages_15":"15","07_ages_16":"16","07_ages_17":"17","07_ages_18":"18","08":"Yes","08_ages_1":"1","08_ages_2":"2","08_ages_3":"3","08_ages_4":"4","08_ages_5":"5","08_ages_6":"6","08_ages_7":"7","08_ages_8":"8","08_ages_9":"9","08_ages_10":"10","08_ages_11":"11","08_ages_12":"12","08_ages_13":"13","08_ages_14":"14","08_ages_15":"15","08_ages_16":"16","08_ages_17":"17","08_ages_18":"18"},"rt":32781.80000001192,"item_order":[0,1,2,3,4,5,6,7],"radio_events":[1621.0999999940395,2003.0999999940395,2521,4134,6109.5,7480.5999999940395,11994,22966],"checkbox_events":[8616.09999999404,13430.40000000596,13823,14120,14401.300000011921,15307.300000011921,15590.200000017881,16331.5,16642,16959.30000001192,17703.59999999404,18497.70000001788,19035.20000001788,19668,19955.09999999404,20516.09999999404,20837.20000001788,21302.5,21798.30000001192,23785.09999999404,24319.30000001192,24612.90000000596,25021.09999999404,25321.30000001192,25641.40000000596,26080.20000001788,26365.40000000596,26683.59999999404,27523.40000000596,28155.20000001788,28492.40000000596,29584,29904.09999999404,30425.09999999404,31084.5,31350.20000001788,31967.09999999404],"key_events":[],"mouse_events":[1621.0999999940395,2003.0999999940395,2521,4134,6109.5,7480.5999999940395,8616.09999999404,11994,13430.40000000596,13823,14120,14401.300000011921,14867.300000011921,15307.300000011921,15590.200000017881,16005.300000011921,16331.5,16642,16959.30000001192,17303.40000000596,17703.59999999404,18036.59999999404,18497.70000001788,18807.30000001192,19035.20000001788,19358.20000001788,19668,19955.09999999404,20516.09999999404,20837.20000001788,21302.5,21798.30000001192,22966,23785.09999999404,24046.5,24319.30000001192,24612.90000000596,25021.09999999404,25321.30000001192,25641.40000000596,26080.20000001788,26365.40000000596,26683.59999999404,26988,27523.40000000596,27943.09999999404,28155.20000001788,28492.40000000596,28887.40000000596,29584,29904.09999999404,30425.09999999404,30700.20000001788,31084.5,31350.20000001788,31967.09999999404,32778.5],"honeypot":0,"survey":"mace","page":10,"trial_type":"survey-mace","trial_index":18,"time_elapsed":573267,"internal_node_id":"0.0-18.0","task_version":"prescreen-v0.3","browser_interactions":0,"instructed":0},{"rt":1171.0999999940395,"trial_type":"mental-health-alert","trial_index":19,"time_elapsed":574442,"internal_node_id":"0.0-19.0","task_version":"prescreen-v0.3","interactions":"[{\"event\":\"blur\",\"trial\":2,\"time\":46081},{\"event\":\"focus\",\"trial\":2,\"time\":49155},{\"event\":\"blur\",\"trial\":2,\"time\":49160},{\"event\":\"focus\",\"trial\":2,\"time\":72284},{\"event\":\"blur\",\"trial\":3,\"time\":101979},{\"event\":\"focus\",\"trial\":3,\"time\":102950},{\"event\":\"blur\",\"trial\":3,\"time\":103597},{\"event\":\"focus\",\"trial\":3,\"time\":106292},{\"event\":\"focus\",\"trial\":3,\"time\":106292}]"}]