[{"view_history":[{"page_index":0,"viewing_time":3924.300000011921},{"page_index":1,"viewing_time":3771.899999976158},{"page_index":2,"viewing_time":6258},{"page_index":3,"viewing_time":1587.8999999761581}],"rt":15542.699999988079,"trial_type":"instructions","trial_index":0,"time_elapsed":15551,"internal_node_id":"0.0-0.0","task_version":"prescreen-v0.3"},{"rt":38497.40000003576,"responses":{"age":"78","gender-categorical":"Male","gender-free-response":"","ethnicity":"Not Hispanic or Latino","race":["White"],"education":"Some college"},"trial_type":"survey-demo","trial_index":1,"time_elapsed":54052,"internal_node_id":"0.0-1.0","task_version":"prescreen-v0.3"},{"responses":{"Q16":"0","Q21":"3","Q13":"1","Q03":"1","Q17":"0","Q11":"0","Q10":"0","Q07":"1","Q04":"1","Q14":"1","Q09":"0","Q20":"1","Q02":"0","Q19":"0","Q05":"3","Q18":"0","Q01":"1","Q06":"1","Q15":"0","Q12":"1","Q08":"1"},"rt":177945.30000001192,"item_order":[15,20,12,2,16,10,9,6,3,13,8,19,1,18,4,17,0,5,14,11,7],"radio_events":[19732.30000001192,25496,31590,36954,44592.10000002384,50848,54466,67252.10000002384,74871.90000003576,80544.10000002384,86362.10000002384,94213.90000003576,101218.10000002384,119184,131926.10000002384,140913.69999998808,148812.30000001192,149547.80000001192,157582,166107.60000002384,171097.60000002384,175632.19999998808],"key_events":[],"mouse_events":[19732.30000001192,25496,31590,36954,44592.10000002384,50848,54466,67252.10000002384,74871.90000003576,80544.10000002384,86362.10000002384,94213.90000003576,101218.10000002384,119184,131926.10000002384,140913.69999998808,148812.30000001192,149547.80000001192,157582,166107.60000002384,171097.60000002384,175632.19999998808,177944],"straightlining":0.47619047619047616,"zigzagging":0.55,"honeypot":0,"survey":"sns","trial_type":"survey-template","trial_index":2,"time_elapsed":232001,"internal_node_id":"0.0-2.0","task_version":"prescreen-v0.3","browser_interactions":0,"infrequency":0},{"responses":{"Q08":"2","Q01":"1","Q09":"1","Q12":"0","Q11":"1","Q06":"2","Q02":"2","Q05":"2","Q04":"2","Q13":"0","Q03":"1","Q10":"1","Q07":"2"},"rt":98450.5,"item_order":[7,0,8,11,10,5,1,4,3,12,2,9,6],"radio_events":[21333.69999998808,26353.5,32139.5,37215.19999998808,44567.5,50705.5,55221.299999952316,65551.29999995232,73517.5,77615.29999995232,86295.19999998808,94759.19999998808,97059.09999996424],"key_events":[],"mouse_events":[21333.69999998808,26353.5,32139.5,37215.19999998808,44567.5,50705.5,55221.299999952316,65551.29999995232,73517.5,77615.29999995232,86295.19999998808,94759.19999998808,97059.09999996424,98449.69999998808],"straightlining":0.46153846153846156,"zigzagging":0.5,"honeypot":0,"survey":"bisbas","trial_type":"survey-template","trial_index":3,"time_elapsed":330454,"internal_node_id":"0.0-3.0","task_version":"prescreen-v0.3","browser_interactions":0,"infrequency":0},{"responses":{"Q01":"3","Q02":"2","Q03":"3"},"rt":40688.5,"radio_events":[25180.100000023842,30384,38896.10000002384],"key_events":[],"mouse_events":[25180.100000023842,30384,38896.10000002384,40688.10000002384],"survey":"map","page":1,"trial_type":"survey-map","trial_index":4,"time_elapsed":371145,"internal_node_id":"0.0-4.0","task_version":"prescreen-v0.3","browser_interactions":0},{"responses":{"Q04":"3","Q05":"2","Q06":"2"},"rt":37424,"radio_events":[15587.799999952316,25861.599999964237,35971.5],"key_events":[],"mouse_events":[15587.799999952316,25861.599999964237,35971.5,37423.59999996424],"survey":"map","page":2,"trial_type":"survey-map","trial_index":5,"time_elapsed":408570,"internal_node_id":"0.0-5.0","task_version":"prescreen-v0.3","browser_interactions":0},{"responses":{"Q07":"3","Q08":"3","Q09":"3"},"rt":39586.10000002384,"radio_events":[19495.700000047684,33807.90000003576,38509.60000002384],"key_events":[],"mouse_events":[19495.700000047684,33807.90000003576,38509.60000002384,39585.700000047684],"survey":"map","page":3,"trial_type":"survey-map","trial_index":6,"time_elapsed":448158,"internal_node_id":"0.0-6.0","task_version":"prescreen-v0.3","browser_interactions":0},{"responses":{"Q10":"2","Q11":"3","Q12":"3","Q13":"1","Q16":"0","Q14":"4","Q15":"3"},"rt":65898.70000004768,"radio_events":[11557.600000023842,18533.5,25235.80000001192,44361.5,50911.700000047684,58319.40000003576,63959.60000002384],"key_events":[],"mouse_events":[11557.600000023842,18533.5,25235.80000001192,44361.5,50911.700000047684,58319.40000003576,63959.60000002384,65898],"survey":"map","page":4,"trial_type":"survey-map","trial_index":7,"time_elapsed":514059,"internal_node_id":"0.0-7.0","task_version":"prescreen-v0.3","browser_interactions":0,"infrequency":0},{"view_history":[{"page_index":0,"viewing_time":4125.100000023842},{"page_index":1,"viewing_time":5568.199999988079}],"rt":9693.800000011921,"trial_type":"instructions","trial_index":8,"time_elapsed":523754,"internal_node_id":"0.0-8.0","task_version":"prescreen-v0.3"},{"responses":{"01":"Yes","01_ages_10":"10","01_ages_16":"16","02":"Yes","02_ages_10":"10","02_ages_16":"16","03":"Yes","03_ages_16":"16","04":"No","05":"No","06":"Yes","06_ages_16":"16"},"rt":89272.60000002384,"item_order":[0,1,2,3,4,5],"radio_events":[16010.800000011921,47964.60000002384,64188.90000003576,75366.40000003576,79778.60000002384,83876.90000003576],"checkbox_events":[24220.700000047684,26452.700000047684,52674.700000047684,54108.5,69964.40000003576,87674.80000001192],"key_events":[],"mouse_events":[0,16010.800000011921,24220.700000047684,26452.700000047684,47964.60000002384,52674.700000047684,54108.5,64188.90000003576,69964.40000003576,75366.40000003576,79778.60000002384,83876.90000003576,87674.80000001192,89271],"honeypot":0,"survey":"mace","page":1,"trial_type":"survey-mace","trial_index":9,"time_elapsed":613031,"internal_node_id":"0.0-9.0","task_version":"prescreen-v0.3","browser_interactions":0},{"responses":{"01":"No","02":"No","03":"No","04":"No","05":"Yes","05_ages_14":"14","05_ages_16":"16","06":"No","07":"No","08":"No"},"rt":51971,"item_order":[0,1,2,3,4,5,6,7],"radio_events":[8030.600000023842,13438.699999988079,22862.600000023842,26730.69999998808,31200.900000035763,44356.5,47476.5,50480.69999998808],"checkbox_events":[34946.60000002384,40522.60000002384],"key_events":[],"mouse_events":[8030.600000023842,13438.699999988079,22862.600000023842,26730.69999998808,31200.900000035763,34946.60000002384,40522.60000002384,44356.5,47476.5,50480.69999998808,51968.90000003576],"honeypot":0,"survey":"mace","page":2,"trial_type":"survey-mace","trial_index":10,"time_elapsed":665005,"internal_node_id":"0.0-10.0","task_version":"prescreen-v0.3","browser_interactions":0},{"responses":{"01":"No","02":"No","03":"No","04":"No"},"rt":28731.900000035763,"item_order":[0,1,2,3],"radio_events":[20202.30000001192,23376.5,25906.400000035763,27800.80000001192],"checkbox_events":[],"key_events":[],"mouse_events":[20202.30000001192,23376.5,25906.400000035763,27800.80000001192,28730.600000023842],"honeypot":0,"survey":"mace","page":3,"trial_type":"survey-mace","trial_index":11,"time_elapsed":693739,"internal_node_id":"0.0-11.0","task_version":"prescreen-v0.3","browser_interactions":0},{"responses":{"01":"No","02":"No"},"rt":27995.19999998808,"item_order":[0,1],"radio_events":[7794.400000035763,12096.699999988079,23446.400000035763],"checkbox_events":[],"key_events":[],"mouse_events":[7794.400000035763,12096.699999988079,23446.400000035763,27994.5],"honeypot":0,"survey":"mace","page":4,"trial_type":"survey-mace","trial_index":12,"time_elapsed":721736,"internal_node_id":"0.0-12.0","task_version":"prescreen-v0.3","browser_interactions":0},{"responses":{"01":"No","02":"No","03":"No","04":"No","05":"No"},"rt":28480.899999976158,"item_order":[0,1,2,3,4],"radio_events":[13225.100000023842,15883,19939,23487.399999976158,27347.399999976158],"checkbox_events":[],"key_events":[],"mouse_events":[13225.100000023842,15883,19939,23487.399999976158,27347.399999976158,28479.399999976158],"honeypot":0,"survey":"mace","page":5,"trial_type":"survey-mace","trial_index":13,"time_elapsed":750220,"internal_node_id":"0.0-13.0","task_version":"prescreen-v0.3","browser_interactions":0},{"responses":{"01":"No","02":"No","03":"No","04":"No","05":"No"},"rt":35129.10000002384,"item_order":[0,1,2,3,4],"radio_events":[18427.899999976158,22605.600000023842,27503.600000023842,30169.600000023842,33811.5],"checkbox_events":[],"key_events":[],"mouse_events":[18427.899999976158,22605.600000023842,27503.600000023842,30169.600000023842,33811.5,35127.5],"honeypot":0,"survey":"mace","page":6,"trial_type":"survey-mace","trial_index":14,"time_elapsed":785352,"internal_node_id":"0.0-14.0","task_version":"prescreen-v0.3","browser_interactions":0},{"responses":{"01":"No","02":"Yes","02_ages_10":"10","03":"No","04":"No","05":"No","06":"Yes","06_ages_10":"10","07":"Yes","07_ages_10":"10"},"rt":64825.80000001192,"item_order":[0,1,2,3,4,5,6],"radio_events":[6981.700000047684,10747.5,27469.80000001192,29479.600000023842,34109.80000001192,37047.700000047684,57341.90000003576],"checkbox_events":[18927.900000035763,38963.80000001192,63179.90000003576],"key_events":[],"mouse_events":[6981.700000047684,10747.5,18927.900000035763,27469.80000001192,29479.600000023842,34109.80000001192,37047.700000047684,38963.80000001192,57341.90000003576,63179.90000003576,64823.80000001192],"honeypot":0,"survey":"mace","page":7,"trial_type":"survey-mace","trial_index":15,"time_elapsed":850181,"internal_node_id":"0.0-15.0","task_version":"prescreen-v0.3","browser_interactions":0},{"responses":{"01":"No","02":"No","03":"Yes","03_ages_10":"10","03_ages_16":"16","03_ages_18":"18","04":"No"},"rt":51528.39999997616,"item_order":[0,1,2,3],"radio_events":[11618.800000011921,24202.80000001192,30715.100000023842,49095.19999998808],"checkbox_events":[34267.19999998808,36574.80000001192,37746.80000001192,40321.10000002384,41726.89999997616],"key_events":[],"mouse_events":[11618.800000011921,24202.80000001192,30715.100000023842,34267.19999998808,36574.80000001192,37746.80000001192,40321.10000002384,41726.89999997616,49095.19999998808,51527.10000002384],"honeypot":0,"survey":"mace","page":8,"trial_type":"survey-mace","trial_index":16,"time_elapsed":901711,"internal_node_id":"0.0-16.0","task_version":"prescreen-v0.3","browser_interactions":0},{"responses":{"01":"Yes","01_ages_1":"1","01_ages_2":"2","01_ages_3":"3","01_ages_4":"4","01_ages_5":"5","01_ages_6":"6","01_ages_7":"7","01_ages_8":"8","01_ages_9":"9","01_ages_10":"10","01_ages_11":"11","01_ages_12":"12","01_ages_13":"13","01_ages_14":"14","01_ages_15":"15","01_ages_16":"16","01_ages_17":"17","01_ages_18":"18","02":"Yes","02_ages_1":"1","02_ages_2":"2","02_ages_3":"3","02_ages_4":"4","02_ages_5":"5","02_ages_6":"6","02_ages_7":"7","02_ages_8":"8","02_ages_9":"9","02_ages_12":"12","02_ages_13":"13","02_ages_14":"14","02_ages_15":"15","02_ages_18":"18","03":"Yes","03_ages_1":"1","03_ages_2":"2","03_ages_3":"3","03_ages_4":"4","03_ages_5":"5","03_ages_6":"6","03_ages_7":"7","03_ages_8":"8","03_ages_9":"9","03_ages_10":"10","03_ages_11":"11","03_ages_12":"12","03_ages_13":"13","03_ages_14":"14","03_ages_15":"15","03_ages_16":"16","03_ages_17":"17","03_ages_18":"18","04":"Yes","04_ages_1":"1","04_ages_2":"2","04_ages_3":"3","04_ages_4":"4","04_ages_5":"5","04_ages_6":"6","04_ages_7":"7","04_ages_8":"8","04_ages_9":"9","04_ages_10":"10","04_ages_11":"11","04_ages_12":"12","04_ages_13":"13","04_ages_14":"14","04_ages_15":"15","04_ages_16":"16","04_ages_17":"17","04_ages_18":"18"},"rt":153367.30000001192,"item_order":[0,1,2,3],"radio_events":[17310,55661.80000001192,96432.09999996424,122779.89999997616],"checkbox_events":[26622,27424.30000001192,28798.099999964237,29454.099999964237,30025.80000001192,30549.80000001192,31198.099999964237,31702.099999964237,32934,33764.09999996424,35046.09999996424,35649.89999997616,36412,37092.19999998808,38514.39999997616,39542.09999996424,40742.09999996424,41725.89999997616,63633.80000001192,64588.09999996424,65567.80000001192,66530,67481.89999997616,68610.09999996424,69976.09999996424,71100,72976,81568,82581.80000001192,83419.69999998808,88647.89999997616,90485.69999998808,99218.09999996424,100325.80000001192,101766.19999998808,102728.09999996424,103299.89999997616,104141.69999998808,104713.89999997616,105317.69999998808,105889.69999998808,106607.80000001192,107335.80000001192,108106,108813.69999998808,109604,110273.69999998808,110965.80000001192,112205.80000001192,113515.69999998808,137141.89999997616,137653.80000001192,138846,139425.80000001192,140513.69999998808,141101.69999998808,141650,142238.19999998808,142817.80000001192,143503.80000001192,144585.59999996424,145521.69999998808,146383.80000001192,147413.69999998808,148144,148933.89999997616,149648,150488.09999996424],"key_events":[],"mouse_events":[17310,25557.899999976158,26622,27424.30000001192,28075.80000001192,28798.099999964237,29454.099999964237,30025.80000001192,30549.80000001192,31198.099999964237,31702.099999964237,32281.80000001192,32934,33764.09999996424,34387.89999997616,35046.09999996424,35649.89999997616,36412,37092.19999998808,38514.39999997616,39542.09999996424,40742.09999996424,41725.89999997616,55661.80000001192,63633.80000001192,64588.09999996424,65567.80000001192,66530,67481.89999997616,68610.09999996424,69976.09999996424,71100,72976,81568,82581.80000001192,83419.69999998808,88647.89999997616,90485.69999998808,96432.09999996424,99218.09999996424,100325.80000001192,101766.19999998808,102728.09999996424,103299.89999997616,104141.69999998808,104713.89999997616,105317.69999998808,105889.69999998808,106607.80000001192,107335.80000001192,108106,108813.69999998808,109604,110273.69999998808,110965.80000001192,112205.80000001192,113515.69999998808,122779.89999997616,137141.89999997616,137653.80000001192,138217.89999997616,138846,139425.80000001192,139989.59999996424,140513.69999998808,141101.69999998808,141650,142238.19999998808,142817.80000001192,143503.80000001192,144585.59999996424,145521.69999998808,146383.80000001192,147413.69999998808,148144,148933.89999997616,149648,150488.09999996424,153366],"honeypot":0,"survey":"mace","page":9,"trial_type":"survey-mace","trial_index":17,"time_elapsed":1055081,"internal_node_id":"0.0-17.0","task_version":"prescreen-v0.3","browser_interactions":0},{"responses":{"01":"No","02":"No","03":"No","04":"No","05":"No","06":"Yes","06_ages_17":"17","07":"Yes","07_ages_1":"1","07_ages_2":"2","07_ages_3":"3","07_ages_4":"4","07_ages_5":"5","07_ages_6":"6","07_ages_7":"7","07_ages_8":"8","07_ages_9":"9","07_ages_10":"10","07_ages_11":"11","07_ages_12":"12","07_ages_13":"13","07_ages_14":"14","07_ages_15":"15","07_ages_16":"16","07_ages_17":"17","07_ages_18":"18","08":"Yes","08_ages_1":"1","08_ages_2":"2","08_ages_3":"3","08_ages_4":"4","08_ages_5":"5","08_ages_6":"6","08_ages_7":"7","08_ages_8":"8","08_ages_9":"9","08_ages_12":"12","08_ages_13":"13"},"rt":81127.89999997616,"item_order":[0,1,2,3,4,5,6,7],"radio_events":[7777.399999976158,10021.399999976158,16101.599999964237,22281.799999952316,28117.599999964237,33495.39999997616,41027.59999996424,62215.39999997616],"checkbox_events":[35537.799999952316,44061.299999952316,44581.59999996424,45559.299999952316,46305.39999997616,47021.299999952316,47633.299999952316,48871.39999997616,49479.19999998808,50051.59999996424,50615.299999952316,51163.59999996424,51787.299999952316,52339.299999952316,52931.19999998808,53701.19999998808,54277.39999997616,55023.799999952316,55687.5,64181.5,64955.39999997616,65857.5,66549.59999996424,67831.29999995232,68549.29999995232,70103.19999998808,70773.19999998808,71671.69999998808,73849.79999995232,76495.39999997616],"key_events":[],"mouse_events":[7777.399999976158,10021.399999976158,16101.599999964237,22281.799999952316,28117.599999964237,33495.39999997616,35537.799999952316,41027.59999996424,44061.299999952316,44581.59999996424,45559.299999952316,46305.39999997616,47021.299999952316,47633.299999952316,48871.39999997616,49479.19999998808,50051.59999996424,50615.299999952316,51163.59999996424,51787.299999952316,52339.299999952316,52931.19999998808,53701.19999998808,54277.39999997616,55023.799999952316,55687.5,62215.39999997616,64181.5,64955.39999997616,65857.5,66549.59999996424,67343.39999997616,67831.29999995232,68549.29999995232,69381.59999996424,70103.19999998808,70773.19999998808,71671.69999998808,73849.79999995232,76495.39999997616,81125.69999998808],"honeypot":0,"survey":"mace","page":10,"trial_type":"survey-mace","trial_index":18,"time_elapsed":1136213,"internal_node_id":"0.0-18.0","task_version":"prescreen-v0.3","browser_interactions":0,"instructed":0},{"rt":35901.10000002384,"trial_type":"mental-health-alert","trial_index":19,"time_elapsed":1172115,"internal_node_id":"0.0-19.0","task_version":"prescreen-v0.3","interactions":"[]"}]