[{"view_history":[{"page_index":0,"viewing_time":1680},{"page_index":1,"viewing_time":3071.600000023842},{"page_index":2,"viewing_time":2943.7999999523163},{"page_index":3,"viewing_time":1016}],"rt":8711.799999952316,"trial_type":"instructions","trial_index":0,"time_elapsed":8726,"internal_node_id":"0.0-0.0","task_version":"prescreen-v0.3"},{"rt":12733.900000095367,"responses":{"age":"40","gender-categorical":"Male","gender-free-response":"","ethnicity":"Not Hispanic or Latino","race":["White"],"education":"Some college"},"trial_type":"survey-demo","trial_index":1,"time_elapsed":21463,"internal_node_id":"0.0-1.0","task_version":"prescreen-v0.3"},{"responses":{"Q19":"0","Q11":"0","Q21":"3","Q17":"1","Q04":"1","Q10":"0","Q13":"0","Q01":"2","Q15":"0","Q12":"0","Q03":"2","Q14":"0","Q20":"0","Q18":"0","Q07":"1","Q05":"1","Q08":"0","Q09":"0","Q16":"0","Q02":"1","Q06":"2"},"rt":107381.20000004768,"item_order":[18,10,20,16,3,9,12,0,14,11,2,13,19,17,6,4,7,8,15,1,5],"radio_events":[6315.399999976158,9914.5,12258.300000071526,16770.200000047684,21338,26474.300000071526,28234.300000071526,31778,49691.300000071526,53042.39999997616,54378.700000047684,57026.89999997616,61794.10000002384,62962,70922,77122.39999997616,84370.39999997616,90546.39999997616,94052.30000007153,98482.30000007153,101226.39999997616,102882.39999997616,106490.60000002384],"key_events":[],"mouse_events":[6315.399999976158,8682.399999976158,9914.5,12258.300000071526,16770.200000047684,20530.600000023842,21338,25971,26474.300000071526,28234.300000071526,31778,49074.300000071526,49691.300000071526,51994.300000071526,53042.39999997616,54378.700000047684,57026.89999997616,61378.700000047684,61794.10000002384,62962,70922,77122.39999997616,84370.39999997616,90203.89999997616,90546.39999997616,93546.60000002384,94052.30000007153,97674.5,98482.30000007153,101226.39999997616,102882.39999997616,106490.60000002384,107379.10000002384],"straightlining":0.5714285714285714,"zigzagging":0.3,"honeypot":0,"survey":"sns","trial_type":"survey-template","trial_index":2,"time_elapsed":128850,"internal_node_id":"0.0-2.0","task_version":"prescreen-v0.3","browser_interactions":2,"infrequency":0},{"responses":{"Q06":"3","Q03":"0","Q10":"2","Q02":"1","Q04":"2","Q09":"2","Q07":"3","Q13":"0","Q01":"2","Q11":"2","Q12":"1","Q05":"2","Q08":"3"},"rt":65954.30000007153,"item_order":[5,2,9,1,3,8,6,12,0,10,11,4,7],"radio_events":[24187,25976.899999976158,29241.300000071526,31713,36152.89999997616,39033,41696.800000071526,44264.89999997616,48273.800000071526,53882.200000047684,58128.700000047684,60553.700000047684,65016.60000002384],"key_events":[],"mouse_events":[21864.600000023842,24187,25976.899999976158,28472.600000023842,29241.300000071526,31713,36152.89999997616,39033,41168.800000071526,41696.800000071526,44264.89999997616,48273.800000071526,53882.200000047684,58128.700000047684,60097,60553.700000047684,64105.200000047684,64666.39999997616,65016.60000002384,65953],"straightlining":0.46153846153846156,"zigzagging":0.6666666666666666,"honeypot":0,"survey":"bisbas","trial_type":"survey-template","trial_index":3,"time_elapsed":194807,"internal_node_id":"0.0-3.0","task_version":"prescreen-v0.3","browser_interactions":2,"infrequency":0},{"responses":{"Q01":"3","Q02":"3","Q03":"3"},"rt":13563.600000023842,"radio_events":[4202.800000071526,7826.700000047684,12762.800000071526],"key_events":[],"mouse_events":[4202.800000071526,7826.700000047684,12411.300000071526,12762.800000071526,13219.700000047684,13563],"survey":"map","page":1,"trial_type":"survey-map","trial_index":4,"time_elapsed":208374,"internal_node_id":"0.0-4.0","task_version":"prescreen-v0.3","browser_interactions":0},{"responses":{"Q04":"2","Q05":"3","Q06":"3"},"rt":14518,"radio_events":[5413,8524.899999976158,13205],"key_events":[],"mouse_events":[3844.899999976158,5044.899999976158,5413,8524.899999976158,12813.199999928474,13205,14517.599999904633],"survey":"map","page":2,"trial_type":"survey-map","trial_index":5,"time_elapsed":222895,"internal_node_id":"0.0-5.0","task_version":"prescreen-v0.3","browser_interactions":0},{"responses":{"Q07":"3","Q08":"4","Q09":"3"},"rt":29374.299999952316,"radio_events":[21157.600000023842,23269.799999952316,28527.600000023842],"key_events":[],"mouse_events":[21157.600000023842,23269.799999952316,28527.600000023842,29373.799999952316],"survey":"map","page":3,"trial_type":"survey-map","trial_index":6,"time_elapsed":252270,"internal_node_id":"0.0-6.0","task_version":"prescreen-v0.3","browser_interactions":4},{"responses":{"Q10":"3","Q11":"2","Q12":"3","Q13":"3","Q16":"0","Q14":"4","Q15":"4"},"rt":26806.399999976158,"radio_events":[6629,8509.899999976158,12573.799999952316,15709.100000023842,18597.699999928474,22645.399999976158,25839.399999976158],"key_events":[],"mouse_events":[5685.100000023842,6629,8509.899999976158,12573.799999952316,15709.100000023842,18597.699999928474,22645.399999976158,25109.199999928474,25839.399999976158,26805.299999952316],"survey":"map","page":4,"trial_type":"survey-map","trial_index":7,"time_elapsed":279079,"internal_node_id":"0.0-7.0","task_version":"prescreen-v0.3","browser_interactions":0,"infrequency":0},{"view_history":[{"page_index":0,"viewing_time":4324.599999904633},{"page_index":1,"viewing_time":2783.9000000953674}],"rt":7109.099999904633,"trial_type":"instructions","trial_index":8,"time_elapsed":286190,"internal_node_id":"0.0-8.0","task_version":"prescreen-v0.3"},{"responses":{"01":"Yes","01_ages_1":"1","01_ages_2":"2","01_ages_3":"3","01_ages_4":"4","01_ages_5":"5","01_ages_6":"6","01_ages_7":"7","01_ages_8":"8","01_ages_9":"9","01_ages_10":"10","01_ages_11":"11","01_ages_12":"12","02":"Yes","02_ages_1":"1","02_ages_2":"2","02_ages_3":"3","02_ages_4":"4","02_ages_5":"5","02_ages_6":"6","02_ages_7":"7","02_ages_8":"8","02_ages_9":"9","02_ages_10":"10","02_ages_11":"11","02_ages_12":"12","03":"Yes","03_ages_1":"1","03_ages_2":"2","03_ages_3":"3","03_ages_4":"4","03_ages_5":"5","03_ages_6":"6","03_ages_7":"7","03_ages_8":"8","03_ages_9":"9","03_ages_10":"10","03_ages_11":"11","03_ages_12":"12","04":"No","05":"No","06":"Yes","06_ages_1":"1","06_ages_2":"2","06_ages_3":"3","06_ages_4":"4","06_ages_5":"5","06_ages_6":"6","06_ages_7":"7","06_ages_8":"8","06_ages_9":"9","06_ages_10":"10","06_ages_11":"11","06_ages_12":"12"},"rt":56887.199999928474,"item_order":[0,1,2,3,4,5],"radio_events":[5284.5,19995.699999928474,33011.799999952316,43339.59999990463,45836.5,47859.799999952316],"checkbox_events":[8548,9907.799999952316,10924.399999976158,11588,12084.099999904633,12659.799999952316,13147.599999904633,13917,14747.599999904633,15475.699999928474,15947.599999904633,16475.699999928474,21172.299999952316,22171.699999928474,22987.899999976158,23787.699999928474,24292.299999952316,25075.699999928474,25523.799999952316,26011.699999928474,26507.799999952316,27251.5,28516,29811.899999976158,34219.89999997616,34716.59999990463,35564,36195.5,37035.799999952316,37923.39999997616,38371.89999997616,38867.5,39371.59999990463,39875.799999952316,40755.699999928474,41163.699999928474,49427.799999952316,49843.799999952316,50483.799999952316,50940.199999928474,51516.199999928474,51988.09999990463,52827.799999952316,53515.59999990463,54115.5,54707.39999997616,55235.799999952316,55788.09999990463],"key_events":[],"mouse_events":[0.09999990463256836,5284.5,7811.899999976158,8548,9245,9907.799999952316,10452.299999952316,10924.399999976158,11588,12084.099999904633,12659.799999952316,13147.599999904633,13917,14747.599999904633,15475.699999928474,15947.599999904633,16475.699999928474,19995.699999928474,21172.299999952316,21675.5,22171.699999928474,22987.899999976158,23787.699999928474,24292.299999952316,25075.699999928474,25523.799999952316,26011.699999928474,26507.799999952316,27251.5,28516,29811.899999976158,33011.799999952316,34219.89999997616,34716.59999990463,35564,36195.5,36683.699999928474,37035.799999952316,37923.39999997616,38371.89999997616,38867.5,39371.59999990463,39875.799999952316,40755.699999928474,41163.699999928474,43339.59999990463,45836.5,47859.799999952316,49427.799999952316,49843.799999952316,50483.799999952316,50940.199999928474,51516.199999928474,51988.09999990463,52404.39999997616,52827.799999952316,53515.59999990463,54115.5,54707.39999997616,55235.799999952316,55788.09999990463,56884.299999952316],"honeypot":0,"survey":"mace","page":1,"trial_type":"survey-mace","trial_index":9,"time_elapsed":343083,"internal_node_id":"0.0-9.0","task_version":"prescreen-v0.3","browser_interactions":0},{"responses":{"01":"No","02":"No","03":"Yes","03_ages_1":"1","03_ages_2":"2","03_ages_3":"3","03_ages_4":"4","03_ages_5":"5","03_ages_6":"6","03_ages_7":"7","03_ages_8":"8","03_ages_9":"9","03_ages_10":"10","03_ages_11":"11","03_ages_12":"12","04":"No","05":"Yes","05_ages_1":"1","05_ages_2":"2","05_ages_3":"3","05_ages_4":"4","05_ages_5":"5","05_ages_6":"6","05_ages_7":"7","05_ages_8":"8","05_ages_9":"9","05_ages_10":"10","05_ages_11":"11","05_ages_12":"12","06":"No","07":"No","08":"No"},"rt":38267,"item_order":[0,1,2,3,4,5,6,7],"radio_events":[7239.800000071526,9863.600000023842,11143.700000047684,22167.800000071526,24919.700000047684,35071.60000002384,36431.60000002384,37750.89999997616],"checkbox_events":[12041.399999976158,13575.700000047684,13999.800000071526,14487.700000047684,15215.5,15608.100000023842,16032.5,16439.399999976158,16863.700000047684,17337.100000023842,17839.600000023842,18343.300000071526,26296.200000047684,26649.600000023842,27047.600000023842,27727.700000047684,28304.700000047684,28887.700000047684,29289.200000047684,29696.5,31415.800000071526,31927.399999976158,32575.600000023842,33375.5],"key_events":[],"mouse_events":[7239.800000071526,9863.600000023842,11143.700000047684,12041.399999976158,12519.700000047684,13575.700000047684,13999.800000071526,14487.700000047684,15215.5,15608.100000023842,16032.5,16439.399999976158,16863.700000047684,17337.100000023842,17839.600000023842,18343.300000071526,22167.800000071526,24919.700000047684,26296.200000047684,26649.600000023842,27047.600000023842,27727.700000047684,28304.700000047684,28887.700000047684,29289.200000047684,29696.5,30127,30527.100000023842,30928.700000047684,31415.800000071526,31927.399999976158,32575.600000023842,33375.5,35071.60000002384,36431.60000002384,37750.89999997616,38263.700000047684],"honeypot":0,"survey":"mace","page":2,"trial_type":"survey-mace","trial_index":10,"time_elapsed":381354,"internal_node_id":"0.0-10.0","task_version":"prescreen-v0.3","browser_interactions":0},{"responses":{"01":"Yes","01_ages_1":"1","01_ages_2":"2","01_ages_3":"3","01_ages_4":"4","01_ages_5":"5","01_ages_6":"6","01_ages_7":"7","01_ages_8":"8","01_ages_9":"9","01_ages_10":"10","01_ages_11":"11","01_ages_12":"12","02":"No","03":"No","04":"No"},"rt":26771.100000023842,"item_order":[0,1,2,3],"radio_events":[11665,23969.200000047684,25649.200000047684,26330],"checkbox_events":[12593.100000023842,12937,13472.899999976158,14041.200000047684,14561.700000047684,14945,15905.200000047684,16376.899999976158,17497,17865,18313.399999976158,18737],"key_events":[],"mouse_events":[11665,12593.100000023842,12937,13472.899999976158,14041.200000047684,14561.700000047684,14945,15361.800000071526,15905.200000047684,16376.899999976158,17057.700000047684,17497,17865,18313.399999976158,18737,22721.800000071526,23969.200000047684,24728.700000047684,25649.200000047684,26330,26769.100000023842],"honeypot":0,"survey":"mace","page":3,"trial_type":"survey-mace","trial_index":11,"time_elapsed":408128,"internal_node_id":"0.0-11.0","task_version":"prescreen-v0.3","browser_interactions":0},{"responses":{"01":"No","02":"No"},"rt":6892.600000023842,"item_order":[0,1],"radio_events":[5299.100000023842,6315.600000023842],"checkbox_events":[],"key_events":[],"mouse_events":[3475.8000000715256,4636,5299.100000023842,6315.600000023842,6891.5],"honeypot":0,"survey":"mace","page":4,"trial_type":"survey-mace","trial_index":12,"time_elapsed":415023,"internal_node_id":"0.0-12.0","task_version":"prescreen-v0.3","browser_interactions":0},{"responses":{"01":"Yes","01_ages_1":"1","01_ages_2":"2","01_ages_3":"3","01_ages_4":"4","01_ages_5":"5","01_ages_6":"6","01_ages_7":"7","01_ages_8":"8","01_ages_9":"9","01_ages_10":"10","01_ages_11":"11","01_ages_12":"12","02":"No","03":"No","04":"No","05":"No"},"rt":39574.5,"item_order":[0,1,2,3,4],"radio_events":[4468.100000023842,21451.800000071526,25587.5,30155.800000071526,35683.40000009537,38235.700000047684],"checkbox_events":[5707.900000095367,6755.600000023842,8011.900000095367,9220.300000071526,9795.700000047684,10251.700000047684,10747.700000047684,11435.800000071526,11931.700000047684,12795.700000047684,13387.800000071526,13843.800000071526],"key_events":[],"mouse_events":[4468.100000023842,5707.900000095367,6203.700000047684,6755.600000023842,7379.800000071526,8011.900000095367,8819.800000071526,9220.300000071526,9795.700000047684,10251.700000047684,10747.700000047684,11435.800000071526,11931.700000047684,12795.700000047684,13387.800000071526,13843.800000071526,21451.800000071526,25587.5,30155.800000071526,35683.40000009537,38235.700000047684,39572],"honeypot":0,"survey":"mace","page":5,"trial_type":"survey-mace","trial_index":13,"time_elapsed":454602,"internal_node_id":"0.0-13.0","task_version":"prescreen-v0.3","browser_interactions":0},{"responses":{"01":"No","01_ages_1":"1","01_ages_2":"2","01_ages_3":"3","01_ages_4":"4","01_ages_5":"5","01_ages_6":"6","01_ages_7":"7","01_ages_8":"8","01_ages_9":"9","01_ages_10":"10","01_ages_11":"11","01_ages_12":"12","01_ages_13":"13","01_ages_14":"14","01_ages_15":"15","01_ages_16":"16","01_ages_17":"17","01_ages_18":"18","02":"No","03":"No","04":"No","05":"No"},"rt":33116.199999928474,"item_order":[0,1,2,3,4],"radio_events":[8851.099999904633,25793.799999952316,26593.799999952316,29002,29946.399999976158,31153.799999952316],"checkbox_events":[9993.699999928474,10803,11233.799999952316,11714.5,12625.299999952316,12945.899999976158,13817.699999928474,14275.199999928474,15385.699999928474,15825.699999928474,16915,17697.599999904633,19033.799999952316,19457.699999928474,20001.799999952316,20681.799999952316,21065.899999976158,21634.399999976158],"key_events":[],"mouse_events":[8851.099999904633,9993.699999928474,10803,11233.799999952316,11714.5,12625.299999952316,12945.899999976158,13369.599999904633,13817.699999928474,14275.199999928474,14777.799999952316,15385.699999928474,15825.699999928474,16554.399999976158,16915,17298.699999928474,17697.599999904633,19033.799999952316,19457.699999928474,20001.799999952316,20681.799999952316,21065.899999976158,21634.399999976158,25793.799999952316,26593.799999952316,28227.199999928474,29002,29946.399999976158,31153.799999952316,33113.699999928474],"honeypot":0,"survey":"mace","page":6,"trial_type":"survey-mace","trial_index":14,"time_elapsed":487721,"internal_node_id":"0.0-14.0","task_version":"prescreen-v0.3","browser_interactions":0},{"responses":{"01":"No","02":"No","03":"Yes","03_ages_10":"10","04":"No","05":"No","06":"No","07":"No"},"rt":15475.399999976158,"item_order":[0,1,2,3,4,5,6],"radio_events":[3689.399999976158,5249.5,8673.899999976158,11713.699999928474,13058.399999976158,14169.699999928474,14929.399999976158],"checkbox_events":[9721.299999952316],"key_events":[],"mouse_events":[3689.399999976158,5249.5,8673.899999976158,9721.299999952316,11713.699999928474,13058.399999976158,14169.699999928474,14929.399999976158,15473.199999928474],"honeypot":0,"survey":"mace","page":7,"trial_type":"survey-mace","trial_index":15,"time_elapsed":503201,"internal_node_id":"0.0-15.0","task_version":"prescreen-v0.3","browser_interactions":0},{"responses":{"01":"No","02":"Yes","02_ages_1":"1","02_ages_2":"2","02_ages_3":"3","02_ages_4":"4","02_ages_5":"5","02_ages_6":"6","02_ages_7":"7","02_ages_8":"8","02_ages_9":"9","02_ages_10":"10","02_ages_11":"11","02_ages_12":"12","03":"Yes","03_ages_1":"1","03_ages_2":"2","03_ages_3":"3","03_ages_4":"4","03_ages_5":"5","03_ages_6":"6","03_ages_7":"7","03_ages_8":"8","03_ages_9":"9","03_ages_10":"10","03_ages_11":"11","03_ages_12":"12","04":"No"},"rt":36917.5,"item_order":[0,1,2,3],"radio_events":[10851.099999904633,13123.299999952316,25579.099999904633,36332.09999990463],"checkbox_events":[14251.299999952316,15285,15763.199999928474,17004.199999928474,17571.399999976158,18157.199999928474,18827.799999952316,19243.299999952316,19899.899999976158,20267.399999976158,20675.5,21115.399999976158,26596.399999976158,26931.399999976158,27603.5,27938.799999952316,28371.399999976158,29131,29643.299999952316,30107.199999928474,30516.899999976158,31172.5,31644,32291.399999976158],"key_events":[],"mouse_events":[10851.099999904633,13123.299999952316,14251.299999952316,14580.099999904633,15285,15763.199999928474,16555.799999952316,17004.199999928474,17571.399999976158,18157.199999928474,18827.799999952316,19243.299999952316,19899.899999976158,20267.399999976158,20675.5,21115.399999976158,25579.099999904633,26596.399999976158,26931.399999976158,27603.5,27938.799999952316,28371.399999976158,29131,29643.299999952316,30107.199999928474,30516.899999976158,31172.5,31644,32291.399999976158,36332.09999990463,36915.5],"honeypot":0,"survey":"mace","page":8,"trial_type":"survey-mace","trial_index":16,"time_elapsed":540120,"internal_node_id":"0.0-16.0","task_version":"prescreen-v0.3","browser_interactions":0},{"responses":{"01":"Yes","01_ages_1":"1","01_ages_2":"2","01_ages_3":"3","01_ages_4":"4","01_ages_5":"5","01_ages_6":"6","01_ages_7":"7","01_ages_8":"8","01_ages_9":"9","01_ages_10":"10","01_ages_11":"11","01_ages_12":"12","01_ages_13":"13","01_ages_14":"14","01_ages_15":"15","01_ages_16":"16","01_ages_17":"17","01_ages_18":"18","02":"No","03":"No","04":"Yes","04_ages_1":"1","04_ages_2":"2","04_ages_3":"3","04_ages_4":"4","04_ages_5":"5","04_ages_6":"6","04_ages_7":"7","04_ages_8":"8","04_ages_9":"9","04_ages_10":"10","04_ages_11":"11","04_ages_12":"12","04_ages_13":"13","04_ages_14":"14","04_ages_15":"15","04_ages_16":"16","04_ages_17":"17","04_ages_18":"18"},"rt":43821,"item_order":[0,1,2,3],"radio_events":[7115.699999928474,21612.599999904633,25978.799999952316,31995.099999904633],"checkbox_events":[10115.199999928474,10475.199999928474,11458.899999976158,12291,12938.699999928474,13300.5,13699.199999928474,14268.299999952316,14651.5,15371.299999952316,15811,16258.799999952316,16651.5,17275.199999928474,17730.699999928474,18122.899999976158,18562.899999976158,18987.199999928474,33379.59999990463,33842.699999928474,34195,34579.89999997616,35330.799999952316,35795,36386.699999928474,36843.199999928474,37242.89999997616,37891,38226.799999952316,39138.699999928474,39890.89999997616,40474.89999997616,40930.89999997616,41994.59999990463,42458.59999990463,43066.699999928474],"key_events":[],"mouse_events":[7115.699999928474,10115.199999928474,10475.199999928474,10915,11458.899999976158,12291,12938.699999928474,13300.5,13699.199999928474,14268.299999952316,14651.5,15371.299999952316,15811,16258.799999952316,16651.5,17275.199999928474,17730.699999928474,18122.899999976158,18562.899999976158,18987.199999928474,21612.599999904633,25978.799999952316,31643.199999928474,31995.099999904633,33379.59999990463,33842.699999928474,34195,34579.89999997616,34924,35330.799999952316,35795,36386.699999928474,36843.199999928474,37242.89999997616,37891,38226.799999952316,38650.89999997616,39138.699999928474,39578.59999990463,39890.89999997616,40474.89999997616,40930.89999997616,41994.59999990463,42458.59999990463,43066.699999928474,43818.799999952316],"honeypot":0,"survey":"mace","page":9,"trial_type":"survey-mace","trial_index":17,"time_elapsed":583944,"internal_node_id":"0.0-17.0","task_version":"prescreen-v0.3","browser_interactions":0},{"responses":{"01":"Yes","01_ages_3":"3","01_ages_4":"4","01_ages_5":"5","01_ages_6":"6","01_ages_7":"7","02":"No","03":"No","04":"No","05":"No","06":"Yes","06_ages_17":"17","07":"No","08":"No"},"rt":30796.600000023842,"item_order":[0,1,2,3,4,5,6,7],"radio_events":[7482.700000047684,12378.800000071526,13747.5,18050.800000071526,21459.600000023842,23434.600000023842,27507.600000023842,30250.700000047684],"checkbox_events":[8444.399999976158,8810.700000047684,9915,10306.700000047684,11274.600000023842,24578.5],"key_events":[],"mouse_events":[7482.700000047684,8444.399999976158,8810.700000047684,9194.600000023842,9915,10306.700000047684,10698.899999976158,11274.600000023842,12378.800000071526,13747.5,18050.800000071526,21459.600000023842,23434.600000023842,24578.5,27507.600000023842,28890.800000071526,29410.5,30250.700000047684,30794.300000071526],"honeypot":0,"survey":"mace","page":10,"trial_type":"survey-mace","trial_index":18,"time_elapsed":614744,"internal_node_id":"0.0-18.0","task_version":"prescreen-v0.3","browser_interactions":0,"instructed":0},{"rt":3427.600000023842,"trial_type":"mental-health-alert","trial_index":19,"time_elapsed":618173,"internal_node_id":"0.0-19.0","task_version":"prescreen-v0.3","interactions":"[{\"event\":\"blur\",\"trial\":2,\"time\":55515},{\"event\":\"focus\",\"trial\":2,\"time\":63457},{\"event\":\"blur\",\"trial\":3,\"time\":132280},{\"event\":\"focus\",\"trial\":3,\"time\":144893},{\"event\":\"blur\",\"trial\":6,\"time\":225160},{\"event\":\"focus\",\"trial\":6,\"time\":228717},{\"event\":\"blur\",\"trial\":6,\"time\":229540},{\"event\":\"focus\",\"trial\":6,\"time\":243930}]"}]