[{"view_history":[{"page_index":0,"viewing_time":4966},{"page_index":1,"viewing_time":5740},{"page_index":2,"viewing_time":6301},{"page_index":3,"viewing_time":1794}],"rt":18801,"trial_type":"instructions","trial_index":0,"time_elapsed":18813,"internal_node_id":"0.0-0.0","task_version":"prescreen-v0.3"},{"rt":60973,"responses":{"age":"26","gender-categorical":"Male","gender-free-response":"","ethnicity":"Not Hispanic or Latino","race":["White"],"education":"Some college","siblings":"2"},"trial_type":"survey-demo","trial_index":1,"time_elapsed":79814,"internal_node_id":"0.0-1.0","task_version":"prescreen-v0.3"},{"responses":{"Q12":"1","Q21":"3","Q14":"1","Q09":"2","Q08":"2","Q06":"1","Q11":"2","Q10":"1","Q13":"2","Q04":"2","Q19":"1","Q07":"1","Q05":"2","Q18":"1","Q17":"1","Q01":"2","Q16":"1","Q03":"2","Q15":"2","Q02":"1","Q20":"1"},"rt":189103,"item_order":[11,20,13,8,7,5,10,9,12,3,18,6,4,17,16,0,15,2,14,1,19],"radio_events":[14329,21610,30052,37480,42981,54841,59201,65787,82190,88021,101329,115413,122787,129655,136575,139660,146478,152678,158582,166238,183054,186080],"key_events":[],"mouse_events":[14329,21610,30052,37480,42981,54841,59201,65787,82190,88021,101329,115413,122787,129655,134191,135983,136575,137795,138364,139660,146478,152678,158582,166238,183054,186080,189103],"straightlining":0.5238095238095238,"zigzagging":0.6,"honeypot":0,"survey":"sns","trial_type":"survey-template","trial_index":2,"time_elapsed":268928,"internal_node_id":"0.0-2.0","task_version":"prescreen-v0.3","browser_interactions":0,"infrequency":0},{"responses":{"Q01":"2","Q13":"0","Q02":"1","Q09":"1","Q06":"3","Q07":"1","Q10":"1","Q11":"1","Q08":"1","Q12":"1","Q05":"2","Q03":"1","Q04":"3"},"rt":134173,"item_order":[0,12,1,8,5,6,9,10,7,11,4,2,3],"radio_events":[13668,18022,39609,50030,57324,66949,71357,76718,85008,92185,101021,117082,131644],"key_events":[],"mouse_events":[13668,18022,39609,50030,57324,66949,71357,76718,85008,92185,101021,117082,131644,134173],"straightlining":0.6153846153846154,"zigzagging":0.25,"honeypot":0,"survey":"bisbas","trial_type":"survey-template","trial_index":3,"time_elapsed":403182,"internal_node_id":"0.0-3.0","task_version":"prescreen-v0.3","browser_interactions":0,"infrequency":0},{"responses":{"Q01":"2","Q02":"1","Q03":"2"},"rt":41103,"radio_events":[18356,28266,38799],"key_events":[],"mouse_events":[18356,28266,38799,41103],"survey":"map","page":1,"trial_type":"survey-map","trial_index":4,"time_elapsed":444289,"internal_node_id":"0.0-4.0","task_version":"prescreen-v0.3","browser_interactions":0},{"responses":{"Q04":"3","Q05":"3","Q06":"3"},"rt":28155,"radio_events":[10214,19332,25682],"key_events":[],"mouse_events":[10214,19332,25682,28155],"survey":"map","page":2,"trial_type":"survey-map","trial_index":5,"time_elapsed":472448,"internal_node_id":"0.0-5.0","task_version":"prescreen-v0.3","browser_interactions":0},{"responses":{"Q07":"2","Q08":"0","Q09":"2"},"rt":28716,"radio_events":[9481,16368,27542],"key_events":[],"mouse_events":[9481,16368,27542,28716],"survey":"map","page":3,"trial_type":"survey-map","trial_index":6,"time_elapsed":501169,"internal_node_id":"0.0-6.0","task_version":"prescreen-v0.3","browser_interactions":0},{"responses":{"Q10":"1","Q11":"1","Q12":"1","Q13":"1","Q16":"0","Q14":"2","Q15":"2"},"rt":63273,"radio_events":[5663,10811,19566,30250,37080,55485,60607],"key_events":[],"mouse_events":[5663,10811,19566,30250,37080,55485,60607,63273],"survey":"map","page":4,"trial_type":"survey-map","trial_index":7,"time_elapsed":564448,"internal_node_id":"0.0-7.0","task_version":"prescreen-v0.3","browser_interactions":0,"infrequency":0},{"view_history":[{"page_index":0,"viewing_time":2519},{"page_index":1,"viewing_time":6825}],"rt":9344,"trial_type":"instructions","trial_index":8,"time_elapsed":573794,"internal_node_id":"0.0-8.0","task_version":"prescreen-v0.3"},{"responses":{"01":"No","02":"Yes","02_ages_6":"6","02_ages_7":"7","02_ages_8":"8","02_ages_9":"9","02_ages_10":"10","02_ages_11":"11","02_ages_12":"12","02_ages_13":"13","02_ages_14":"14","02_ages_15":"15","02_ages_16":"16","02_ages_17":"17","02_ages_18":"18","03":"No","04":"No","05":"No","06":"No"},"rt":89237,"item_order":[0,1,2,3,4,5],"radio_events":[20794,35147,75361,77929,81295,85284],"checkbox_events":[45655,46127,46768,47545,48338,49058,49914,51194,51802,52687,54846,55503,56753],"key_events":[],"mouse_events":[0,20794,34605,35147,45655,46127,46768,47545,48338,49058,49914,50515,51194,51802,52687,54846,55503,56753,75361,77929,81295,85284,89237],"honeypot":0,"survey":"mace","page":1,"trial_type":"survey-mace","trial_index":9,"time_elapsed":663042,"internal_node_id":"0.0-9.0","task_version":"prescreen-v0.3","browser_interactions":0},{"responses":{"01":"No","02":"No","03":"No","04":"No","05":"No","06":"No","07":"No","08":"No"},"rt":23313,"item_order":[0,1,2,3,4,5,6,7],"radio_events":[4058,6168,8070,11779,14831,16695,18731,22540],"checkbox_events":[],"key_events":[],"mouse_events":[4058,6168,8070,11779,14831,16695,18731,21931,22540,23313],"honeypot":0,"survey":"mace","page":2,"trial_type":"survey-mace","trial_index":10,"time_elapsed":686367,"internal_node_id":"0.0-10.0","task_version":"prescreen-v0.3","browser_interactions":0},{"responses":{"01":"No","02":"No","03":"No","04":"No"},"rt":16608,"item_order":[0,1,2,3],"radio_events":[4112,6749,13636,15893],"checkbox_events":[],"key_events":[],"mouse_events":[4112,6749,13636,15277,15893,16608],"honeypot":0,"survey":"mace","page":3,"trial_type":"survey-mace","trial_index":11,"time_elapsed":702981,"internal_node_id":"0.0-11.0","task_version":"prescreen-v0.3","browser_interactions":0},{"responses":{"01":"No","02":"No"},"rt":12203,"item_order":[0,1],"radio_events":[9377,11274],"checkbox_events":[],"key_events":[],"mouse_events":[9377,11274,12203],"honeypot":0,"survey":"mace","page":4,"trial_type":"survey-mace","trial_index":12,"time_elapsed":715189,"internal_node_id":"0.0-12.0","task_version":"prescreen-v0.3","browser_interactions":0},{"responses":{"01":"Yes","01_ages_5":"5","01_ages_6":"6","01_ages_7":"7","01_ages_8":"8","01_ages_9":"9","01_ages_10":"10","01_ages_11":"11","01_ages_12":"12","01_ages_13":"13","01_ages_14":"14","01_ages_15":"15","01_ages_16":"16","01_ages_17":"17","01_ages_18":"18","02":"Yes","02_ages_5":"5","02_ages_6":"6","02_ages_7":"7","02_ages_8":"8","02_ages_9":"9","02_ages_10":"10","02_ages_11":"11","02_ages_12":"12","02_ages_13":"13","02_ages_14":"14","02_ages_15":"15","02_ages_16":"16","02_ages_17":"17","02_ages_18":"18","03":"No","04":"No","05":"No"},"rt":97448,"item_order":[0,1,2,3,4],"radio_events":[13363,39949,79821,91597,95889],"checkbox_events":[22603,23050,23531,25062,25543,26207,26703,27263,27766,28821,29420,30819,31339,31939,42728,43127,43778,44379,45005,46221,46756,47533,48132,49189,49800,50320,50945,51425],"key_events":[],"mouse_events":[13363,22603,23050,23531,24111,24631,25062,25543,26207,26703,27263,27766,28436,28821,29420,30130,30819,31339,31939,39949,42065,42728,43127,43778,44379,45005,45484,46221,46756,47533,48132,48788,49189,49800,50320,50945,51425,79821,91597,95889,97448],"honeypot":0,"survey":"mace","page":5,"trial_type":"survey-mace","trial_index":13,"time_elapsed":812647,"internal_node_id":"0.0-13.0","task_version":"prescreen-v0.3","browser_interactions":0},{"responses":{"01":"No","02":"No","03":"No","04":"No","05":"No"},"rt":37230,"item_order":[0,1,2,3,4],"radio_events":[10460,19857,24390,30419,36197],"checkbox_events":[],"key_events":[],"mouse_events":[10460,19857,24390,30419,36197,37229],"honeypot":0,"survey":"mace","page":6,"trial_type":"survey-mace","trial_index":14,"time_elapsed":849883,"internal_node_id":"0.0-14.0","task_version":"prescreen-v0.3","browser_interactions":0},{"responses":{"01":"No","02":"No","03":"No","04":"No","05":"No","06":"No","07":"No"},"rt":38747,"item_order":[0,1,2,3,4,5,6],"radio_events":[2902,13084,28074,30263,32510,35643,38143],"checkbox_events":[],"key_events":[],"mouse_events":[2902,13084,28074,30263,32510,35643,38143,38747],"honeypot":0,"survey":"mace","page":7,"trial_type":"survey-mace","trial_index":15,"time_elapsed":888640,"internal_node_id":"0.0-15.0","task_version":"prescreen-v0.3","browser_interactions":0},{"responses":{"01":"No","02":"No","03":"No","04":"No"},"rt":56256,"item_order":[0,1,2,3],"radio_events":[16689,19707,44724,54242],"checkbox_events":[],"key_events":[],"mouse_events":[16689,19707,44724,54242,55026,56255],"honeypot":0,"survey":"mace","page":8,"trial_type":"survey-mace","trial_index":16,"time_elapsed":944903,"internal_node_id":"0.0-16.0","task_version":"prescreen-v0.3","browser_interactions":0},{"responses":{"01":"Yes","01_ages_1":"1","01_ages_2":"2","01_ages_3":"3","01_ages_4":"4","01_ages_5":"5","01_ages_6":"6","01_ages_7":"7","01_ages_8":"8","01_ages_9":"9","01_ages_10":"10","01_ages_11":"11","01_ages_12":"12","01_ages_13":"13","01_ages_14":"14","01_ages_15":"15","01_ages_16":"16","01_ages_17":"17","01_ages_18":"18","02":"Yes","02_ages_1":"1","02_ages_2":"2","02_ages_3":"3","02_ages_4":"4","02_ages_5":"5","02_ages_6":"6","02_ages_7":"7","02_ages_8":"8","02_ages_9":"9","02_ages_10":"10","02_ages_11":"11","02_ages_12":"12","02_ages_13":"13","02_ages_14":"14","02_ages_15":"15","02_ages_16":"16","02_ages_17":"17","02_ages_18":"18","03":"Yes","03_ages_1":"1","03_ages_2":"2","03_ages_3":"3","03_ages_4":"4","03_ages_5":"5","03_ages_6":"6","03_ages_7":"7","03_ages_8":"8","03_ages_9":"9","03_ages_10":"10","03_ages_11":"11","03_ages_12":"12","03_ages_13":"13","03_ages_14":"14","03_ages_15":"15","03_ages_16":"16","03_ages_17":"17","03_ages_18":"18","04":"Yes","04_ages_1":"1","04_ages_2":"2","04_ages_3":"3","04_ages_4":"4","04_ages_5":"5","04_ages_6":"6","04_ages_7":"7","04_ages_8":"8","04_ages_9":"9","04_ages_10":"10","04_ages_11":"11","04_ages_12":"12","04_ages_13":"13","04_ages_14":"14","04_ages_15":"15","04_ages_16":"16","04_ages_17":"17","04_ages_18":"18"},"rt":77481,"item_order":[0,1,2,3],"radio_events":[6988,26185,42849,63431],"checkbox_events":[9993,10399,10790,11384,11838,12379,13444,13883,14444,15036,15684,16203,16840,17433,18057,18793,19417,19888,28091,28737,29193,29718,30935,31341,31958,32565,33638,34126,34722,35347,35986,36562,37202,37730,38363,38890,45616,46145,46614,47151,47591,48147,48603,49643,50074,50740,51964,52483,53136,53719,54369,54863,55488,57990,65031,65560,66247,66876,67467,68131,68787,69403,69909,70516,70988,71641,72143,72792,73480,74113,75289,75865],"key_events":[],"mouse_events":[6387,6988,9993,10399,10790,11384,11838,12379,12883,13444,13883,14444,15036,15684,16203,16840,17433,18057,18793,19417,19888,26185,28091,28737,29193,29718,30165,30935,31341,31958,32565,33222,33638,34126,34722,35347,35986,36562,37202,37730,38363,38890,42849,45616,46145,46614,47151,47591,48147,48603,49242,49643,50074,50740,51315,51964,52483,53136,53719,54369,54863,55488,55952,57990,62839,63431,65031,65560,66247,66876,67467,68131,68787,69403,69909,70516,70988,71641,72143,72792,73480,74113,74657,75289,75865,77481],"honeypot":0,"survey":"mace","page":9,"trial_type":"survey-mace","trial_index":17,"time_elapsed":1022398,"internal_node_id":"0.0-17.0","task_version":"prescreen-v0.3","browser_interactions":0},{"responses":{"01":"No","02":"No","03":"Yes","03_ages_10":"10","03_ages_11":"11","03_ages_12":"12","03_ages_13":"13","03_ages_14":"14","03_ages_15":"15","03_ages_16":"16","03_ages_17":"17","03_ages_18":"18","04":"Yes","04_ages_5":"5","04_ages_6":"6","04_ages_7":"7","04_ages_8":"8","04_ages_9":"9","04_ages_10":"10","04_ages_11":"11","04_ages_12":"12","04_ages_13":"13","04_ages_14":"14","04_ages_15":"15","04_ages_16":"16","04_ages_17":"17","04_ages_18":"18","05":"No","06":"Yes","06_ages_17":"17","07":"Yes","07_ages_1":"1","07_ages_2":"2","07_ages_3":"3","07_ages_4":"4","07_ages_5":"5","07_ages_6":"6","07_ages_7":"7","07_ages_8":"8","07_ages_9":"9","07_ages_10":"10","07_ages_11":"11","07_ages_12":"12","07_ages_13":"13","07_ages_14":"14","07_ages_15":"15","07_ages_16":"16","07_ages_17":"17","07_ages_18":"18","08":"No"},"rt":128643,"item_order":[0,1,2,3,4,5,6,7],"radio_events":[7624,10554,28118,47049,73774,77459,88252,125866],"checkbox_events":[39033,39536,40196,40813,41284,42453,42924,43493,44021,50577,51134,52183,54342,54758,55322,55786,56347,56820,58314,58842,59487,60655,61296,79435,91273,92840,93328,93901,94444,95045,95556,96214,96772,97365,97876,99808,100279,101065,101792,102421,102988,103884],"key_events":[],"mouse_events":[7017,7624,10554,28118,39033,39536,40196,40813,41284,41870,42453,42924,43493,44021,46384,47049,50577,51134,51613,52183,54342,54758,55322,55786,56347,56820,57363,58314,58842,59487,60047,60655,61296,73774,77459,79435,88252,91273,91825,92266,92840,93328,93901,94444,95045,95556,96214,96772,97365,97876,98457,99146,99808,100279,101065,101792,102421,102988,103884,125866,128643],"honeypot":0,"survey":"mace","page":10,"trial_type":"survey-mace","trial_index":18,"time_elapsed":1151054,"internal_node_id":"0.0-18.0","task_version":"prescreen-v0.3","browser_interactions":0,"instructed":0},{"rt":13870,"trial_type":"mental-health-alert","trial_index":19,"time_elapsed":1164927,"internal_node_id":"0.0-19.0","task_version":"prescreen-v0.3","interactions":"[{\"event\":\"focus\",\"trial\":0,\"time\":1}]"}]