[{"view_history":[{"page_index":0,"viewing_time":3962},{"page_index":1,"viewing_time":3221},{"page_index":2,"viewing_time":3537},{"page_index":3,"viewing_time":1364}],"rt":12086,"trial_type":"instructions","trial_index":0,"time_elapsed":12090,"internal_node_id":"0.0-0.0","task_version":"prescreen-v0.3"},{"rt":21357,"responses":{"age":"24","gender-categorical":"Female","gender-free-response":"","ethnicity":"Hispanic or Latino","race":["American Indian/Alaska Native","White"],"education":"Some college"},"trial_type":"survey-demo","trial_index":1,"time_elapsed":33454,"internal_node_id":"0.0-1.0","task_version":"prescreen-v0.3"},{"responses":{"Q20":"2","Q06":"0","Q18":"2","Q21":"2","Q13":"3","Q03":"3","Q15":"3","Q16":"2","Q19":"2","Q17":"3","Q09":"3","Q14":"2","Q05":"1","Q12":"1","Q02":"1","Q01":"2","Q10":"3","Q07":"2","Q08":"2","Q11":"2","Q04":"3"},"rt":152611,"item_order":[19,5,17,20,12,2,14,15,18,16,8,13,4,11,1,0,9,6,7,10,3],"radio_events":[10472,17352,25006,29328,34027,38309,52949,90272,93978.00000000001,95781.00000000001,97265,101092,105405,108797,114456,121266,127114,128397,135721,141561,144777,148009,151241],"key_events":[],"mouse_events":[8611,10472,15341,16182,17352,25006,29328,32311,33185.000000000015,34027,37362,38309,51954,52949,53750,89141,90272,93008,93978.00000000001,95781.00000000001,97265,99543,101092,104612,105405,107081,108019,108797,109791,114456,118731,119758.00000000003,121266,122363,125854,127114,128397,129287,135721,137414,141561,143817,144777,146870,148009,151241,152596],"straightlining":0.47619047619047616,"zigzagging":0.45,"honeypot":0,"survey":"sns","trial_type":"survey-template","trial_index":2,"time_elapsed":186069,"internal_node_id":"0.0-2.0","task_version":"prescreen-v0.3","browser_interactions":0,"infrequency":0.5},{"responses":{"Q07":"3","Q04":"2","Q11":"1","Q06":"2","Q08":"1","Q12":"1","Q03":"3","Q13":"0","Q01":"3","Q05":"2","Q09":"1","Q02":"3","Q10":"2"},"rt":73355.00000000003,"item_order":[6,3,10,5,7,11,2,12,0,4,8,1,9],"radio_events":[5403,11178,20526,24896.00000000003,28297,33011,36908.00000000003,42170.00000000003,44158.00000000003,45049,53913,57295.00000000003,60432.00000000003,61273,63576,66784,69173],"key_events":[],"mouse_events":[5403,9269,11178,19763,20526,24896.00000000003,27591,28297,32050,33011,35674,36283.00000000003,36908.00000000003,42170.00000000003,44158.00000000003,45049,45636,52830,53913,56575.00000000003,57295.00000000003,59742,60432.00000000003,61273,62974.00000000003,63576,66126,66784,69173,72173,73344],"straightlining":0.3076923076923077,"zigzagging":0.75,"honeypot":0,"survey":"bisbas","trial_type":"survey-template","trial_index":3,"time_elapsed":259428,"internal_node_id":"0.0-3.0","task_version":"prescreen-v0.3","browser_interactions":0,"infrequency":0},{"responses":{"Q01":"2","Q02":"2","Q03":"1"},"rt":21058,"radio_events":[7279,12380,15283,19931.00000000006],"key_events":[],"mouse_events":[6533,7279,11706,12380,14513,15283,19931.00000000006,21053],"survey":"map","page":1,"trial_type":"survey-map","trial_index":4,"time_elapsed":280492,"internal_node_id":"0.0-4.0","task_version":"prescreen-v0.3","browser_interactions":0},{"responses":{"Q04":"2","Q05":"2","Q06":"2"},"rt":11162,"radio_events":[4355,7459,10370],"key_events":[],"mouse_events":[4355,6737,7459,9760,10370,11156],"survey":"map","page":2,"trial_type":"survey-map","trial_index":5,"time_elapsed":291658,"internal_node_id":"0.0-5.0","task_version":"prescreen-v0.3","browser_interactions":0},{"responses":{"Q07":"3","Q08":"3","Q09":"2"},"rt":15078.999999999942,"radio_events":[5819.999999999942,7126.999999999942,10775.999999999942,14000],"key_events":[],"mouse_events":[5194.999999999942,5819.999999999942,6549.999999999942,7126.999999999942,10206.999999999942,10775.999999999942,14000,15073.999999999942],"survey":"map","page":3,"trial_type":"survey-map","trial_index":6,"time_elapsed":306741,"internal_node_id":"0.0-6.0","task_version":"prescreen-v0.3","browser_interactions":0},{"responses":{"Q10":"0","Q11":"0","Q12":"2","Q13":"2","Q16":"0","Q14":"1","Q15":"1"},"rt":39456,"radio_events":[6226,8231,11447,13162,18488,23015,24066.00000000006,27546,35053,38197],"key_events":[],"mouse_events":[6226,7196,7701,8231,11447,12569,13162,14598,15127,17967,18488,22278,23015,24066.00000000006,26672,27546,28629,35053,38197,39448],"survey":"map","page":4,"trial_type":"survey-map","trial_index":7,"time_elapsed":346201,"internal_node_id":"0.0-7.0","task_version":"prescreen-v0.3","browser_interactions":0,"infrequency":0},{"view_history":[{"page_index":0,"viewing_time":3565},{"page_index":1,"viewing_time":285279}],"rt":288845.0000000001,"trial_type":"instructions","trial_index":8,"time_elapsed":635050,"internal_node_id":"0.0-8.0","task_version":"prescreen-v0.3"},{"responses":{"01":"Yes","01_ages_9":"9","01_ages_10":"10","01_ages_11":"11","01_ages_12":"12","01_ages_13":"13","01_ages_14":"14","01_ages_15":"15","01_ages_16":"16","01_ages_17":"17","01_ages_18":"18","02":"Yes","02_ages_10":"10","02_ages_11":"11","02_ages_12":"12","02_ages_13":"13","02_ages_14":"14","02_ages_15":"15","02_ages_16":"16","02_ages_17":"17","02_ages_18":"18","03":"Yes","03_ages_11":"11","03_ages_12":"12","03_ages_13":"13","03_ages_14":"14","03_ages_15":"15","03_ages_16":"16","03_ages_17":"17","03_ages_18":"18","04":"Yes","04_ages_13":"13","04_ages_14":"14","04_ages_15":"15","04_ages_16":"16","04_ages_17":"17","04_ages_18":"18","05":"No","06":"Yes","06_ages_13":"13","06_ages_14":"14","06_ages_15":"15","06_ages_16":"16","06_ages_17":"17","06_ages_18":"18"},"rt":83095,"item_order":[0,1,2,3,4,5],"radio_events":[6895.000000000116,25501,36847.00000000012,54510,63947,67450],"checkbox_events":[13441,14162,16047,16641,17226,17795,18396,19495,20224,20881,28219,29727,30336,30890.000000000116,31426,31972.000000000116,32525,33167,33720,38564,39975,40921,44109,44775,45344,45937,46579,55904,56746.00000000012,57316,57902,58703,60082,69335,70410,71003,72863,74002,74916],"key_events":[],"mouse_events":[0,4881,6895.000000000116,13441,14162,14780,16047,16641,17226,17795,18396,19495,20224,20881,24338,25501,27601,28219,29053,29727,30336,30890.000000000116,31426,31972.000000000116,32525,33167,33720,36118,36847.00000000012,38564,39975,40921,44109,44775,45344,45937,46579,47116.00000000012,52681,53939,54510,55904,56746.00000000012,57316,57902,58703,59321,60082,61285,63947,66208,67450,69335,70410,71003,71669.00000000012,72406,72863,73465,74002,74916,75525,83078],"honeypot":0,"survey":"mace","page":1,"trial_type":"survey-mace","trial_index":9,"time_elapsed":718156,"internal_node_id":"0.0-9.0","task_version":"prescreen-v0.3","browser_interactions":0},{"responses":{"01":"Yes","01_ages_14":"14","01_ages_15":"15","01_ages_16":"16","01_ages_17":"17","02":"Yes","02_ages_17":"17","03":"Yes","03_ages_13":"13","03_ages_14":"14","03_ages_15":"15","03_ages_16":"16","03_ages_17":"17","03_ages_18":"18","04":"No","05":"No","06":"No","07":"No","08":"No"},"rt":80308,"item_order":[0,1,2,3,4,5,6,7],"radio_events":[7108,30421,41828,52996,65348,67889.00000000012,70199,73912],"checkbox_events":[11438,14572.000000000116,15567.000000000116,18930,19539,20149,36037,47752,48417,49419,50151,50823,56436],"key_events":[],"mouse_events":[2646,6081,7108,11438,14572.000000000116,15567.000000000116,18930,19539,20149,20765,29787,30421,36037,36733,41828,47135,47752,48417,49419,50151,50823,52996,56436,58081,65348,67889.00000000012,70199,73912,74569,80294],"honeypot":0,"survey":"mace","page":2,"trial_type":"survey-mace","trial_index":10,"time_elapsed":798470,"internal_node_id":"0.0-10.0","task_version":"prescreen-v0.3","browser_interactions":0},{"responses":{"01":"No","02":"No","03":"No","04":"No"},"rt":17430,"item_order":[0,1,2,3],"radio_events":[9675,13076,15112,16596],"checkbox_events":[],"key_events":[],"mouse_events":[9675,13076,15112,16596,17422],"honeypot":0,"survey":"mace","page":3,"trial_type":"survey-mace","trial_index":11,"time_elapsed":815905,"internal_node_id":"0.0-11.0","task_version":"prescreen-v0.3","browser_interactions":0},{"responses":{"01":"No","02":"No"},"rt":13680,"item_order":[0,1],"radio_events":[5337,11879],"checkbox_events":[],"key_events":[],"mouse_events":[5337,11879,13674],"honeypot":0,"survey":"mace","page":4,"trial_type":"survey-mace","trial_index":12,"time_elapsed":829589,"internal_node_id":"0.0-12.0","task_version":"prescreen-v0.3","browser_interactions":0},{"responses":{"01":"Yes","01_ages_7":"7","01_ages_8":"8","01_ages_9":"9","01_ages_10":"10","01_ages_11":"11","01_ages_12":"12","01_ages_13":"13","02":"Yes","02_ages_7":"7","02_ages_8":"8","02_ages_9":"9","02_ages_10":"10","02_ages_11":"11","02_ages_12":"12","02_ages_13":"13","03":"No","04":"Yes","04_ages_16":"16","04_ages_17":"17","05":"No"},"rt":65560,"item_order":[0,1,2,3,4],"radio_events":[7044,27395.000000000116,41714,44794.00000000012,46735,54850,62655.00000000012],"checkbox_events":[14519,15410.000000000116,16259,16869,17702,18537,19196,29263,30073.000000000116,30675,31284,32037,32623,33321,56664,57705],"key_events":[],"mouse_events":[6140,7044,14519,15410.000000000116,16259,16869,17702,18537,19196,27395.000000000116,28646,29263,30073.000000000116,30675,31284,32037,32623,33321,34604,41714,44794.00000000012,46735,47488,54850,56664,57705,58236,62655.00000000012,65548],"honeypot":0,"survey":"mace","page":5,"trial_type":"survey-mace","trial_index":13,"time_elapsed":895155,"internal_node_id":"0.0-13.0","task_version":"prescreen-v0.3","browser_interactions":0},{"responses":{"01":"Yes","01_ages_11":"11","01_ages_12":"12","01_ages_13":"13","01_ages_15":"15","01_ages_16":"16","01_ages_17":"17","01_ages_18":"18","02":"Yes","02_ages_7":"7","02_ages_8":"8","02_ages_9":"9","02_ages_10":"10","02_ages_11":"11","02_ages_12":"12","02_ages_13":"13","02_ages_14":"14","02_ages_15":"15","02_ages_16":"16","02_ages_17":"17","02_ages_18":"18","03":"Yes","03_ages_9":"9","03_ages_10":"10","03_ages_11":"11","03_ages_13":"13","03_ages_16":"16","03_ages_17":"17","03_ages_18":"18","04":"Yes","04_ages_8":"8","04_ages_9":"9","04_ages_10":"10","04_ages_17":"17","04_ages_18":"18","05":"No"},"rt":69659.99999999988,"item_order":[0,1,2,3,4],"radio_events":[9731.999999999884,29299.999999999884,42691.99999999988,57313.99999999988,68308],"checkbox_events":[20108.999999999884,21135.999999999884,21672.999999999884,23751.999999999884,24616,25241,25834.999999999884,31488.999999999884,32082,32587,33606,34142.99999999988,34671.99999999988,35842.99999999988,36909,37550.99999999988,38193.99999999988,38793.99999999988,39924.99999999988,44632.99999999988,45169.99999999988,46228.99999999988,47390.99999999988,48946.99999999988,50269.99999999988,51361,59630.99999999988,60232.99999999988,61026.99999999988,64266.99999999988,64827.99999999988],"key_events":[],"mouse_events":[8929.999999999884,9731.999999999884,20108.999999999884,20685.999999999884,21135.999999999884,21672.999999999884,23751.999999999884,24616,25241,25834.999999999884,29299.999999999884,31488.999999999884,32082,32587,33077,33606,34142.99999999988,34671.99999999988,35233.99999999988,35842.99999999988,36909,37550.99999999988,38193.99999999988,38793.99999999988,39924.99999999988,42691.99999999988,44632.99999999988,45169.99999999988,46228.99999999988,47390.99999999988,48401.99999999988,48946.99999999988,50269.99999999988,50839.99999999988,51361,51938.99999999988,53245.99999999988,57313.99999999988,59630.99999999988,60232.99999999988,61026.99999999988,61844.99999999988,64266.99999999988,64827.99999999988,65510,68308,69647.99999999988],"honeypot":0,"survey":"mace","page":6,"trial_type":"survey-mace","trial_index":14,"time_elapsed":964822,"internal_node_id":"0.0-14.0","task_version":"prescreen-v0.3","browser_interactions":0},{"responses":{"01":"No","02":"No","03":"Yes","03_ages_17":"17","03_ages_18":"18","04":"No","05":"No","06":"No","07":"No"},"rt":56734,"item_order":[0,1,2,3,4,5,6],"radio_events":[2722.0000000001164,3805,10333,15217.000000000116,18280,53043,55986.00000000012],"checkbox_events":[11456,11977],"key_events":[],"mouse_events":[2722.0000000001164,3805,10333,11456,11977,12522,15217.000000000116,18280,53043,55986.00000000012,56724],"honeypot":0,"survey":"mace","page":7,"trial_type":"survey-mace","trial_index":15,"time_elapsed":1021564,"internal_node_id":"0.0-15.0","task_version":"prescreen-v0.3","browser_interactions":0},{"responses":{"01":"Yes","01_ages_12":"12","01_ages_13":"13","01_ages_14":"14","01_ages_15":"15","01_ages_16":"16","01_ages_17":"17","01_ages_18":"18","02":"Yes","02_ages_9":"9","02_ages_10":"10","02_ages_11":"11","02_ages_12":"12","02_ages_13":"13","02_ages_14":"14","02_ages_15":"15","02_ages_16":"16","02_ages_17":"17","02_ages_18":"18","03":"No","04":"No"},"rt":55304.00000000023,"item_order":[0,1,2,3],"radio_events":[13536.000000000116,37364,39522,40805],"checkbox_events":[19730.000000000116,20275.000000000116,21856,22400.000000000116,22930.000000000116,24951.000000000116,26603,27549,28127,28823,30172,30878,31847,32497,33371,34269,43626,44606,45134,45825,46891.00000000023,47588,48503,49602.00000000023,52794],"key_events":[],"mouse_events":[13536.000000000116,19730.000000000116,20275.000000000116,21125,21856,22400.000000000116,22930.000000000116,24951.000000000116,26032,26603,27549,28127,28823,29418,30172,30878,31847,32497,33371,34269,37364,39522,40805,43626,44172,44606,45134,45825,46434,46891.00000000023,47588,48503,49112.00000000023,49602.00000000023,52794,55295],"honeypot":0,"survey":"mace","page":8,"trial_type":"survey-mace","trial_index":16,"time_elapsed":1076874,"internal_node_id":"0.0-16.0","task_version":"prescreen-v0.3","browser_interactions":0},{"responses":{"01":"Yes","01_ages_12":"12","01_ages_15":"15","01_ages_16":"16","02":"Yes","02_ages_12":"12","02_ages_13":"13","02_ages_15":"15","03":"No","04":"Yes","04_ages_16":"16","04_ages_17":"17","04_ages_18":"18"},"rt":35909,"item_order":[0,1,2,3],"radio_events":[7631,19340.000000000233,27183,31971],"checkbox_events":[13221,15611,16189,21673,22195,23622,33790,34705,35289],"key_events":[],"mouse_events":[7631,13221,15611,16189,18747,19340.000000000233,20542.000000000233,21673,22195,23622,27183,27811,31971,33790,34705,35289,35900],"honeypot":0,"survey":"mace","page":9,"trial_type":"survey-mace","trial_index":17,"time_elapsed":1112789,"internal_node_id":"0.0-17.0","task_version":"prescreen-v0.3","browser_interactions":0},{"responses":{"01":"No","02":"No","02_ages_15":"15","02_ages_16":"16","02_ages_17":"17","02_ages_18":"18","03":"Yes","03_ages_17":"17","03_ages_18":"18","04":"Yes","04_ages_17":"17","04_ages_18":"18","05":"No","06":"Yes","06_ages_17":"17","07":"No","08":"No"},"rt":71133.99999999977,"item_order":[0,1,2,3,4,5,6,7],"radio_events":[2412.999999999767,4665.999999999767,15699.999999999767,20613.999999999767,30654,39418.99999999977,41503.99999999977,63912.99999999977,66487.99999999977],"checkbox_events":[7183,8114.999999999767,9012.999999999767,9581.999999999767,10142.999999999767,10743.999999999767,23427.999999999767,26411.999999999767,32513.999999999767,33702,43492.99999999977],"key_events":[],"mouse_events":[2412.999999999767,4665.999999999767,7183,8114.999999999767,9012.999999999767,9581.999999999767,10142.999999999767,10743.999999999767,11732.999999999767,15699.999999999767,20613.999999999767,23427.999999999767,24052.999999999767,24606.999999999767,25151.999999999767,26411.999999999767,27003.999999999767,29915.999999999767,30654,32513.999999999767,33702,35031.99999999977,39418.99999999977,41503.99999999977,43492.99999999977,44063.99999999977,63912.99999999977,66487.99999999977,71123.99999999977],"honeypot":0,"survey":"mace","page":10,"trial_type":"survey-mace","trial_index":18,"time_elapsed":1183931,"internal_node_id":"0.0-18.0","task_version":"prescreen-v0.3","browser_interactions":0,"instructed":0},{"rt":17262.000000000233,"trial_type":"mental-health-alert","trial_index":19,"time_elapsed":1201198,"internal_node_id":"0.0-19.0","task_version":"prescreen-v0.3","interactions":"[{\"event\":\"blur\",\"trial\":8,\"time\":354095},{\"event\":\"focus\",\"trial\":8,\"time\":357552},{\"event\":\"focus\",\"trial\":8,\"time\":357553},{\"event\":\"blur\",\"trial\":8,\"time\":358887},{\"event\":\"focus\",\"trial\":8,\"time\":360888},{\"event\":\"focus\",\"trial\":8,\"time\":360888},{\"event\":\"blur\",\"trial\":8,\"time\":491976},{\"event\":\"focus\",\"trial\":8,\"time\":494927},{\"event\":\"blur\",\"trial\":8,\"time\":627476},{\"event\":\"focus\",\"trial\":8,\"time\":629816},{\"event\":\"blur\",\"trial\":19,\"time\":1194873},{\"event\":\"focus\",\"trial\":19,\"time\":1198811},{\"event\":\"focus\",\"trial\":19,\"time\":1199116}]"}]