[{"view_history":[{"page_index":0,"viewing_time":4127},{"page_index":1,"viewing_time":7031},{"page_index":2,"viewing_time":3631},{"page_index":3,"viewing_time":1129}],"rt":15920,"trial_type":"instructions","trial_index":0,"time_elapsed":15926,"internal_node_id":"0.0-0.0","task_version":"prescreen-v0.3"},{"rt":16705,"responses":{"age":"34","gender-categorical":"Female","gender-free-response":"","ethnicity":"Not Hispanic or Latino","race":["White"],"education":"Master degree or higher"},"trial_type":"survey-demo","trial_index":1,"time_elapsed":32671,"internal_node_id":"0.0-1.0","task_version":"prescreen-v0.3"},{"responses":{"Q13":"2","Q18":"2","Q02":"2","Q17":"1","Q06":"0","Q19":"1","Q05":"0","Q09":"2","Q21":"3","Q04":"1","Q14":"2","Q16":"1","Q20":"1","Q15":"2","Q07":"0","Q12":"1","Q01":"2","Q11":"2","Q08":"2","Q03":"1","Q10":"2"},"rt":90333,"item_order":[12,17,1,16,5,18,4,8,20,3,13,15,19,14,6,11,0,10,7,2,9],"radio_events":[10389,13566,18018,22863,27573,33549,37663,46059,50010,54781,58257,62859,66062,69234,74948,78149,80426,81831,83798,85693,88509],"key_events":[],"mouse_events":[10389,13566,18018,22863,26877,27573,33549,36986,37663,46059,50010,54781,58257,62859,66062,69234,74948,78149,80426,81831,83798,85693,88509,90333],"straightlining":0.47619047619047616,"zigzagging":0.6,"honeypot":0,"survey":"sns","trial_type":"survey-template","trial_index":2,"time_elapsed":123032,"internal_node_id":"0.0-2.0","task_version":"prescreen-v0.3","browser_interactions":0,"infrequency":0},{"responses":{"Q07":"1","Q13":"0","Q05":"2","Q06":"1","Q12":"1","Q02":"3","Q03":"3","Q11":"2","Q08":"2","Q10":"2","Q04":"2","Q01":"3","Q09":"1"},"rt":53448,"item_order":[6,12,4,5,11,1,2,10,7,9,3,0,8],"radio_events":[4023,10587,14084,17935,22441,25432,27800,33931,38825,42944,45528,47664,52140],"key_events":[],"mouse_events":[4023,10587,14084,17935,22441,25432,27800,33931,38825,42944,45528,47664,52140,53448],"straightlining":0.38461538461538464,"zigzagging":0.3333333333333333,"honeypot":0,"survey":"bisbas","trial_type":"survey-template","trial_index":3,"time_elapsed":176497,"internal_node_id":"0.0-3.0","task_version":"prescreen-v0.3","browser_interactions":0,"infrequency":0},{"responses":{"Q01":"3","Q02":"2","Q03":"3"},"rt":24544,"radio_events":[6512,14875,18635,23616],"key_events":[],"mouse_events":[6512,14875,18635,23616,24544],"survey":"map","page":1,"trial_type":"survey-map","trial_index":4,"time_elapsed":201051,"internal_node_id":"0.0-4.0","task_version":"prescreen-v0.3","browser_interactions":0},{"responses":{"Q04":"2","Q05":"2","Q06":"3"},"rt":12940,"radio_events":[8698,9766,12056],"key_events":[],"mouse_events":[8698,9766,12056,12940],"survey":"map","page":2,"trial_type":"survey-map","trial_index":5,"time_elapsed":214003,"internal_node_id":"0.0-5.0","task_version":"prescreen-v0.3","browser_interactions":0},{"responses":{"Q07":"1","Q08":"4","Q09":"2"},"rt":15139,"radio_events":[6584,11237,14104],"key_events":[],"mouse_events":[6584,11237,14104,15138],"survey":"map","page":3,"trial_type":"survey-map","trial_index":6,"time_elapsed":229145,"internal_node_id":"0.0-6.0","task_version":"prescreen-v0.3","browser_interactions":0},{"responses":{"Q10":"1","Q11":"1","Q12":"2","Q13":"2","Q16":"0","Q14":"2","Q15":"2"},"rt":25357,"radio_events":[4934,7263,9315,14035,17596,21473,24280],"key_events":[],"mouse_events":[4934,7263,9315,14035,17596,21473,24280,25357],"survey":"map","page":4,"trial_type":"survey-map","trial_index":7,"time_elapsed":254511,"internal_node_id":"0.0-7.0","task_version":"prescreen-v0.3","browser_interactions":0,"infrequency":0},{"view_history":[{"page_index":0,"viewing_time":2817},{"page_index":1,"viewing_time":5786}],"rt":8603,"trial_type":"instructions","trial_index":8,"time_elapsed":263120,"internal_node_id":"0.0-8.0","task_version":"prescreen-v0.3"},{"responses":{"01":"Yes","01_ages_5":"5","01_ages_6":"6","01_ages_7":"7","01_ages_8":"8","01_ages_9":"9","01_ages_10":"10","01_ages_11":"11","01_ages_12":"12","01_ages_13":"13","01_ages_14":"14","01_ages_15":"15","01_ages_16":"16","01_ages_17":"17","01_ages_18":"18","02":"Yes","02_ages_5":"5","02_ages_6":"6","02_ages_7":"7","02_ages_8":"8","02_ages_9":"9","02_ages_10":"10","02_ages_11":"11","02_ages_12":"12","02_ages_13":"13","02_ages_14":"14","02_ages_15":"15","02_ages_16":"16","02_ages_17":"17","02_ages_18":"18","03":"Yes","03_ages_5":"5","03_ages_6":"6","03_ages_7":"7","03_ages_8":"8","03_ages_9":"9","03_ages_10":"10","03_ages_11":"11","03_ages_12":"12","03_ages_13":"13","03_ages_14":"14","03_ages_15":"15","04":"No","05":"No","06":"Yes","06_ages_14":"14","06_ages_15":"15"},"rt":72321,"item_order":[0,1,2,3,4,5],"radio_events":[9833,27811,43640,59731,62183,64184],"checkbox_events":[15812,16591,17220,18066,18801,19442,20098,20643,21495,22226,22687,23119,23566,24152,29451,32324,33004,33572,35109,36125,37704,38461,39030,39558,40983,41592,42091,42572,49030,49821,50617,51445,52379,53093,53760,54311,55295,56043,56882,69551,70366],"key_events":[],"mouse_events":[0,9833,15812,16591,17220,18066,18801,19442,20098,20643,21495,22226,22687,23119,23566,24152,27811,29451,30111,31003,31740,32324,33004,33572,34482,35109,36125,37704,38461,39030,39558,40151,40983,41592,42091,42572,43640,49030,49821,50617,51445,52379,53093,53760,54311,55295,56043,56882,59731,62183,64184,69551,70366,72320],"honeypot":0,"survey":"mace","page":1,"trial_type":"survey-mace","trial_index":9,"time_elapsed":335491,"internal_node_id":"0.0-9.0","task_version":"prescreen-v0.3","browser_interactions":0},{"responses":{"01":"Yes","01_ages_14":"14","01_ages_15":"15","02":"No","03":"Yes","03_ages_5":"5","03_ages_6":"6","03_ages_7":"7","03_ages_8":"8","03_ages_9":"9","03_ages_10":"10","04":"No","05":"No","06":"No","07":"No","08":"No"},"rt":29457,"item_order":[0,1,2,3,4,5,6,7],"radio_events":[3064,10353,12199,21224,22854,24592,27659,28949],"checkbox_events":[5799,6414,15102,15855,16526,17193,17886,18411],"key_events":[],"mouse_events":[3064,5799,6414,10353,12199,15102,15855,16526,17193,17886,18411,21224,22854,24592,27659,28949,29457],"honeypot":0,"survey":"mace","page":2,"trial_type":"survey-mace","trial_index":10,"time_elapsed":364984,"internal_node_id":"0.0-10.0","task_version":"prescreen-v0.3","browser_interactions":0},{"responses":{"01":"No","02":"No","03":"No","04":"No"},"rt":12394,"item_order":[0,1,2,3],"radio_events":[4720,7448,9697,11260],"checkbox_events":[],"key_events":[],"mouse_events":[4720,7448,9697,11260,11883,12394],"honeypot":0,"survey":"mace","page":3,"trial_type":"survey-mace","trial_index":11,"time_elapsed":377391,"internal_node_id":"0.0-11.0","task_version":"prescreen-v0.3","browser_interactions":0},{"responses":{"01":"No","02":"No"},"rt":8058,"item_order":[0,1],"radio_events":[2315,6931],"checkbox_events":[],"key_events":[],"mouse_events":[2315,6931,7387,8058],"honeypot":0,"survey":"mace","page":4,"trial_type":"survey-mace","trial_index":12,"time_elapsed":385463,"internal_node_id":"0.0-12.0","task_version":"prescreen-v0.3","browser_interactions":0},{"responses":{"01":"No","02":"No","03":"No","04":"No","05":"No"},"rt":22883,"item_order":[0,1,2,3,4],"radio_events":[11333,14549,18665,20942,22034],"checkbox_events":[],"key_events":[],"mouse_events":[11333,14549,18665,20942,22034,22883],"honeypot":0,"survey":"mace","page":5,"trial_type":"survey-mace","trial_index":13,"time_elapsed":408362,"internal_node_id":"0.0-13.0","task_version":"prescreen-v0.3","browser_interactions":0},{"responses":{"01":"Yes","01_ages_10":"10","01_ages_11":"11","01_ages_12":"12","01_ages_13":"13","01_ages_14":"14","01_ages_15":"15","01_ages_16":"16","02":"Yes","02_ages_10":"10","02_ages_11":"11","02_ages_12":"12","02_ages_13":"13","02_ages_14":"14","02_ages_15":"15","02_ages_16":"16","03":"Yes","03_ages_15":"15","03_ages_16":"16","03_ages_17":"17","04":"Yes","04_ages_13":"13","04_ages_14":"14","04_ages_15":"15","04_ages_16":"16","04_ages_17":"17","04_ages_18":"18","05":"Yes","05_ages_14":"14","05_ages_15":"15"},"rt":45951,"item_order":[0,1,2,3,4],"radio_events":[8689,17939,26071,32373,42510],"checkbox_events":[10807,11519,12079,12649,14020,14494,15109,18970,19811,20293,20871,21346,22508,23292,27267,28053,28844,34915,35699,37040,37628,38170,39021,43626,44180],"key_events":[],"mouse_events":[8689,10807,11519,12079,12649,13349,14020,14494,15109,17939,18970,19811,20293,20871,21346,21817,22508,23292,26071,27267,28053,28844,32373,33648,34439,34915,35699,36368,37040,37628,38170,39021,42510,43626,44180,45951],"honeypot":0,"survey":"mace","page":6,"trial_type":"survey-mace","trial_index":14,"time_elapsed":454341,"internal_node_id":"0.0-14.0","task_version":"prescreen-v0.3","browser_interactions":0},{"responses":{"01":"No","02":"No","03":"No","04":"No","05":"No","06":"No","07":"No"},"rt":19316,"item_order":[0,1,2,3,4,5,6],"radio_events":[6832,9712,11592,13015,14448,17767,18814],"checkbox_events":[],"key_events":[],"mouse_events":[6832,9712,11592,13015,14448,17767,18814,19316],"honeypot":0,"survey":"mace","page":7,"trial_type":"survey-mace","trial_index":15,"time_elapsed":473686,"internal_node_id":"0.0-15.0","task_version":"prescreen-v0.3","browser_interactions":0},{"responses":{"01":"Yes","01_ages_6":"6","01_ages_7":"7","01_ages_8":"8","01_ages_9":"9","01_ages_10":"10","01_ages_11":"11","01_ages_12":"12","01_ages_13":"13","01_ages_14":"14","01_ages_15":"15","01_ages_16":"16","01_ages_17":"17","01_ages_18":"18","02":"No","03":"Yes","03_ages_5":"5","03_ages_6":"6","03_ages_7":"7","03_ages_8":"8","03_ages_9":"9","03_ages_10":"10","03_ages_11":"11","03_ages_12":"12","03_ages_13":"13","03_ages_14":"14","03_ages_15":"15","03_ages_16":"16","03_ages_17":"17","03_ages_18":"18","04":"Yes","04_ages_14":"14","04_ages_15":"15","04_ages_16":"16","04_ages_17":"17","04_ages_18":"18"},"rt":54247,"item_order":[0,1,2,3],"radio_events":[10164,29558,32856,46137],"checkbox_events":[15445,16708,17864,19097,20018,20756,21475,22199,22700,23448,23963,24690,25239,34946,35671,36157,36664,37357,39674,40474,41207,41775,42290,42745,43284,43751,44445,50171,51001,51681,52434,53277],"key_events":[],"mouse_events":[10164,15445,16708,17864,19097,20018,20756,21475,22199,22700,23448,23963,24690,25239,29558,32856,34946,35671,36157,36664,37357,39674,40474,41207,41775,42290,42745,43284,43751,44445,46137,50171,51001,51681,52434,53277,54247],"honeypot":0,"survey":"mace","page":8,"trial_type":"survey-mace","trial_index":16,"time_elapsed":527956,"internal_node_id":"0.0-16.0","task_version":"prescreen-v0.3","browser_interactions":0},{"responses":{"01":"Yes","01_ages_1":"1","01_ages_2":"2","01_ages_3":"3","01_ages_4":"4","01_ages_5":"5","01_ages_6":"6","01_ages_7":"7","01_ages_8":"8","01_ages_9":"9","01_ages_10":"10","01_ages_11":"11","01_ages_12":"12","01_ages_13":"13","01_ages_14":"14","01_ages_15":"15","01_ages_16":"16","01_ages_17":"17","01_ages_18":"18","02":"Yes","02_ages_1":"1","02_ages_2":"2","02_ages_3":"3","02_ages_4":"4","02_ages_5":"5","02_ages_6":"6","02_ages_7":"7","02_ages_8":"8","02_ages_9":"9","02_ages_10":"10","02_ages_11":"11","02_ages_12":"12","02_ages_13":"13","02_ages_14":"14","02_ages_15":"15","02_ages_16":"16","02_ages_17":"17","02_ages_18":"18","03":"Yes","03_ages_1":"1","03_ages_2":"2","03_ages_3":"3","03_ages_4":"4","03_ages_5":"5","03_ages_6":"6","03_ages_7":"7","03_ages_8":"8","03_ages_9":"9","03_ages_10":"10","03_ages_11":"11","03_ages_12":"12","03_ages_13":"13","03_ages_14":"14","03_ages_15":"15","03_ages_16":"16","03_ages_17":"17","03_ages_18":"18","04":"Yes","04_ages_1":"1","04_ages_2":"2","04_ages_3":"3","04_ages_4":"4","04_ages_5":"5","04_ages_6":"6","04_ages_7":"7","04_ages_8":"8","04_ages_9":"9","04_ages_10":"10","04_ages_11":"11","04_ages_12":"12","04_ages_13":"13","04_ages_14":"14","04_ages_15":"15","04_ages_16":"16","04_ages_17":"17","04_ages_18":"18"},"rt":78372,"item_order":[0,1,2,3],"radio_events":[4837,24782,27142,28681],"checkbox_events":[6873,7890,8458,9260,9845,10383,11007,11650,13465,14241,14887,15796,16540,17393,18138,18841,20125,20854,30124,30708,32506,33433,34018,34599,35177,35786,36301,37454,38716,39316,40225,42379,44065,44756,45553,46105,46688,47134,47580,48142,49027,50282,50945,53403,54061,55290,55917,56755,57289,57772,58726,59822,60429,61122,61760,62816,63542,64208,65053,67185,68124,68662,69333,70256,71293,72056,72897,73895,74998,75898,76476,77314],"key_events":[],"mouse_events":[4837,6873,7890,8458,9260,9845,10383,11007,11650,12325,12973,13465,14241,14887,15796,16540,17393,18138,18841,19507,20125,20854,24782,27142,28681,30124,30708,31437,32506,33433,34018,34599,35177,35786,36301,36855,37454,38716,39316,40225,41217,41686,42379,44065,44756,45553,46105,46688,47134,47580,48142,49027,49708,50282,50945,53403,54061,55290,55917,56755,57289,57772,58726,59822,60429,61122,61760,62339,62816,63542,64208,65053,65573,66475,67185,68124,68662,69333,70256,70787,71293,72056,72897,73895,74998,75898,76476,77314,78371],"honeypot":0,"survey":"mace","page":9,"trial_type":"survey-mace","trial_index":17,"time_elapsed":606352,"internal_node_id":"0.0-17.0","task_version":"prescreen-v0.3","browser_interactions":0},{"responses":{"01":"No","02":"No","03":"Yes","03_ages_10":"10","03_ages_11":"11","03_ages_12":"12","03_ages_13":"13","03_ages_14":"14","03_ages_15":"15","03_ages_16":"16","04":"Yes","04_ages_10":"10","04_ages_11":"11","04_ages_12":"12","04_ages_13":"13","04_ages_14":"14","04_ages_15":"15","04_ages_16":"16","04_ages_17":"17","04_ages_18":"18","05":"Yes","05_ages_10":"10","05_ages_11":"11","05_ages_12":"12","05_ages_13":"13","05_ages_14":"14","05_ages_15":"15","06":"Yes","06_ages_17":"17","07":"Yes","07_ages_1":"1","07_ages_2":"2","07_ages_3":"3","07_ages_4":"4","07_ages_5":"5","07_ages_6":"6","07_ages_7":"7","07_ages_8":"8","07_ages_9":"9","07_ages_10":"10","07_ages_11":"11","07_ages_12":"12","07_ages_13":"13","07_ages_14":"14","07_ages_15":"15","07_ages_16":"16","07_ages_17":"17","07_ages_18":"18","08":"No"},"rt":74751,"item_order":[0,1,2,3,4,5,6,7],"radio_events":[4705,6406,8560,23115,34518,46954,52946,69045],"checkbox_events":[13781,14756,15504,17026,17637,18755,20504,24870,25768,26565,27888,28774,29583,30404,31115,31966,37895,38489,38976,39869,40347,41729,48707,58236,58738,59285,60009,60564,61094,61820,62468,63177,63890,65816,67123,68142,70213,71089,71873,72691,73304],"key_events":[],"mouse_events":[4705,6406,8560,13781,14756,15504,16280,17026,17637,18755,20504,23115,24870,25768,26565,27888,28774,29583,30404,31115,31966,34518,37895,38489,38976,39869,40347,40862,41729,46954,48707,52946,58236,58738,59285,60009,60564,61094,61820,62468,63177,63890,64720,65816,66392,67123,68142,69045,69753,70213,71089,71873,72691,73304,74750],"honeypot":0,"survey":"mace","page":10,"trial_type":"survey-mace","trial_index":18,"time_elapsed":681150,"internal_node_id":"0.0-18.0","task_version":"prescreen-v0.3","browser_interactions":0,"instructed":0},{"rt":4376,"trial_type":"mental-health-alert","trial_index":19,"time_elapsed":685531,"internal_node_id":"0.0-19.0","task_version":"prescreen-v0.3","interactions":"[{\"event\":\"focus\",\"trial\":0,\"time\":3}]"}]