[{"view_history":[{"page_index":0,"viewing_time":3131.89999999851},{"page_index":1,"viewing_time":4584},{"page_index":2,"viewing_time":5000.10000000149},{"page_index":3,"viewing_time":13184.39999999851}],"rt":25901,"trial_type":"instructions","trial_index":0,"time_elapsed":25914,"internal_node_id":"0.0-0.0","task_version":"prescreen-v0.3"},{"rt":12516.79999999702,"responses":{"age":"21","gender-categorical":"Female","gender-free-response":"","ethnicity":"Not Hispanic or Latino","race":["White"],"education":"Some college"},"trial_type":"survey-demo","trial_index":1,"time_elapsed":38433,"internal_node_id":"0.0-1.0","task_version":"prescreen-v0.3"},{"responses":{"Q12":"2","Q16":"1","Q18":"1","Q04":"0","Q03":"0","Q14":"1","Q17":"0","Q01":"1","Q08":"0","Q05":"0","Q06":"0","Q10":"0","Q19":"0","Q13":"0","Q07":"0","Q20":"0","Q15":"2","Q09":"0","Q11":"0","Q02":"0","Q21":"3"},"rt":113790.39999999851,"item_order":[11,15,17,3,2,13,16,0,7,4,5,9,18,12,6,19,14,8,10,1,20],"radio_events":[4365.10000000149,10517,17173,22332.89999999851,24860.89999999851,28853,32260.89999999851,38045,41060.89999999851,50684.79999999702,57077.29999999702,60868.89999999851,71869,73933.20000000298,78732.60000000149,81444.89999999851,92581,96541,98028.89999999851,101964.89999999851,110501],"key_events":[],"mouse_events":[4365.10000000149,10517,17173,22332.89999999851,24860.89999999851,28853,32260.89999999851,38045,40133.20000000298,41060.89999999851,50684.79999999702,54941.79999999702,57077.29999999702,60868.89999999851,71869,73933.20000000298,78732.60000000149,81444.89999999851,90525.10000000149,92581,96541,98028.89999999851,101165.10000000149,101964.89999999851,109093.20000000298,110501,113789.10000000149],"straightlining":0.6666666666666666,"zigzagging":0.35,"honeypot":0,"survey":"sns","trial_type":"survey-template","trial_index":2,"time_elapsed":152227,"internal_node_id":"0.0-2.0","task_version":"prescreen-v0.3","browser_interactions":0,"infrequency":0},{"responses":{"Q07":"3","Q08":"3","Q02":"1","Q03":"2","Q05":"3","Q09":"3","Q12":"1","Q13":"0","Q01":"2","Q04":"2","Q10":"3","Q11":"3","Q06":"3"},"rt":63277,"item_order":[6,7,1,2,4,8,11,12,0,3,9,10,5],"radio_events":[4348.10000000149,8084.39999999851,15404.10000000149,19036,27972.20000000298,28972.10000000149,32651.89999999851,42268.20000000298,45156,50516.10000000149,54643.79999999702,57388.79999999702,60324,62748],"key_events":[],"mouse_events":[4348.10000000149,7108,8084.39999999851,15404.10000000149,19036,24772.10000000149,27972.20000000298,28972.10000000149,32651.89999999851,41644.10000000149,42268.20000000298,45156,49636.20000000298,50516.10000000149,54643.79999999702,57388.79999999702,60324,62748,63276.20000000298],"straightlining":0.5384615384615384,"zigzagging":0.3333333333333333,"honeypot":0,"survey":"bisbas","trial_type":"survey-template","trial_index":3,"time_elapsed":215506,"internal_node_id":"0.0-3.0","task_version":"prescreen-v0.3","browser_interactions":0,"infrequency":0},{"responses":{"Q01":"4","Q02":"4","Q03":"4"},"rt":14413.39999999851,"radio_events":[5308.89999999851,9589,13652.69999999553],"key_events":[],"mouse_events":[5308.89999999851,9589,13652.69999999553,14412.89999999851],"survey":"map","page":1,"trial_type":"survey-map","trial_index":4,"time_elapsed":229921,"internal_node_id":"0.0-4.0","task_version":"prescreen-v0.3","browser_interactions":0},{"responses":{"Q04":"3","Q05":"3","Q06":"3"},"rt":16878.29999999702,"radio_events":[4573.69999999553,7733.79999999702,13501.59999999404,16325.79999999702],"key_events":[],"mouse_events":[4573.69999999553,7733.79999999702,12469.59999999404,13501.59999999404,16325.79999999702,16878],"survey":"map","page":2,"trial_type":"survey-map","trial_index":5,"time_elapsed":246801,"internal_node_id":"0.0-5.0","task_version":"prescreen-v0.3","browser_interactions":0},{"responses":{"Q07":"4","Q08":"2","Q09":"4"},"rt":11614.60000000149,"radio_events":[4590,8014,10894.30000000447],"key_events":[],"mouse_events":[4590,8014,10894.30000000447,11614.20000000298],"survey":"map","page":3,"trial_type":"survey-map","trial_index":6,"time_elapsed":258417,"internal_node_id":"0.0-6.0","task_version":"prescreen-v0.3","browser_interactions":0},{"responses":{"Q10":"3","Q11":"2","Q12":"4","Q13":"4","Q16":"0","Q14":"2","Q15":"2"},"rt":47415,"radio_events":[7398.19999999553,13222.39999999851,18854.5,25806.29999999702,30230.39999999851,36950.39999999851,46782.29999999702],"key_events":[],"mouse_events":[7398.19999999553,12206.29999999702,12734.29999999702,13222.39999999851,18854.5,25806.29999999702,30230.39999999851,36950.39999999851,45582.59999999404,46782.29999999702,47414.39999999851],"survey":"map","page":4,"trial_type":"survey-map","trial_index":7,"time_elapsed":305833,"internal_node_id":"0.0-7.0","task_version":"prescreen-v0.3","browser_interactions":0,"infrequency":0},{"view_history":[{"page_index":0,"viewing_time":3606},{"page_index":1,"viewing_time":17400.10000000149}],"rt":21006.60000000149,"trial_type":"instructions","trial_index":8,"time_elapsed":326841,"internal_node_id":"0.0-8.0","task_version":"prescreen-v0.3"},{"responses":{"01":"Yes","01_ages_17":"17","01_ages_18":"18","02":"No","03":"No","04":"No","05":"No","06":"No"},"rt":38430.19999999553,"item_order":[0,1,2,3,4,5],"radio_events":[11252.79999999702,25347.89999999851,30100.19999999553,31596,34396.19999999553,37716],"checkbox_events":[16764.19999999553,19908.09999999404],"key_events":[],"mouse_events":[0,11252.79999999702,16764.19999999553,19908.09999999404,23564,25347.89999999851,30100.19999999553,31596,34396.19999999553,37716,38428.29999999702],"honeypot":0,"survey":"mace","page":1,"trial_type":"survey-mace","trial_index":9,"time_elapsed":365276,"internal_node_id":"0.0-9.0","task_version":"prescreen-v0.3","browser_interactions":0},{"responses":{"01":"No","02":"No","03":"No","04":"No","05":"No","06":"No","07":"No","08":"No"},"rt":16181.89999999851,"item_order":[0,1,2,3,4,5,6,7],"radio_events":[3355.2000000029802,4955.39999999851,6467.20000000298,10003.29999999702,10692.10000000149,12747.10000000149,14355.10000000149,15651.29999999702],"checkbox_events":[],"key_events":[],"mouse_events":[3355.2000000029802,4955.39999999851,6467.20000000298,8307.29999999702,10003.29999999702,10692.10000000149,12747.10000000149,14355.10000000149,15651.29999999702,16179.39999999851],"honeypot":0,"survey":"mace","page":2,"trial_type":"survey-mace","trial_index":10,"time_elapsed":381460,"internal_node_id":"0.0-10.0","task_version":"prescreen-v0.3","browser_interactions":0},{"responses":{"01":"No","02":"No","03":"No","04":"No"},"rt":9292.29999999702,"item_order":[0,1,2,3],"radio_events":[2587.1999999955297,5227.29999999702,6859,8003.19999999553],"checkbox_events":[],"key_events":[],"mouse_events":[2587.1999999955297,4595.29999999702,5227.29999999702,6859,8003.19999999553,9291.10000000149],"honeypot":0,"survey":"mace","page":3,"trial_type":"survey-mace","trial_index":11,"time_elapsed":390755,"internal_node_id":"0.0-11.0","task_version":"prescreen-v0.3","browser_interactions":0},{"responses":{"01":"No","02":"No"},"rt":4510.10000000149,"item_order":[0,1],"radio_events":[2093.2000000029802,3229.39999999851],"checkbox_events":[],"key_events":[],"mouse_events":[2093.2000000029802,3229.39999999851,4509.29999999702],"honeypot":0,"survey":"mace","page":4,"trial_type":"survey-mace","trial_index":12,"time_elapsed":395266,"internal_node_id":"0.0-12.0","task_version":"prescreen-v0.3","browser_interactions":0},{"responses":{"01":"No","02":"No","03":"No","04":"No","05":"No"},"rt":14719.39999999851,"item_order":[0,1,2,3,4],"radio_events":[4925.60000000149,7173.79999999702,9013.69999999553,11653.79999999702,13789.60000000149],"checkbox_events":[],"key_events":[],"mouse_events":[4925.60000000149,7173.79999999702,9013.69999999553,11653.79999999702,13789.60000000149,14717.69999999553],"honeypot":0,"survey":"mace","page":5,"trial_type":"survey-mace","trial_index":13,"time_elapsed":409987,"internal_node_id":"0.0-13.0","task_version":"prescreen-v0.3","browser_interactions":0},{"responses":{"01":"No","02":"Yes","02_ages_11":"11","02_ages_12":"12","03":"Yes","03_ages_14":"14","03_ages_15":"15","04":"No","05":"No"},"rt":34749.70000000298,"item_order":[0,1,2,3,4],"radio_events":[10099.89999999851,14732.29999999702,25660.10000000149,31620.29999999702,33804.29999999702],"checkbox_events":[16884.10000000149,17620.29999999702,19660.29999999702,20340.60000000149,26868.10000000149,27972.29999999702],"key_events":[],"mouse_events":[10099.89999999851,14732.29999999702,16884.10000000149,17620.29999999702,19660.29999999702,20340.60000000149,23964.39999999851,24244.29999999702,25660.10000000149,26868.10000000149,27972.29999999702,28468.29999999702,31620.29999999702,33804.29999999702,34748.20000000298],"honeypot":0,"survey":"mace","page":6,"trial_type":"survey-mace","trial_index":14,"time_elapsed":444739,"internal_node_id":"0.0-14.0","task_version":"prescreen-v0.3","browser_interactions":0},{"responses":{"01":"No","02":"No","03":"No","04":"No","05":"No","06":"No","07":"No"},"rt":16094.70000000298,"item_order":[0,1,2,3,4,5,6],"radio_events":[2852.39999999851,3668.39999999851,7764.30000000447,10724.39999999851,13124.30000000447,13964.39999999851,15116.20000000298],"checkbox_events":[],"key_events":[],"mouse_events":[2852.39999999851,3668.39999999851,7764.30000000447,9341.5,10724.39999999851,11884.39999999851,13124.30000000447,13964.39999999851,15116.20000000298,16092.5],"honeypot":0,"survey":"mace","page":7,"trial_type":"survey-mace","trial_index":15,"time_elapsed":460836,"internal_node_id":"0.0-15.0","task_version":"prescreen-v0.3","browser_interactions":0},{"responses":{"01":"No","02":"Yes","02_ages_4":"4","02_ages_5":"5","02_ages_6":"6","02_ages_7":"7","02_ages_8":"8","02_ages_9":"9","02_ages_10":"10","03":"Yes","03_ages_16":"16","03_ages_17":"17","03_ages_18":"18","04":"No"},"rt":36069.20000000298,"item_order":[0,1,2,3],"radio_events":[7003.79999999702,12148.39999999851,25587.60000000149,35396],"checkbox_events":[15212,15659.70000000298,17283.79999999702,18475.60000000149,19963.89999999851,20595.70000000298,21316,30403.89999999851,31051.70000000298,31971.79999999702],"key_events":[],"mouse_events":[7003.79999999702,11491.5,12148.39999999851,15212,15659.70000000298,16355.79999999702,17283.79999999702,18475.60000000149,19963.89999999851,20595.70000000298,21316,25587.60000000149,29659.79999999702,30403.89999999851,31051.70000000298,31971.79999999702,35396,36067.89999999851],"honeypot":0,"survey":"mace","page":8,"trial_type":"survey-mace","trial_index":16,"time_elapsed":496907,"internal_node_id":"0.0-16.0","task_version":"prescreen-v0.3","browser_interactions":0},{"responses":{"01":"Yes","01_ages_1":"1","01_ages_2":"2","01_ages_3":"3","01_ages_4":"4","01_ages_5":"5","01_ages_6":"6","01_ages_7":"7","01_ages_8":"8","01_ages_9":"9","01_ages_10":"10","01_ages_11":"11","01_ages_12":"12","01_ages_13":"13","01_ages_14":"14","01_ages_15":"15","01_ages_16":"16","01_ages_17":"17","01_ages_18":"18","02":"Yes","02_ages_1":"1","02_ages_2":"2","02_ages_3":"3","02_ages_4":"4","02_ages_5":"5","02_ages_6":"6","02_ages_7":"7","02_ages_8":"8","02_ages_9":"9","02_ages_10":"10","02_ages_11":"11","02_ages_12":"12","02_ages_13":"13","02_ages_14":"14","02_ages_15":"15","02_ages_16":"16","02_ages_17":"17","02_ages_18":"18","03":"Yes","03_ages_1":"1","03_ages_2":"2","03_ages_3":"3","03_ages_4":"4","03_ages_5":"5","03_ages_6":"6","03_ages_7":"7","03_ages_8":"8","03_ages_9":"9","03_ages_10":"10","03_ages_11":"11","03_ages_12":"12","03_ages_13":"13","03_ages_14":"14","03_ages_15":"15","03_ages_16":"16","03_ages_17":"17","03_ages_18":"18","04":"Yes","04_ages_1":"1","04_ages_2":"2","04_ages_3":"3","04_ages_4":"4","04_ages_5":"5","04_ages_6":"6","04_ages_7":"7","04_ages_8":"8","04_ages_9":"9","04_ages_10":"10","04_ages_11":"11","04_ages_12":"12","04_ages_13":"13","04_ages_14":"14","04_ages_15":"15","04_ages_16":"16","04_ages_17":"17","04_ages_18":"18"},"rt":65093.79999999702,"item_order":[0,1,2,3],"radio_events":[3020.5,18108.5,33404.69999999553,51004.69999999553],"checkbox_events":[4852.69999999553,5292.5999999940395,6220.69999999553,6564.5999999940395,7396.5999999940395,7805.19999999553,8996.69999999553,9380.59999999404,9797.39999999851,10204.59999999404,10652.29999999702,11380.59999999404,11948.69999999553,12492.59999999404,13157.29999999702,13908.39999999851,14692.5,15492.59999999404,19340.59999999404,19740.5,20132.69999999553,20492.5,20852.59999999404,21204.5,22412.5,22804.39999999851,23844.59999999404,25244.39999999851,25764.5,26372.69999999553,27348.5,28204.59999999404,28932.79999999702,29508.39999999851,30084.69999999553,30556.69999999553,34932.39999999851,35852.59999999404,36388.69999999553,36812.69999999553,37292.39999999851,38164.59999999404,39708.59999999404,40492.5,41292.69999999553,41956.59999999404,43549.39999999851,44404.69999999553,45212.79999999702,45972.5,46636.5,47149.69999999553,47932.59999999404,48476.5,52260.59999999404,52669,53108.19999999553,53484.5,54404.69999999553,55197.5,55988.5,56548.59999999404,57204.5,57972.5,58733.5,59452.5,60212.79999999702,60764.69999999553,61461.19999999553,61941.09999999404,62988.59999999404,63732.69999999553],"key_events":[],"mouse_events":[2516.5999999940395,3020.5,4852.69999999553,5292.5999999940395,5788.79999999702,6220.69999999553,6564.5999999940395,7396.5999999940395,7805.19999999553,8308.59999999404,8620.5,8996.69999999553,9380.59999999404,9797.39999999851,10204.59999999404,10652.29999999702,11380.59999999404,11948.69999999553,12492.59999999404,13157.29999999702,13908.39999999851,14692.5,15492.59999999404,18108.5,19340.59999999404,19740.5,20132.69999999553,20492.5,20852.59999999404,21204.5,21852.29999999702,22412.5,22804.39999999851,23844.59999999404,24492.79999999702,25244.39999999851,25764.5,26372.69999999553,27044.5,27348.5,28204.59999999404,28932.79999999702,29508.39999999851,30084.69999999553,30556.69999999553,32996.59999999404,33404.69999999553,34932.39999999851,35852.59999999404,36388.69999999553,36812.69999999553,37292.39999999851,38164.59999999404,38725.09999999404,39708.59999999404,40492.5,41292.69999999553,41956.59999999404,42924.5,43549.39999999851,44404.69999999553,45212.79999999702,45972.5,46636.5,47149.69999999553,47932.59999999404,48476.5,51004.69999999553,52260.59999999404,52669,53108.19999999553,53484.5,53900.59999999404,54404.69999999553,54877.09999999404,55197.5,55988.5,56548.59999999404,57204.5,57972.5,58733.5,59452.5,60212.79999999702,60764.69999999553,61461.19999999553,61941.09999999404,62988.59999999404,63732.69999999553,65092.59999999404],"honeypot":0,"survey":"mace","page":9,"trial_type":"survey-mace","trial_index":17,"time_elapsed":562002,"internal_node_id":"0.0-17.0","task_version":"prescreen-v0.3","browser_interactions":0},{"responses":{"01":"No","02":"No","03":"Yes","03_ages_15":"15","03_ages_16":"16","03_ages_17":"17","03_ages_18":"18","04":"Yes","04_ages_16":"16","04_ages_17":"17","04_ages_18":"18","05":"No","06":"Yes","06_ages_17":"17","07":"Yes","07_ages_1":"1","07_ages_2":"2","07_ages_3":"3","07_ages_4":"4","07_ages_5":"5","07_ages_6":"6","07_ages_7":"7","07_ages_8":"8","07_ages_9":"9","07_ages_10":"10","07_ages_11":"11","07_ages_12":"12","07_ages_13":"13","07_ages_14":"14","07_ages_15":"15","07_ages_16":"16","07_ages_17":"17","07_ages_18":"18","08":"Yes","08_ages_1":"1","08_ages_2":"2","08_ages_3":"3","08_ages_4":"4","08_ages_5":"5","08_ages_6":"6","08_ages_7":"7","08_ages_8":"8","08_ages_9":"9","08_ages_10":"10","08_ages_11":"11","08_ages_12":"12","08_ages_13":"13","08_ages_14":"14","08_ages_15":"15","08_ages_16":"16","08_ages_17":"17","08_ages_18":"18"},"rt":57574.89999999851,"item_order":[0,1,2,3,4,5,6,7],"radio_events":[4701.39999999851,5516.89999999851,7772.79999999702,9836.89999999851,14876.79999999702,21117.29999999702,24076.79999999702,27964.79999999702,43828.5],"checkbox_events":[11412.69999999553,11949.29999999702,12389,13092.79999999702,17372.60000000149,18396.79999999702,18796.89999999851,25324.39999999851,30084.89999999851,30548.79999999702,31220.69999999553,32324.69999999553,32781.10000000149,33356.69999999553,33861.19999999553,34380.5,34844.60000000149,35589.5,37140.79999999702,37572.60000000149,38156.60000000149,38989.5,39660.5,40413,41332.69999999553,42276.79999999702,45452.79999999702,45885.5,46284.89999999851,46700.69999999553,48284.69999999553,48836.5,49292.79999999702,49733.19999999553,50772.69999999553,51629.10000000149,52332.79999999702,52949.5,53428.69999999553,54036.69999999553,54525,55108.89999999851,55596.60000000149,56109.69999999553],"key_events":[],"mouse_events":[3076.6999999955297,4076.6999999955297,4701.39999999851,5516.89999999851,7772.79999999702,9396.60000000149,9836.89999999851,11412.69999999553,11949.29999999702,12389,13092.79999999702,14876.79999999702,16582,17372.60000000149,17972.89999999851,18396.79999999702,18796.89999999851,21117.29999999702,24076.79999999702,25324.39999999851,27964.79999999702,30084.89999999851,30548.79999999702,31220.69999999553,31741.60000000149,32324.69999999553,32781.10000000149,33356.69999999553,33861.19999999553,34380.5,34844.60000000149,35589.5,36133.5,36501.69999999553,36756.69999999553,37140.79999999702,37572.60000000149,38156.60000000149,38989.5,39660.5,40413,41332.69999999553,42276.79999999702,43828.5,45452.79999999702,45885.5,46284.89999999851,46700.69999999553,47156.79999999702,47717.19999999553,48284.69999999553,48836.5,49292.79999999702,49733.19999999553,50372.39999999851,50772.69999999553,51629.10000000149,52332.79999999702,52949.5,53428.69999999553,54036.69999999553,54525,55108.89999999851,55596.60000000149,56109.69999999553,57572.89999999851],"honeypot":0,"survey":"mace","page":10,"trial_type":"survey-mace","trial_index":18,"time_elapsed":619579,"internal_node_id":"0.0-18.0","task_version":"prescreen-v0.3","browser_interactions":0,"instructed":0},{"rt":7604.39999999851,"trial_type":"mental-health-alert","trial_index":19,"time_elapsed":627185,"internal_node_id":"0.0-19.0","task_version":"prescreen-v0.3","interactions":"[]"}]