[{"view_history":[{"page_index":0,"viewing_time":3535.7000000476837},{"page_index":1,"viewing_time":7535.799999952316},{"page_index":2,"viewing_time":6944.299999952316},{"page_index":3,"viewing_time":1695.8000000715256}],"rt":19712.700000047684,"trial_type":"instructions","trial_index":0,"time_elapsed":19731,"internal_node_id":"0.0-0.0","task_version":"prescreen-v0.3"},{"rt":21089.200000047684,"responses":{"age":"25","gender-categorical":"Female","gender-free-response":"","ethnicity":"Not Hispanic or Latino","race":["White"],"education":"High school"},"trial_type":"survey-demo","trial_index":1,"time_elapsed":40827,"internal_node_id":"0.0-1.0","task_version":"prescreen-v0.3"},{"responses":{"Q10":"3","Q13":"2","Q20":"1","Q06":"2","Q02":"2","Q19":"2","Q07":"2","Q12":"3","Q21":"3","Q03":"2","Q05":"0","Q15":"3","Q08":"2","Q04":"2","Q16":"2","Q09":"2","Q18":"2","Q01":"2","Q14":"3","Q11":"1","Q17":"2"},"rt":153707.40000009537,"item_order":[9,12,19,5,1,18,6,11,20,2,4,14,7,3,15,8,17,0,13,10,16],"radio_events":[13504.600000023842,22504.400000095367,28896.400000095367,38512.60000002384,44520.5,54304.40000009537,62624.200000047684,70176.30000007153,80175.80000007153,85424.5,91816.30000007153,100376.5,105312.60000002384,108992.40000009537,114788.20000004768,118720.10000002384,123064.5,126040.60000002384,133008.10000002384,146032.10000002384,150320.40000009537],"key_events":[],"mouse_events":[13504.600000023842,22504.400000095367,28896.400000095367,38512.60000002384,44520.5,54304.40000009537,62624.200000047684,70176.30000007153,80175.80000007153,85424.5,91816.30000007153,100376.5,105312.60000002384,108992.40000009537,114788.20000004768,118720.10000002384,123064.5,126040.60000002384,133008.10000002384,146032.10000002384,150320.40000009537,153704.5],"straightlining":0.6190476190476191,"zigzagging":0.45,"honeypot":0,"survey":"sns","trial_type":"survey-template","trial_index":2,"time_elapsed":194542,"internal_node_id":"0.0-2.0","task_version":"prescreen-v0.3","browser_interactions":0,"infrequency":0},{"responses":{"Q04":"2","Q01":"2","Q07":"1","Q05":"1","Q08":"1","Q06":"1","Q03":"3","Q02":"2","Q13":"0","Q11":"1","Q09":"1","Q12":"1","Q10":"1"},"rt":114944.79999995232,"item_order":[3,0,6,4,7,5,2,1,12,10,8,11,9],"radio_events":[13111.299999952316,16606.899999976158,23766.399999976158,38950.699999928474,47543,52390.89999997616,57470.89999997616,60223,82862.79999995232,87399.10000002384,97479,101599.89999997616,110926.89999997616,113190.69999992847],"key_events":[],"mouse_events":[13111.299999952316,16606.899999976158,23766.399999976158,38950.699999928474,47543,52390.89999997616,57470.89999997616,60223,82862.79999995232,87399.10000002384,97479,101599.89999997616,110926.89999997616,113190.69999992847,114943.10000002384],"straightlining":0.6153846153846154,"zigzagging":0.25,"honeypot":0,"survey":"bisbas","trial_type":"survey-template","trial_index":3,"time_elapsed":309493,"internal_node_id":"0.0-3.0","task_version":"prescreen-v0.3","browser_interactions":0,"infrequency":0},{"responses":{"Q01":"3","Q02":"1","Q03":"2"},"rt":47058.10000002384,"radio_events":[20281.200000047684,28129.100000023842,39513.10000002384,42761.5],"key_events":[],"mouse_events":[20281.200000047684,28129.100000023842,39513.10000002384,42761.5,47057.200000047684],"survey":"map","page":1,"trial_type":"survey-map","trial_index":4,"time_elapsed":356554,"internal_node_id":"0.0-4.0","task_version":"prescreen-v0.3","browser_interactions":0},{"responses":{"Q04":"0","Q05":"0","Q06":"2"},"rt":27629.299999952316,"radio_events":[8108.600000023842,13908.399999976158,24156.399999976158,26124.299999952316],"key_events":[],"mouse_events":[8108.600000023842,13908.399999976158,24156.399999976158,26124.299999952316,27628.600000023842],"survey":"map","page":2,"trial_type":"survey-map","trial_index":5,"time_elapsed":384186,"internal_node_id":"0.0-5.0","task_version":"prescreen-v0.3","browser_interactions":0},{"responses":{"Q07":"1","Q08":"4","Q09":"2"},"rt":22733.399999976158,"radio_events":[8756.100000023842,14108.800000071526,20788.899999976158],"key_events":[],"mouse_events":[8756.100000023842,14108.800000071526,20788.899999976158,22732.700000047684],"survey":"map","page":3,"trial_type":"survey-map","trial_index":6,"time_elapsed":406922,"internal_node_id":"0.0-6.0","task_version":"prescreen-v0.3","browser_interactions":0},{"responses":{"Q10":"2","Q11":"1","Q12":"0","Q13":"1","Q16":"0","Q14":"1","Q15":"0"},"rt":47437.5,"radio_events":[11132.5,12467.899999976158,18179.799999952316,25747.799999952316,32771.799999952316,41324,45092.200000047684],"key_events":[],"mouse_events":[11132.5,12467.899999976158,18179.799999952316,25747.799999952316,32771.799999952316,41324,45092.200000047684,47436],"survey":"map","page":4,"trial_type":"survey-map","trial_index":7,"time_elapsed":454364,"internal_node_id":"0.0-7.0","task_version":"prescreen-v0.3","browser_interactions":0,"infrequency":0},{"view_history":[{"page_index":0,"viewing_time":3483.7000000476837},{"page_index":1,"viewing_time":6759.799999952316}],"rt":10244.399999976158,"trial_type":"instructions","trial_index":8,"time_elapsed":464610,"internal_node_id":"0.0-8.0","task_version":"prescreen-v0.3"},{"responses":{"01":"Yes","01_ages_7":"7","01_ages_8":"8","01_ages_9":"9","01_ages_10":"10","01_ages_11":"11","01_ages_12":"12","01_ages_13":"13","01_ages_14":"14","01_ages_15":"15","01_ages_16":"16","01_ages_17":"17","01_ages_18":"18","02":"Yes","02_ages_7":"7","02_ages_8":"8","02_ages_9":"9","02_ages_10":"10","02_ages_11":"11","02_ages_12":"12","02_ages_13":"13","02_ages_14":"14","02_ages_15":"15","02_ages_16":"16","02_ages_17":"17","02_ages_18":"18","03":"Yes","03_ages_4":"4","03_ages_5":"5","03_ages_6":"6","03_ages_7":"7","03_ages_8":"8","03_ages_9":"9","03_ages_10":"10","03_ages_11":"11","03_ages_12":"12","03_ages_13":"13","03_ages_14":"14","03_ages_15":"15","03_ages_16":"16","03_ages_17":"17","03_ages_18":"18","04":"Yes","04_ages_10":"10","04_ages_11":"11","04_ages_12":"12","04_ages_13":"13","04_ages_14":"14","04_ages_15":"15","04_ages_16":"16","04_ages_17":"17","04_ages_18":"18","05":"No","06":"Yes","06_ages_2":"2","06_ages_3":"3","06_ages_4":"4","06_ages_5":"5","06_ages_6":"6","06_ages_7":"7","06_ages_8":"8","06_ages_9":"9","06_ages_10":"10","06_ages_11":"11","06_ages_12":"12","06_ages_13":"13","06_ages_14":"14","06_ages_15":"15","06_ages_16":"16","06_ages_17":"17","06_ages_18":"18"},"rt":125573.59999990463,"item_order":[0,1,2,3,4,5],"radio_events":[12953.299999952316,47256.59999990463,65088.89999997616,85489,97928.89999997616,101824.59999990463],"checkbox_events":[21153.299999952316,22017,22353.299999952316,23112.899999976158,23513,23920.799999952316,25713,26313.299999952316,34784.59999990463,37800.89999997616,38353.799999952316,39488.699999928474,50992.799999952316,51385,51713.5,52369.09999990463,52889,53281,53769,54216.799999952316,54625.09999990463,55056.5,55672.699999928474,56144.699999928474,70601.09999990463,70944.39999997616,71864.59999990463,76056.89999997616,77113.5,77560.79999995232,77952.69999992847,78312.79999995232,78928.79999995232,79392.89999997616,79817.09999990463,80256.69999992847,80752.69999992847,81224.59999990463,82001,87376.59999990463,87816.89999997616,88201.19999992847,88656.69999992847,89409,89784.89999997616,90137.79999995232,90896.59999990463,91364.5,103833.59999990463,104465.59999990463,104936.5,105784.89999997616,106169.69999992847,107552.89999997616,108056.89999997616,108616.5,109124.19999992847,109545.5,110000.59999990463,110728.89999997616,111296.79999995232,111816.69999992847,112360.79999995232,113001.19999992847,120392.69999992847,121154.79999995232,122976.69999992847],"key_events":[],"mouse_events":[0,12953.299999952316,21153.299999952316,22017,22353.299999952316,22705,23112.899999976158,23513,23920.799999952316,24480.799999952316,25072.599999904633,25713,26313.299999952316,34784.59999990463,37800.89999997616,38353.799999952316,38736.89999997616,39488.699999928474,47256.59999990463,50992.799999952316,51385,51713.5,52369.09999990463,52889,53281,53769,54216.799999952316,54625.09999990463,55056.5,55672.699999928474,56144.699999928474,65088.89999997616,70601.09999990463,70944.39999997616,71864.59999990463,76056.89999997616,77113.5,77560.79999995232,77952.69999992847,78312.79999995232,78928.79999995232,79392.89999997616,79817.09999990463,80256.69999992847,80752.69999992847,81224.59999990463,82001,85489,87376.59999990463,87816.89999997616,88201.19999992847,88656.69999992847,89056.89999997616,89409,89784.89999997616,90137.79999995232,90521,90896.59999990463,91364.5,97928.89999997616,101824.59999990463,103833.59999990463,104465.59999990463,104936.5,105344.69999992847,105784.89999997616,106169.69999992847,107552.89999997616,108056.89999997616,108616.5,109124.19999992847,109545.5,110000.59999990463,110728.89999997616,111296.79999995232,111816.69999992847,112360.79999995232,113001.19999992847,120392.69999992847,121154.79999995232,122976.69999992847,125569.5],"honeypot":0,"survey":"mace","page":1,"trial_type":"survey-mace","trial_index":9,"time_elapsed":590192,"internal_node_id":"0.0-9.0","task_version":"prescreen-v0.3","browser_interactions":0},{"responses":{"01":"Yes","01_ages_10":"10","01_ages_11":"11","01_ages_12":"12","01_ages_13":"13","01_ages_14":"14","01_ages_15":"15","02":"Yes","02_ages_14":"14","03":"Yes","03_ages_3":"3","03_ages_4":"4","03_ages_5":"5","03_ages_6":"6","03_ages_7":"7","03_ages_8":"8","03_ages_9":"9","03_ages_10":"10","03_ages_11":"11","03_ages_12":"12","04":"Yes","04_ages_5":"5","04_ages_6":"6","04_ages_7":"7","04_ages_8":"8","04_ages_9":"9","04_ages_10":"10","04_ages_11":"11","04_ages_12":"12","05":"Yes","05_ages_5":"5","05_ages_6":"6","05_ages_7":"7","05_ages_8":"8","05_ages_9":"9","05_ages_10":"10","05_ages_11":"11","05_ages_12":"12","06":"No","07":"No","08":"No"},"rt":120329.89999997616,"item_order":[0,1,2,3,4,5,6,7],"radio_events":[3124.399999976158,31148.5,33516.89999997616,39011.700000047684,55412.5,80028.70000004768,103908.20000004768,113588.39999997616,118268.20000004768],"checkbox_events":[16764.700000047684,17284.5,18004.299999952316,18732.799999952316,19108.299999952316,20141,20516.5,21124.100000023842,22620.600000023842,23540.600000023842,36196.5,40108.60000002384,40596.200000047684,41836.60000002384,42261.10000002384,43100.299999952316,43628.60000002384,44412.5,44828.39999997616,45284.5,45764.5,46636.200000047684,47340.700000047684,48444.299999952316,48860.700000047684,49333.10000002384,50220.39999997616,50684.39999997616,51292.60000002384,51860.299999952316,52404.39999997616,57644.39999997616,58276.39999997616,58796.10000002384,59693,60405,62340.299999952316,66571.89999997616,66980.29999995232,67668.70000004768,68164.60000002384,68644.29999995232,70748.39999997616,71588.70000004768,72716.60000002384,73436.39999997616,73892.5,74708.29999995232,75156.10000002384,83140.60000002384,83724.10000002384,84196.20000004768,84604.29999995232,85108.89999997616,85604.5,86220.39999997616,87092.70000004768,88068.70000004768,98012.5],"key_events":[],"mouse_events":[3124.399999976158,16764.700000047684,17284.5,18004.299999952316,18732.799999952316,19108.299999952316,19516.700000047684,20141,20516.5,21124.100000023842,22620.600000023842,23540.600000023842,31148.5,33516.89999997616,36196.5,39011.700000047684,40108.60000002384,40596.200000047684,40973.299999952316,41388.10000002384,41836.60000002384,42261.10000002384,42692.60000002384,43100.299999952316,43628.60000002384,44021.5,44412.5,44828.39999997616,45284.5,45764.5,46636.200000047684,47340.700000047684,48444.299999952316,48860.700000047684,49333.10000002384,49812.89999997616,50220.39999997616,50684.39999997616,51292.60000002384,51860.299999952316,52404.39999997616,55412.5,57644.39999997616,58276.39999997616,58796.10000002384,59693,60405,62340.299999952316,66571.89999997616,66980.29999995232,67324.39999997616,67668.70000004768,68164.60000002384,68644.29999995232,70748.39999997616,71588.70000004768,72372.5,72716.60000002384,73436.39999997616,73892.5,74708.29999995232,75156.10000002384,80028.70000004768,83140.60000002384,83724.10000002384,84196.20000004768,84604.29999995232,85108.89999997616,85604.5,86220.39999997616,87092.70000004768,88068.70000004768,98012.5,103908.20000004768,113588.39999997616,118268.20000004768,120324.70000004768],"honeypot":0,"survey":"mace","page":2,"trial_type":"survey-mace","trial_index":10,"time_elapsed":710529,"internal_node_id":"0.0-10.0","task_version":"prescreen-v0.3","browser_interactions":0},{"responses":{"01":"No","01_ages_1":"1","01_ages_2":"2","01_ages_3":"3","01_ages_4":"4","01_ages_5":"5","01_ages_6":"6","01_ages_7":"7","01_ages_8":"8","01_ages_9":"9","01_ages_10":"10","02":"No","02_ages_1":"1","02_ages_2":"2","02_ages_3":"3","02_ages_4":"4","02_ages_5":"5","02_ages_6":"6","02_ages_7":"7","02_ages_8":"8","02_ages_9":"9","02_ages_10":"10","03":"No","04":"No"},"rt":87367.39999997616,"item_order":[0,1,2,3],"radio_events":[12340.600000023842,35508.300000071526,43534.89999997616,47060.200000047684,57012.60000002384,74484.70000004768],"checkbox_events":[24268.700000047684,24676.399999976158,25828.5,26404.200000047684,26853.700000047684,27660.899999976158,29099.800000071526,29597.200000047684,30444.600000023842,30876.5,36412.700000047684,36852.700000047684,37229.39999997616,37565.300000071526,38317.39999997616,38692.39999997616,39245.5,39652.700000047684,40276.39999997616,40724.39999997616],"key_events":[],"mouse_events":[12340.600000023842,24268.700000047684,24676.399999976158,25396.200000047684,25828.5,26404.200000047684,26853.700000047684,27244.800000071526,27660.899999976158,28468.399999976158,29099.800000071526,29597.200000047684,30444.600000023842,30876.5,35508.300000071526,36412.700000047684,36852.700000047684,37229.39999997616,37565.300000071526,37925,38317.39999997616,38692.39999997616,39245.5,39652.700000047684,40276.39999997616,40724.39999997616,43534.89999997616,47060.200000047684,57012.60000002384,74484.70000004768,87364.70000004768],"honeypot":0,"survey":"mace","page":3,"trial_type":"survey-mace","trial_index":11,"time_elapsed":797901,"internal_node_id":"0.0-11.0","task_version":"prescreen-v0.3","browser_interactions":0},{"responses":{"01":"No","02":"No"},"rt":22138.700000047684,"item_order":[0,1],"radio_events":[8433,21368.5],"checkbox_events":[],"key_events":[],"mouse_events":[8433,21368.5,22137],"honeypot":0,"survey":"mace","page":4,"trial_type":"survey-mace","trial_index":12,"time_elapsed":820044,"internal_node_id":"0.0-12.0","task_version":"prescreen-v0.3","browser_interactions":0},{"responses":{"01":"No","02":"No","03":"No","04":"No","05":"No"},"rt":32925.40000009537,"item_order":[0,1,2,3,4],"radio_events":[16106,21466.100000023842,24858,28242.100000023842,29313.700000047684],"checkbox_events":[],"key_events":[],"mouse_events":[16106,21466.100000023842,24858,28242.100000023842,29313.700000047684,32922],"honeypot":0,"survey":"mace","page":5,"trial_type":"survey-mace","trial_index":13,"time_elapsed":852974,"internal_node_id":"0.0-13.0","task_version":"prescreen-v0.3","browser_interactions":0},{"responses":{"01":"Yes","01_ages_5":"5","01_ages_6":"6","01_ages_7":"7","01_ages_8":"8","01_ages_9":"9","01_ages_10":"10","01_ages_11":"11","01_ages_12":"12","01_ages_13":"13","01_ages_14":"14","02":"No","03":"No","04":"Yes","04_ages_1":"1","04_ages_2":"2","04_ages_3":"3","04_ages_4":"4","04_ages_5":"5","04_ages_6":"6","04_ages_7":"7","04_ages_8":"8","04_ages_9":"9","04_ages_10":"10","04_ages_11":"11","04_ages_12":"12","04_ages_13":"13","04_ages_14":"14","05":"Yes","05_ages_4":"4","05_ages_5":"5","05_ages_6":"6","05_ages_7":"7","05_ages_8":"8","05_ages_9":"9","05_ages_10":"10","05_ages_11":"11","05_ages_12":"12","05_ages_13":"13","05_ages_14":"14"},"rt":93557.79999995232,"item_order":[0,1,2,3,4],"radio_events":[12318.799999952316,40623.09999990463,45615,49727.199999928474,61998.89999997616],"checkbox_events":[27831.199999928474,28711.299999952316,29079.199999928474,29511.199999928474,29983,30367.299999952316,30735.199999928474,31175.599999904633,32886.39999997616,33479.299999952316,51502.799999952316,51959.09999990463,52400,53191,53567.199999928474,54032,54663.09999990463,55143.09999990463,55550.59999990463,56118.59999990463,56550.59999990463,57287.299999952316,58511,58920.09999990463,70847.29999995232,71270.89999997616,71782.79999995232,72535.79999995232,73231,73711,74095,74480,74847.19999992847,75279.19999992847,75735.19999992847,81518.59999990463,82294.59999990463,82806.69999992847,89239],"key_events":[],"mouse_events":[12318.799999952316,27831.199999928474,28711.299999952316,29079.199999928474,29511.199999928474,29983,30367.299999952316,30735.199999928474,31175.599999904633,31943.099999904633,32599.199999928474,32886.39999997616,33479.299999952316,40623.09999990463,45615,49727.199999928474,51502.799999952316,51959.09999990463,52400,52719,53191,53567.199999928474,54032,54663.09999990463,55143.09999990463,55550.59999990463,56118.59999990463,56550.59999990463,57287.299999952316,57680.59999990463,58073.59999990463,58511,58920.09999990463,61998.89999997616,70847.29999995232,71270.89999997616,71782.79999995232,72183,72535.79999995232,72871.29999995232,73231,73711,74095,74480,74847.19999992847,75279.19999992847,75735.19999992847,81518.59999990463,82294.59999990463,82806.69999992847,89239,93551.19999992847],"honeypot":0,"survey":"mace","page":6,"trial_type":"survey-mace","trial_index":14,"time_elapsed":946537,"internal_node_id":"0.0-14.0","task_version":"prescreen-v0.3","browser_interactions":0},{"responses":{"01":"Yes","01_ages_6":"6","01_ages_7":"7","01_ages_8":"8","01_ages_9":"9","01_ages_10":"10","01_ages_11":"11","02":"Yes","02_ages_6":"6","02_ages_7":"7","02_ages_8":"8","02_ages_9":"9","02_ages_10":"10","02_ages_11":"11","03":"Yes","03_ages_5":"5","03_ages_6":"6","03_ages_7":"7","03_ages_8":"8","03_ages_9":"9","03_ages_10":"10","03_ages_11":"11","03_ages_12":"12","03_ages_13":"13","03_ages_14":"14","04":"Yes","04_ages_6":"6","05":"Yes","05_ages_6":"6","06":"Yes","06_ages_6":"6","07":"Yes","07_ages_6":"6"},"rt":116864.29999995232,"item_order":[0,1,2,3,4,5,6],"radio_events":[6411.100000023842,22363.100000023842,30963.100000023842,33163,57467.5,59979.199999928474,74451.5,79619.19999992847,111619],"checkbox_events":[10299.399999976158,10690.899999976158,11267.5,12091,12515.600000023842,13155.399999976158,13587.199999928474,24459.100000023842,24923.100000023842,25348,25812.699999928474,26443.799999952316,26923.100000023842,27554.899999976158,43939.10000002384,44355.10000002384,44715.39999997616,45179.89999997616,45715.5,46123.299999952316,47435.39999997616,47878.299999952316,48795.10000002384,49243.39999997616,64762.799999952316,75795.19999992847,93947.19999992847,94810.89999997616,103603.39999997616,112595],"key_events":[],"mouse_events":[6411.100000023842,10299.399999976158,10690.899999976158,11267.5,12091,12515.600000023842,13155.399999976158,13587.199999928474,22363.100000023842,24459.100000023842,24923.100000023842,25348,25812.699999928474,26443.799999952316,26923.100000023842,27554.899999976158,30963.100000023842,33163,43939.10000002384,44355.10000002384,44715.39999997616,45179.89999997616,45715.5,46123.299999952316,47435.39999997616,47878.299999952316,48298.89999997616,48795.10000002384,49243.39999997616,57467.5,59979.199999928474,64762.799999952316,74451.5,75795.19999992847,79619.19999992847,93947.19999992847,94810.89999997616,103603.39999997616,111619,112595,116859.60000002384],"honeypot":0,"survey":"mace","page":7,"trial_type":"survey-mace","trial_index":15,"time_elapsed":1063408,"internal_node_id":"0.0-15.0","task_version":"prescreen-v0.3","browser_interactions":0},{"responses":{"01":"Yes","01_ages_1":"1","01_ages_2":"2","01_ages_3":"3","01_ages_4":"4","01_ages_5":"5","01_ages_6":"6","01_ages_7":"7","01_ages_8":"8","01_ages_9":"9","01_ages_10":"10","01_ages_11":"11","01_ages_12":"12","01_ages_13":"13","01_ages_14":"14","01_ages_15":"15","01_ages_16":"16","01_ages_17":"17","01_ages_18":"18","02":"Yes","02_ages_1":"1","02_ages_2":"2","02_ages_3":"3","02_ages_4":"4","02_ages_5":"5","02_ages_6":"6","02_ages_7":"7","02_ages_8":"8","02_ages_9":"9","02_ages_10":"10","02_ages_11":"11","02_ages_12":"12","02_ages_13":"13","02_ages_14":"14","02_ages_15":"15","02_ages_16":"16","02_ages_17":"17","02_ages_18":"18","03":"Yes","03_ages_3":"3","03_ages_4":"4","03_ages_5":"5","03_ages_6":"6","03_ages_7":"7","03_ages_8":"8","03_ages_9":"9","03_ages_10":"10","03_ages_11":"11","03_ages_12":"12","03_ages_13":"13","03_ages_14":"14","03_ages_15":"15","03_ages_16":"16","03_ages_17":"17","03_ages_18":"18","04":"Yes","04_ages_3":"3","04_ages_4":"4","04_ages_5":"5","04_ages_6":"6","04_ages_7":"7","04_ages_8":"8","04_ages_9":"9","04_ages_10":"10","04_ages_11":"11","04_ages_12":"12","04_ages_13":"13","04_ages_14":"14","04_ages_15":"15","04_ages_16":"16","04_ages_17":"17","04_ages_18":"18"},"rt":91288.29999995232,"item_order":[0,1,2,3],"radio_events":[23085,40860.89999997616,56468.89999997616,79772.89999997616],"checkbox_events":[26644.699999928474,27085,27549.699999928474,28388.899999976158,28926.199999928474,29509.100000023842,29886.199999928474,30414.199999928474,30789.699999928474,31548.899999976158,31973.100000023842,32653,33093,33693,34165.299999952316,34877.10000002384,35485.199999928474,36085.299999952316,41773.39999997616,42149.39999997616,42557.10000002384,43005,43437,44293.299999952316,45085.10000002384,45789,46381.199999928474,46981.199999928474,47509,47989,48437.10000002384,48877,49453.299999952316,50044.89999997616,50621,51365.89999997616,57341,57725.299999952316,58793.199999928474,59148.699999928474,62388.799999952316,62837,63341.60000002384,63709.299999952316,64933.39999997616,65476.799999952316,66028.89999997616,67653.79999995232,68276.5,68820.89999997616,69396.89999997616,70413,70892.69999992847,71436.5,72173.29999995232,72637.29999995232,81564.5,82556.5,83020.89999997616,83565.19999992847,84765.5,85197,85685.10000002384,86197,86604.89999997616,87197.79999995232,87653.10000002384,88101.89999997616,88556.79999995232,89020.89999997616,89526,89997.5],"key_events":[],"mouse_events":[23085,26644.699999928474,27085,27549.699999928474,28388.899999976158,28926.199999928474,29509.100000023842,29886.199999928474,30414.199999928474,30789.699999928474,31548.899999976158,31973.100000023842,32653,33093,33693,34165.299999952316,34877.10000002384,35485.199999928474,36085.299999952316,40860.89999997616,41773.39999997616,42149.39999997616,42557.10000002384,43005,43437,43805,44293.299999952316,44709.199999928474,45085.10000002384,45789,46381.199999928474,46981.199999928474,47509,47989,48437.10000002384,48877,49453.299999952316,50044.89999997616,50621,51365.89999997616,56468.89999997616,57341,57725.299999952316,58069.5,58793.199999928474,59148.699999928474,62388.799999952316,62837,63341.60000002384,63709.299999952316,64238.89999997616,64933.39999997616,65476.799999952316,66028.89999997616,66668.89999997616,67076.79999995232,67653.79999995232,68276.5,68820.89999997616,69396.89999997616,69980.60000002384,70413,70892.69999992847,71436.5,72173.29999995232,72637.29999995232,79772.89999997616,81228.89999997616,81564.5,82166.19999992847,82556.5,83020.89999997616,83565.19999992847,83965.19999992847,84765.5,85197,85685.10000002384,86197,86604.89999997616,87197.79999995232,87653.10000002384,88101.89999997616,88556.79999995232,89020.89999997616,89526,89997.5,91285.39999997616],"honeypot":0,"survey":"mace","page":8,"trial_type":"survey-mace","trial_index":16,"time_elapsed":1154701,"internal_node_id":"0.0-16.0","task_version":"prescreen-v0.3","browser_interactions":0},{"responses":{"01":"No","02":"No","03":"Yes","03_ages_1":"1","03_ages_2":"2","03_ages_3":"3","03_ages_4":"4","03_ages_5":"5","03_ages_6":"6","03_ages_7":"7","03_ages_8":"8","03_ages_9":"9","03_ages_10":"10","03_ages_11":"11","03_ages_12":"12","03_ages_13":"13","03_ages_14":"14","03_ages_15":"15","03_ages_16":"16","03_ages_17":"17","03_ages_18":"18","04":"Yes","04_ages_1":"1","04_ages_2":"2","04_ages_3":"3","04_ages_4":"4","04_ages_5":"5","04_ages_6":"6","04_ages_7":"7","04_ages_8":"8","04_ages_9":"9","04_ages_10":"10","04_ages_11":"11","04_ages_12":"12","04_ages_13":"13","04_ages_14":"14","04_ages_15":"15","04_ages_16":"16","04_ages_17":"17","04_ages_18":"18"},"rt":55674.800000071526,"item_order":[0,1,2,3],"radio_events":[15792,19456.300000071526,26080.100000023842,44455.700000047684],"checkbox_events":[29903.800000071526,30360.900000095367,31023.800000071526,31615.900000095367,32216,32768.5,33359.300000071526,33735.800000071526,34103.90000009537,34647.800000071526,35383.90000009537,35807.700000047684,36743.800000071526,37175.800000071526,37624,38503.700000047684,38967.60000002384,39495.700000047684,45367.800000071526,45855.700000047684,46272.5,46671.300000071526,47201,47647.700000047684,48319.60000002384,48807.5,49359.60000002384,49911.700000047684,50455.5,51119.60000002384,51583.90000009537,52167.90000009537,52624.200000047684,53263.60000002384,54407.700000047684,55024.300000071526],"key_events":[],"mouse_events":[14559.800000071526,15792,19456.300000071526,26080.100000023842,29112.100000023842,29903.800000071526,30360.900000095367,31023.800000071526,31615.900000095367,32216,32768.5,33359.300000071526,33735.800000071526,34103.90000009537,34647.800000071526,35023.90000009537,35383.90000009537,35807.700000047684,36743.800000071526,37175.800000071526,37624,38120.10000002384,38503.700000047684,38967.60000002384,39495.700000047684,44455.700000047684,45367.800000071526,45855.700000047684,46272.5,46671.300000071526,47201,47647.700000047684,48319.60000002384,48807.5,49359.60000002384,49911.700000047684,50455.5,51119.60000002384,51583.90000009537,52167.90000009537,52624.200000047684,53263.60000002384,53967.10000002384,54407.700000047684,55024.300000071526,55672.10000002384],"honeypot":0,"survey":"mace","page":9,"trial_type":"survey-mace","trial_index":17,"time_elapsed":1210382,"internal_node_id":"0.0-17.0","task_version":"prescreen-v0.3","browser_interactions":0},{"responses":{"01":"No","02":"No","03":"Yes","03_ages_4":"4","03_ages_5":"5","03_ages_6":"6","03_ages_7":"7","03_ages_8":"8","03_ages_9":"9","03_ages_10":"10","03_ages_11":"11","03_ages_12":"12","03_ages_13":"13","03_ages_14":"14","03_ages_15":"15","03_ages_16":"16","03_ages_17":"17","03_ages_18":"18","04":"No","05":"Yes","05_ages_17":"17","05_ages_18":"18","06":"Yes","06_ages_17":"17","07":"No","08":"No"},"rt":51645,"item_order":[0,1,2,3,4,5,6,7],"radio_events":[4752,5951.699999928474,12967.399999976158,27207.399999976158,31974.899999976158,41871.799999952316,47911.799999952316,50975.5],"checkbox_events":[15352.099999904633,15735.699999928474,16231.399999976158,17640.299999952316,18151.899999976158,18663.699999928474,19256.199999928474,19783.699999928474,20512.299999952316,21295.399999976158,21743.5,22223.399999976158,22687.5,23103.599999904633,23511.599999904633,34399.699999928474,35279.59999990463,37744.39999997616,38168.199999928474,43279.199999928474],"key_events":[],"mouse_events":[4752,5951.699999928474,12967.399999976158,15352.099999904633,15735.699999928474,16231.399999976158,16991.5,17640.299999952316,18151.899999976158,18663.699999928474,19256.199999928474,19783.699999928474,20512.299999952316,20927.699999928474,21295.399999976158,21743.5,22223.399999976158,22687.5,23103.599999904633,23511.599999904633,27207.399999976158,31974.899999976158,34399.699999928474,35279.59999990463,37744.39999997616,38168.199999928474,38743.39999997616,41871.799999952316,43279.199999928474,47911.799999952316,50975.5,51639.699999928474],"honeypot":0,"survey":"mace","page":10,"trial_type":"survey-mace","trial_index":18,"time_elapsed":1262033,"internal_node_id":"0.0-18.0","task_version":"prescreen-v0.3","browser_interactions":0,"instructed":0},{"rt":9269.099999904633,"trial_type":"mental-health-alert","trial_index":19,"time_elapsed":1271305,"internal_node_id":"0.0-19.0","task_version":"prescreen-v0.3","interactions":"[]"}]