[{"view_history":[{"page_index":0,"viewing_time":5157.5},{"page_index":1,"viewing_time":7222.20000000298},{"page_index":2,"viewing_time":10964.79999999702},{"page_index":3,"viewing_time":1410.7999999970198}],"rt":24755.90000000596,"trial_type":"instructions","trial_index":0,"time_elapsed":24770,"internal_node_id":"0.0-0.0","task_version":"prescreen-v0.3"},{"rt":16401.20000000298,"responses":{"age":"41","gender-categorical":"Male","gender-free-response":"","ethnicity":"Not Hispanic or Latino","race":["White"],"education":"Bachelor degree","siblings":"03"},"trial_type":"survey-demo","trial_index":1,"time_elapsed":41177,"internal_node_id":"0.0-1.0","task_version":"prescreen-v0.3"},{"responses":{"Q12":"0","Q19":"0","Q01":"0","Q07":"1","Q09":"1","Q02":"0","Q21":"3","Q15":"0","Q11":"0","Q06":"0","Q17":"0","Q08":"0","Q20":"0","Q14":"0","Q13":"0","Q18":"0","Q05":"2","Q03":"0","Q10":"0","Q16":"0","Q04":"0"},"rt":178576,"item_order":[11,18,0,6,8,1,20,14,10,5,16,7,19,13,12,17,4,2,9,15,3],"radio_events":[21367.19999998808,33693,38766.79999999702,45502.89999999106,47191.5,59684.39999999106,65028.69999998808,73149.5,83911.39999999106,86220.5,92317,98674.09999999404,104569.29999999702,110584,117018.79999999702,121899.89999999106,129613.09999999404,133211.19999998808,157715.5,161581.79999999702,165930.39999999106,171822,176272],"key_events":[],"mouse_events":[21367.19999998808,33693,38766.79999999702,45502.89999999106,47191.5,58925.79999999702,59684.39999999106,65028.69999998808,73149.5,83911.39999999106,86220.5,92317,98674.09999999404,104569.29999999702,107923.89999999106,110584,117018.79999999702,121899.89999999106,129613.09999999404,133211.19999998808,155455.39999999106,156948.39999999106,157715.5,160587,161581.79999999702,165930.39999999106,171822,176272,178572.5],"straightlining":0.8095238095238095,"zigzagging":0.2,"honeypot":0,"survey":"sns","trial_type":"survey-template","trial_index":2,"time_elapsed":219757,"internal_node_id":"0.0-2.0","task_version":"prescreen-v0.3","browser_interactions":0,"infrequency":0},{"responses":{"Q09":"3","Q13":"0","Q05":"3","Q12":"1","Q04":"2","Q07":"2","Q01":"2","Q11":"2","Q08":"2","Q03":"2","Q06":"2","Q02":"1","Q10":"2"},"rt":72568.80000001192,"item_order":[8,12,4,11,3,6,0,10,7,2,5,1,9],"radio_events":[7589.100000008941,12554.70000000298,22149.70000000298,27290.80000001192,33685,37380.5,40578.80000001192,47595.70000000298,51764.60000000894,56970.40000000596,61800.60000000894,64239.90000000596,71253.30000001192],"key_events":[],"mouse_events":[7589.100000008941,12554.70000000298,22149.70000000298,27290.80000001192,33685,37380.5,40578.80000001192,47595.70000000298,51764.60000000894,56970.40000000596,61800.60000000894,64239.90000000596,71253.30000001192,72566.80000001192],"straightlining":0.6153846153846154,"zigzagging":0.4166666666666667,"honeypot":0,"survey":"bisbas","trial_type":"survey-template","trial_index":3,"time_elapsed":292330,"internal_node_id":"0.0-3.0","task_version":"prescreen-v0.3","browser_interactions":0,"infrequency":0},{"responses":{"Q01":"2","Q02":"2","Q03":"2"},"rt":44824.90000000596,"radio_events":[6252.4000000059605,25333.90000000596,43323.5],"key_events":[],"mouse_events":[6252.4000000059605,19558.60000000894,25333.90000000596,26230.70000000298,29330.10000000894,36069.70000000298,43323.5,44824],"survey":"map","page":1,"trial_type":"survey-map","trial_index":4,"time_elapsed":337158,"internal_node_id":"0.0-4.0","task_version":"prescreen-v0.3","browser_interactions":0},{"responses":{"Q04":"3","Q05":"2","Q06":"3"},"rt":21444.79999999702,"radio_events":[7417.0999999940395,13553.09999999404,17202],"key_events":[],"mouse_events":[7417.0999999940395,13553.09999999404,17202,21444],"survey":"map","page":2,"trial_type":"survey-map","trial_index":5,"time_elapsed":358604,"internal_node_id":"0.0-5.0","task_version":"prescreen-v0.3","browser_interactions":0},{"responses":{"Q07":"3","Q08":"4","Q09":"2"},"rt":25254.5,"radio_events":[11148.20000000298,19543.60000000894,23727.90000000596],"key_events":[],"mouse_events":[11148.20000000298,18727.70000000298,19543.60000000894,23075.5,23727.90000000596,25253.60000000894],"survey":"map","page":3,"trial_type":"survey-map","trial_index":6,"time_elapsed":383861,"internal_node_id":"0.0-6.0","task_version":"prescreen-v0.3","browser_interactions":0},{"responses":{"Q10":"2","Q11":"2","Q12":"2","Q13":"2","Q16":"0","Q14":"2","Q15":"2"},"rt":62347.20000000298,"radio_events":[6172.9000000059605,12504.90000000596,18281.70000000298,33522.70000000298,39152.29999999702,45057.5,53297.70000000298,60125.40000000596],"key_events":[],"mouse_events":[6172.9000000059605,12504.90000000596,18281.70000000298,32584.60000000894,33522.70000000298,39152.29999999702,45057.5,53297.70000000298,60125.40000000596,62345.10000000894],"survey":"map","page":4,"trial_type":"survey-map","trial_index":7,"time_elapsed":446212,"internal_node_id":"0.0-7.0","task_version":"prescreen-v0.3","browser_interactions":0,"infrequency":0},{"view_history":[{"page_index":0,"viewing_time":4677.70000000298},{"page_index":1,"viewing_time":5221.5}],"rt":9899.5,"trial_type":"instructions","trial_index":8,"time_elapsed":456112,"internal_node_id":"0.0-8.0","task_version":"prescreen-v0.3"},{"responses":{"01":"No","02":"Yes","02_ages_9":"9","02_ages_10":"10","03":"No","04":"No","05":"No","06":"Yes","06_ages_8":"8","06_ages_9":"9","06_ages_10":"10"},"rt":60490.40000000596,"item_order":[0,1,2,3,4,5],"radio_events":[14772.60000000894,21665.90000000596,33012.79999999702,37173.29999999702,45964,58273.90000000596],"checkbox_events":[25596.40000000596,27464.29999999702,47586.79999999702,48117.29999999702,49234.79999999702],"key_events":[],"mouse_events":[0.10000000894069672,14772.60000000894,21665.90000000596,25596.40000000596,27464.29999999702,33012.79999999702,35174.40000000596,37173.29999999702,45964,47586.79999999702,48117.29999999702,49234.79999999702,52506.79999999702,58273.90000000596,60484.60000000894],"honeypot":0,"survey":"mace","page":1,"trial_type":"survey-mace","trial_index":9,"time_elapsed":516609,"internal_node_id":"0.0-9.0","task_version":"prescreen-v0.3","browser_interactions":0},{"responses":{"01":"No","02":"No","03":"Yes","03_ages_7":"7","03_ages_8":"8","03_ages_9":"9","03_ages_10":"10","04":"Yes","04_ages_8":"8","05":"Yes","05_ages_8":"8","05_ages_9":"9","06":"No","07":"No","08":"No"},"rt":36613.59999999404,"item_order":[0,1,2,3,4,5,6,7],"radio_events":[4068.5,7953.399999991059,11136.09999999404,19450.5,24329.39999999106,29334.29999999702,31014.79999999702,34337.09999999404],"checkbox_events":[12995.89999999106,13469.5,13975.39999999106,14514.09999999404,20828.70000000298,25251,25871.29999999702],"key_events":[],"mouse_events":[4068.5,7953.399999991059,11136.09999999404,12995.89999999106,13469.5,13975.39999999106,14514.09999999404,19450.5,20828.70000000298,24329.39999999106,25251,25871.29999999702,29334.29999999702,31014.79999999702,34337.09999999404,36606.39999999106],"honeypot":0,"survey":"mace","page":2,"trial_type":"survey-mace","trial_index":10,"time_elapsed":553227,"internal_node_id":"0.0-10.0","task_version":"prescreen-v0.3","browser_interactions":0},{"responses":{"01":"No","02":"No","03":"No","04":"No"},"rt":14935,"item_order":[0,1,2,3],"radio_events":[4256.29999999702,8722.40000000596,10191.5,11961.90000000596],"checkbox_events":[],"key_events":[],"mouse_events":[4256.29999999702,8722.40000000596,10191.5,11961.90000000596,14931.90000000596],"honeypot":0,"survey":"mace","page":3,"trial_type":"survey-mace","trial_index":11,"time_elapsed":568165,"internal_node_id":"0.0-11.0","task_version":"prescreen-v0.3","browser_interactions":0},{"responses":{"01":"No","02":"No"},"rt":11136.20000000298,"item_order":[0,1],"radio_events":[7307.5,9322.90000000596],"checkbox_events":[],"key_events":[],"mouse_events":[7307.5,9322.90000000596,11134.40000000596],"honeypot":0,"survey":"mace","page":4,"trial_type":"survey-mace","trial_index":12,"time_elapsed":579303,"internal_node_id":"0.0-12.0","task_version":"prescreen-v0.3","browser_interactions":0},{"responses":{"01":"No","02":"No","03":"No","04":"No","05":"No"},"rt":28950.70000000298,"item_order":[0,1,2,3,4],"radio_events":[13205.70000000298,15506.300000011921,19502.70000000298,23741.20000000298,25707.40000000596],"checkbox_events":[],"key_events":[],"mouse_events":[13205.70000000298,15506.300000011921,19502.70000000298,23741.20000000298,25707.40000000596,28946.5],"honeypot":0,"survey":"mace","page":5,"trial_type":"survey-mace","trial_index":13,"time_elapsed":608257,"internal_node_id":"0.0-13.0","task_version":"prescreen-v0.3","browser_interactions":0},{"responses":{"01":"Yes","01_ages_6":"6","01_ages_7":"7","01_ages_8":"8","01_ages_9":"9","01_ages_10":"10","01_ages_11":"11","01_ages_12":"12","01_ages_13":"13","01_ages_14":"14","01_ages_15":"15","01_ages_16":"16","02":"Yes","02_ages_6":"6","02_ages_7":"7","02_ages_8":"8","02_ages_9":"9","02_ages_10":"10","02_ages_11":"11","02_ages_12":"12","02_ages_13":"13","02_ages_14":"14","02_ages_15":"15","02_ages_16":"16","03":"No","04":"Yes","04_ages_7":"7","04_ages_8":"8","04_ages_9":"9","04_ages_10":"10","04_ages_11":"11","04_ages_12":"12","04_ages_13":"13","04_ages_14":"14","05":"Yes","05_ages_6":"6","05_ages_7":"7","05_ages_8":"8","05_ages_9":"9","05_ages_10":"10","05_ages_11":"11","05_ages_12":"12","05_ages_13":"13","05_ages_14":"14","05_ages_15":"15","05_ages_16":"16","05_ages_17":"17"},"rt":92514.5,"item_order":[0,1,2,3,4],"radio_events":[8211.79999999702,25035.79999999702,38865.20000000298,40978.40000000596,53958.09999999404],"checkbox_events":[9459.59999999404,10210.79999999702,12674.5,13286.5,13922.79999999702,14518.20000000298,15016.09999999404,15513.59999999404,15979.09999999404,16493,16982.79999999702,17423.79999999702,17880.29999999702,18361.59999999404,19504.20000000298,20050.70000000298,26104.90000000596,26553.79999999702,27451.29999999702,27875.40000000596,28307.90000000596,28756.5,29188.5,29637.5,30053.5,30494,30910.29999999702,31416.70000000298,32101.79999999702,33015.09999999404,33456.29999999702,34345.59999999404,44071.09999999404,44633.09999999404,45856.5,46444.59999999404,46926.09999999404,47497,47946.59999999404,48475.59999999404,48948.90000000596,49414.79999999702,49904.59999999404,50352.5,50784.79999999702,51282.79999999702,58642.79999999702,59058.20000000298,59482.59999999404,60412.40000000596,61473,64460.5,64982.29999999702,65446.90000000596,66401.59999999404,67641.90000000596,69984.59999999404,70408.5,70856.90000000596,71305.70000000298,71770.5,74675.59999999404,84407.79999999702,85101.29999999702,85647.29999999702,86104.29999999702,86578,87034.90000000596,87459.70000000298,87883.59999999404,88307.70000000298,88724,89972,90486.70000000298],"key_events":[],"mouse_events":[8211.79999999702,9459.59999999404,10210.79999999702,12674.5,13286.5,13922.79999999702,14518.20000000298,15016.09999999404,15513.59999999404,15979.09999999404,16493,16982.79999999702,17423.79999999702,17880.29999999702,18361.59999999404,19504.20000000298,20050.70000000298,25035.79999999702,26104.90000000596,26553.79999999702,26985.90000000596,27451.29999999702,27875.40000000596,28307.90000000596,28756.5,29188.5,29637.5,30053.5,30494,30910.29999999702,31416.70000000298,32101.79999999702,32517.70000000298,33015.09999999404,33456.29999999702,34345.59999999404,38865.20000000298,40978.40000000596,44071.09999999404,44633.09999999404,45856.5,46444.59999999404,46926.09999999404,47497,47946.59999999404,48475.59999999404,48948.90000000596,49414.79999999702,49904.59999999404,50352.5,50784.79999999702,51282.79999999702,53958.09999999404,58642.79999999702,59058.20000000298,59482.59999999404,59931.09999999404,60412.40000000596,61473,64460.5,64982.29999999702,65446.90000000596,65920.79999999702,66401.59999999404,67103.59999999404,67641.90000000596,69984.59999999404,70408.5,70856.90000000596,71305.70000000298,71770.5,74675.59999999404,84407.79999999702,85101.29999999702,85647.29999999702,86104.29999999702,86578,87034.90000000596,87459.70000000298,87883.59999999404,88307.70000000298,88724,89156.59999999404,89972,90486.70000000298,92511],"honeypot":0,"survey":"mace","page":6,"trial_type":"survey-mace","trial_index":14,"time_elapsed":700775,"internal_node_id":"0.0-14.0","task_version":"prescreen-v0.3","browser_interactions":0},{"responses":{"01":"No","02":"No","03":"Yes","03_ages_6":"6","03_ages_7":"7","03_ages_8":"8","03_ages_9":"9","03_ages_10":"10","03_ages_11":"11","03_ages_12":"12","03_ages_13":"13","03_ages_14":"14","03_ages_15":"15","03_ages_16":"16","03_ages_17":"17","04":"Yes","04_ages_10":"10","04_ages_11":"11","04_ages_12":"12","04_ages_13":"13","04_ages_14":"14","05":"No","06":"No","07":"No"},"rt":47613.5,"item_order":[0,1,2,3,4,5,6],"radio_events":[8827.39999999106,12751.39999999106,15272.89999999106,25667.59999999404,27357.69999998808,39481.59999999404,41644.39999999106,43472.69999998808],"checkbox_events":[16936.79999999702,17508.09999999404,18593.39999999106,19107.59999999404,19694.59999999404,20151.89999999106,20576.29999999702,21000.39999999106,21498.5,22020.59999999404,22543.09999999404,23056.79999999702,28955.19999998808,29502.59999999404,29984,30710.19999998808,32112.79999999702,34619.09999999404,35524.89999999106],"key_events":[],"mouse_events":[8827.39999999106,12751.39999999106,15272.89999999106,16936.79999999702,17508.09999999404,18111.59999999404,18593.39999999106,19107.59999999404,19694.59999999404,20151.89999999106,20576.29999999702,21000.39999999106,21498.5,22020.59999999404,22543.09999999404,23056.79999999702,25667.59999999404,27357.69999998808,28955.19999998808,29502.59999999404,29984,30710.19999998808,31379.39999999106,32112.79999999702,33484.5,34023.09999999404,34619.09999999404,35524.89999999106,39481.59999999404,41644.39999999106,43472.69999998808,47608.39999999106],"honeypot":0,"survey":"mace","page":7,"trial_type":"survey-mace","trial_index":15,"time_elapsed":748393,"internal_node_id":"0.0-15.0","task_version":"prescreen-v0.3","browser_interactions":0},{"responses":{"01":"No","02":"No","03":"No","04":"No"},"rt":23143.70000000298,"item_order":[0,1,2,3],"radio_events":[9234.40000000596,11771.20000000298,15533.70000000298,20968.70000000298],"checkbox_events":[],"key_events":[],"mouse_events":[9234.40000000596,11771.20000000298,15533.70000000298,20968.70000000298,23140],"honeypot":0,"survey":"mace","page":8,"trial_type":"survey-mace","trial_index":16,"time_elapsed":771540,"internal_node_id":"0.0-16.0","task_version":"prescreen-v0.3","browser_interactions":0},{"responses":{"01":"Yes","01_ages_3":"3","01_ages_4":"4","01_ages_5":"5","01_ages_6":"6","01_ages_7":"7","01_ages_8":"8","01_ages_9":"9","01_ages_10":"10","01_ages_11":"11","01_ages_12":"12","01_ages_13":"13","01_ages_14":"14","01_ages_15":"15","01_ages_16":"16","01_ages_17":"17","01_ages_18":"18","02":"Yes","02_ages_3":"3","02_ages_4":"4","02_ages_5":"5","02_ages_6":"6","02_ages_7":"7","02_ages_8":"8","02_ages_9":"9","02_ages_10":"10","02_ages_11":"11","02_ages_12":"12","02_ages_13":"13","02_ages_14":"14","02_ages_15":"15","02_ages_16":"16","02_ages_17":"17","02_ages_18":"18","03":"Yes","03_ages_1":"1","03_ages_2":"2","03_ages_3":"3","03_ages_4":"4","03_ages_5":"5","03_ages_6":"6","03_ages_7":"7","03_ages_8":"8","03_ages_9":"9","03_ages_10":"10","03_ages_11":"11","03_ages_12":"12","03_ages_13":"13","03_ages_14":"14","03_ages_15":"15","03_ages_16":"16","03_ages_17":"17","03_ages_18":"18","04":"Yes","04_ages_2":"2","04_ages_3":"3","04_ages_4":"4","04_ages_5":"5","04_ages_6":"6","04_ages_7":"7","04_ages_8":"8","04_ages_9":"9","04_ages_10":"10","04_ages_11":"11","04_ages_12":"12","04_ages_13":"13","04_ages_14":"14","04_ages_15":"15","04_ages_16":"16","04_ages_17":"17","04_ages_18":"18"},"rt":83970.09999999404,"item_order":[0,1,2,3],"radio_events":[8602.79999999702,26182.20000000298,38625.89999999106,61201.5],"checkbox_events":[13441.29999999702,13955.29999999702,14436.20000000298,14901.09999999404,17577.59999999404,18100.09999999404,18647,19160.89999999106,19641.79999999702,20107.5,20556.20000000298,21054.09999999404,21518.70000000298,21975.89999999106,22481.89999999106,22959,27488,27936,28401.59999999404,29054.29999999702,29494.59999999404,29967.89999999106,30425.20000000298,30897.89999999106,31395.89999999106,31844.39999999106,32301.20000000298,32790.70000000298,33207,33672.09999999404,34129.39999999106,34561.20000000298,41703.09999999404,42886.29999999702,43351.20000000298,44436.09999999404,47341.39999999106,48320.20000000298,48948.20000000298,49405.70000000298,49854.39999999106,50286.59999999404,50768.09999999404,51257.70000000298,51747.5,52212.59999999404,52669,53158.39999999106,53623.70000000298,54073.09999999404,63160.29999999702,63796.39999999106,64277.59999999404,64808.09999999404,65256.89999999106,65746.39999999106,66211.39999999106,66668.29999999702,67116.70000000298,67557.89999999106,68014.09999999404,72249.70000000298,72893.89999999106,73530.39999999106,75007.79999999702,75480.89999999106,77920.89999999106,79528.20000000298,79952.59999999404,81021.20000000298,81486.39999999106,82016.59999999404,82637.5],"key_events":[],"mouse_events":[8602.79999999702,13441.29999999702,13955.29999999702,14436.20000000298,14901.09999999404,15325.89999999106,15807.59999999404,16313,17577.59999999404,18100.09999999404,18647,19160.89999999106,19641.79999999702,20107.5,20556.20000000298,21054.09999999404,21518.70000000298,21975.89999999106,22481.89999999106,22959,26182.20000000298,27488,27936,28401.59999999404,29054.29999999702,29494.59999999404,29967.89999999106,30425.20000000298,30897.89999999106,31395.89999999106,31844.39999999106,32301.20000000298,32790.70000000298,33207,33672.09999999404,34129.39999999106,34561.20000000298,38625.89999999106,41180.59999999404,41703.09999999404,42886.29999999702,43351.20000000298,43832.09999999404,44436.09999999404,44860.09999999404,45505,46108.59999999404,46835.20000000298,47341.39999999106,47814.09999999404,48320.20000000298,48948.20000000298,49405.70000000298,49854.39999999106,50286.59999999404,50768.09999999404,51257.70000000298,51747.5,52212.59999999404,52669,53158.39999999106,53623.70000000298,54073.09999999404,61201.5,63160.29999999702,63796.39999999106,64277.59999999404,64808.09999999404,65256.89999999106,65746.39999999106,66211.39999999106,66668.29999999702,67116.70000000298,67557.89999999106,68014.09999999404,72249.70000000298,72893.89999999106,73530.39999999106,74510,75007.79999999702,75480.89999999106,77920.89999999106,79528.20000000298,79952.59999999404,80539.79999999702,81021.20000000298,81486.39999999106,82016.59999999404,82637.5,83966.79999999702],"honeypot":0,"survey":"mace","page":9,"trial_type":"survey-mace","trial_index":17,"time_elapsed":855513,"internal_node_id":"0.0-17.0","task_version":"prescreen-v0.3","browser_interactions":0},{"responses":{"01":"No","02":"No","03":"No","04":"No","05":"No","06":"Yes","06_ages_17":"17","07":"Yes","07_ages_3":"3","07_ages_4":"4","07_ages_5":"5","07_ages_6":"6","07_ages_7":"7","07_ages_8":"8","07_ages_9":"9","07_ages_10":"10","07_ages_11":"11","07_ages_12":"12","07_ages_13":"13","07_ages_14":"14","07_ages_15":"15","07_ages_16":"16","07_ages_17":"17","07_ages_18":"18","08":"Yes","08_ages_3":"3","08_ages_4":"4","08_ages_5":"5","08_ages_6":"6","08_ages_7":"7","08_ages_8":"8","08_ages_9":"9","08_ages_10":"10","08_ages_11":"11","08_ages_12":"12","08_ages_13":"13","08_ages_14":"14","08_ages_15":"15","08_ages_16":"16","08_ages_17":"17","08_ages_18":"18"},"rt":56781.40000000596,"item_order":[0,1,2,3,4,5,6,7],"radio_events":[5816.79999999702,7465.0999999940395,10573.90000000596,13134.90000000596,15795.40000000596,18854.90000000596,25798.79999999702,42486],"checkbox_events":[20502.90000000596,29340.20000000298,29853.79999999702,30311.40000000596,31371.79999999702,31935.29999999702,32441.29999999702,32922.5,33901.90000000596,34872.70000000298,35330,35844,36358.09999999404,36839.59999999404,37370.40000000596,39931.79999999702,41042.59999999404,47757.79999999702,48280.09999999404,48966.29999999702,49455.40000000596,49936.90000000596,50434.59999999404,50981.20000000298,51511.90000000596,52001.09999999404,52988.70000000298,53495,54000.70000000298,54490.90000000596,55045.20000000298,55608,56122.20000000298],"key_events":[],"mouse_events":[5816.79999999702,7465.0999999940395,10573.90000000596,13134.90000000596,15795.40000000596,18854.90000000596,20502.90000000596,25798.79999999702,29340.20000000298,29853.79999999702,30311.40000000596,30833.79999999702,31371.79999999702,31935.29999999702,32441.29999999702,32922.5,33436.29999999702,33901.90000000596,34350.59999999404,34872.70000000298,35330,35844,36358.09999999404,36839.59999999404,37370.40000000596,39931.79999999702,40454.5,41042.59999999404,42486,47757.79999999702,48280.09999999404,48966.29999999702,49455.40000000596,49936.90000000596,50434.59999999404,50981.20000000298,51511.90000000596,52001.09999999404,52491.40000000596,52988.70000000298,53495,54000.70000000298,54490.90000000596,55045.20000000298,55608,56122.20000000298,56775.40000000596],"honeypot":0,"survey":"mace","page":10,"trial_type":"survey-mace","trial_index":18,"time_elapsed":912298,"internal_node_id":"0.0-18.0","task_version":"prescreen-v0.3","browser_interactions":0,"instructed":0},{"rt":31480.79999999702,"trial_type":"mental-health-alert","trial_index":19,"time_elapsed":943781,"internal_node_id":"0.0-19.0","task_version":"prescreen-v0.3","interactions":"[{\"event\":\"blur\",\"trial\":19,\"time\":930455},{\"event\":\"focus\",\"trial\":19,\"time\":933009}]"}]