[{"view_history":[{"page_index":0,"viewing_time":2489.7999999970198},{"page_index":1,"viewing_time":92940.70000000298},{"page_index":2,"viewing_time":14191.09999999404},{"page_index":3,"viewing_time":995.2000000029802}],"rt":110617.59999999404,"trial_type":"instructions","trial_index":0,"time_elapsed":110654,"internal_node_id":"0.0-0.0","task_version":"prescreen-v0.3"},{"rt":26773.5,"responses":{"age":"20","gender-categorical":"Male","gender-free-response":"","ethnicity":"Not Hispanic or Latino","race":["White"],"education":"Associate degree","siblings":"4"},"trial_type":"survey-demo","trial_index":1,"time_elapsed":137441,"internal_node_id":"0.0-1.0","task_version":"prescreen-v0.3"},{"responses":{"Q09":"1","Q18":"2","Q04":"2","Q05":"2","Q20":"2","Q03":"1","Q21":"2","Q16":"2","Q19":"2","Q10":"2","Q14":"1","Q11":"2","Q07":"2","Q17":"2","Q12":"2","Q01":"2","Q06":"2","Q13":"1","Q08":"1","Q15":"1","Q02":"2"},"rt":183873.09999999404,"item_order":[8,17,3,4,19,2,20,15,18,9,13,10,6,16,11,0,5,12,7,14,1],"radio_events":[61352.29999999702,64129.09999999404,64510.29999999702,65079.89999999106,65528.89999999106,68027.5,68448.39999999106,81670.89999999106,82729.09999999404,84642,85102.09999999404,85421.09999999404,87020,88075.19999998808,88473,89172.09999999404,131930,132270.19999998808,132699.59999999404,133298.59999999404,133677.5,134596,135285.79999999702],"key_events":[81670.89999999106,82729.09999999404],"mouse_events":[61352.29999999702,63591.79999999702,64129.09999999404,64510.29999999702,65079.89999999106,65528.89999999106,67410.19999998808,68027.5,68448.39999999106,84642,85102.09999999404,85421.09999999404,86541.39999999106,87020,88075.19999998808,88473,88742.09999999404,89172.09999999404,130252.09999999404,130860.59999999404,131930,132270.19999998808,132699.59999999404,133298.59999999404,133677.5,134068.09999999404,134596,135285.79999999702,183868.79999999702],"straightlining":0.7142857142857143,"zigzagging":0.35,"honeypot":0,"survey":"sns","trial_type":"survey-template","trial_index":2,"time_elapsed":321330,"internal_node_id":"0.0-2.0","task_version":"prescreen-v0.3","browser_interactions":6,"infrequency":0.5},{"responses":{"Q09":"2","Q03":"2","Q05":"1","Q12":"1","Q02":"2","Q07":"2","Q08":"2","Q11":"2","Q13":"0","Q04":"3","Q10":"1","Q01":"1","Q06":"1"},"rt":95685.40000000596,"item_order":[8,2,4,11,1,6,7,10,12,3,9,0,5],"radio_events":[3549.2000000029802,5998.5,6537,6958.100000008941,7566.300000011921,7906.9000000059605,8195.300000011921,9734.300000011921,10214.60000000894,10923,12380.70000000298,12664.800000011921,13061,42032.70000000298],"key_events":[],"mouse_events":[2871.7000000029802,3549.2000000029802,4524.300000011921,5310.100000008941,5998.5,6537,6958.100000008941,7566.300000011921,7906.9000000059605,8195.300000011921,9277,9734.300000011921,10214.60000000894,10923,11653.10000000894,12380.70000000298,12664.800000011921,13061,42032.70000000298,95682.20000000298],"straightlining":0.46153846153846156,"zigzagging":0.25,"honeypot":0,"survey":"bisbas","trial_type":"survey-template","trial_index":3,"time_elapsed":417025,"internal_node_id":"0.0-3.0","task_version":"prescreen-v0.3","browser_interactions":2,"infrequency":0},{"responses":{"Q01":"2","Q02":"3","Q03":"1"},"rt":40855.5,"radio_events":[20703.39999999106,26093,28654.09999999404],"key_events":[],"mouse_events":[20703.39999999106,21621,25398.09999999404,26093,27156.09999999404,28654.09999999404,40853.59999999404],"survey":"map","page":1,"trial_type":"survey-map","trial_index":4,"time_elapsed":457888,"internal_node_id":"0.0-4.0","task_version":"prescreen-v0.3","browser_interactions":2},{"responses":{"Q04":"2","Q05":"2","Q06":"3"},"rt":22911.79999999702,"radio_events":[3490.3999999910593,4423,6487.0999999940395],"key_events":[],"mouse_events":[680.5,3051,3490.3999999910593,4423,5609.20000000298,6487.0999999940395,22910.39999999106],"survey":"map","page":2,"trial_type":"survey-map","trial_index":5,"time_elapsed":480805,"internal_node_id":"0.0-5.0","task_version":"prescreen-v0.3","browser_interactions":0},{"responses":{"Q07":"2","Q08":"2","Q09":"1"},"rt":46224.80000001192,"radio_events":[2378.2000000029802,3399.7000000029802,5564.9000000059605],"key_events":[],"mouse_events":[1758.2000000029802,2378.2000000029802,3399.7000000029802,4516.4000000059605,5564.9000000059605,46222.80000001192],"survey":"map","page":3,"trial_type":"survey-map","trial_index":6,"time_elapsed":527037,"internal_node_id":"0.0-6.0","task_version":"prescreen-v0.3","browser_interactions":0},{"responses":{"Q10":"2","Q11":"3","Q12":"3","Q13":"2","Q16":"1","Q14":"3","Q15":"3"},"rt":70769.39999999106,"radio_events":[1485.0999999940395,2495.8999999910593,3648.8999999910593,4626.79999999702,5499.399999991059,6417.5999999940395,6866.199999988079],"key_events":[],"mouse_events":[1485.0999999940395,2495.8999999910593,3140.199999988079,3648.8999999910593,4061.199999988079,4626.79999999702,5499.399999991059,6417.5999999940395,6866.199999988079,70766.19999998808],"survey":"map","page":4,"trial_type":"survey-map","trial_index":7,"time_elapsed":597815,"internal_node_id":"0.0-7.0","task_version":"prescreen-v0.3","browser_interactions":4,"infrequency":1},{"view_history":[{"page_index":0,"viewing_time":1851.5},{"page_index":1,"viewing_time":751}],"rt":2603.7999999970198,"trial_type":"instructions","trial_index":8,"time_elapsed":600422,"internal_node_id":"0.0-8.0","task_version":"prescreen-v0.3"},{"responses":{"01":"No","02":"No","03":"No","04":"No","05":"No","06":"No"},"rt":38488.5,"item_order":[0,1,2,3,4,5],"radio_events":[11048.40000000596,31640.10000000894,32320,33019.20000000298,33688.40000000596,35149.70000000298,38043.60000000894],"checkbox_events":[],"key_events":[],"mouse_events":[0.6000000089406967,9165,10359.20000000298,11048.40000000596,31640.10000000894,31999.5,32320,32668.90000000596,33019.20000000298,33688.40000000596,35149.70000000298,35631.20000000298,37283.20000000298,38043.60000000894,38481.70000000298],"honeypot":0,"survey":"mace","page":1,"trial_type":"survey-mace","trial_index":9,"time_elapsed":638921,"internal_node_id":"0.0-9.0","task_version":"prescreen-v0.3","browser_interactions":4},{"responses":{"01":"No","02":"No","03":"No","04":"No","05":"No","06":"No","07":"No","08":"No"},"rt":14251.79999999702,"item_order":[0,1,2,3,4,5,6,7],"radio_events":[2678.5,3299,3948.9000000059605,4666.0999999940395,5408,6616.70000000298,7394.79999999702,7803.5],"checkbox_events":[],"key_events":[],"mouse_events":[1211.7000000029802,1852.7000000029802,2678.5,3299,3948.9000000059605,4666.0999999940395,5408,6616.70000000298,7394.79999999702,7803.5,14244.29999999702],"honeypot":0,"survey":"mace","page":2,"trial_type":"survey-mace","trial_index":10,"time_elapsed":653182,"internal_node_id":"0.0-10.0","task_version":"prescreen-v0.3","browser_interactions":0},{"responses":{"01":"No","02":"No","03":"No","04":"No"},"rt":35668,"item_order":[0,1,2,3],"radio_events":[26441.5,28827.40000000596,29960.90000000596,35247.20000000298],"checkbox_events":[],"key_events":[],"mouse_events":[25603.60000000894,26441.5,27602.60000000894,28827.40000000596,29960.90000000596,30260.60000000894,33494.70000000298,34515.70000000298,35247.20000000298,35663.70000000298],"honeypot":0,"survey":"mace","page":3,"trial_type":"survey-mace","trial_index":11,"time_elapsed":688861,"internal_node_id":"0.0-11.0","task_version":"prescreen-v0.3","browser_interactions":2},{"responses":{"01":"No","02":"No"},"rt":7392.79999999702,"item_order":[0,1],"radio_events":[3890.7000000029802,4398.79999999702],"checkbox_events":[],"key_events":[],"mouse_events":[3890.7000000029802,4398.79999999702,7390.0999999940395],"honeypot":0,"survey":"mace","page":4,"trial_type":"survey-mace","trial_index":12,"time_elapsed":696260,"internal_node_id":"0.0-12.0","task_version":"prescreen-v0.3","browser_interactions":0},{"responses":{"01":"No","02":"No","03":"No","04":"No","05":"No"},"rt":48160.70000000298,"item_order":[0,1,2,3,4],"radio_events":[822.7000000029802,1493.2999999970198,3131.0999999940395,3609.5,4029.7999999970198],"checkbox_events":[],"key_events":[],"mouse_events":[822.7000000029802,1493.2999999970198,2033.0999999940395,3131.0999999940395,3609.5,4029.7999999970198,48154.59999999404],"honeypot":0,"survey":"mace","page":5,"trial_type":"survey-mace","trial_index":13,"time_elapsed":744420,"internal_node_id":"0.0-13.0","task_version":"prescreen-v0.3","browser_interactions":2},{"responses":{"01":"No","02":"No","03":"No","04":"No","05":"No"},"rt":21768.70000000298,"item_order":[0,1,2,3,4],"radio_events":[2985,3834.5,4614.29999999702,5032.70000000298,6120.79999999702],"checkbox_events":[],"key_events":[],"mouse_events":[2340.2000000029802,2985,3834.5,4203.20000000298,4614.29999999702,5032.70000000298,6120.79999999702,21763.5],"honeypot":0,"survey":"mace","page":6,"trial_type":"survey-mace","trial_index":14,"time_elapsed":766197,"internal_node_id":"0.0-14.0","task_version":"prescreen-v0.3","browser_interactions":0},{"responses":{"01":"No","02":"No","03":"No","04":"No","05":"No","06":"No","07":"No"},"rt":15885.800000011921,"item_order":[0,1,2,3,4,5,6],"radio_events":[1008.5,1509,2347.7000000029802,3585.300000011921,3905.2000000029802,4925.300000011921,5944.20000000298],"checkbox_events":[],"key_events":[],"mouse_events":[1008.5,1509,1906.7000000029802,2347.7000000029802,2828.300000011921,3225.9000000059605,3585.300000011921,3905.2000000029802,4925.300000011921,5196.300000011921,5944.20000000298,15879],"honeypot":0,"survey":"mace","page":7,"trial_type":"survey-mace","trial_index":15,"time_elapsed":782093,"internal_node_id":"0.0-15.0","task_version":"prescreen-v0.3","browser_interactions":0},{"responses":{"01":"No","02":"No","03":"No","04":"No"},"rt":54077.60000000894,"item_order":[0,1,2,3],"radio_events":[14874.70000000298,27078.10000000894,27828.5,49612.60000000894,51039.60000000894],"checkbox_events":[19050.79999999702,19340.70000000298,19700.40000000596,19889.79999999702,24495.90000000596,25223.5],"key_events":[],"mouse_events":[14413.40000000596,14874.70000000298,18785.79999999702,19050.79999999702,19340.70000000298,19700.40000000596,19889.79999999702,24495.90000000596,25223.5,26257.10000000894,27078.10000000894,27828.5,46757.70000000298,48298.20000000298,49612.60000000894,51039.60000000894,54073.29999999702],"honeypot":0,"survey":"mace","page":8,"trial_type":"survey-mace","trial_index":16,"time_elapsed":836183,"internal_node_id":"0.0-16.0","task_version":"prescreen-v0.3","browser_interactions":0},{"responses":{"01":"Yes","01_ages_1":"1","01_ages_2":"2","01_ages_3":"3","01_ages_4":"4","01_ages_5":"5","01_ages_6":"6","01_ages_7":"7","01_ages_8":"8","01_ages_9":"9","01_ages_10":"10","01_ages_11":"11","01_ages_12":"12","01_ages_13":"13","01_ages_14":"14","01_ages_15":"15","01_ages_16":"16","01_ages_17":"17","01_ages_18":"18","02":"Yes","02_ages_1":"1","02_ages_2":"2","02_ages_3":"3","02_ages_4":"4","02_ages_5":"5","02_ages_6":"6","02_ages_7":"7","02_ages_8":"8","02_ages_9":"9","02_ages_10":"10","02_ages_11":"11","02_ages_12":"12","02_ages_13":"13","02_ages_14":"14","02_ages_15":"15","02_ages_16":"16","02_ages_17":"17","02_ages_18":"18","03":"Yes","03_ages_1":"1","03_ages_2":"2","03_ages_3":"3","03_ages_4":"4","03_ages_5":"5","03_ages_6":"6","03_ages_7":"7","03_ages_8":"8","03_ages_9":"9","03_ages_10":"10","03_ages_11":"11","03_ages_12":"12","03_ages_13":"13","03_ages_14":"14","03_ages_15":"15","03_ages_16":"16","03_ages_17":"17","03_ages_18":"18","04":"Yes","04_ages_1":"1","04_ages_2":"2","04_ages_3":"3","04_ages_4":"4","04_ages_5":"5","04_ages_6":"6","04_ages_7":"7","04_ages_8":"8","04_ages_9":"9","04_ages_10":"10","04_ages_11":"11","04_ages_12":"12","04_ages_13":"13","04_ages_14":"14","04_ages_15":"15","04_ages_16":"16","04_ages_17":"17","04_ages_18":"18"},"rt":94360,"item_order":[0,1,2,3],"radio_events":[1664.3999999910593,4466,21494.09999999404,71865.29999999702,72555.29999999702],"checkbox_events":[8992.39999999106,9411.29999999702,9944.09999999404,10322.59999999404,10590.5,11080.5,11610.29999999702,11920.89999999106,12680.39999999106,13057.79999999702,13288.29999999702,13768.29999999702,14297.20000000298,14803.29999999702,15336.89999999106,15967.70000000298,16634.39999999106,17036.59999999404,17555.09999999404,17924,18263.89999999106,18693.09999999404,22994.70000000298,23432.79999999702,23961.5,24413.29999999702,24790.70000000298,25201.39999999106,25661.70000000298,26081.09999999404,26450.70000000298,26819.59999999404,27352.39999999106,27748.5,28168.70000000298,28548.89999999106,29019,29458.09999999404,29935.79999999702,30446.79999999702,30797.70000000298,31425.70000000298,78521.20000000298,78916.59999999404,79265.09999999404,79655.89999999106,80026,80356.5,80775.09999999404,81096.5,81675.59999999404,82052.5,82482.70000000298,82822.70000000298,83172.29999999702,83491.89999999106,83851.5,84223.5,84620.59999999404,84960.20000000298,85711.89999999106,86008.59999999404,86339,86610.39999999106,87049.09999999404,87368.79999999702,87679,87939.09999999404,88220.70000000298,88487,88797.59999999404,89086,89475.89999999106,90046.70000000298,90395.70000000298,90788.09999999404,91372.20000000298,91764.39999999106,92163.39999999106,92592.09999999404],"key_events":[],"mouse_events":[1664.3999999910593,3429.2999999970198,4466,8396.5,8992.39999999106,9411.29999999702,9944.09999999404,10322.59999999404,10590.5,11080.5,11610.29999999702,11920.89999999106,12680.39999999106,13057.79999999702,13288.29999999702,13768.29999999702,14297.20000000298,14803.29999999702,15336.89999999106,15967.70000000298,16634.39999999106,17036.59999999404,17555.09999999404,17924,18263.89999999106,18693.09999999404,21494.09999999404,22994.70000000298,23432.79999999702,23961.5,24413.29999999702,24790.70000000298,25201.39999999106,25661.70000000298,26081.09999999404,26450.70000000298,26819.59999999404,27352.39999999106,27748.5,28168.70000000298,28548.89999999106,29019,29458.09999999404,29935.79999999702,30446.79999999702,30797.70000000298,31425.70000000298,71865.29999999702,72555.29999999702,78521.20000000298,78916.59999999404,79265.09999999404,79655.89999999106,80026,80356.5,80775.09999999404,81096.5,81675.59999999404,82052.5,82482.70000000298,82822.70000000298,83172.29999999702,83491.89999999106,83851.5,84223.5,84620.59999999404,84960.20000000298,85711.89999999106,86008.59999999404,86339,86610.39999999106,87049.09999999404,87368.79999999702,87679,87939.09999999404,88220.70000000298,88487,88797.59999999404,89086,89475.89999999106,90046.70000000298,90395.70000000298,90788.09999999404,91372.20000000298,91764.39999999106,92163.39999999106,92592.09999999404,94356.09999999404],"honeypot":0,"survey":"mace","page":9,"trial_type":"survey-mace","trial_index":17,"time_elapsed":930550,"internal_node_id":"0.0-17.0","task_version":"prescreen-v0.3","browser_interactions":2},{"responses":{"01":"No","02":"No","03":"No","04":"No","05":"No","06":"Yes","06_ages_17":"17","07":"Yes","07_ages_1":"1","07_ages_2":"2","07_ages_3":"3","07_ages_4":"4","07_ages_5":"5","07_ages_6":"6","07_ages_7":"7","07_ages_8":"8","07_ages_9":"9","07_ages_10":"10","07_ages_11":"11","07_ages_12":"12","07_ages_13":"13","07_ages_14":"14","07_ages_15":"15","07_ages_16":"16","07_ages_17":"17","07_ages_18":"18","08":"Yes","08_ages_1":"1","08_ages_2":"2","08_ages_3":"3","08_ages_4":"4","08_ages_5":"5","08_ages_6":"6","08_ages_7":"7","08_ages_8":"8","08_ages_9":"9","08_ages_10":"10","08_ages_11":"11","08_ages_12":"12","08_ages_13":"13","08_ages_14":"14","08_ages_15":"15","08_ages_16":"16","08_ages_17":"17","08_ages_18":"18"},"rt":49942.39999999106,"item_order":[0,1,2,3,4,5,6,7],"radio_events":[4859.199999988079,8349.79999999702,12139.39999999106,14629.59999999404,18418.5,19043.39999999106,22863.29999999702,23311.69999998808,25381.29999999702,38952.19999998808],"checkbox_events":[17438.59999999404,26884.19999998808,27250.19999998808,27570.39999999106,27930.59999999404,29372.59999999404,29761.89999999106,30341.29999999702,30812.29999999702,31253.39999999106,31589.89999999106,32020,32359.09999999404,32689.29999999702,33238.59999999404,33640.09999999404,34049.19999998808,34307.5,35077.39999999106,39809.09999999404,40166.5,40537.5,40898.39999999106,41710,42089.69999998808,42478.29999999702,42807.69999998808,43157.59999999404,43495.39999999106,43907.5,44347.79999999702,44845.29999999702,45384.5,45733.69999998808,46174.39999999106,46624.79999999702,46963.19999998808,47324.69999998808,47563.39999999106],"key_events":[],"mouse_events":[4241.5,4859.199999988079,5826.5,6492.0999999940395,7561.399999991059,8349.79999999702,12139.39999999106,14629.59999999404,17438.59999999404,18418.5,19043.39999999106,22863.29999999702,23311.69999998808,25381.29999999702,26884.19999998808,27250.19999998808,27570.39999999106,27930.59999999404,29372.59999999404,29761.89999999106,30341.29999999702,30812.29999999702,31253.39999999106,31589.89999999106,32020,32359.09999999404,32689.29999999702,33238.59999999404,33640.09999999404,34049.19999998808,34307.5,35077.39999999106,37995.19999998808,38952.19999998808,39809.09999999404,40166.5,40537.5,40898.39999999106,41710,42089.69999998808,42478.29999999702,42807.69999998808,43157.59999999404,43495.39999999106,43907.5,44347.79999999702,44845.29999999702,45384.5,45733.69999998808,46174.39999999106,46624.79999999702,46963.19999998808,47324.69999998808,47563.39999999106,49933.59999999404],"honeypot":0,"survey":"mace","page":10,"trial_type":"survey-mace","trial_index":18,"time_elapsed":980503,"internal_node_id":"0.0-18.0","task_version":"prescreen-v0.3","browser_interactions":0,"instructed":0},{"rt":1802.2000000029802,"trial_type":"mental-health-alert","trial_index":19,"time_elapsed":982309,"internal_node_id":"0.0-19.0","task_version":"prescreen-v0.3","interactions":"[{\"event\":\"blur\",\"trial\":0,\"time\":96139},{\"event\":\"focus\",\"trial\":0,\"time\":108158},{\"event\":\"blur\",\"trial\":1,\"time\":119850},{\"event\":\"focus\",\"trial\":1,\"time\":123752},{\"event\":\"blur\",\"trial\":1,\"time\":128394},{\"event\":\"focus\",\"trial\":1,\"time\":131434},{\"event\":\"blur\",\"trial\":2,\"time\":138201},{\"event\":\"focus\",\"trial\":2,\"time\":194620},{\"event\":\"blur\",\"trial\":2,\"time\":235618},{\"event\":\"focus\",\"trial\":2,\"time\":265795},{\"event\":\"blur\",\"trial\":2,\"time\":281396},{\"event\":\"focus\",\"trial\":2,\"time\":290190},{\"event\":\"blur\",\"trial\":3,\"time\":367726},{\"event\":\"focus\",\"trial\":3,\"time\":407095},{\"event\":\"blur\",\"trial\":4,\"time\":418671},{\"event\":\"focus\",\"trial\":4,\"time\":435926},{\"event\":\"blur\",\"trial\":7,\"time\":537263},{\"event\":\"focus\",\"trial\":7,\"time\":552859},{\"event\":\"blur\",\"trial\":7,\"time\":555389},{\"event\":\"focus\",\"trial\":7,\"time\":585469},{\"event\":\"blur\",\"trial\":9,\"time\":603565},{\"event\":\"focus\",\"trial\":9,\"time\":608336},{\"event\":\"blur\",\"trial\":9,\"time\":613474},{\"event\":\"focus\",\"trial\":9,\"time\":617655},{\"event\":\"blur\",\"trial\":11,\"time\":654279},{\"event\":\"focus\",\"trial\":11,\"time\":676502},{\"event\":\"blur\",\"trial\":13,\"time\":727627},{\"event\":\"focus\",\"trial\":13,\"time\":733433},{\"event\":\"blur\",\"trial\":17,\"time\":870867},{\"event\":\"focus\",\"trial\":17,\"time\":904379}]"}]