[{"view_history":[{"page_index":0,"viewing_time":9481.900000035763},{"page_index":1,"viewing_time":4162.399999976158},{"page_index":2,"viewing_time":3076.800000011921},{"page_index":3,"viewing_time":1357.3999999761581}],"rt":18080.400000035763,"trial_type":"instructions","trial_index":0,"time_elapsed":18094,"internal_node_id":"0.0-0.0","task_version":"prescreen-v0.3"},{"rt":14015.400000035763,"responses":{"age":"25","gender-categorical":"Female","gender-free-response":"","ethnicity":"Not Hispanic or Latino","race":["White"],"education":"Master degree or higher"},"trial_type":"survey-demo","trial_index":1,"time_elapsed":32118,"internal_node_id":"0.0-1.0","task_version":"prescreen-v0.3"},{"responses":{"Q13":"0","Q18":"0","Q14":"1","Q15":"2","Q17":"1","Q03":"0","Q08":"0","Q10":"0","Q06":"0","Q12":"0","Q07":"0","Q20":"0","Q02":"0","Q21":"3","Q19":"0","Q09":"0","Q05":"1","Q04":"0","Q11":"0","Q16":"2","Q01":"1"},"rt":95922.10000002384,"item_order":[12,17,13,14,16,2,7,9,5,11,6,19,1,20,18,8,4,3,10,15,0],"radio_events":[7509.600000023842,10092.699999988079,14516.100000023842,18597.30000001192,24034.69999998808,26467.80000001192,27590.5,36097,39941.39999997616,45608,48695.30000001192,50165.10000002384,51867.10000002384,55059.10000002384,61102.69999998808,64271.5,68998.60000002384,75029.5,83635.19999998808,86446.69999998808,92955.19999998808,95137.39999997616],"key_events":[],"mouse_events":[7509.600000023842,10092.699999988079,14516.100000023842,18597.30000001192,24034.69999998808,26467.80000001192,27590.5,36097,39941.39999997616,45608,48695.30000001192,50165.10000002384,51867.10000002384,55059.10000002384,61102.69999998808,64271.5,68998.60000002384,75029.5,83635.19999998808,86446.69999998808,92955.19999998808,95137.39999997616,95918.39999997616],"straightlining":0.6666666666666666,"zigzagging":0.45,"honeypot":0,"survey":"sns","trial_type":"survey-template","trial_index":2,"time_elapsed":128051,"internal_node_id":"0.0-2.0","task_version":"prescreen-v0.3","browser_interactions":0,"infrequency":0},{"responses":{"Q06":"3","Q02":"1","Q08":"3","Q03":"3","Q11":"3","Q13":"0","Q05":"3","Q10":"2","Q07":"3","Q04":"3","Q12":"2","Q01":"3","Q09":"3"},"rt":108407.19999998808,"item_order":[5,1,7,2,10,12,4,9,6,3,11,0,8],"radio_events":[10572.5,25763.400000035763,30329.400000035763,37601,41893.5,45417.40000003576,47785.90000003576,53888.5,56167.90000003576,95623.30000001192,98524.19999998808,103410.90000003576,108049.80000001192],"key_events":[],"mouse_events":[10572.5,25763.400000035763,30329.400000035763,37601,41893.5,44690.40000003576,45417.40000003576,47785.90000003576,53888.5,56167.90000003576,95623.30000001192,98524.19999998808,103410.90000003576,108049.80000001192,108403.80000001192],"straightlining":0.6923076923076923,"zigzagging":0.5,"honeypot":0,"survey":"bisbas","trial_type":"survey-template","trial_index":3,"time_elapsed":236466,"internal_node_id":"0.0-3.0","task_version":"prescreen-v0.3","browser_interactions":2,"infrequency":0},{"responses":{"Q01":"3","Q02":"2","Q03":"3"},"rt":65230.19999998808,"radio_events":[48653.89999997616,49316.799999952316,58537.89999997616,64534.799999952316],"key_events":[],"mouse_events":[48653.89999997616,49316.799999952316,58537.89999997616,64534.799999952316,65228.69999998808],"survey":"map","page":1,"trial_type":"survey-map","trial_index":4,"time_elapsed":301702,"internal_node_id":"0.0-4.0","task_version":"prescreen-v0.3","browser_interactions":0},{"responses":{"Q04":"3","Q05":"3","Q06":"3"},"rt":27929.5,"radio_events":[6450.900000035763,23555.100000023842,27377.900000035763],"key_events":[],"mouse_events":[6450.900000035763,23555.100000023842,27377.900000035763,27927.700000047684],"survey":"map","page":2,"trial_type":"survey-map","trial_index":5,"time_elapsed":329636,"internal_node_id":"0.0-5.0","task_version":"prescreen-v0.3","browser_interactions":0},{"responses":{"Q07":"4","Q08":"4","Q09":"4"},"rt":26405.80000001192,"radio_events":[6547.899999976158,16561.399999976158,25780.80000001192],"key_events":[],"mouse_events":[6547.899999976158,16561.399999976158,25780.80000001192,26404],"survey":"map","page":3,"trial_type":"survey-map","trial_index":6,"time_elapsed":356047,"internal_node_id":"0.0-6.0","task_version":"prescreen-v0.3","browser_interactions":0},{"responses":{"Q10":"2","Q11":"3","Q12":"1","Q13":"1","Q16":"0","Q14":"2","Q15":"3"},"rt":105666.5,"radio_events":[6296.899999976158,9158.899999976158,23790.5,29916.399999976158,35702.69999998808,40146.5,101113.29999995232,104766.69999998808],"key_events":[],"mouse_events":[6296.899999976158,9158.899999976158,23790.5,29916.399999976158,35702.69999998808,40146.5,101113.29999995232,104766.69999998808,105663.19999998808],"survey":"map","page":4,"trial_type":"survey-map","trial_index":7,"time_elapsed":461720,"internal_node_id":"0.0-7.0","task_version":"prescreen-v0.3","browser_interactions":0,"infrequency":0},{"view_history":[{"page_index":0,"viewing_time":19639.900000035763},{"page_index":1,"viewing_time":130494.09999996424}],"rt":150135.30000001192,"trial_type":"instructions","trial_index":8,"time_elapsed":611860,"internal_node_id":"0.0-8.0","task_version":"prescreen-v0.3"},{"responses":{"01":"No","02":"No","03":"No","04":"No","05":"No","06":"No"},"rt":67711.19999998808,"item_order":[0,1,2,3,4,5],"radio_events":[43973.30000001192,61672.89999997616,63265.59999996424,64492.89999997616,65827,67096.39999997616],"checkbox_events":[],"key_events":[],"mouse_events":[0.09999996423721313,43973.30000001192,61672.89999997616,63265.59999996424,64492.89999997616,65827,67096.39999997616,67702.59999996424],"honeypot":0,"survey":"mace","page":1,"trial_type":"survey-mace","trial_index":9,"time_elapsed":679582,"internal_node_id":"0.0-9.0","task_version":"prescreen-v0.3","browser_interactions":0},{"responses":{"01":"No","02":"No","03":"No","04":"No","05":"No","06":"No","07":"No","08":"No"},"rt":60521.40000003576,"item_order":[0,1,2,3,4,5,6,7],"radio_events":[3428.199999988079,4802.800000011921,7728.900000035763,9329.199999988079,37011.19999998808,58051.69999998808,58980.90000003576,59926.19999998808],"checkbox_events":[],"key_events":[],"mouse_events":[3428.199999988079,4802.800000011921,7728.900000035763,9329.199999988079,37011.19999998808,58051.69999998808,58980.90000003576,59926.19999998808,60509.19999998808],"honeypot":0,"survey":"mace","page":2,"trial_type":"survey-mace","trial_index":10,"time_elapsed":740111,"internal_node_id":"0.0-10.0","task_version":"prescreen-v0.3","browser_interactions":0},{"responses":{"01":"No","02":"No","03":"No","04":"No"},"rt":28418.100000023842,"item_order":[0,1,2,3],"radio_events":[21794.19999998808,24946.600000023842,26142.69999998808,26886.80000001192],"checkbox_events":[],"key_events":[],"mouse_events":[21794.19999998808,24946.600000023842,26142.69999998808,26886.80000001192,28411.69999998808],"honeypot":0,"survey":"mace","page":3,"trial_type":"survey-mace","trial_index":11,"time_elapsed":768534,"internal_node_id":"0.0-11.0","task_version":"prescreen-v0.3","browser_interactions":0},{"responses":{"01":"No","02":"No"},"rt":10843.199999988079,"item_order":[0,1],"radio_events":[3564.399999976158,9076.899999976158],"checkbox_events":[],"key_events":[],"mouse_events":[3564.399999976158,9076.899999976158,10839.300000011921],"honeypot":0,"survey":"mace","page":4,"trial_type":"survey-mace","trial_index":12,"time_elapsed":779381,"internal_node_id":"0.0-12.0","task_version":"prescreen-v0.3","browser_interactions":0},{"responses":{"01":"No","02":"No","03":"No","04":"No","05":"No"},"rt":13283.300000011921,"item_order":[0,1,2,3,4],"radio_events":[6050.199999988079,7852.600000023842,9468.900000035763,11538.5,12613.199999988079],"checkbox_events":[],"key_events":[],"mouse_events":[6050.199999988079,7852.600000023842,9468.900000035763,11538.5,12613.199999988079,13275.600000023842],"honeypot":0,"survey":"mace","page":5,"trial_type":"survey-mace","trial_index":13,"time_elapsed":792670,"internal_node_id":"0.0-13.0","task_version":"prescreen-v0.3","browser_interactions":0},{"responses":{"01":"Yes","01_ages_13":"13","01_ages_14":"14","01_ages_15":"15","02":"Yes","02_ages_12":"12","02_ages_13":"13","02_ages_14":"14","02_ages_15":"15","02_ages_16":"16","02_ages_17":"17","03":"Yes","03_ages_15":"15","03_ages_16":"16","03_ages_17":"17","03_ages_18":"18","04":"No","05":"No"},"rt":59388.80000001192,"item_order":[0,1,2,3,4],"radio_events":[15180.699999988079,33664.90000003576,45961,54140.5,56144.90000003576,58854.80000001192],"checkbox_events":[24460,25031.5,25510.19999998808,38191.80000001192,38644.40000003576,39096.5,39554.80000001192,40122.40000003576,40720.30000001192,47717.5,48299,48856.80000001192,49543.19999998808],"key_events":[],"mouse_events":[15180.699999988079,24460,25031.5,25510.19999998808,33664.90000003576,38191.80000001192,38644.40000003576,39096.5,39554.80000001192,40122.40000003576,40720.30000001192,45961,47717.5,48299,48856.80000001192,49543.19999998808,54140.5,56144.90000003576,58854.80000001192,59381.10000002384],"honeypot":0,"survey":"mace","page":6,"trial_type":"survey-mace","trial_index":14,"time_elapsed":852065,"internal_node_id":"0.0-14.0","task_version":"prescreen-v0.3","browser_interactions":0},{"responses":{"01":"No","02":"No","03":"No","04":"No","05":"No","06":"No","07":"No"},"rt":123034.20000004768,"item_order":[0,1,2,3,4,5,6],"radio_events":[3985.5,98488.40000003576,105794.40000003576,106958.5,119725.60000002384,121262.30000001192,122231.40000003576],"checkbox_events":[],"key_events":[],"mouse_events":[3985.5,98488.40000003576,102389.40000003576,105794.40000003576,106958.5,119725.60000002384,121262.30000001192,122231.40000003576,123023.60000002384],"honeypot":0,"survey":"mace","page":7,"trial_type":"survey-mace","trial_index":15,"time_elapsed":975106,"internal_node_id":"0.0-15.0","task_version":"prescreen-v0.3","browser_interactions":0},{"responses":{"01":"No","02":"No","03":"No","04":"No"},"rt":45278.69999998808,"item_order":[0,1,2,3],"radio_events":[7939.600000023842,40389.10000002384,42862.69999998808,44697.80000001192],"checkbox_events":[],"key_events":[],"mouse_events":[7939.600000023842,40389.10000002384,42862.69999998808,44697.80000001192,45271.89999997616],"honeypot":0,"survey":"mace","page":8,"trial_type":"survey-mace","trial_index":16,"time_elapsed":1020390,"internal_node_id":"0.0-16.0","task_version":"prescreen-v0.3","browser_interactions":0},{"responses":{"01":"Yes","01_ages_1":"1","01_ages_2":"2","01_ages_3":"3","01_ages_4":"4","01_ages_5":"5","01_ages_6":"6","01_ages_7":"7","01_ages_8":"8","01_ages_9":"9","01_ages_10":"10","01_ages_11":"11","01_ages_12":"12","01_ages_13":"13","01_ages_14":"14","01_ages_15":"15","01_ages_16":"16","01_ages_17":"17","01_ages_18":"18","02":"Yes","02_ages_1":"1","02_ages_2":"2","02_ages_3":"3","02_ages_4":"4","02_ages_5":"5","02_ages_6":"6","02_ages_7":"7","02_ages_8":"8","02_ages_9":"9","02_ages_10":"10","02_ages_11":"11","02_ages_12":"12","02_ages_13":"13","02_ages_14":"14","02_ages_15":"15","02_ages_16":"16","02_ages_17":"17","02_ages_18":"18","03":"Yes","03_ages_1":"1","03_ages_2":"2","03_ages_3":"3","03_ages_4":"4","03_ages_5":"5","03_ages_6":"6","03_ages_7":"7","03_ages_8":"8","03_ages_9":"9","03_ages_10":"10","03_ages_11":"11","03_ages_12":"12","03_ages_13":"13","03_ages_14":"14","03_ages_15":"15","03_ages_16":"16","03_ages_17":"17","03_ages_18":"18","04":"Yes","04_ages_1":"1","04_ages_2":"2","04_ages_3":"3","04_ages_4":"4","04_ages_5":"5","04_ages_6":"6","04_ages_7":"7","04_ages_8":"8","04_ages_9":"9","04_ages_10":"10","04_ages_11":"11","04_ages_12":"12","04_ages_13":"13","04_ages_14":"14","04_ages_15":"15","04_ages_16":"16","04_ages_17":"17","04_ages_18":"18"},"rt":104737.80000001192,"item_order":[0,1,2,3],"radio_events":[11781.400000035763,29775.80000001192,54624.80000001192,87216.10000002384],"checkbox_events":[14416.400000035763,15580.100000023842,16016.400000035763,16647.100000023842,17083.80000001192,17697.69999998808,18215.19999998808,18586.600000023842,19185.19999998808,19628,20057,20915.30000001192,21893,22483,23057.400000035763,23510,23987.100000023842,24561,30890.80000001192,31344,31933.600000023842,32596.5,33049.40000003576,33815.80000001192,34277.40000003576,34787.19999998808,35474.30000001192,36080.90000003576,36686.80000001192,37446.5,38125.80000001192,38667.40000003576,39321.80000001192,39895.90000003576,40526.30000001192,41229.69999998808,55619,56071.10000002384,56645.30000001192,57154.40000003576,57841.40000003576,58352,59255.60000002384,59807.60000002384,60500.90000003576,60994,61559.5,62388.10000002384,62974.10000002384,63814.80000001192,64582.60000002384,65148.10000002384,66182.30000001192,66748.69999998808,88864.90000003576,89818.60000002384,90586.60000002384,91079.80000001192,91734.30000001192,93003,93552.80000001192,94166.69999998808,94902.80000001192,95694.69999998808,96446.19999998808,97008.40000003576,98095.19999998808,98798.80000001192,99493.69999998808,100172.60000002384,101578,102266],"key_events":[],"mouse_events":[11781.400000035763,14416.400000035763,14884.900000035763,15580.100000023842,16016.400000035763,16647.100000023842,17083.80000001192,17697.69999998808,18215.19999998808,18586.600000023842,19185.19999998808,19628,20057,20915.30000001192,21375.80000001192,21893,22483,23057.400000035763,23510,23987.100000023842,24561,29775.80000001192,30890.80000001192,31344,31933.600000023842,32596.5,33049.40000003576,33815.80000001192,34277.40000003576,34787.19999998808,35474.30000001192,36080.90000003576,36686.80000001192,37446.5,38125.80000001192,38667.40000003576,39321.80000001192,39895.90000003576,40526.30000001192,41229.69999998808,54624.80000001192,55619,56071.10000002384,56645.30000001192,57154.40000003576,57841.40000003576,58352,59255.60000002384,59807.60000002384,60500.90000003576,60994,61559.5,62388.10000002384,62974.10000002384,63814.80000001192,64582.60000002384,65148.10000002384,65609.10000002384,66182.30000001192,66748.69999998808,87216.10000002384,88864.90000003576,89365.40000003576,89818.60000002384,90586.60000002384,91079.80000001192,91734.30000001192,92413.5,93003,93552.80000001192,94166.69999998808,94902.80000001192,95694.69999998808,96446.19999998808,97008.40000003576,97634.30000001192,98095.19999998808,98798.80000001192,99493.69999998808,100172.60000002384,101578,102266,104731.10000002384],"honeypot":0,"survey":"mace","page":9,"trial_type":"survey-mace","trial_index":17,"time_elapsed":1125133,"internal_node_id":"0.0-17.0","task_version":"prescreen-v0.3","browser_interactions":0},{"responses":{"01":"No","02":"No","03":"No","04":"No","05":"No","06":"Yes","06_ages_17":"17","07":"Yes","07_ages_1":"1","07_ages_2":"2","07_ages_3":"3","07_ages_4":"4","07_ages_5":"5","07_ages_6":"6","07_ages_7":"7","07_ages_8":"8","07_ages_9":"9","07_ages_10":"10","07_ages_11":"11","07_ages_12":"12","07_ages_13":"13","07_ages_14":"14","07_ages_15":"15","07_ages_16":"16","07_ages_17":"17","07_ages_18":"18","08":"Yes","08_ages_1":"1","08_ages_2":"2","08_ages_3":"3","08_ages_4":"4","08_ages_5":"5","08_ages_6":"6","08_ages_7":"7","08_ages_8":"8","08_ages_9":"9","08_ages_10":"10","08_ages_11":"11","08_ages_12":"12","08_ages_13":"13","08_ages_14":"14","08_ages_15":"15","08_ages_16":"16","08_ages_17":"17","08_ages_18":"18"},"rt":52396.60000002384,"item_order":[0,1,2,3,4,5,6,7],"radio_events":[7280,8887.900000035763,10480.5,11894.900000035763,17360.30000001192,18726.900000035763,23698.19999998808,38885.40000003576],"checkbox_events":[20222.100000023842,26216.900000035763,26745.30000001192,27407.80000001192,27868.19999998808,28336.900000035763,29015.900000035763,29460.400000035763,30503.30000001192,30988.400000035763,31604.19999998808,32233.30000001192,32912.10000002384,33469.80000001192,34269.80000001192,34825.10000002384,35664.90000003576,36290.80000001192,37061.10000002384,40567.19999998808,41254.30000001192,42152,42814.10000002384,43420.19999998808,44511.19999998808,45053.10000002384,45635.30000001192,46459.60000002384,46961.19999998808,47510.69999998808,48311.10000002384,48884.60000002384,49353.30000001192,50063.69999998808,50590.40000003576,51116,51867.10000002384],"key_events":[],"mouse_events":[3431.900000035763,7280,8887.900000035763,10480.5,11894.900000035763,17360.30000001192,18726.900000035763,20222.100000023842,23698.19999998808,26216.900000035763,26745.30000001192,27407.80000001192,27868.19999998808,28336.900000035763,29015.900000035763,29460.400000035763,29905.30000001192,30503.30000001192,30988.400000035763,31604.19999998808,32233.30000001192,32912.10000002384,33469.80000001192,34269.80000001192,34825.10000002384,35664.90000003576,36290.80000001192,37061.10000002384,38885.40000003576,40567.19999998808,41254.30000001192,41754.80000001192,42152,42814.10000002384,43420.19999998808,44511.19999998808,45053.10000002384,45635.30000001192,46459.60000002384,46961.19999998808,47510.69999998808,48311.10000002384,48884.60000002384,49353.30000001192,50063.69999998808,50590.40000003576,51116,51867.10000002384,52385.30000001192],"honeypot":0,"survey":"mace","page":10,"trial_type":"survey-mace","trial_index":18,"time_elapsed":1177537,"internal_node_id":"0.0-18.0","task_version":"prescreen-v0.3","browser_interactions":0,"instructed":0},{"rt":7491.899999976158,"trial_type":"mental-health-alert","trial_index":19,"time_elapsed":1185033,"internal_node_id":"0.0-19.0","task_version":"prescreen-v0.3","interactions":"[{\"event\":\"blur\",\"trial\":3,\"time\":192034},{\"event\":\"focus\",\"trial\":3,\"time\":201683}]"}]