[{"view_history":[{"page_index":0,"viewing_time":27094},{"page_index":1,"viewing_time":4447.400000095367},{"page_index":2,"viewing_time":2798.0999999046326},{"page_index":3,"viewing_time":1361.3000001907349}],"rt":35703.5,"trial_type":"instructions","trial_index":0,"time_elapsed":35742,"internal_node_id":"0.0-0.0","task_version":"prescreen-v0.3"},{"rt":19563.799999952316,"responses":{"age":"22","gender-categorical":"Female","gender-free-response":"","ethnicity":"Not Hispanic or Latino","race":["White"],"education":"Some college"},"trial_type":"survey-demo","trial_index":1,"time_elapsed":55323,"internal_node_id":"0.0-1.0","task_version":"prescreen-v0.3"},{"responses":{"Q02":"2","Q08":"2","Q01":"2","Q10":"3","Q05":"1","Q04":"2","Q18":"2","Q15":"3","Q14":"3","Q09":"2","Q03":"1","Q07":"1","Q11":"2","Q17":"1","Q12":"3","Q19":"1","Q20":"0","Q16":"1","Q06":"0","Q13":"3","Q21":"3"},"rt":95248.89999985695,"item_order":[1,7,0,9,4,3,17,14,13,8,2,6,10,16,11,18,19,15,5,12,20],"radio_events":[6236.399999856949,8637.099999904633,11885.599999904633,15696.799999952316,20501.199999809265,25312.699999809265,27615.5,35653.5,38722.199999809265,42587.59999990463,47896.799999952316,55446.5,57389.89999985695,62885.299999952316,66215.19999980927,72021.89999985695,75830.89999985695,79037,82803.29999995232,86665.29999995232,88096.29999995232,92055.19999980927,93487.69999980927],"key_events":[],"mouse_events":[3814.699999809265,4942.399999856949,6236.399999856949,8637.099999904633,10657.799999952316,11885.599999904633,15696.799999952316,20501.199999809265,25312.699999809265,27615.5,28515.299999952316,35653.5,38722.199999809265,41521.39999985695,42587.59999990463,46971.89999985695,47896.799999952316,51870.799999952316,53148.39999985695,55446.5,57389.89999985695,61880.5,62885.299999952316,63635.59999990463,65199.39999985695,66215.19999980927,66936.59999990463,72021.89999985695,75830.89999985695,79037,82803.29999995232,86665.29999995232,88096.29999995232,92055.19999980927,93487.69999980927,95241.79999995232],"straightlining":0.3333333333333333,"zigzagging":0.55,"honeypot":0,"survey":"sns","trial_type":"survey-template","trial_index":2,"time_elapsed":150597,"internal_node_id":"0.0-2.0","task_version":"prescreen-v0.3","browser_interactions":0,"infrequency":0},{"responses":{"Q08":"2","Q11":"1","Q07":"3","Q01":"3","Q13":"0","Q05":"3","Q10":"1","Q12":"0","Q02":"3","Q04":"3","Q03":"3","Q06":"3","Q09":"1"},"rt":68608.90000009537,"item_order":[7,10,6,0,12,4,9,11,1,3,2,5,8],"radio_events":[13385.200000047684,19219.200000047684,23781.099999904633,29137.200000047684,31151.900000095367,36234.799999952316,38746.299999952316,39832.40000009537,46885.700000047684,53293,56744.5,60003.700000047684,62125.09999990463,67412.09999990463],"key_events":[],"mouse_events":[9756.5,13385.200000047684,19219.200000047684,22550.700000047684,23781.099999904633,29137.200000047684,31151.900000095367,36234.799999952316,38746.299999952316,39832.40000009537,40927,45437,46885.700000047684,49989.5,52340.200000047684,53293,54144.59999990463,56744.5,58805.59999990463,60003.700000047684,62125.09999990463,66300.90000009537,67412.09999990463,68605.09999990463],"straightlining":0.5384615384615384,"zigzagging":0.4166666666666667,"honeypot":0,"survey":"bisbas","trial_type":"survey-template","trial_index":3,"time_elapsed":219227,"internal_node_id":"0.0-3.0","task_version":"prescreen-v0.3","browser_interactions":0,"infrequency":0},{"responses":{"Q01":"2","Q02":"2","Q03":"3"},"rt":21655.39999985695,"radio_events":[9562.199999809265,14267.799999952316,20623.89999985695],"key_events":[],"mouse_events":[9562.199999809265,14267.799999952316,20623.89999985695,21653.5],"survey":"map","page":1,"trial_type":"survey-map","trial_index":4,"time_elapsed":240900,"internal_node_id":"0.0-4.0","task_version":"prescreen-v0.3","browser_interactions":0},{"responses":{"Q04":"3","Q05":"2","Q06":"2"},"rt":23412.799999952316,"radio_events":[6925.099999904633,20564.799999952316,22221.5],"key_events":[],"mouse_events":[6925.099999904633,17826.900000095367,19629.599999904633,20564.799999952316,21401.900000095367,22221.5,23410.799999952316],"survey":"map","page":2,"trial_type":"survey-map","trial_index":5,"time_elapsed":264329,"internal_node_id":"0.0-5.0","task_version":"prescreen-v0.3","browser_interactions":0},{"responses":{"Q07":"2","Q08":"3","Q09":"2"},"rt":39698.700000047684,"radio_events":[32547.599999904633,33907.700000047684,38475.700000047684],"key_events":[],"mouse_events":[2991.7999999523163,3755.7000000476837,10514.700000047684,29067,32547.599999904633,33907.700000047684,37453.700000047684,38475.700000047684,39696.90000009537],"survey":"map","page":3,"trial_type":"survey-map","trial_index":6,"time_elapsed":304044,"internal_node_id":"0.0-6.0","task_version":"prescreen-v0.3","browser_interactions":0},{"responses":{"Q10":"1","Q11":"2","Q12":"1","Q13":"3","Q16":"0","Q14":"1","Q15":"2"},"rt":51815.199999809265,"radio_events":[5776.099999904633,10478.299999952316,13586,27210.299999952316,31168.39999985695,39409.199999809265,49724.299999952316],"key_events":[],"mouse_events":[5776.099999904633,10478.299999952316,13586,25768.699999809265,27210.299999952316,27809.5,31168.39999985695,32149.89999985695,35264.89999985695,38392.89999985695,39409.199999809265,48726.199999809265,49724.299999952316,50626.699999809265,51812.09999990463],"survey":"map","page":4,"trial_type":"survey-map","trial_index":7,"time_elapsed":355876,"internal_node_id":"0.0-7.0","task_version":"prescreen-v0.3","browser_interactions":0,"infrequency":0},{"view_history":[{"page_index":0,"viewing_time":2492.2000000476837},{"page_index":1,"viewing_time":8045.799999952316}],"rt":10540.799999952316,"trial_type":"instructions","trial_index":8,"time_elapsed":366428,"internal_node_id":"0.0-8.0","task_version":"prescreen-v0.3"},{"responses":{"01":"Yes","01_ages_10":"10","01_ages_11":"11","01_ages_12":"12","01_ages_13":"13","01_ages_14":"14","01_ages_15":"15","01_ages_16":"16","02":"Yes","02_ages_13":"13","02_ages_14":"14","03":"Yes","03_ages_12":"12","03_ages_13":"13","03_ages_14":"14","04":"No","05":"No","06":"No"},"rt":86264.89999985695,"item_order":[0,1,2,3,4,5],"radio_events":[16240.399999856949,46121,56785,74912.29999995232,77852.19999980927,81072.29999995232],"checkbox_events":[21953.89999985695,23645,24591,25643.099999904633,26463.199999809265,28580.699999809265,33437,50673.89999985695,52212.89999985695,61055,61716.199999809265,62766.799999952316,64297.799999952316,65510.5,66289.69999980927,67172.5,69412.5,70644.59999990463],"key_events":[],"mouse_events":[0.19999980926513672,16240.399999856949,21953.89999985695,22755.89999985695,23645,24591,25643.099999904633,26463.199999809265,28580.699999809265,33437,34439.09999990463,46121,50673.89999985695,51441.5,52212.89999985695,53064.699999809265,56785,61055,61716.199999809265,62766.799999952316,63551.09999990463,64297.799999952316,65510.5,66289.69999980927,67172.5,67960.39999985695,69412.5,70644.59999990463,71367.09999990463,74912.29999995232,75663.5,77852.19999980927,81072.29999995232,81813,86255.59999990463],"honeypot":0,"survey":"mace","page":1,"trial_type":"survey-mace","trial_index":9,"time_elapsed":452718,"internal_node_id":"0.0-9.0","task_version":"prescreen-v0.3","browser_interactions":0},{"responses":{"01":"No","02":"No","03":"Yes","03_ages_5":"5","03_ages_6":"6","03_ages_7":"7","03_ages_8":"8","03_ages_9":"9","04":"No","05":"No","06":"No","07":"No","08":"No"},"rt":43008.300000190735,"item_order":[0,1,2,3,4,5,6,7],"radio_events":[3943.4000000953674,11356.400000095367,12770.600000143051,31197.300000190735,33965.40000009537,36862.10000014305,40374.60000014305,41960.90000009537],"checkbox_events":[17115.700000047684,18156.400000095367,18949.300000190735,20762.900000095367,22124.60000014305,23857.10000014305,27588.200000047684],"key_events":[],"mouse_events":[1568.7000000476837,3943.4000000953674,4873.700000047684,8587.100000143051,10402.900000095367,11356.400000095367,12770.600000143051,16736.10000014305,17115.700000047684,18156.400000095367,18949.300000190735,19693.400000095367,19917.700000047684,20762.900000095367,22124.60000014305,22876.10000014305,23857.10000014305,27588.200000047684,28412.900000095367,31197.300000190735,32113.5,33965.40000009537,34689.90000009537,36862.10000014305,37523.60000014305,40374.60000014305,41960.90000009537,42996.40000009537],"honeypot":0,"survey":"mace","page":2,"trial_type":"survey-mace","trial_index":10,"time_elapsed":495747,"internal_node_id":"0.0-10.0","task_version":"prescreen-v0.3","browser_interactions":0},{"responses":{"01":"No","02":"No","03":"No","04":"No"},"rt":16125.699999809265,"item_order":[0,1,2,3],"radio_events":[8847.399999856949,12440.599999904633,13766.799999952316,15337.399999856949],"checkbox_events":[],"key_events":[],"mouse_events":[8847.399999856949,11081.5,12440.599999904633,13766.799999952316,15337.399999856949,16119.199999809265],"honeypot":0,"survey":"mace","page":3,"trial_type":"survey-mace","trial_index":11,"time_elapsed":511891,"internal_node_id":"0.0-11.0","task_version":"prescreen-v0.3","browser_interactions":0},{"responses":{"01":"No","02":"No"},"rt":9588.299999952316,"item_order":[0,1],"radio_events":[5316.700000047684,8620.799999952316],"checkbox_events":[],"key_events":[],"mouse_events":[5316.700000047684,7426.400000095367,8620.799999952316,9584.799999952316],"honeypot":0,"survey":"mace","page":4,"trial_type":"survey-mace","trial_index":12,"time_elapsed":521495,"internal_node_id":"0.0-12.0","task_version":"prescreen-v0.3","browser_interactions":0},{"responses":{"01":"No","02":"No","03":"No","04":"No","05":"No"},"rt":31763.200000047684,"item_order":[0,1,2,3,4],"radio_events":[8392.900000095367,15088.600000143051,17790.900000095367,29400.400000095367,30917.10000014305],"checkbox_events":[],"key_events":[],"mouse_events":[1568,8392.900000095367,9196.5,12363.100000143051,14185.299999952316,15088.600000143051,16622,17790.900000095367,18691.400000095367,26432.200000047684,29400.400000095367,30917.10000014305,31756.299999952316],"honeypot":0,"survey":"mace","page":5,"trial_type":"survey-mace","trial_index":13,"time_elapsed":553276,"internal_node_id":"0.0-13.0","task_version":"prescreen-v0.3","browser_interactions":0},{"responses":{"01":"Yes","01_ages_12":"12","01_ages_13":"13","01_ages_14":"14","01_ages_15":"15","01_ages_16":"16","02":"Yes","02_ages_9":"9","02_ages_10":"10","02_ages_11":"11","02_ages_12":"12","02_ages_13":"13","02_ages_14":"14","02_ages_15":"15","02_ages_16":"16","03":"Yes","03_ages_9":"9","03_ages_10":"10","03_ages_11":"11","03_ages_12":"12","03_ages_13":"13","03_ages_14":"14","04":"No","05":"No"},"rt":71273.10000014305,"item_order":[0,1,2,3,4],"radio_events":[7491.5,28761.799999952316,46299.799999952316,65521.60000014305,70235.60000014305],"checkbox_events":[10062.200000047684,11592.600000143051,12415,13472.400000095367,14349,15266.200000047684,16125.299999952316,17512.200000047684,18731.200000047684,21427.700000047684,22570.5,24079.900000095367,25255.200000047684,32276.5,33049.90000009537,33945.200000047684,34868.10000014305,35807.5,37566.5,38428.200000047684,39567.200000047684,49917.700000047684,50678.700000047684,52641,54556.40000009537,55575.60000014305,56363.299999952316],"key_events":[],"mouse_events":[2130.9000000953674,7491.5,10062.200000047684,10907.700000047684,11592.600000143051,12415,13472.400000095367,14349,15266.200000047684,16125.299999952316,17512.200000047684,18731.200000047684,21427.700000047684,22570.5,24079.900000095367,25255.200000047684,28761.799999952316,31105.10000014305,31484.400000095367,32276.5,33049.90000009537,33945.200000047684,34868.10000014305,35807.5,37195.200000047684,37566.5,38428.200000047684,39567.200000047684,40388.60000014305,45148.700000047684,46299.799999952316,48069.5,49447.5,49917.700000047684,50678.700000047684,52263,52641,53512.5,54556.40000009537,55575.60000014305,56363.299999952316,57305.299999952316,64417.700000047684,65521.60000014305,66384.29999995232,70235.60000014305,71265.40000009537],"honeypot":0,"survey":"mace","page":6,"trial_type":"survey-mace","trial_index":14,"time_elapsed":624567,"internal_node_id":"0.0-14.0","task_version":"prescreen-v0.3","browser_interactions":0},{"responses":{"01":"No","02":"No","03":"No","04":"No","05":"No","06":"No","07":"No"},"rt":28593.699999809265,"item_order":[0,1,2,3,4,5,6],"radio_events":[5435.699999809265,7019.899999856949,11477.799999952316,20111.799999952316,21296,24876,27818.299999952316],"checkbox_events":[],"key_events":[],"mouse_events":[1775.7999999523163,5435.699999809265,7019.899999856949,8445.399999856949,9548.299999952316,11477.799999952316,20111.799999952316,21296,22414.799999952316,24876,26122,27818.299999952316,28582.799999952316],"honeypot":0,"survey":"mace","page":7,"trial_type":"survey-mace","trial_index":15,"time_elapsed":653178,"internal_node_id":"0.0-15.0","task_version":"prescreen-v0.3","browser_interactions":0},{"responses":{"01":"Yes","01_ages_12":"12","01_ages_13":"13","01_ages_14":"14","01_ages_15":"15","01_ages_16":"16","01_ages_17":"17","01_ages_18":"18","02":"Yes","02_ages_12":"12","02_ages_13":"13","02_ages_14":"14","02_ages_15":"15","02_ages_16":"16","02_ages_17":"17","02_ages_18":"18","03":"No","04":"Yes","04_ages_11":"11","04_ages_12":"12","04_ages_13":"13","04_ages_14":"14","04_ages_15":"15","04_ages_16":"16","04_ages_17":"17","04_ages_18":"18"},"rt":66248.79999995232,"item_order":[0,1,2,3],"radio_events":[8308.399999856949,26470.299999952316,50758.799999952316,50977.799999952316,55016.39999985695],"checkbox_events":[17772.5,19169.89999985695,20017.299999952316,21087.299999952316,21834.299999952316,22659.5,23400.599999904633,24300.599999904633,25113.099999904633,28156.699999809265,29719.89999985695,31291.299999952316,32743.5,33473.799999952316,34205.299999952316,34971.89999985695,36884.299999952316,37993.59999990463,39147.699999809265,40062.39999985695,41263.199999809265,42171.699999809265,57127.39999985695,57800.299999952316,59327.199999809265,60191.39999985695,61248.89999985695,62051.09999990463,62822.199999809265,63529.199999809265],"key_events":[],"mouse_events":[8308.399999856949,17772.5,18797,19169.89999985695,20017.299999952316,21087.299999952316,21834.299999952316,22659.5,23400.599999904633,24300.599999904633,25113.099999904633,26470.299999952316,28156.699999809265,28866.699999809265,29719.89999985695,30594.099999904633,31291.299999952316,32743.5,33473.799999952316,34205.299999952316,34971.89999985695,36506.699999809265,36884.299999952316,37993.59999990463,39147.699999809265,40062.39999985695,41263.199999809265,42171.699999809265,43227.5,50758.799999952316,50977.799999952316,53813.299999952316,55016.39999985695,57127.39999985695,57800.299999952316,58928.5,59327.199999809265,60191.39999985695,61248.89999985695,62051.09999990463,62822.199999809265,63529.199999809265,64240.89999985695,66242.19999980927],"honeypot":0,"survey":"mace","page":8,"trial_type":"survey-mace","trial_index":16,"time_elapsed":719446,"internal_node_id":"0.0-16.0","task_version":"prescreen-v0.3","browser_interactions":0},{"responses":{"01":"Yes","01_ages_1":"1","01_ages_2":"2","01_ages_3":"3","01_ages_4":"4","01_ages_5":"5","01_ages_6":"6","01_ages_7":"7","01_ages_8":"8","01_ages_9":"9","01_ages_10":"10","01_ages_11":"11","01_ages_12":"12","01_ages_13":"13","01_ages_14":"14","01_ages_15":"15","01_ages_16":"16","01_ages_17":"17","01_ages_18":"18","02":"Yes","02_ages_1":"1","02_ages_2":"2","02_ages_3":"3","02_ages_4":"4","02_ages_5":"5","02_ages_6":"6","02_ages_7":"7","02_ages_8":"8","02_ages_9":"9","02_ages_10":"10","02_ages_11":"11","02_ages_12":"12","02_ages_13":"13","02_ages_14":"14","02_ages_15":"15","02_ages_16":"16","02_ages_17":"17","02_ages_18":"18","03":"Yes","03_ages_1":"1","03_ages_2":"2","03_ages_3":"3","03_ages_4":"4","03_ages_5":"5","03_ages_6":"6","03_ages_7":"7","03_ages_8":"8","03_ages_9":"9","03_ages_10":"10","03_ages_11":"11","03_ages_12":"12","03_ages_13":"13","03_ages_14":"14","03_ages_15":"15","03_ages_16":"16","03_ages_17":"17","03_ages_18":"18","04":"Yes","04_ages_1":"1","04_ages_2":"2","04_ages_3":"3","04_ages_4":"4","04_ages_5":"5","04_ages_6":"6","04_ages_7":"7","04_ages_8":"8","04_ages_9":"9","04_ages_10":"10","04_ages_11":"11","04_ages_12":"12","04_ages_13":"13","04_ages_14":"14","04_ages_15":"15","04_ages_16":"16","04_ages_17":"17","04_ages_18":"18"},"rt":106075.5,"item_order":[0,1,2,3],"radio_events":[5410.100000143051,8590.400000095367,14093.100000143051,16951.5],"checkbox_events":[25235.700000047684,26161.5,27516.5,28256.900000095367,29995.5,31000.900000095367,31803,32634.400000095367,33349.700000047684,34149.90000009537,35357.700000047684,36816.60000014305,37647.90000009537,38523.799999952316,39317,40043.40000009537,41879.299999952316,43266.799999952316,45335.299999952316,46154.90000009537,47799.60000014305,48713.799999952316,49827.40000009537,50584.299999952316,51630.799999952316,52008.90000009537,52964.799999952316,53686.60000014305,54614.60000014305,55493.60000014305,56332.90000009537,57840.200000047684,58634,59423,60649,62086.299999952316,63712.5,64530.90000009537,65953.90000009537,67552.79999995232,68682.29999995232,69658.70000004768,70458.29999995232,71329.90000009537,72160.10000014305,72968.40000009537,73756.70000004768,74706.5,75630.5,76471.60000014305,77374.40000009537,78356.40000009537,79308.40000009537,80979.20000004768,81990.79999995232,82925.10000014305,86280.29999995232,87127.40000009537,88626.5,89535.60000014305,90376.70000004768,91207.5,92846.60000014305,93715.5,94509,95426,96998.40000009537,98665.10000014305,99619.70000004768,100504.20000004768,101363.90000009537,102309.5,103359.29999995232,104377.29999995232],"key_events":[],"mouse_events":[5410.100000143051,8590.400000095367,10042.799999952316,14093.100000143051,15025.900000095367,16951.5,18396.60000014305,23247.299999952316,24740.60000014305,25235.700000047684,26161.5,26791.200000047684,27516.5,28256.900000095367,29638.299999952316,29995.5,31000.900000095367,31803,32634.400000095367,33349.700000047684,34149.90000009537,35357.700000047684,36108,36816.60000014305,37647.90000009537,38523.799999952316,39317,40043.40000009537,41879.299999952316,43266.799999952316,44457.5,45335.299999952316,46154.90000009537,47405.200000047684,47799.60000014305,48713.799999952316,49827.40000009537,50584.299999952316,51630.799999952316,52008.90000009537,52964.799999952316,53686.60000014305,54614.60000014305,55493.60000014305,56332.90000009537,57170.10000014305,57840.200000047684,58634,59423,60649,62086.299999952316,63017,63712.5,64530.90000009537,65953.90000009537,67173.10000014305,67552.79999995232,68682.29999995232,69658.70000004768,70458.29999995232,71329.90000009537,72160.10000014305,72968.40000009537,73756.70000004768,74706.5,75630.5,76471.60000014305,77374.40000009537,78356.40000009537,79308.40000009537,80220.10000014305,80979.20000004768,81990.79999995232,82925.10000014305,83780.79999995232,86280.29999995232,87127.40000009537,87949.90000009537,88626.5,89535.60000014305,90376.70000004768,91207.5,92021.10000014305,92846.60000014305,93715.5,94509,95426,96356.79999995232,96998.40000009537,97884.70000004768,98665.10000014305,99619.70000004768,100504.20000004768,101363.90000009537,102309.5,103359.29999995232,104377.29999995232,106069],"honeypot":0,"survey":"mace","page":9,"trial_type":"survey-mace","trial_index":17,"time_elapsed":825541,"internal_node_id":"0.0-17.0","task_version":"prescreen-v0.3","browser_interactions":0},{"responses":{"01":"No","02":"No","03":"Yes","03_ages_11":"11","03_ages_12":"12","03_ages_13":"13","03_ages_14":"14","03_ages_15":"15","03_ages_16":"16","03_ages_17":"17","03_ages_18":"18","04":"Yes","04_ages_11":"11","04_ages_12":"12","04_ages_13":"13","04_ages_14":"14","05":"No","06":"Yes","06_ages_17":"17","07":"Yes","07_ages_1":"1","07_ages_2":"2","07_ages_3":"3","07_ages_4":"4","07_ages_5":"5","07_ages_6":"6","07_ages_7":"7","07_ages_8":"8","07_ages_9":"9","07_ages_10":"10","07_ages_11":"11","07_ages_12":"12","07_ages_13":"13","07_ages_14":"14","07_ages_15":"15","07_ages_16":"16","07_ages_17":"17","07_ages_18":"18","08":"Yes","08_ages_1":"1","08_ages_2":"2","08_ages_3":"3","08_ages_4":"4","08_ages_5":"5","08_ages_6":"6","08_ages_7":"7","08_ages_8":"8","08_ages_9":"9","08_ages_10":"10","08_ages_11":"11","08_ages_12":"12","08_ages_13":"13","08_ages_14":"14","08_ages_15":"15","08_ages_16":"16","08_ages_17":"17","08_ages_18":"18"},"rt":95967.29999995232,"item_order":[0,1,2,3,4,5,6,7],"radio_events":[4280,6879.899999856949,9353.299999952316,28316.700000047684,39822.299999952316,41283.59999990463,49152.89999985695,54009.59999990463,59145.799999952316,77869.70000004768],"checkbox_events":[10575.399999856949,11978.799999952316,12943.799999952316,13722.399999856949,15262.099999904633,17520.599999904633,18812.39999985695,20058.799999952316,29857.799999952316,31191.799999952316,32002,32933,42942.799999952316,60843.299999952316,61390.89999985695,61902,63133.799999952316,63627.5,64231,65411.5,66514.39999985695,67071.79999995232,67596.59999990463,68694.5,69194.29999995232,70203.89999985695,70689.79999995232,71294.5,72700.59999990463,73252.79999995232,74182.39999985695,79372.09999990463,80850.29999995232,81760.39999985695,82440.79999995232,83037.59999990463,83813.20000004768,84667.29999995232,85313,86705.59999990463,87735.39999985695,88437.79999995232,89076.79999995232,89743.39999985695,90382.09999990463,91560.70000004768,92200.29999995232,92775.79999995232,93552.89999985695],"key_events":[],"mouse_events":[1317.0999999046326,4280,5157.5,6879.899999856949,9353.299999952316,10575.399999856949,11280.899999856949,11978.799999952316,12943.799999952316,13722.399999856949,14519,15262.099999904633,17520.599999904633,18812.39999985695,20058.799999952316,20887.89999985695,26345.89999985695,27359.700000047684,28316.700000047684,29857.799999952316,31191.799999952316,32002,32933,33802,39822.299999952316,41283.59999990463,42942.799999952316,43696.59999990463,47849.5,49152.89999985695,50884.09999990463,54009.59999990463,54909.299999952316,59145.799999952316,60843.299999952316,61390.89999985695,61902,62419.799999952316,63133.799999952316,63627.5,64231,64918.200000047684,65411.5,65856.20000004768,66514.39999985695,67071.79999995232,67596.59999990463,68694.5,69194.29999995232,70203.89999985695,70689.79999995232,71294.5,72700.59999990463,73252.79999995232,74182.39999985695,75196.5,77869.70000004768,79372.09999990463,80065.89999985695,80850.29999995232,81760.39999985695,82440.79999995232,83037.59999990463,83813.20000004768,84667.29999995232,85313,86705.59999990463,87252.5,87735.39999985695,88437.79999995232,89076.79999995232,89743.39999985695,90382.09999990463,91560.70000004768,92200.29999995232,92775.79999995232,93552.89999985695,94300.5,95956.29999995232],"honeypot":0,"survey":"mace","page":10,"trial_type":"survey-mace","trial_index":18,"time_elapsed":921530,"internal_node_id":"0.0-18.0","task_version":"prescreen-v0.3","browser_interactions":0,"instructed":0},{"rt":4589.899999856949,"trial_type":"mental-health-alert","trial_index":19,"time_elapsed":926134,"internal_node_id":"0.0-19.0","task_version":"prescreen-v0.3","interactions":"[{\"event\":\"blur\",\"trial\":8,\"time\":359978},{\"event\":\"focus\",\"trial\":8,\"time\":361251}]"}]