[{"view_history":[{"page_index":0,"viewing_time":4005},{"page_index":1,"viewing_time":3105},{"page_index":2,"viewing_time":4086},{"page_index":3,"viewing_time":1212}],"rt":12408,"trial_type":"instructions","trial_index":0,"time_elapsed":12410,"internal_node_id":"0.0-0.0","task_version":"prescreen-v0.3"},{"rt":14174,"responses":{"age":"25","gender-categorical":"Male","gender-free-response":"","ethnicity":"Hispanic or Latino","race":["White"],"education":"Associate degree","siblings":"3"},"trial_type":"survey-demo","trial_index":1,"time_elapsed":26588,"internal_node_id":"0.0-1.0","task_version":"prescreen-v0.3"},{"responses":{"Q06":"3","Q09":"0","Q21":"3","Q10":"0","Q02":"0","Q03":"0","Q19":"0","Q15":"2","Q16":"0","Q14":"0","Q07":"2","Q12":"0","Q17":"0","Q04":"1","Q18":"0","Q11":"0","Q13":"1","Q05":"2","Q20":"1","Q01":"0","Q08":"1"},"rt":74193,"item_order":[5,8,20,9,1,2,18,14,15,13,6,11,16,3,17,10,12,4,19,0,7],"radio_events":[6332,8862,11436,14195,17672,19735,23461,28215,31416,35057,38999,40992,44082,45776,48897,52032,53649,56085,65942,68056,69844,73476],"key_events":[],"mouse_events":[6041,6332,8862,11045,11436,13875,14195,17276,17672,19735,23461,28215,31416,35057,38999,40582,40992,44082,45776,48897,52032,53340,53649,56085,65942,68056,69844,73476,74193],"straightlining":0.5714285714285714,"zigzagging":0.5,"honeypot":0,"survey":"sns","trial_type":"survey-template","trial_index":2,"time_elapsed":100784,"internal_node_id":"0.0-2.0","task_version":"prescreen-v0.3","browser_interactions":0,"infrequency":0},{"responses":{"Q09":"3","Q01":"0","Q10":"3","Q06":"3","Q04":"0","Q07":"3","Q02":"0","Q13":"0","Q12":"3","Q11":"3","Q08":"3","Q03":"0","Q05":"3"},"rt":36362,"item_order":[8,0,9,5,3,6,1,12,11,10,7,2,4],"radio_events":[4339,6493,9623,10319,12744,15153,16892,18685,20769,24170,27856,30185,33652,35644],"key_events":[],"mouse_events":[4339,6493,8642,9623,9914,10319,12744,15153,16892,18685,20769,24170,27856,30185,33350,33652,35644,36362],"straightlining":0.6153846153846154,"zigzagging":0.6666666666666666,"honeypot":0,"survey":"bisbas","trial_type":"survey-template","trial_index":3,"time_elapsed":137149,"internal_node_id":"0.0-3.0","task_version":"prescreen-v0.3","browser_interactions":0,"infrequency":0},{"responses":{"Q01":"3","Q02":"2","Q03":"3"},"rt":15776,"radio_events":[4440,8071,9118,12104,15240],"key_events":[],"mouse_events":[4440,4966,5413,8071,8832,9118,12104,15240,15776],"survey":"map","page":1,"trial_type":"survey-map","trial_index":4,"time_elapsed":152927,"internal_node_id":"0.0-4.0","task_version":"prescreen-v0.3","browser_interactions":0},{"responses":{"Q04":"3","Q05":"3","Q06":"3"},"rt":9511,"radio_events":[3724,6861,8610],"key_events":[],"mouse_events":[3724,6861,8610,9511],"survey":"map","page":2,"trial_type":"survey-map","trial_index":5,"time_elapsed":162439,"internal_node_id":"0.0-5.0","task_version":"prescreen-v0.3","browser_interactions":0},{"responses":{"Q07":"2","Q08":"3","Q09":"2"},"rt":15826,"radio_events":[4531,7606,11694,13987],"key_events":[],"mouse_events":[4531,7606,11694,13291,13987,15826],"survey":"map","page":3,"trial_type":"survey-map","trial_index":6,"time_elapsed":178267,"internal_node_id":"0.0-6.0","task_version":"prescreen-v0.3","browser_interactions":0},{"responses":{"Q10":"2","Q11":"2","Q12":"1","Q13":"2","Q16":"0","Q14":"4","Q15":"4"},"rt":46837,"radio_events":[5708,9559,14985,20599,23634,27261,30823,36443,39353,43556,45854],"key_events":[],"mouse_events":[5708,9559,14449,14985,19683,20599,23634,26565,26927,27261,30437,30823,36443,39353,43214,43556,45854,46837],"survey":"map","page":4,"trial_type":"survey-map","trial_index":7,"time_elapsed":225106,"internal_node_id":"0.0-7.0","task_version":"prescreen-v0.3","browser_interactions":0,"infrequency":0},{"view_history":[{"page_index":0,"viewing_time":2968},{"page_index":1,"viewing_time":3977}],"rt":6945,"trial_type":"instructions","trial_index":8,"time_elapsed":232052,"internal_node_id":"0.0-8.0","task_version":"prescreen-v0.3"},{"responses":{"01":"No","02":"No","03":"No","04":"No","05":"No","06":"No"},"rt":53432,"item_order":[0,1,2,3,4,5],"radio_events":[6277,8501,36030,37472,47470,50044,51788],"checkbox_events":[12033,13065,16226,17337,18459,19430,20092,21315,21871,22435,23091,23427,24094,26538,26899,27314,27675,28151,28907,29218,31738,41696,42587,42867,43223,43543,43894,44850,46042,46323,46604,46929],"key_events":[],"mouse_events":[0,6277,8501,12033,13065,16226,17337,17647,18148,18459,19430,19721,20092,21315,21585,21871,22181,22435,22832,23091,23427,23823,24094,26538,26899,27314,27675,28151,28907,29218,31738,36030,37472,41696,42066,42587,42867,43223,43543,43894,44293,44545,44850,45472,45782,46042,46323,46604,46929,47470,49723,50044,51788,53432],"honeypot":0,"survey":"mace","page":1,"trial_type":"survey-mace","trial_index":9,"time_elapsed":285489,"internal_node_id":"0.0-9.0","task_version":"prescreen-v0.3","browser_interactions":0},{"responses":{"01":"No","02":"No","03":"Yes","03_ages_4":"4","03_ages_5":"5","03_ages_6":"6","03_ages_7":"7","03_ages_8":"8","03_ages_9":"9","04":"No","05":"Yes","05_ages_4":"4","05_ages_5":"5","05_ages_6":"6","05_ages_7":"7","05_ages_8":"8","05_ages_9":"9","06":"No","07":"No","08":"No"},"rt":39091,"item_order":[0,1,2,3,4,5,6,7],"radio_events":[4297,6310,8343,10112,20119,21798,29465,30928,32275],"checkbox_events":[11950,12255,12547,12891,14865,15210,15497,15791,18021,23586,24737,25523,25850,26140,26471,26811],"key_events":[],"mouse_events":[4297,6310,8343,9646,10112,11950,12255,12547,12891,13228,14865,15210,15497,15791,18021,19413,20119,21798,23586,24737,25523,25850,26140,26471,26811,29465,30928,32275,39091],"honeypot":0,"survey":"mace","page":2,"trial_type":"survey-mace","trial_index":10,"time_elapsed":324584,"internal_node_id":"0.0-10.0","task_version":"prescreen-v0.3","browser_interactions":0},{"responses":{"01":"No","02":"No","03":"No","04":"No"},"rt":10488,"item_order":[0,1,2,3],"radio_events":[4039,5637,7401,8007],"checkbox_events":[],"key_events":[],"mouse_events":[4039,5637,7154,7401,8007,10488],"honeypot":0,"survey":"mace","page":3,"trial_type":"survey-mace","trial_index":11,"time_elapsed":335075,"internal_node_id":"0.0-11.0","task_version":"prescreen-v0.3","browser_interactions":0},{"responses":{"01":"No","02":"No"},"rt":7354,"item_order":[0,1],"radio_events":[4989,5630],"checkbox_events":[],"key_events":[],"mouse_events":[4989,5630,7354],"honeypot":0,"survey":"mace","page":4,"trial_type":"survey-mace","trial_index":12,"time_elapsed":342432,"internal_node_id":"0.0-12.0","task_version":"prescreen-v0.3","browser_interactions":0},{"responses":{"01":"No","02":"No","03":"No","04":"No","05":"No"},"rt":23989,"item_order":[0,1,2,3,4],"radio_events":[8656,11146,12799,21755,23131],"checkbox_events":[],"key_events":[],"mouse_events":[8656,11146,12799,21755,22777,23131,23989],"honeypot":0,"survey":"mace","page":5,"trial_type":"survey-mace","trial_index":13,"time_elapsed":366425,"internal_node_id":"0.0-13.0","task_version":"prescreen-v0.3","browser_interactions":0},{"responses":{"01":"No","02":"No","03":"No","04":"No","05":"No"},"rt":28343,"item_order":[0,1,2,3,4],"radio_events":[6348,8231,16830,20347,22912,23808,26008],"checkbox_events":[],"key_events":[],"mouse_events":[6348,8231,16830,20347,22551,22912,23808,25160,25731,26008,28343],"honeypot":0,"survey":"mace","page":6,"trial_type":"survey-mace","trial_index":14,"time_elapsed":394771,"internal_node_id":"0.0-14.0","task_version":"prescreen-v0.3","browser_interactions":0},{"responses":{"01":"Yes","01_ages_15":"15","01_ages_16":"16","01_ages_17":"17","01_ages_18":"18","02":"No","03":"Yes","03_ages_15":"15","03_ages_16":"16","03_ages_17":"17","03_ages_18":"18","04":"Yes","04_ages_15":"15","04_ages_16":"16","04_ages_17":"17","04_ages_18":"18","05":"No","06":"No","07":"No"},"rt":34316,"item_order":[0,1,2,3,4,5,6],"radio_events":[3340,9091,11466,17491,22614,23677,24928,30563],"checkbox_events":[4994,5229,5539,6697,18627,18898,19154,19414,19970,21272,31529,31796,32382,32947],"key_events":[],"mouse_events":[3340,4994,5229,5539,6697,9091,11466,14030,14430,17491,18627,18898,19154,19414,19970,21272,22614,23677,24928,30563,31194,31529,31796,32110,32382,32677,32947,34316],"honeypot":0,"survey":"mace","page":7,"trial_type":"survey-mace","trial_index":15,"time_elapsed":429092,"internal_node_id":"0.0-15.0","task_version":"prescreen-v0.3","browser_interactions":0},{"responses":{"01":"Yes","01_ages_9":"9","01_ages_10":"10","01_ages_11":"11","01_ages_12":"12","01_ages_13":"13","01_ages_14":"14","01_ages_15":"15","01_ages_16":"16","01_ages_17":"17","01_ages_18":"18","02":"Yes","02_ages_4":"4","02_ages_5":"5","02_ages_6":"6","02_ages_7":"7","02_ages_8":"8","02_ages_9":"9","02_ages_10":"10","02_ages_11":"11","02_ages_12":"12","02_ages_13":"13","02_ages_14":"14","02_ages_15":"15","02_ages_16":"16","02_ages_17":"17","02_ages_18":"18","03":"No","04":"No"},"rt":47211,"item_order":[0,1,2,3],"radio_events":[6972,20139,31493,36968,45793],"checkbox_events":[10969,11665,12100,12471,13453,13888,15732,16058,16327,16584,22353,22613,23851,24181,24491,24792,25097,25398,25713,26260,26886,27162,27507,27817,28128,42357,42782,44125,45122],"key_events":[],"mouse_events":[6972,9712,10067,10969,11374,11665,12100,12471,13132,13453,13888,15732,16058,16327,16584,19719,20139,22353,22613,22929,23249,23851,24181,24491,24792,25097,25398,25713,26024,26260,26654,26886,27162,27507,27817,28128,31493,36968,42357,42782,44125,44385,45122,45793,47211],"honeypot":0,"survey":"mace","page":8,"trial_type":"survey-mace","trial_index":16,"time_elapsed":476306,"internal_node_id":"0.0-16.0","task_version":"prescreen-v0.3","browser_interactions":0},{"responses":{"01":"Yes","01_ages_1":"1","01_ages_2":"2","01_ages_3":"3","01_ages_4":"4","01_ages_5":"5","01_ages_6":"6","01_ages_7":"7","01_ages_8":"8","01_ages_9":"9","01_ages_10":"10","01_ages_11":"11","01_ages_12":"12","01_ages_13":"13","01_ages_14":"14","01_ages_15":"15","01_ages_16":"16","01_ages_17":"17","01_ages_18":"18","02":"No","03":"Yes","03_ages_3":"3","03_ages_4":"4","03_ages_5":"5","03_ages_6":"6","03_ages_7":"7","03_ages_8":"8","03_ages_9":"9","03_ages_10":"10","03_ages_11":"11","03_ages_12":"12","03_ages_13":"13","03_ages_14":"14","03_ages_15":"15","03_ages_16":"16","03_ages_17":"17","03_ages_18":"18","04":"No"},"rt":42665,"item_order":[0,1,2,3],"radio_events":[5920,20535,26304,38972],"checkbox_events":[11840,12135,12406,12736,13372,13643,14159,14454,14750,15051,15356,15707,16177,16573,17250,17495,17816,18352,27202,27833,28434,28859,29641,29946,30532,30803,31298,31615,32130,33774,34013,34284,34795,35105],"key_events":[],"mouse_events":[5920,11840,12135,12406,12736,13028,13372,13643,14159,14454,14750,15051,15356,15707,16177,16573,16898,17250,17495,17816,18352,20535,26304,27202,27533,27833,28434,28859,29165,29641,29946,30252,30532,30803,31298,31615,32130,32535,33513,33774,34013,34284,34559,34795,35105,38972,42665],"honeypot":0,"survey":"mace","page":9,"trial_type":"survey-mace","trial_index":17,"time_elapsed":518976,"internal_node_id":"0.0-17.0","task_version":"prescreen-v0.3","browser_interactions":0},{"responses":{"01":"No","02":"No","03":"No","04":"Yes","04_ages_4":"4","04_ages_5":"5","04_ages_6":"6","04_ages_7":"7","04_ages_8":"8","04_ages_9":"9","04_ages_10":"10","04_ages_11":"11","04_ages_12":"12","05":"No","06":"Yes","06_ages_17":"17","07":"Yes","07_ages_4":"4","07_ages_5":"5","07_ages_6":"6","07_ages_7":"7","07_ages_8":"8","07_ages_9":"9","07_ages_10":"10","07_ages_11":"11","07_ages_12":"12","07_ages_13":"13","07_ages_14":"14","07_ages_15":"15","07_ages_16":"16","07_ages_17":"17","07_ages_18":"18","08":"Yes","08_ages_4":"4","08_ages_5":"5","08_ages_6":"6","08_ages_7":"7","08_ages_8":"8","08_ages_9":"9","08_ages_10":"10","08_ages_11":"11","08_ages_12":"12","08_ages_13":"13","08_ages_14":"14","08_ages_15":"15","08_ages_16":"16","08_ages_17":"17","08_ages_18":"18"},"rt":56576,"item_order":[0,1,2,3,4,5,6,7],"radio_events":[3970,5081,6694,10291,12119,27766,29795,34192,48053],"checkbox_events":[16315,17303,18254,19637,20042,20659,21034,24821,25087,31117,37524,37813,38846,39492,40088,41100,42187,42733,43143,43484,43865,44211,44607,45247,45578,46235,46534,48844,49120,49700,50005,50627,50903,51269,51594,52170,52781,53613,53953,54210,54646,54971,55372,55661],"key_events":[],"mouse_events":[3970,5081,6694,10291,12119,16315,16611,17027,17303,17993,18254,18820,19301,19637,20042,20659,21034,24069,24821,25087,27766,29795,31117,34192,37524,37813,38846,39247,39492,39847,40088,41100,41696,42187,42482,42733,43143,43484,43865,44211,44607,44957,45247,45578,45944,46235,46534,48053,48844,49120,49461,49700,50005,50627,50903,51269,51594,51905,52170,52522,52781,53112,53613,53953,54210,54646,54971,55372,55661,56576],"honeypot":0,"survey":"mace","page":10,"trial_type":"survey-mace","trial_index":18,"time_elapsed":575557,"internal_node_id":"0.0-18.0","task_version":"prescreen-v0.3","browser_interactions":0,"instructed":0},{"rt":6060,"trial_type":"mental-health-alert","trial_index":19,"time_elapsed":581619,"internal_node_id":"0.0-19.0","task_version":"prescreen-v0.3","interactions":"[{\"event\":\"focus\",\"trial\":0,\"time\":1}]"}]