[{"view_history":[{"page_index":0,"viewing_time":3381},{"page_index":1,"viewing_time":4208},{"page_index":2,"viewing_time":3599},{"page_index":3,"viewing_time":1153}],"rt":12341,"trial_type":"instructions","trial_index":0,"time_elapsed":12353,"internal_node_id":"0.0-0.0","task_version":"prescreen-v0.3"},{"rt":25566,"responses":{"age":"48","gender-categorical":"Male","gender-free-response":"","ethnicity":"Not Hispanic or Latino","race":["White"],"education":"Some college","siblings":"3"},"trial_type":"survey-demo","trial_index":1,"time_elapsed":37931,"internal_node_id":"0.0-1.0","task_version":"prescreen-v0.3"},{"responses":{"Q02":"1","Q13":"1","Q18":"1","Q03":"1","Q07":"2","Q05":"1","Q06":"1","Q14":"2","Q21":"3","Q20":"0","Q11":"1","Q15":"2","Q09":"1","Q12":"0","Q16":"2","Q19":"2","Q17":"2","Q08":"2","Q10":"1","Q04":"3","Q01":"2"},"rt":145017,"item_order":[1,12,17,2,6,4,5,13,20,19,10,14,8,11,15,18,16,7,9,3,0],"radio_events":[17926,27021,31934,35101,47526,53981,61286,71198,74830,77765,84294,93454,98790,104261,111573,116838,124422,129285,132118,138990,144166],"key_events":[],"mouse_events":[17926,27021,31934,35101,47526,53981,61286,71198,74830,77765,84294,93454,98790,104261,111573,116838,124422,129285,132118,138990,144166,145017],"straightlining":0.42857142857142855,"zigzagging":0.55,"honeypot":0,"survey":"sns","trial_type":"survey-template","trial_index":2,"time_elapsed":182955,"internal_node_id":"0.0-2.0","task_version":"prescreen-v0.3","browser_interactions":0,"infrequency":0},{"responses":{"Q12":"1","Q04":"2","Q11":"2","Q13":"0","Q03":"2","Q09":"1","Q06":"2","Q01":"2","Q10":"1","Q08":"2","Q05":"2","Q02":"2","Q07":"2"},"rt":50191,"item_order":[11,3,10,12,2,8,5,0,9,7,4,1,6],"radio_events":[10795,15444,17708,20931,25955,28259,30923,32899,37052,43491,45316,46811,49244],"key_events":[],"mouse_events":[10795,15444,17708,20931,25955,28259,30923,32899,37052,43491,45316,46811,49244,50191],"straightlining":0.6923076923076923,"zigzagging":0.4166666666666667,"honeypot":0,"survey":"bisbas","trial_type":"survey-template","trial_index":3,"time_elapsed":233153,"internal_node_id":"0.0-3.0","task_version":"prescreen-v0.3","browser_interactions":0,"infrequency":0},{"responses":{"Q01":"2","Q02":"1","Q03":"2"},"rt":22712,"radio_events":[8670,14318,21510],"key_events":[],"mouse_events":[8670,14318,21510,22712],"survey":"map","page":1,"trial_type":"survey-map","trial_index":4,"time_elapsed":255870,"internal_node_id":"0.0-4.0","task_version":"prescreen-v0.3","browser_interactions":0},{"responses":{"Q04":"3","Q05":"2","Q06":"3"},"rt":16090,"radio_events":[7392,9936,11376,15176],"key_events":[],"mouse_events":[7392,9936,11376,15176,16090],"survey":"map","page":2,"trial_type":"survey-map","trial_index":5,"time_elapsed":271965,"internal_node_id":"0.0-5.0","task_version":"prescreen-v0.3","browser_interactions":0},{"responses":{"Q07":"4","Q08":"0","Q09":"0"},"rt":21878,"radio_events":[5235,10716,15980,19699],"key_events":[],"mouse_events":[5235,10716,15980,19699,21878],"survey":"map","page":3,"trial_type":"survey-map","trial_index":6,"time_elapsed":293846,"internal_node_id":"0.0-6.0","task_version":"prescreen-v0.3","browser_interactions":0},{"responses":{"Q10":"2","Q11":"2","Q12":"2","Q13":"3","Q16":"0","Q14":"2","Q15":"2"},"rt":41620,"radio_events":[6304,9192,13888,14840,18080,20792,25552,31344,34280,40208],"key_events":[],"mouse_events":[6304,9192,13888,14840,18080,20792,25552,31344,34280,40208,41619],"survey":"map","page":4,"trial_type":"survey-map","trial_index":7,"time_elapsed":335469,"internal_node_id":"0.0-7.0","task_version":"prescreen-v0.3","browser_interactions":0,"infrequency":0},{"view_history":[{"page_index":0,"viewing_time":3217},{"page_index":1,"viewing_time":4487}],"rt":7705,"trial_type":"instructions","trial_index":8,"time_elapsed":343177,"internal_node_id":"0.0-8.0","task_version":"prescreen-v0.3"},{"responses":{"01":"No","02":"No","03":"No","04":"Yes","04_ages_5":"5","05":"No","06":"Yes","06_ages_3":"3"},"rt":81177,"item_order":[0,1,2,3,4,5],"radio_events":[9300,46692,50564,58003,60292,71811,75860],"checkbox_events":[63892,77628],"key_events":[],"mouse_events":[0,9300,46692,50564,58003,60292,63892,71811,75860,77628,81177],"honeypot":0,"survey":"mace","page":1,"trial_type":"survey-mace","trial_index":9,"time_elapsed":424367,"internal_node_id":"0.0-9.0","task_version":"prescreen-v0.3","browser_interactions":0},{"responses":{"01":"Yes","01_ages_3":"3","02":"No","03":"Yes","03_ages_3":"3","03_ages_4":"4","03_ages_5":"5","04":"No","05":"No","06":"No","07":"Yes","07_ages_8":"8","07_ages_9":"9","07_ages_10":"10","07_ages_11":"11","07_ages_12":"12","07_ages_13":"13","07_ages_14":"14","07_ages_15":"15","07_ages_16":"16","07_ages_17":"17","07_ages_18":"18","08":"Yes","08_ages_8":"8","08_ages_9":"9","08_ages_10":"10","08_ages_11":"11","08_ages_12":"12","08_ages_13":"13","08_ages_14":"14","08_ages_15":"15","08_ages_16":"16","08_ages_17":"17","08_ages_18":"18"},"rt":108268,"item_order":[0,1,2,3,4,5,6,7],"radio_events":[6574,14359,30583,36407,38327,45871,47662,93542],"checkbox_events":[8591,32207,32694,33615,55070,55678,56614,59855,61079,62183,62919,64134,64847,65567,68190,70975,71942,95271,95831,96559,97319,98119,99159,100063,100991,101791,102911,103511],"key_events":[],"mouse_events":[6574,8591,14359,30583,32207,32694,33615,36407,38327,45871,47662,55070,55678,56614,59855,61079,62183,62919,64134,64847,65567,68190,70975,71942,93542,95271,95831,96559,97319,98119,99159,100063,100991,101791,102911,103511,108268],"honeypot":0,"survey":"mace","page":2,"trial_type":"survey-mace","trial_index":10,"time_elapsed":532646,"internal_node_id":"0.0-10.0","task_version":"prescreen-v0.3","browser_interactions":0},{"responses":{"01":"No","02":"No","03":"No","04":"No"},"rt":23442,"item_order":[0,1,2,3],"radio_events":[12351,15584,21352,22271],"checkbox_events":[],"key_events":[],"mouse_events":[12351,15584,21352,22271,23442],"honeypot":0,"survey":"mace","page":3,"trial_type":"survey-mace","trial_index":11,"time_elapsed":556095,"internal_node_id":"0.0-11.0","task_version":"prescreen-v0.3","browser_interactions":0},{"responses":{"01":"No","02":"No"},"rt":12210,"item_order":[0,1],"radio_events":[9697,11385],"checkbox_events":[],"key_events":[],"mouse_events":[9697,11385,12210],"honeypot":0,"survey":"mace","page":4,"trial_type":"survey-mace","trial_index":12,"time_elapsed":568310,"internal_node_id":"0.0-12.0","task_version":"prescreen-v0.3","browser_interactions":0},{"responses":{"01":"No","02":"No","03":"No","04":"No","05":"No"},"rt":22577,"item_order":[0,1,2,3,4],"radio_events":[10446,12935,15566,19687,21094],"checkbox_events":[],"key_events":[],"mouse_events":[10446,12935,15566,19687,21094,22577],"honeypot":0,"survey":"mace","page":5,"trial_type":"survey-mace","trial_index":13,"time_elapsed":590896,"internal_node_id":"0.0-13.0","task_version":"prescreen-v0.3","browser_interactions":0},{"responses":{"01":"No","02":"No","03":"No","04":"No","05":"No"},"rt":76791,"item_order":[0,1,2,3,4],"radio_events":[18869,51180,53989,55780,57820,76053],"checkbox_events":[24141,24661,25196,26325,26796,27773,28717,29813,30276,31093,31844,32604,33796,34820,35677,40029,40597,42252,43236,43877,44676,45132,45596,46437,46861,47477,48269,48733,49308,49909],"key_events":[],"mouse_events":[18869,24141,24661,25196,26325,26796,27773,28717,29813,30276,31093,31844,32604,33796,34820,35677,40029,40597,42252,43236,43877,44676,45132,45596,46437,46861,47477,48269,48733,49308,49909,51180,53989,55780,57820,75101,76053,76791],"honeypot":0,"survey":"mace","page":6,"trial_type":"survey-mace","trial_index":14,"time_elapsed":667693,"internal_node_id":"0.0-14.0","task_version":"prescreen-v0.3","browser_interactions":0},{"responses":{"01":"No","02":"Yes","02_ages_8":"8","02_ages_9":"9","02_ages_10":"10","03":"No","04":"No","05":"No","06":"Yes","06_ages_10":"10","07":"Yes","07_ages_10":"10"},"rt":53375,"item_order":[0,1,2,3,4,5,6],"radio_events":[8636,14028,30564,31716,33251,35324,48396],"checkbox_events":[18219,18955,19772,20947,21980,23035,23539,38643,49779],"key_events":[],"mouse_events":[8636,14028,18219,18955,19772,20947,21980,23035,23539,30564,31716,33251,35324,38643,42780,48396,49779,53375],"honeypot":0,"survey":"mace","page":7,"trial_type":"survey-mace","trial_index":15,"time_elapsed":716221,"internal_node_id":"0.0-15.0","task_version":"prescreen-v0.3","browser_interactions":0},{"responses":{"01":"No","02":"Yes","02_ages_8":"8","02_ages_9":"9","02_ages_10":"10","02_ages_11":"11","03":"Yes","03_ages_5":"5","03_ages_6":"6","03_ages_7":"7","03_ages_8":"8","03_ages_9":"9","03_ages_10":"10","03_ages_11":"11","03_ages_12":"12","03_ages_13":"13","03_ages_14":"14","03_ages_15":"15","03_ages_16":"16","03_ages_17":"17","03_ages_18":"18","04":"No"},"rt":80935,"item_order":[0,1,2,3],"radio_events":[9324,38181,39645,53173,75124],"checkbox_events":[26156,27124,27892,29084,30588,34821,35693,36252,40989,41437,42164,43253,60069,60628,61325,61973,62900,63652,64733,65309,66172,66868,67605,68364,69084,69836],"key_events":[],"mouse_events":[9324,26156,27124,27892,29084,30588,34821,35693,36252,38181,39645,40989,41437,42164,43253,53173,60069,60628,61325,61973,62900,63652,64733,65309,66172,66868,67605,68364,69084,69836,75124,80935],"honeypot":0,"survey":"mace","page":8,"trial_type":"survey-mace","trial_index":16,"time_elapsed":797161,"internal_node_id":"0.0-16.0","task_version":"prescreen-v0.3","browser_interactions":0},{"responses":{"01":"Yes","01_ages_1":"1","01_ages_2":"2","01_ages_3":"3","01_ages_4":"4","01_ages_5":"5","01_ages_6":"6","01_ages_7":"7","01_ages_8":"8","01_ages_9":"9","01_ages_10":"10","01_ages_11":"11","01_ages_12":"12","01_ages_13":"13","01_ages_14":"14","01_ages_15":"15","01_ages_16":"16","01_ages_17":"17","01_ages_18":"18","02":"Yes","02_ages_1":"1","02_ages_2":"2","02_ages_3":"3","02_ages_4":"4","02_ages_5":"5","02_ages_6":"6","02_ages_7":"7","02_ages_8":"8","02_ages_9":"9","02_ages_10":"10","02_ages_11":"11","02_ages_12":"12","02_ages_13":"13","02_ages_14":"14","02_ages_15":"15","02_ages_16":"16","02_ages_17":"17","02_ages_18":"18","03":"Yes","03_ages_1":"1","03_ages_2":"2","03_ages_3":"3","03_ages_4":"4","03_ages_5":"5","03_ages_6":"6","03_ages_7":"7","03_ages_8":"8","03_ages_9":"9","03_ages_10":"10","03_ages_11":"11","03_ages_12":"12","03_ages_13":"13","03_ages_14":"14","03_ages_15":"15","03_ages_16":"16","03_ages_17":"17","03_ages_18":"18","04":"Yes","04_ages_1":"1","04_ages_2":"2","04_ages_3":"3","04_ages_4":"4","04_ages_5":"5","04_ages_6":"6","04_ages_7":"7","04_ages_8":"8","04_ages_9":"9","04_ages_10":"10","04_ages_11":"11","04_ages_12":"12","04_ages_13":"13","04_ages_14":"14","04_ages_15":"15","04_ages_16":"16","04_ages_17":"17","04_ages_18":"18"},"rt":96737,"item_order":[0,1,2,3],"radio_events":[5352,34327,55151,75880],"checkbox_events":[12832,13311,14304,14816,16440,17183,18304,19144,20952,21704,23127,25784,26592,27375,28119,28880,29752,30767,35959,36840,38472,39535,40271,40959,41816,42552,43256,43935,44776,45471,46160,47679,49839,50495,52135,52751,59832,60391,61160,62015,63791,64616,65743,66791,67375,68200,68832,69784,70375,71088,71855,72392,73567,74320,81856,82623,83519,84352,85583,86304,86927,87847,88311,89048,89599,91743,92208,93112,93832,94471,95439,96047],"key_events":[],"mouse_events":[5352,12832,13311,14304,14816,16440,17183,18304,19144,20496,20952,21704,22624,23127,25784,26592,27375,28119,28880,29752,30767,34327,35959,36840,38472,39535,40271,40959,41816,42552,43256,43935,44776,45471,46160,47679,49839,50495,51224,52135,52751,55151,59832,60391,61160,62015,63791,64616,65743,66791,67375,68200,68832,69784,70375,71088,71855,72392,73567,74320,75880,81856,82623,83519,84352,85583,86304,86927,87847,88311,89048,89599,91743,92208,93112,93832,94471,95439,96047,96737],"honeypot":0,"survey":"mace","page":9,"trial_type":"survey-mace","trial_index":17,"time_elapsed":893904,"internal_node_id":"0.0-17.0","task_version":"prescreen-v0.3","browser_interactions":0},{"responses":{"01":"No","02":"No","03":"No","04":"Yes","04_ages_16":"16","04_ages_17":"17","04_ages_18":"18","05":"No","06":"Yes","06_ages_17":"17","07":"Yes","07_ages_1":"1","07_ages_2":"2","07_ages_3":"3","07_ages_4":"4","07_ages_5":"5","07_ages_6":"6","07_ages_7":"7","07_ages_8":"8","07_ages_9":"9","07_ages_10":"10","07_ages_11":"11","07_ages_12":"12","07_ages_13":"13","07_ages_14":"14","07_ages_15":"15","07_ages_16":"16","07_ages_17":"17","07_ages_18":"18","08":"Yes","08_ages_1":"1","08_ages_2":"2","08_ages_3":"3","08_ages_4":"4","08_ages_5":"5","08_ages_6":"6","08_ages_7":"7","08_ages_8":"8","08_ages_9":"9","08_ages_10":"10","08_ages_11":"11","08_ages_12":"12","08_ages_13":"13","08_ages_14":"14","08_ages_15":"15","08_ages_16":"16","08_ages_17":"17","08_ages_18":"18"},"rt":103584,"item_order":[0,1,2,3,4,5,6,7],"radio_events":[6629,7973,10325,15564,50932,56405,63772,83356],"checkbox_events":[22124,22580,23173,23988,24549,25437,26228,27084,27772,28660,29572,36572,37388,38156,39149,39925,40436,40957,41461,42284,42749,43477,43876,44340,44884,60821,68588,69676,71005,71700,72324,73181,74517,75293,75828,76604,77348,78084,78549,79284,79788,80524,81069,81780,87701,88820,89292,91205,91701,92436,92981,93821,94357,95596,96308,97421,97948,99724,100300,101118,101725,102804],"key_events":[],"mouse_events":[6629,7973,10325,15564,22124,22580,23173,23988,24549,25437,26228,27084,27772,28660,29572,36572,37388,38156,39149,39925,40436,40957,41461,42284,42749,43477,43876,44340,44884,50932,56405,60821,63772,68588,69676,71005,71700,72324,73181,74093,74517,75293,75828,76604,77348,78084,78549,79284,79788,80524,81069,81780,83356,87701,88820,89292,90542,91205,91701,92436,92981,93821,94357,95596,96308,97421,97948,99724,100300,101118,101725,102804,103584],"honeypot":0,"survey":"mace","page":10,"trial_type":"survey-mace","trial_index":18,"time_elapsed":997496,"internal_node_id":"0.0-18.0","task_version":"prescreen-v0.3","browser_interactions":0,"instructed":0},{"rt":8179,"trial_type":"mental-health-alert","trial_index":19,"time_elapsed":1005676,"internal_node_id":"0.0-19.0","task_version":"prescreen-v0.3","interactions":"[{\"event\":\"focus\",\"trial\":0,\"time\":5}]"}]