[{"view_history":[{"page_index":0,"viewing_time":2187.699999988079},{"page_index":1,"viewing_time":3111.5},{"page_index":2,"viewing_time":1288},{"page_index":3,"viewing_time":736.1000000238419}],"rt":7323.9000000059605,"trial_type":"instructions","trial_index":0,"time_elapsed":7338,"internal_node_id":"0.0-0.0","task_version":"prescreen-v0.3"},{"rt":25757.09999999404,"responses":{"age":"19","gender-categorical":"Male","gender-free-response":"","ethnicity":"Not Hispanic or Latino","race":["White"],"education":"Some college","siblings":"2"},"trial_type":"survey-demo","trial_index":1,"time_elapsed":33099,"internal_node_id":"0.0-1.0","task_version":"prescreen-v0.3"},{"responses":{"Q16":"3","Q11":"3","Q07":"0","Q06":"1","Q10":"3","Q15":"2","Q09":"3","Q05":"2","Q21":"3","Q12":"2","Q04":"3","Q14":"2","Q03":"3","Q17":"2","Q02":"2","Q01":"3","Q19":"2","Q20":"1","Q08":"2","Q13":"3","Q18":"2"},"rt":72997,"item_order":[15,10,6,5,9,14,8,4,20,11,3,13,2,16,1,0,18,19,7,12,17],"radio_events":[4426.4000000059605,5377.5999999940395,8235.40000000596,13145.699999988079,13905.300000011921,17969.69999998808,19001.5,20617.59999999404,29330,33753.80000001192,38338.90000000596,40193.30000001192,40553.59999999404,44618.90000000596,46346,48770.69999998808,51634.09999999404,53745.69999998808,57481.59999999404,65097.69999998808,68169.5,69409.69999998808,71353.69999998808],"key_events":[],"mouse_events":[3698.199999988079,4426.4000000059605,5377.5999999940395,8235.40000000596,12507.199999988079,13145.699999988079,13905.300000011921,15337.90000000596,16265.90000000596,16681.30000001192,17969.69999998808,19001.5,20617.59999999404,29330,33449.59999999404,33753.80000001192,37937.80000001192,38338.90000000596,40193.30000001192,40553.59999999404,44618.90000000596,46346,48522.80000001192,48770.69999998808,51634.09999999404,52641.80000001192,53745.69999998808,57481.59999999404,65097.69999998808,66929.80000001192,68169.5,69409.69999998808,71353.69999998808,72995.5],"straightlining":0.42857142857142855,"zigzagging":0.85,"honeypot":0,"survey":"sns","trial_type":"survey-template","trial_index":2,"time_elapsed":106102,"internal_node_id":"0.0-2.0","task_version":"prescreen-v0.3","browser_interactions":0,"infrequency":0},{"responses":{"Q06":"1","Q09":"1","Q07":"3","Q04":"3","Q05":"3","Q12":"1","Q10":"1","Q03":"3","Q08":"2","Q02":"3","Q13":"0","Q01":"2","Q11":"2"},"rt":49962.5,"item_order":[5,8,6,3,4,11,9,2,7,1,12,0,10],"radio_events":[17826.20000001788,22266.20000001788,23394.30000001192,24186,26515,31866.59999999404,33418.09999999404,35626,37322.20000001788,38681.90000000596,41561.80000001192,44818,49194.09999999404],"key_events":[],"mouse_events":[17826.20000001788,19242.20000001788,22266.20000001788,23394.30000001192,24186,26515,30921.70000001788,31596.70000001788,31866.59999999404,33418.09999999404,35626,37322.20000001788,38681.90000000596,41561.80000001192,44394.20000001788,44818,46041.70000001788,49194.09999999404,49961.80000001192],"straightlining":0.38461538461538464,"zigzagging":0.25,"honeypot":0,"survey":"bisbas","trial_type":"survey-template","trial_index":3,"time_elapsed":156067,"internal_node_id":"0.0-3.0","task_version":"prescreen-v0.3","browser_interactions":0,"infrequency":0},{"responses":{"Q01":"3","Q02":"2","Q03":"1"},"rt":12111,"radio_events":[3773.5,6013.9000000059605,11365.40000000596],"key_events":[],"mouse_events":[3773.5,6013.9000000059605,10581.200000017881,11365.40000000596,12110.300000011921],"survey":"map","page":1,"trial_type":"survey-map","trial_index":4,"time_elapsed":168180,"internal_node_id":"0.0-4.0","task_version":"prescreen-v0.3","browser_interactions":0},{"responses":{"Q04":"2","Q05":"1","Q06":"0"},"rt":12524.600000023842,"radio_events":[6924.4000000059605,8636.40000000596,9556],"key_events":[],"mouse_events":[6012.4000000059605,6924.4000000059605,8004.5,8636.40000000596,9556,11436.90000000596,12524.200000017881],"survey":"map","page":2,"trial_type":"survey-map","trial_index":5,"time_elapsed":180706,"internal_node_id":"0.0-5.0","task_version":"prescreen-v0.3","browser_interactions":0},{"responses":{"Q07":"0","Q08":"3","Q09":"0"},"rt":9374.90000000596,"radio_events":[4550,6558.4000000059605,8471.300000011921],"key_events":[],"mouse_events":[3982.300000011921,4550,6558.4000000059605,8046.700000017881,8471.300000011921,9374.5],"survey":"map","page":3,"trial_type":"survey-map","trial_index":6,"time_elapsed":190083,"internal_node_id":"0.0-6.0","task_version":"prescreen-v0.3","browser_interactions":0},{"responses":{"Q10":"0","Q11":"0","Q12":"2","Q13":"2","Q16":"0","Q14":"1","Q15":"0"},"rt":170182.69999998808,"radio_events":[127710.40000000596,131941.40000000596,133093.40000000596,152413.19999998808,156677.90000000596,157053,160077.09999999404,168997.09999999404],"key_events":[],"mouse_events":[127710.40000000596,129455.09999999404,130997.5,131941.40000000596,133093.40000000596,151902.79999998212,152413.19999998808,156677.90000000596,157053,159709.5,160077.09999999404,166964.69999998808,167549.29999998212,168533.29999998212,168997.09999999404,170181.69999998808],"survey":"map","page":4,"trial_type":"survey-map","trial_index":7,"time_elapsed":360268,"internal_node_id":"0.0-7.0","task_version":"prescreen-v0.3","browser_interactions":2,"infrequency":0},{"view_history":[{"page_index":0,"viewing_time":1596.5999999940395},{"page_index":1,"viewing_time":1912.199999988079}],"rt":3509.2999999821186,"trial_type":"instructions","trial_index":8,"time_elapsed":363778,"internal_node_id":"0.0-8.0","task_version":"prescreen-v0.3"},{"responses":{"01":"Yes","01_ages_14":"14","01_ages_15":"15","01_ages_16":"16","01_ages_17":"17","01_ages_18":"18","02":"Yes","02_ages_7":"7","02_ages_8":"8","02_ages_9":"9","02_ages_10":"10","02_ages_11":"11","02_ages_12":"12","02_ages_13":"13","02_ages_14":"14","02_ages_15":"15","02_ages_16":"16","02_ages_17":"17","02_ages_18":"18","03":"No","04":"Yes","04_ages_8":"8","04_ages_9":"9","04_ages_10":"10","04_ages_11":"11","05":"No","06":"No"},"rt":63405.5,"item_order":[0,1,2,3,4,5],"radio_events":[25674.40000000596,39346.40000000596,45274.20000001788,45947.70000001788,50458.59999999404,51642.59999999404],"checkbox_events":[30642.90000000596,31330.30000001192,33826.20000001788,34362.40000000596,34826.20000001788,40650.40000000596,41795.40000000596,42250.80000001192,42978.20000001788,54194.20000001788,54835,55259.90000000596,55617.90000000596,56003.09999999404,56402.20000001788,57499.30000001192,57858.5,58562.5,59394,60762.30000001192,61722.5],"key_events":[],"mouse_events":[0.09999999403953552,25674.40000000596,30642.90000000596,31330.30000001192,33826.20000001788,34362.40000000596,34826.20000001788,39346.40000000596,40650.40000000596,41305.90000000596,41795.40000000596,42250.80000001192,42978.20000001788,44410.09999999404,45274.20000001788,45947.70000001788,50458.59999999404,51642.59999999404,52194.59999999404,54194.20000001788,54835,55259.90000000596,55617.90000000596,56003.09999999404,56402.20000001788,56763.80000001192,57131.59999999404,57499.30000001192,57858.5,58562.5,59394,60058.30000001192,60762.30000001192,61722.5,63402.90000000596],"honeypot":0,"survey":"mace","page":1,"trial_type":"survey-mace","trial_index":9,"time_elapsed":427189,"internal_node_id":"0.0-9.0","task_version":"prescreen-v0.3","browser_interactions":0},{"responses":{"01":"No","02":"No","03":"Yes","03_ages_4":"4","03_ages_5":"5","03_ages_6":"6","03_ages_7":"7","03_ages_8":"8","03_ages_9":"9","04":"Yes","04_ages_4":"4","04_ages_5":"5","04_ages_6":"6","04_ages_7":"7","04_ages_8":"8","04_ages_9":"9","05":"Yes","05_ages_4":"4","05_ages_5":"5","05_ages_6":"6","05_ages_7":"7","05_ages_8":"8","05_ages_9":"9","06":"No","07":"No","08":"No"},"rt":45190,"item_order":[0,1,2,3,4,5,6,7],"radio_events":[2721.5,5537,10665.100000023842,12249.200000017881,21233.30000001192,29609.30000001192,43873.20000001788,44520.90000000596],"checkbox_events":[14329.40000000596,15121,15769.200000017881,17129.30000001192,17521,22289.20000001788,22728.80000001192,24256.90000000596,24793.30000001192,25376.90000000596,33057.10000002384,34001.10000002384,37145.10000002384,38905.10000002384,39321,39753.60000002384,40450.5,41032.80000001192],"key_events":[],"mouse_events":[1881.4000000059605,2721.5,3689.4000000059605,5185.200000017881,5537,8833.300000011921,10665.100000023842,12249.200000017881,14329.40000000596,14752.90000000596,15121,15472.90000000596,15769.200000017881,16329.40000000596,16745.30000001192,17129.30000001192,17521,21233.30000001192,22289.20000001788,22728.80000001192,23288.600000023842,23825.20000001788,24256.90000000596,24793.30000001192,25376.90000000596,29609.30000001192,33057.10000002384,34001.10000002384,37145.10000002384,37641.20000001788,38201.20000001788,38905.10000002384,39321,39753.60000002384,40450.5,41032.80000001192,42818.10000002384,43473,43873.20000001788,44520.90000000596,45186.40000000596],"honeypot":0,"survey":"mace","page":2,"trial_type":"survey-mace","trial_index":10,"time_elapsed":472383,"internal_node_id":"0.0-10.0","task_version":"prescreen-v0.3","browser_interactions":0},{"responses":{"01":"No","02":"No","03":"No","04":"No"},"rt":14426,"item_order":[0,1,2,3],"radio_events":[6872.200000017881,7120.100000023842,8327.90000000596,9903.700000017881,13704],"checkbox_events":[],"key_events":[],"mouse_events":[4776.300000011921,5920.100000023842,6496.300000011921,6872.200000017881,7120.100000023842,7561.4000000059605,7992.5,8327.90000000596,9288.90000000596,9903.700000017881,12817.700000017881,13704,14424.300000011921],"honeypot":0,"survey":"mace","page":3,"trial_type":"survey-mace","trial_index":11,"time_elapsed":486811,"internal_node_id":"0.0-11.0","task_version":"prescreen-v0.3","browser_interactions":0},{"responses":{"01":"No","02":"No"},"rt":3909.4000000059605,"item_order":[0,1],"radio_events":[2459.9000000059605,3285.699999988079],"checkbox_events":[],"key_events":[],"mouse_events":[2459.9000000059605,3285.699999988079,3908.4000000059605],"honeypot":0,"survey":"mace","page":4,"trial_type":"survey-mace","trial_index":12,"time_elapsed":490722,"internal_node_id":"0.0-12.0","task_version":"prescreen-v0.3","browser_interactions":0},{"responses":{"01":"No","02":"No","03":"No","04":"No","05":"No"},"rt":11286.800000011921,"item_order":[0,1,2,3,4],"radio_events":[3385.4000000059605,4966.200000017881,5428.800000011921,7284.300000011921,9596.5,10324.700000017881],"checkbox_events":[],"key_events":[],"mouse_events":[3385.4000000059605,4348.800000011921,4966.200000017881,5428.800000011921,6628.5999999940395,7284.300000011921,9156.5,9596.5,10324.700000017881,11284.300000011921],"honeypot":0,"survey":"mace","page":5,"trial_type":"survey-mace","trial_index":13,"time_elapsed":502011,"internal_node_id":"0.0-13.0","task_version":"prescreen-v0.3","browser_interactions":0},{"responses":{"01":"No","02":"No","03":"No","04":"No","05":"No"},"rt":12653.800000011921,"item_order":[0,1,2,3,4],"radio_events":[4451.300000011921,5763.200000017881,8674.800000011921,9451.200000017881,11131.200000017881],"checkbox_events":[],"key_events":[],"mouse_events":[4451.300000011921,5763.200000017881,8674.800000011921,9451.200000017881,11131.200000017881,12651.200000017881],"honeypot":0,"survey":"mace","page":6,"trial_type":"survey-mace","trial_index":14,"time_elapsed":514668,"internal_node_id":"0.0-14.0","task_version":"prescreen-v0.3","browser_interactions":0},{"responses":{"01":"No","02":"No","03":"No","04":"No","05":"No","06":"No","07":"No"},"rt":16485.90000000596,"item_order":[0,1,2,3,4,5,6],"radio_events":[3586,5673.9000000059605,7059.5999999940395,7298.0999999940395,8242.40000000596,8746.199999988079,10234.699999988079,11771,12394.299999982119],"checkbox_events":[],"key_events":[],"mouse_events":[3586,4435.199999988079,5673.9000000059605,6210,6609.5999999940395,7059.5999999940395,7298.0999999940395,8242.40000000596,8746.199999988079,10234.699999988079,11105.90000000596,11771,12394.299999982119,16482.79999998212],"honeypot":0,"survey":"mace","page":7,"trial_type":"survey-mace","trial_index":15,"time_elapsed":531158,"internal_node_id":"0.0-15.0","task_version":"prescreen-v0.3","browser_interactions":2},{"responses":{"01":"No","02":"No","03":"No","04":"No"},"rt":10090.699999988079,"item_order":[0,1,2,3],"radio_events":[4033.699999988079,5441.699999988079,8713.800000011921,9369.300000011921],"checkbox_events":[],"key_events":[],"mouse_events":[4033.699999988079,5441.699999988079,8265.199999988079,8713.800000011921,9369.300000011921,10089.5],"honeypot":0,"survey":"mace","page":8,"trial_type":"survey-mace","trial_index":16,"time_elapsed":541250,"internal_node_id":"0.0-16.0","task_version":"prescreen-v0.3","browser_interactions":0},{"responses":{"01":"No","02":"No","03":"Yes","03_ages_1":"1","03_ages_2":"2","03_ages_3":"3","03_ages_4":"4","03_ages_5":"5","03_ages_6":"6","03_ages_7":"7","03_ages_8":"8","03_ages_9":"9","03_ages_10":"10","03_ages_11":"11","03_ages_12":"12","03_ages_13":"13","03_ages_14":"14","03_ages_15":"15","03_ages_16":"16","03_ages_17":"17","03_ages_18":"18","04":"Yes","04_ages_1":"1","04_ages_2":"2","04_ages_3":"3","04_ages_4":"4","04_ages_5":"5","04_ages_6":"6","04_ages_7":"7","04_ages_8":"8","04_ages_9":"9","04_ages_10":"10","04_ages_11":"11","04_ages_12":"12","04_ages_13":"13","04_ages_14":"14","04_ages_15":"15","04_ages_16":"16","04_ages_17":"17","04_ages_18":"18"},"rt":39935.90000000596,"item_order":[0,1,2,3],"radio_events":[5765.4000000059605,8445.40000000596,24198.40000000596,38701.29999998212],"checkbox_events":[10765.40000000596,12325.40000000596,13181.199999988079,13652.90000000596,14182.90000000596,14693.199999988079,15469.199999988079,16414.29999998212,16782.79999998212,17629.09999999404,18269.29999998212,18621.19999998808,19108.69999998808,19533,20021.19999998808,20436.90000000596,20862.79999998212,21285.09999999404,26126.09999999404,26493.29999998212,27325.29999998212,27677,28173.40000000596,29005.79999998212,29364.69999998808,30189.19999998808,30484.59999999404,31270.19999998808,31773.09999999404,32140.90000000596,32942.29999998212,33269.40000000596,33724.90000000596,33966.09999999404,34645.19999998808,34974.09999999404,35405.29999998212,36628.69999998808],"key_events":[],"mouse_events":[5765.4000000059605,8445.40000000596,10765.40000000596,11310.799999982119,11605.299999982119,12325.40000000596,12797.09999999404,13181.199999988079,13652.90000000596,14182.90000000596,14693.199999988079,15205.299999982119,15469.199999988079,15829.699999988079,16414.29999998212,16782.79999998212,17325.09999999404,17629.09999999404,17932.79999998212,18269.29999998212,18621.19999998808,19108.69999998808,19533,20021.19999998808,20436.90000000596,20862.79999998212,21285.09999999404,22862.59999999404,24198.40000000596,25677,26126.09999999404,26493.29999998212,26853.29999998212,27325.29999998212,27677,28173.40000000596,29005.79999998212,29364.69999998808,29860.79999998212,30189.19999998808,30484.59999999404,31270.19999998808,31773.09999999404,32140.90000000596,32588.90000000596,32942.29999998212,33269.40000000596,33724.90000000596,33966.09999999404,34645.19999998808,34974.09999999404,35405.29999998212,35893.19999998808,36628.69999998808,38342.09999999404,38701.29999998212,39934.79999998212],"honeypot":0,"survey":"mace","page":9,"trial_type":"survey-mace","trial_index":17,"time_elapsed":581188,"internal_node_id":"0.0-17.0","task_version":"prescreen-v0.3","browser_interactions":0},{"responses":{"01":"No","02":"No","03":"No","04":"No","05":"No","06":"Yes","06_ages_17":"17","07":"No","08":"No"},"rt":14559.09999999404,"item_order":[0,1,2,3,4,5,6,7],"radio_events":[1635.0999999940395,2315.0999999940395,4611,5364.700000017881,7307.4000000059605,8226.59999999404,13219.59999999404,14042.59999999404],"checkbox_events":[9387],"key_events":[],"mouse_events":[1635.0999999940395,2315.0999999940395,3483,4611,5364.700000017881,7307.4000000059605,8226.59999999404,9387,13219.59999999404,14042.59999999404,14555.5],"honeypot":0,"survey":"mace","page":10,"trial_type":"survey-mace","trial_index":18,"time_elapsed":595750,"internal_node_id":"0.0-18.0","task_version":"prescreen-v0.3","browser_interactions":0,"instructed":0},{"rt":1601.699999988079,"trial_type":"mental-health-alert","trial_index":19,"time_elapsed":597353,"internal_node_id":"0.0-19.0","task_version":"prescreen-v0.3","interactions":"[{\"event\":\"blur\",\"trial\":1,\"time\":19887},{\"event\":\"focus\",\"trial\":1,\"time\":21535},{\"event\":\"blur\",\"trial\":1,\"time\":23704},{\"event\":\"focus\",\"trial\":1,\"time\":31007},{\"event\":\"blur\",\"trial\":7,\"time\":355189},{\"event\":\"focus\",\"trial\":7,\"time\":355489},{\"event\":\"blur\",\"trial\":15,\"time\":527878},{\"event\":\"focus\",\"trial\":15,\"time\":530570}]"}]