[{"view_history":[{"page_index":0,"viewing_time":11222},{"page_index":1,"viewing_time":6039.5},{"page_index":2,"viewing_time":11395.799999952316},{"page_index":3,"viewing_time":4524.300000071526}],"rt":33182.5,"trial_type":"instructions","trial_index":0,"time_elapsed":33202,"internal_node_id":"0.0-0.0","task_version":"prescreen-v0.3"},{"rt":26768.399999976158,"responses":{"age":"70","gender-categorical":"Male","gender-free-response":"","ethnicity":"Not Hispanic or Latino","race":["White"],"education":"Master degree or higher","siblings":"2"},"trial_type":"survey-demo","trial_index":1,"time_elapsed":59977,"internal_node_id":"0.0-1.0","task_version":"prescreen-v0.3"},{"responses":{"Q12":"1","Q13":"2","Q05":"1","Q21":"3","Q18":"1","Q10":"0","Q11":"1","Q04":"1","Q06":"1","Q07":"1","Q20":"2","Q08":"2","Q02":"3","Q16":"1","Q09":"2","Q14":"1","Q15":"1","Q03":"2","Q17":"2","Q01":"2","Q19":"1"},"rt":188198.90000009537,"item_order":[11,12,4,20,17,9,10,3,5,6,19,7,1,15,8,13,14,2,16,0,18],"radio_events":[12155.700000047684,18705.800000071526,33177.5,39035.60000002384,46749.300000071526,55129.300000071526,63789.700000047684,74351.40000009537,82949.40000009537,92074.20000004768,96434.30000007153,101875,107500.80000007153,121358.10000002384,128606.70000004768,150594.40000009537,159224.20000004768,164353.80000007153,171008.10000002384,175989.70000004768,186565.70000004768],"key_events":[],"mouse_events":[12155.700000047684,18705.800000071526,33177.5,39035.60000002384,46749.300000071526,55129.300000071526,63789.700000047684,74351.40000009537,82949.40000009537,90770.90000009537,92074.20000004768,96434.30000007153,101875,107500.80000007153,121358.10000002384,128606.70000004768,150594.40000009537,159224.20000004768,164353.80000007153,171008.10000002384,175989.70000004768,186565.70000004768,188196.20000004768],"straightlining":0.5238095238095238,"zigzagging":0.5,"honeypot":0,"survey":"sns","trial_type":"survey-template","trial_index":2,"time_elapsed":248181,"internal_node_id":"0.0-2.0","task_version":"prescreen-v0.3","browser_interactions":0,"infrequency":0},{"responses":{"Q12":"2","Q06":"3","Q07":"3","Q03":"1","Q09":"2","Q08":"2","Q13":"0","Q04":"3","Q05":"3","Q11":"3","Q02":"1","Q01":"2","Q10":"2"},"rt":76905.30000007153,"item_order":[11,5,6,2,8,7,12,3,4,10,1,0,9],"radio_events":[11982.100000023842,16862.300000071526,19197.900000095367,25468,30914.200000047684,36105.90000009537,44596.300000071526,53069.700000047684,57507.200000047684,63279.60000002384,67049.60000002384,70533.70000004768,74211.80000007153],"key_events":[],"mouse_events":[11982.100000023842,16862.300000071526,19197.900000095367,25468,30914.200000047684,36105.90000009537,42960.10000002384,44596.300000071526,53069.700000047684,57507.200000047684,63279.60000002384,67049.60000002384,70533.70000004768,74211.80000007153,76903.80000007153],"straightlining":0.38461538461538464,"zigzagging":0.3333333333333333,"honeypot":0,"survey":"bisbas","trial_type":"survey-template","trial_index":3,"time_elapsed":325092,"internal_node_id":"0.0-3.0","task_version":"prescreen-v0.3","browser_interactions":0,"infrequency":0},{"responses":{"Q01":"2","Q02":"2","Q03":"1"},"rt":38452.200000047684,"radio_events":[16278,19123.800000071526,25097.600000023842,36651.60000002384],"key_events":[],"mouse_events":[16278,19123.800000071526,25097.600000023842,36651.60000002384,38451.39999997616],"survey":"map","page":1,"trial_type":"survey-map","trial_index":4,"time_elapsed":363548,"internal_node_id":"0.0-4.0","task_version":"prescreen-v0.3","browser_interactions":0},{"responses":{"Q04":"1","Q05":"2","Q06":"1"},"rt":43947.40000009537,"radio_events":[17660.800000071526,27580.5,33834.5,42076.300000071526],"key_events":[],"mouse_events":[17660.800000071526,27580.5,33834.5,42076.300000071526,43946.60000002384],"survey":"map","page":2,"trial_type":"survey-map","trial_index":5,"time_elapsed":407498,"internal_node_id":"0.0-5.0","task_version":"prescreen-v0.3","browser_interactions":0},{"responses":{"Q07":"2","Q08":"4","Q09":"0"},"rt":32081.100000023842,"radio_events":[7918.5,13040.299999952316,19130.700000047684,24476,30358.200000047684],"key_events":[],"mouse_events":[7918.5,13040.299999952316,19130.700000047684,24476,30358.200000047684,32080.399999976158],"survey":"map","page":3,"trial_type":"survey-map","trial_index":6,"time_elapsed":439581,"internal_node_id":"0.0-6.0","task_version":"prescreen-v0.3","browser_interactions":0},{"responses":{"Q10":"1","Q11":"1","Q12":"0","Q13":"0","Q16":"0","Q14":"1","Q15":"0"},"rt":63763,"radio_events":[7344.599999904633,12830.599999904633,22156.599999904633,27884.399999976158,32988,42011.89999997616,54940.199999928474,62116],"key_events":[],"mouse_events":[7344.599999904633,12830.599999904633,22156.599999904633,27884.399999976158,32988,42011.89999997616,54940.199999928474,62116,63761.799999952316],"survey":"map","page":4,"trial_type":"survey-map","trial_index":7,"time_elapsed":503347,"internal_node_id":"0.0-7.0","task_version":"prescreen-v0.3","browser_interactions":0,"infrequency":0},{"view_history":[{"page_index":0,"viewing_time":4116.899999976158},{"page_index":1,"viewing_time":6957.800000071526}],"rt":11075.800000071526,"trial_type":"instructions","trial_index":8,"time_elapsed":514424,"internal_node_id":"0.0-8.0","task_version":"prescreen-v0.3"},{"responses":{"01":"Yes","01_ages_5":"5","01_ages_8":"8","01_ages_15":"15","02":"No","03":"No","04":"No","05":"No","06":"Yes","06_ages_4":"4","06_ages_6":"6"},"rt":67262.29999995232,"item_order":[0,1,2,3,4,5],"radio_events":[12682.100000023842,35453.799999952316,45550,47899.60000002384,50755.700000047684,56091.60000002384],"checkbox_events":[21518.399999976158,23450,25024.100000023842,58783.60000002384,61165.10000002384],"key_events":[],"mouse_events":[0.10000002384185791,12682.100000023842,21518.399999976158,23450,25024.100000023842,35453.799999952316,45550,47899.60000002384,50755.700000047684,56091.60000002384,58783.60000002384,61165.10000002384,67258.39999997616],"honeypot":0,"survey":"mace","page":1,"trial_type":"survey-mace","trial_index":9,"time_elapsed":581697,"internal_node_id":"0.0-9.0","task_version":"prescreen-v0.3","browser_interactions":0},{"responses":{"01":"No","02":"No","03":"Yes","03_ages_3":"3","03_ages_4":"4","03_ages_5":"5","03_ages_6":"6","04":"No","05":"No","06":"No","07":"No","08":"No"},"rt":50768.799999952316,"item_order":[0,1,2,3,4,5,6,7],"radio_events":[12681.200000047684,18509.600000023842,20951.799999952316,40475.60000002384,42391.60000002384,44835.60000002384,46845.5,49529.200000047684],"checkbox_events":[24211.899999976158,26895.799999952316,28625.899999976158,31309.799999952316],"key_events":[],"mouse_events":[12681.200000047684,18509.600000023842,20951.799999952316,24211.899999976158,26895.799999952316,28625.899999976158,31309.799999952316,40475.60000002384,42391.60000002384,44835.60000002384,46845.5,49529.200000047684,50764.299999952316],"honeypot":0,"survey":"mace","page":2,"trial_type":"survey-mace","trial_index":10,"time_elapsed":632471,"internal_node_id":"0.0-10.0","task_version":"prescreen-v0.3","browser_interactions":0},{"responses":{"01":"No","02":"No","03":"No","04":"No"},"rt":20353.899999976158,"item_order":[0,1,2,3],"radio_events":[8890.099999904633,15058,17014.699999928474,18496.699999928474],"checkbox_events":[],"key_events":[],"mouse_events":[8890.099999904633,15058,17014.699999928474,18496.699999928474,20350.899999976158],"honeypot":0,"survey":"mace","page":3,"trial_type":"survey-mace","trial_index":11,"time_elapsed":652828,"internal_node_id":"0.0-11.0","task_version":"prescreen-v0.3","browser_interactions":0},{"responses":{"01":"No","02":"No"},"rt":8434.5,"item_order":[0,1],"radio_events":[6455.200000047684,7527],"checkbox_events":[],"key_events":[],"mouse_events":[6455.200000047684,7527,8433],"honeypot":0,"survey":"mace","page":4,"trial_type":"survey-mace","trial_index":12,"time_elapsed":661266,"internal_node_id":"0.0-12.0","task_version":"prescreen-v0.3","browser_interactions":0},{"responses":{"01":"Yes","01_ages_18":"18","02":"No","03":"No","04":"No","05":"No"},"rt":74880.80000007153,"item_order":[0,1,2,3,4],"radio_events":[25475.5,55622.89999997616,63187.60000002384,69843.39999997616,73923.39999997616],"checkbox_events":[29873.600000023842],"key_events":[],"mouse_events":[25475.5,29873.600000023842,55622.89999997616,63187.60000002384,69843.39999997616,73923.39999997616,74877.5],"honeypot":0,"survey":"mace","page":5,"trial_type":"survey-mace","trial_index":13,"time_elapsed":736150,"internal_node_id":"0.0-13.0","task_version":"prescreen-v0.3","browser_interactions":0},{"responses":{"01":"No","02":"No","03":"No","04":"No","05":"Yes","05_ages_5":"5","05_ages_8":"8","05_ages_11":"11","05_ages_12":"12"},"rt":117858.10000002384,"item_order":[0,1,2,3,4],"radio_events":[90127.10000002384,93206.79999995232,97241.20000004768,105068.89999997616,109072.70000004768],"checkbox_events":[111166.79999995232,111958.79999995232,115472.5,116644.5],"key_events":[],"mouse_events":[90127.10000002384,93206.79999995232,97241.20000004768,105068.89999997616,109072.70000004768,111166.79999995232,111958.79999995232,115472.5,116644.5,117855.20000004768],"honeypot":0,"survey":"mace","page":6,"trial_type":"survey-mace","trial_index":14,"time_elapsed":854012,"internal_node_id":"0.0-14.0","task_version":"prescreen-v0.3","browser_interactions":0},{"responses":{"01":"No","02":"No","03":"No","04":"Yes","04_ages_13":"13","04_ages_14":"14","04_ages_16":"16","05":"No","06":"No","07":"No"},"rt":55426.40000009537,"item_order":[0,1,2,3,4,5,6],"radio_events":[20448.300000071526,23008.5,27408.400000095367,31868,43056.200000047684,46136.200000047684,48516.10000002384],"checkbox_events":[35568.200000047684,36336.200000047684,38128.300000071526],"key_events":[],"mouse_events":[20448.300000071526,23008.5,27408.400000095367,31868,35568.200000047684,36336.200000047684,38128.300000071526,43056.200000047684,46136.200000047684,48516.10000002384,55422.5],"honeypot":0,"survey":"mace","page":7,"trial_type":"survey-mace","trial_index":15,"time_elapsed":909443,"internal_node_id":"0.0-15.0","task_version":"prescreen-v0.3","browser_interactions":0},{"responses":{"01":"No","02":"Yes","02_ages_15":"15","02_ages_16":"16","02_ages_17":"17","02_ages_18":"18","03":"No","04":"No"},"rt":47501.299999952316,"item_order":[0,1,2,3],"radio_events":[12594.799999952316,19036.600000023842,41136.60000002384,46474.299999952316],"checkbox_events":[24156.100000023842,25854.200000047684,30060.600000023842,31998.200000047684],"key_events":[],"mouse_events":[12594.799999952316,19036.600000023842,24156.100000023842,25854.200000047684,30060.600000023842,31998.200000047684,41136.60000002384,46474.299999952316,47498.39999997616],"honeypot":0,"survey":"mace","page":8,"trial_type":"survey-mace","trial_index":16,"time_elapsed":956949,"internal_node_id":"0.0-16.0","task_version":"prescreen-v0.3","browser_interactions":0},{"responses":{"01":"Yes","01_ages_5":"5","01_ages_6":"6","01_ages_7":"7","01_ages_8":"8","01_ages_9":"9","01_ages_10":"10","01_ages_11":"11","01_ages_12":"12","01_ages_13":"13","02":"Yes","02_ages_1":"1","02_ages_5":"5","02_ages_6":"6","02_ages_7":"7","02_ages_8":"8","02_ages_9":"9","02_ages_10":"10","02_ages_11":"11","02_ages_12":"12","02_ages_13":"13","02_ages_14":"14","02_ages_15":"15","03":"Yes","03_ages_1":"1","03_ages_2":"2","03_ages_3":"3","03_ages_4":"4","03_ages_5":"5","03_ages_6":"6","03_ages_7":"7","03_ages_8":"8","03_ages_9":"9","03_ages_10":"10","03_ages_11":"11","03_ages_12":"12","03_ages_13":"13","03_ages_14":"14","03_ages_15":"15","03_ages_16":"16","03_ages_17":"17","04":"Yes","04_ages_1":"1","04_ages_2":"2","04_ages_3":"3","04_ages_4":"4","04_ages_5":"5","04_ages_6":"6","04_ages_7":"7","04_ages_8":"8","04_ages_9":"9","04_ages_10":"10","04_ages_11":"11","04_ages_12":"12","04_ages_13":"13","04_ages_14":"14","04_ages_15":"15","04_ages_16":"16","04_ages_17":"17"},"rt":107089.5,"item_order":[0,1,2,3],"radio_events":[10809.399999976158,36007.299999952316,65456.699999928474,91602.79999995232],"checkbox_events":[17713.399999976158,18381.5,19109.399999976158,19537.399999976158,22523.299999952316,23270.199999928474,24556.799999952316,24991.399999976158,25937.5,27303,27869.199999928474,28761.299999952316,29367.199999928474,37529.799999952316,39079.5,39630.89999997616,40367.5,41291.199999928474,46216.89999997616,47093.199999928474,48249.5,48893.199999928474,49390.59999990463,50399.09999990463,51183.199999928474,52153.299999952316,53215.299999952316,54627.39999997616,55713.09999990463,67777.59999990463,68358.89999997616,69350.5,70258.69999992847,70894.09999990463,71624.79999995232,72384.79999995232,73376.59999990463,74076.39999997616,75092.5,75952.89999997616,76971.19999992847,77730.39999997616,78824.69999992847,80018.5,81422.89999997616,83028.79999995232,93898.69999992847,94464.59999990463,95814.59999990463,96404.5,96970.5,97496.59999990463,98016,98584.39999997616,99188.09999990463,100476.79999995232,101136.19999992847,101702.5,102206.29999995232,103192.5,103920.39999997616,104494.5,105884.5],"key_events":[],"mouse_events":[10809.399999976158,17713.399999976158,18381.5,19109.399999976158,19537.399999976158,20009.699999928474,21337,22523.299999952316,23270.199999928474,23740.899999976158,24556.799999952316,24991.399999976158,25937.5,26402.799999952316,27303,27869.199999928474,28761.299999952316,29367.199999928474,36007.299999952316,37529.799999952316,39079.5,39630.89999997616,40367.5,41291.199999928474,44036.699999928474,46216.89999997616,47093.199999928474,48249.5,48893.199999928474,49390.59999990463,50399.09999990463,51183.199999928474,51647.39999997616,52153.299999952316,53215.299999952316,54021.09999990463,54627.39999997616,55713.09999990463,65456.699999928474,67777.59999990463,68358.89999997616,69350.5,70258.69999992847,70894.09999990463,71624.79999995232,72384.79999995232,73376.59999990463,74076.39999997616,75092.5,75952.89999997616,76971.19999992847,77730.39999997616,78824.69999992847,80018.5,81422.89999997616,83028.79999995232,91602.79999995232,93898.69999992847,94464.59999990463,95814.59999990463,96404.5,96970.5,97496.59999990463,98016,98584.39999997616,99188.09999990463,100476.79999995232,101136.19999992847,101702.5,102206.29999995232,103192.5,103920.39999997616,104494.5,105884.5,107086.69999992847],"honeypot":0,"survey":"mace","page":9,"trial_type":"survey-mace","trial_index":17,"time_elapsed":1064042,"internal_node_id":"0.0-17.0","task_version":"prescreen-v0.3","browser_interactions":0},{"responses":{"01":"No","02":"No","03":"Yes","03_ages_18":"18","04":"No","05":"No","06":"Yes","06_ages_17":"17","07":"Yes","07_ages_1":"1","07_ages_2":"2","07_ages_3":"3","07_ages_4":"4","07_ages_5":"5","07_ages_6":"6","07_ages_7":"7","07_ages_8":"8","07_ages_9":"9","07_ages_10":"10","07_ages_11":"11","07_ages_12":"12","07_ages_13":"13","07_ages_14":"14","07_ages_15":"15","07_ages_16":"16","07_ages_17":"17","08":"Yes","08_ages_1":"1","08_ages_2":"2","08_ages_3":"3","08_ages_4":"4","08_ages_5":"5","08_ages_6":"6","08_ages_7":"7","08_ages_8":"8","08_ages_9":"9","08_ages_10":"10","08_ages_11":"11","08_ages_12":"12","08_ages_13":"13","08_ages_14":"14","08_ages_15":"15","08_ages_16":"16","08_ages_17":"17","08_ages_18":"18"},"rt":95511,"item_order":[0,1,2,3,4,5,6,7],"radio_events":[3886.9000000953674,8130.700000047684,18550.800000071526,24772.600000023842,27230.600000023842,31514.900000095367,42305.60000002384,62622.10000002384,89634.10000002384],"checkbox_events":[20054.800000071526,33460.200000047684,44492.5,44964.800000071526,45632.800000071526,46354.40000009537,47276.40000009537,47882.700000047684,48494.40000009537,49348.40000009537,50016.10000002384,50985.300000071526,52040.5,52838.300000071526,53732.300000071526,54686.10000002384,55460.300000071526,56165.90000009537,57408.40000009537,64568.90000009537,65444.800000071526,66095.90000009537,66640.5,67562.20000004768,68804.10000002384,69331.80000007153,69920.40000009537,70455.90000009537,71347.90000009537,72078.40000009537,73240.30000007153,74328.40000009537,75002.70000004768,75676.10000002384,78104.90000009537,79688.30000007153,80663.80000007153],"key_events":[],"mouse_events":[3886.9000000953674,8130.700000047684,11607,18550.800000071526,20054.800000071526,24772.600000023842,27230.600000023842,31514.900000095367,33460.200000047684,42305.60000002384,44492.5,44964.800000071526,45632.800000071526,46354.40000009537,47276.40000009537,47882.700000047684,48494.40000009537,49348.40000009537,50016.10000002384,50985.300000071526,52040.5,52838.300000071526,53732.300000071526,54686.10000002384,55460.300000071526,56165.90000009537,57408.40000009537,62622.10000002384,64568.90000009537,65444.800000071526,66095.90000009537,66640.5,67562.20000004768,68804.10000002384,69331.80000007153,69920.40000009537,70455.90000009537,71347.90000009537,72078.40000009537,73240.30000007153,74328.40000009537,75002.70000004768,75676.10000002384,76368.70000004768,77088.20000004768,78104.90000009537,78796.80000007153,79688.30000007153,80663.80000007153,83019.20000004768,89634.10000002384,95505.80000007153],"honeypot":0,"survey":"mace","page":10,"trial_type":"survey-mace","trial_index":18,"time_elapsed":1159557,"internal_node_id":"0.0-18.0","task_version":"prescreen-v0.3","browser_interactions":0,"instructed":0},{"rt":7811.5,"trial_type":"mental-health-alert","trial_index":19,"time_elapsed":1167371,"internal_node_id":"0.0-19.0","task_version":"prescreen-v0.3","interactions":"[]"}]