[{"view_history":[{"page_index":0,"viewing_time":6191.60000038147},{"page_index":1,"viewing_time":2044.0999999046326},{"page_index":2,"viewing_time":3236.7999997138977},{"page_index":3,"viewing_time":927.4000000953674}],"rt":12400.700000286102,"trial_type":"instructions","trial_index":0,"time_elapsed":12435,"internal_node_id":"0.0-0.0","task_version":"prescreen-v0.3"},{"rt":21915.099999904633,"responses":{"age":"20","gender-categorical":"Female","gender-free-response":"","ethnicity":"Hispanic or Latino","race":["White"],"education":"High school"},"trial_type":"survey-demo","trial_index":1,"time_elapsed":34358,"internal_node_id":"0.0-1.0","task_version":"prescreen-v0.3"},{"responses":{"Q16":"2","Q05":"0","Q03":"2","Q20":"1","Q14":"2","Q18":"2","Q17":"1","Q11":"1","Q21":"3","Q08":"2","Q19":"1","Q15":"2","Q12":"1","Q10":"1","Q02":"1","Q09":"1","Q13":"2","Q07":"1","Q06":"2","Q04":"2","Q01":"2"},"rt":119154.2999997139,"item_order":[15,4,2,19,13,17,16,10,20,7,18,14,11,9,1,8,12,6,5,3,0],"radio_events":[10845,18235.5,22168.799999713898,25317.5,30662,37154.40000009537,40923.7999997139,44166.2999997139,49171.7999997139,53698.5,59820.59999990463,66869.2999997139,75241.2999997139,79346.09999990463,89125.2999997139,95514,97716.69999980927,106276.90000009537,110629.59999990463,115119.09999990463,117980.5],"key_events":[],"mouse_events":[10008.099999904633,10845,18235.5,22168.799999713898,25317.5,30662,37154.40000009537,40923.7999997139,44166.2999997139,49171.7999997139,52958.09999990463,53698.5,59820.59999990463,65972.69999980927,66869.2999997139,75241.2999997139,79346.09999990463,89125.2999997139,95514,97716.69999980927,106276.90000009537,110629.59999990463,115119.09999990463,117980.5,119151.59999990463],"straightlining":0.47619047619047616,"zigzagging":0.5,"honeypot":0,"survey":"sns","trial_type":"survey-template","trial_index":2,"time_elapsed":153523,"internal_node_id":"0.0-2.0","task_version":"prescreen-v0.3","browser_interactions":0,"infrequency":0},{"responses":{"Q06":"2","Q12":"1","Q01":"3","Q10":"2","Q02":"1","Q13":"0","Q03":"2","Q07":"2","Q11":"2","Q09":"2","Q04":"3","Q05":"3","Q08":"2"},"rt":83418.40000009537,"item_order":[5,11,0,9,1,12,2,6,10,8,3,4,7],"radio_events":[22455.799999713898,31708.799999713898,33880.40000009537,38685.59999990463,42816.40000009537,46560.5,55240.5,59147.59999990463,64489.90000009537,67938.59999990463,73371.19999980927,77671.40000009537,82273.7999997139],"key_events":[],"mouse_events":[22455.799999713898,31708.799999713898,33880.40000009537,38685.59999990463,42816.40000009537,46560.5,55240.5,59147.59999990463,64489.90000009537,67938.59999990463,73371.19999980927,77671.40000009537,82273.7999997139,83416.7999997139],"straightlining":0.5384615384615384,"zigzagging":0.5,"honeypot":0,"survey":"bisbas","trial_type":"survey-template","trial_index":3,"time_elapsed":236946,"internal_node_id":"0.0-3.0","task_version":"prescreen-v0.3","browser_interactions":0,"infrequency":0},{"responses":{"Q01":"3","Q02":"2","Q03":"3"},"rt":24195,"radio_events":[8203.700000286102,12270.400000095367,18806.10000038147,22836.10000038147],"key_events":[],"mouse_events":[8203.700000286102,12270.400000095367,18806.10000038147,22836.10000038147,24194.400000095367],"survey":"map","page":1,"trial_type":"survey-map","trial_index":4,"time_elapsed":261145,"internal_node_id":"0.0-4.0","task_version":"prescreen-v0.3","browser_interactions":0},{"responses":{"Q04":"2","Q05":"2","Q06":"1"},"rt":21009.199999809265,"radio_events":[5486.099999904633,12598.199999809265,16285.699999809265,19030.099999904633],"key_events":[],"mouse_events":[5486.099999904633,12598.199999809265,16285.699999809265,18215.199999809265,19030.099999904633,21008.599999904633],"survey":"map","page":2,"trial_type":"survey-map","trial_index":5,"time_elapsed":282157,"internal_node_id":"0.0-5.0","task_version":"prescreen-v0.3","browser_interactions":0},{"responses":{"Q07":"2","Q08":"3","Q09":"3"},"rt":22109.099999904633,"radio_events":[7843,11739.300000190735,16560.699999809265],"key_events":[],"mouse_events":[7843,11739.300000190735,15795.199999809265,16560.699999809265,22108.699999809265],"survey":"map","page":3,"trial_type":"survey-map","trial_index":6,"time_elapsed":304268,"internal_node_id":"0.0-6.0","task_version":"prescreen-v0.3","browser_interactions":0},{"responses":{"Q10":"2","Q11":"0","Q12":"0","Q13":"2","Q16":"0","Q14":"1","Q15":"0"},"rt":44690.59999990463,"radio_events":[5969.5,12937.699999809265,19099.099999904633,28380.099999904633,32411.599999904633,39295.5,43431.59999990463],"key_events":[],"mouse_events":[5969.5,11561.799999713898,12937.699999809265,19099.099999904633,28380.099999904633,32157.799999713898,32411.599999904633,33807.199999809265,39295.5,43431.59999990463,44689.699999809265],"survey":"map","page":4,"trial_type":"survey-map","trial_index":7,"time_elapsed":348961,"internal_node_id":"0.0-7.0","task_version":"prescreen-v0.3","browser_interactions":0,"infrequency":0},{"view_history":[{"page_index":0,"viewing_time":2252.199999809265},{"page_index":1,"viewing_time":2881.5999999046326}],"rt":5134.299999713898,"trial_type":"instructions","trial_index":8,"time_elapsed":354097,"internal_node_id":"0.0-8.0","task_version":"prescreen-v0.3"},{"responses":{"01":"Yes","01_ages_14":"14","01_ages_15":"15","01_ages_16":"16","01_ages_17":"17","01_ages_18":"18","02":"Yes","02_ages_14":"14","02_ages_15":"15","02_ages_16":"16","02_ages_17":"17","02_ages_18":"18","03":"No","04":"Yes","04_ages_15":"15","04_ages_16":"16","04_ages_17":"17","04_ages_18":"18","05":"No","06":"No"},"rt":52384.09999990463,"item_order":[0,1,2,3,4,5],"radio_events":[6991.400000095367,23010.5,37494.5,39898.59999990463,47105.2000002861,51476.5],"checkbox_events":[12934.200000286102,13665.700000286102,14353.300000190735,15660.200000286102,16335,26190.200000286102,26893,27469.800000190735,28660.900000095367,29235.700000286102,31590.900000095367,34104.800000190735,41253.09999990463,42291,43826.59999990463,44586.40000009537],"key_events":[],"mouse_events":[0.09999990463256836,6991.400000095367,12934.200000286102,13665.700000286102,14353.300000190735,14989.800000190735,15660.200000286102,16335,23010.5,25251.599999904633,26190.200000286102,26893,27469.800000190735,28076.200000286102,28660.900000095367,29235.700000286102,31590.900000095367,32462.400000095367,34104.800000190735,37494.5,39898.59999990463,41253.09999990463,42291,42910.7000002861,43826.59999990463,44586.40000009537,47105.2000002861,51476.5,52380.800000190735],"honeypot":0,"survey":"mace","page":1,"trial_type":"survey-mace","trial_index":9,"time_elapsed":406487,"internal_node_id":"0.0-9.0","task_version":"prescreen-v0.3","browser_interactions":0},{"responses":{"01":"Yes","01_ages_13":"13","01_ages_14":"14","01_ages_16":"16","02":"No","03":"Yes","03_ages_4":"4","03_ages_5":"5","03_ages_6":"6","03_ages_7":"7","03_ages_8":"8","03_ages_9":"9","03_ages_10":"10","03_ages_11":"11","03_ages_12":"12","04":"No","05":"Yes","05_ages_5":"5","05_ages_6":"6","05_ages_7":"7","05_ages_8":"8","05_ages_9":"9","05_ages_10":"10","05_ages_11":"11","06":"No","07":"No","08":"No"},"rt":57901.40000009537,"item_order":[0,1,2,3,4,5,6,7],"radio_events":[2736,17660.900000095367,19987.700000286102,31536.900000095367,34142.2000002861,53483.300000190735,54590.90000009537,57094.59999990463],"checkbox_events":[6255.700000286102,7439.900000095367,11268.099999904633,21723.599999904633,22350.900000095367,22881.300000190735,23428.900000095367,24764.300000190735,25408.300000190735,26060.300000190735,26950.5,28299.400000095367,36124.7000002861,37257.5,37854.7000002861,38939.59999990463,40194.800000190735,40808.800000190735,42745.09999990463],"key_events":[],"mouse_events":[2736,6255.700000286102,7439.900000095367,11268.099999904633,17660.900000095367,19987.700000286102,21723.599999904633,22350.900000095367,22881.300000190735,23428.900000095367,23943.700000286102,24146.5,24764.300000190735,25408.300000190735,26060.300000190735,26950.5,28299.400000095367,31536.900000095367,34142.2000002861,36124.7000002861,37257.5,37854.7000002861,38352.2000002861,38939.59999990463,39545.300000190735,40194.800000190735,40808.800000190735,41633.09999990463,42745.09999990463,52311,53483.300000190735,54590.90000009537,57094.59999990463,57898.2000002861],"honeypot":0,"survey":"mace","page":2,"trial_type":"survey-mace","trial_index":10,"time_elapsed":464395,"internal_node_id":"0.0-10.0","task_version":"prescreen-v0.3","browser_interactions":0},{"responses":{"01":"No","02":"No","03":"No","04":"No"},"rt":26370.200000286102,"item_order":[0,1,2,3],"radio_events":[4116.5,17616.5,20544.10000038147,22929.5,24952.700000286102],"checkbox_events":[6615.900000095367,7702.700000286102,9310.900000095367,9908.300000190735,10509.900000095367,11091.200000286102,12292.200000286102,12901.700000286102,13532,14122.300000190735,15398,16582.200000286102],"key_events":[],"mouse_events":[4116.5,6615.900000095367,7702.700000286102,8357,9310.900000095367,9908.300000190735,10509.900000095367,11091.200000286102,12292.200000286102,12901.700000286102,13532,14122.300000190735,15398,16582.200000286102,17616.5,20544.10000038147,22929.5,24952.700000286102,26368.200000286102],"honeypot":0,"survey":"mace","page":3,"trial_type":"survey-mace","trial_index":11,"time_elapsed":490768,"internal_node_id":"0.0-11.0","task_version":"prescreen-v0.3","browser_interactions":0},{"responses":{"01":"Yes","01_ages_5":"5","01_ages_6":"6","01_ages_15":"15","02":"Yes","02_ages_5":"5","02_ages_6":"6","02_ages_15":"15"},"rt":29108.900000095367,"item_order":[0,1],"radio_events":[7268,15400.200000286102],"checkbox_events":[8772.200000286102,12687.800000190735,16945.200000286102,18290,25500.700000286102,27387],"key_events":[],"mouse_events":[7268,8772.200000286102,12687.800000190735,15400.200000286102,16945.200000286102,18290,25500.700000286102,27387,28277.10000038147,29108],"honeypot":0,"survey":"mace","page":4,"trial_type":"survey-mace","trial_index":12,"time_elapsed":519879,"internal_node_id":"0.0-12.0","task_version":"prescreen-v0.3","browser_interactions":0},{"responses":{"01":"Yes","01_ages_3":"3","01_ages_4":"4","01_ages_5":"5","02":"Yes","02_ages_3":"3","02_ages_4":"4","02_ages_5":"5","03":"No","04":"Yes","04_ages_3":"3","04_ages_4":"4","04_ages_5":"5","05":"No"},"rt":52457.90000009537,"item_order":[0,1,2,3,4],"radio_events":[14133.200000286102,25179.900000095367,41045,45373.2000002861,51654.300000190735],"checkbox_events":[15728.400000095367,16452.200000286102,18210.800000190735,19357.200000286102,26756.5,27414.10000038147,28084.900000095367,32555.5,46978.90000009537,47975.40000009537,48954.7000002861],"key_events":[],"mouse_events":[14133.200000286102,15728.400000095367,16452.200000286102,18210.800000190735,19357.200000286102,25179.900000095367,26756.5,27414.10000038147,28084.900000095367,32555.5,41045,45373.2000002861,46978.90000009537,47975.40000009537,48954.7000002861,51654.300000190735,52455.800000190735],"honeypot":0,"survey":"mace","page":5,"trial_type":"survey-mace","trial_index":13,"time_elapsed":572341,"internal_node_id":"0.0-13.0","task_version":"prescreen-v0.3","browser_interactions":0},{"responses":{"01":"No","02":"No","03":"No","04":"No","05":"No"},"rt":27668.900000095367,"item_order":[0,1,2,3,4],"radio_events":[7924.900000095367,9409.099999904633,10547.800000190735,17898.800000190735,24480.800000190735,25364.200000286102,26305.300000190735],"checkbox_events":[],"key_events":[],"mouse_events":[7924.900000095367,9409.099999904633,10547.800000190735,17085.900000095367,17898.800000190735,24480.800000190735,25364.200000286102,26305.300000190735,27666.800000190735],"honeypot":0,"survey":"mace","page":6,"trial_type":"survey-mace","trial_index":14,"time_elapsed":600015,"internal_node_id":"0.0-14.0","task_version":"prescreen-v0.3","browser_interactions":0},{"responses":{"01":"No","02":"No","03":"No","04":"No","05":"No","06":"Yes","06_ages_14":"14","06_ages_15":"15","07":"Yes","07_ages_14":"14","07_ages_15":"15"},"rt":33167.5,"item_order":[0,1,2,3,4,5,6],"radio_events":[4211.300000190735,7805.300000190735,11316.700000286102,12911.5,15709.10000038147,17943.300000190735,29971.5],"checkbox_events":[20369.900000095367,21431.10000038147,31563.900000095367,32264],"key_events":[],"mouse_events":[4211.300000190735,7805.300000190735,11316.700000286102,12911.5,15709.10000038147,17943.300000190735,19325.10000038147,20369.900000095367,21431.10000038147,29971.5,31563.900000095367,32264,33164.7000002861],"honeypot":0,"survey":"mace","page":7,"trial_type":"survey-mace","trial_index":15,"time_elapsed":633187,"internal_node_id":"0.0-15.0","task_version":"prescreen-v0.3","browser_interactions":0},{"responses":{"01":"No","02":"Yes","02_ages_3":"3","02_ages_4":"4","02_ages_5":"5","02_ages_6":"6","02_ages_7":"7","02_ages_8":"8","02_ages_9":"9","02_ages_10":"10","02_ages_11":"11","02_ages_12":"12","02_ages_13":"13","02_ages_14":"14","02_ages_15":"15","02_ages_16":"16","02_ages_17":"17","02_ages_18":"18","03":"Yes","03_ages_14":"14","03_ages_15":"15","03_ages_16":"16","03_ages_17":"17","03_ages_18":"18","04":"Yes","04_ages_4":"4","04_ages_5":"5","04_ages_6":"6","04_ages_7":"7","04_ages_8":"8","04_ages_9":"9","04_ages_10":"10","04_ages_11":"11","04_ages_12":"12","04_ages_13":"13","04_ages_14":"14","04_ages_15":"15","04_ages_16":"16","04_ages_17":"17","04_ages_18":"18"},"rt":70215.30000019073,"item_order":[0,1,2,3],"radio_events":[11308.900000095367,16385,33249.59999990463,40191.59999990463,54230.199999809265],"checkbox_events":[17719.599999904633,18358.5,19643.099999904633,20248.400000095367,20812.599999904633,21345.300000190735,21865.800000190735,22995.099999904633,23571.400000095367,24167.599999904633,24782.5,25299.400000095367,25869.599999904633,26851.699999809265,27686.599999904633,28712.199999809265,44573.09999990463,46131.800000190735,47101.59999990463,47833.300000190735,48623.90000009537,57232.5,57866.800000190735,58591.5,59390.09999990463,60128.300000190735,61351,62681.800000190735,63924.40000009537,64960,65529.699999809265,66074.5,67027.09999990463,67702.69999980927,68569.69999980927,69387],"key_events":[],"mouse_events":[11308.900000095367,16385,17719.599999904633,18358.5,19047.699999809265,19643.099999904633,20248.400000095367,20812.599999904633,21345.300000190735,21865.800000190735,22366.599999904633,22995.099999904633,23571.400000095367,24167.599999904633,24782.5,25299.400000095367,25869.599999904633,26851.699999809265,27686.599999904633,28712.199999809265,32434.900000095367,33249.59999990463,40191.59999990463,44573.09999990463,45481.800000190735,46131.800000190735,47101.59999990463,47833.300000190735,48623.90000009537,54230.199999809265,57232.5,57866.800000190735,58591.5,59390.09999990463,60128.300000190735,60731.09999990463,61351,62681.800000190735,63924.40000009537,64960,65529.699999809265,66074.5,67027.09999990463,67702.69999980927,68569.69999980927,69387,70213.59999990463],"honeypot":0,"survey":"mace","page":8,"trial_type":"survey-mace","trial_index":16,"time_elapsed":703406,"internal_node_id":"0.0-16.0","task_version":"prescreen-v0.3","browser_interactions":0},{"responses":{"01":"Yes","01_ages_1":"1","01_ages_2":"2","01_ages_3":"3","01_ages_4":"4","01_ages_5":"5","01_ages_6":"6","01_ages_7":"7","01_ages_8":"8","01_ages_9":"9","01_ages_10":"10","01_ages_11":"11","01_ages_12":"12","01_ages_13":"13","01_ages_14":"14","01_ages_15":"15","01_ages_16":"16","01_ages_17":"17","01_ages_18":"18","02":"Yes","02_ages_1":"1","02_ages_2":"2","02_ages_3":"3","02_ages_4":"4","02_ages_5":"5","02_ages_6":"6","02_ages_7":"7","02_ages_8":"8","02_ages_9":"9","02_ages_10":"10","02_ages_11":"11","02_ages_12":"12","02_ages_13":"13","02_ages_14":"14","02_ages_15":"15","02_ages_16":"16","02_ages_17":"17","02_ages_18":"18","03":"Yes","03_ages_1":"1","03_ages_2":"2","03_ages_3":"3","03_ages_4":"4","03_ages_5":"5","03_ages_6":"6","03_ages_7":"7","03_ages_8":"8","03_ages_9":"9","03_ages_10":"10","03_ages_11":"11","03_ages_12":"12","03_ages_13":"13","03_ages_14":"14","03_ages_15":"15","03_ages_16":"16","03_ages_17":"17","03_ages_18":"18","04":"Yes","04_ages_1":"1","04_ages_2":"2","04_ages_3":"3","04_ages_4":"4","04_ages_5":"5","04_ages_6":"6","04_ages_7":"7","04_ages_8":"8","04_ages_9":"9","04_ages_10":"10","04_ages_11":"11","04_ages_12":"12","04_ages_13":"13","04_ages_14":"14","04_ages_15":"15","04_ages_16":"16","04_ages_17":"17","04_ages_18":"18"},"rt":86171.60000038147,"item_order":[0,1,2,3],"radio_events":[3988.7000002861023,31837,52508.60000038147,53309.2000002861],"checkbox_events":[8136.5,8782.60000038147,9953.700000286102,10748.300000190735,11377.900000095367,11923.10000038147,12725.300000190735,13695.900000095367,15657.60000038147,16374,17616.10000038147,18291.5,18403.5,19357.700000286102,20328.800000190735,21530.900000095367,22282.200000286102,23903,25461,26310.800000190735,33148.60000038147,33872.300000190735,34480.60000038147,35034.7000002861,35796.5,36367.300000190735,36907.2000002861,38763,39449.5,40041.90000009537,41357.2000002861,42242.800000190735,44149.90000009537,45006.800000190735,45873.7000002861,46581.2000002861,48940.60000038147,49918.800000190735,54606.2000002861,55197.2000002861,56320.60000038147,57548.7000002861,58170.300000190735,58791.5,59325.300000190735,60014.40000009537,60773.800000190735,61676,62376,63103.10000038147,64466.2000002861,65148.60000038147,65834.80000019073,67439.40000009537,68139.5,68882.10000038147,70434.40000009537,71178.90000009537,71816.30000019073,73037,73777.80000019073,74403.10000038147,75334.5,76244.2000002861,77233,77943.90000009537,78654.90000009537,79986.80000019073,80828.7000002861,82056.80000019073,83031.40000009537,83876.30000019073,84615.10000038147,85412.2000002861],"key_events":[],"mouse_events":[3988.7000002861023,8136.5,8782.60000038147,9332,9953.700000286102,10748.300000190735,11377.900000095367,11923.10000038147,12725.300000190735,13695.900000095367,14475.400000095367,15657.60000038147,16374,17616.10000038147,18291.5,18403.5,19357.700000286102,20328.800000190735,21530.900000095367,22282.200000286102,23106.900000095367,23903,24699.60000038147,25461,26310.800000190735,31837,33148.60000038147,33872.300000190735,34480.60000038147,35034.7000002861,35796.5,36367.300000190735,36907.2000002861,38188,38763,39449.5,40041.90000009537,40798.300000190735,41357.2000002861,42242.800000190735,43277.7000002861,44149.90000009537,45006.800000190735,45873.7000002861,46581.2000002861,47428.40000009537,48281,48940.60000038147,49918.800000190735,52508.60000038147,53309.2000002861,54606.2000002861,55197.2000002861,56320.60000038147,56917.2000002861,57548.7000002861,58170.300000190735,58791.5,59325.300000190735,60014.40000009537,60773.800000190735,61676,62376,63103.10000038147,63767.60000038147,64466.2000002861,65148.60000038147,65834.80000019073,66645.30000019073,67439.40000009537,68139.5,68882.10000038147,70434.40000009537,71178.90000009537,71816.30000019073,72468.7000002861,73037,73777.80000019073,74403.10000038147,75334.5,76244.2000002861,77233,77943.90000009537,78654.90000009537,79986.80000019073,80828.7000002861,82056.80000019073,83031.40000009537,83876.30000019073,84615.10000038147,85412.2000002861,86169.90000009537],"honeypot":0,"survey":"mace","page":9,"trial_type":"survey-mace","trial_index":17,"time_elapsed":789581,"internal_node_id":"0.0-17.0","task_version":"prescreen-v0.3","browser_interactions":0},{"responses":{"01":"Yes","01_ages_10":"10","01_ages_11":"11","01_ages_12":"12","01_ages_13":"13","01_ages_14":"14","01_ages_15":"15","01_ages_16":"16","01_ages_17":"17","01_ages_18":"18","02":"No","03":"Yes","03_ages_13":"13","03_ages_14":"14","03_ages_15":"15","03_ages_16":"16","03_ages_17":"17","03_ages_18":"18","04":"Yes","04_ages_8":"8","04_ages_9":"9","04_ages_10":"10","04_ages_11":"11","04_ages_12":"12","04_ages_13":"13","04_ages_14":"14","04_ages_15":"15","04_ages_16":"16","04_ages_17":"17","04_ages_18":"18","05":"No","06":"Yes","06_ages_17":"17","07":"Yes","07_ages_1":"1","07_ages_2":"2","07_ages_3":"3","07_ages_4":"4","07_ages_5":"5","07_ages_6":"6","07_ages_7":"7","07_ages_8":"8","07_ages_9":"9","07_ages_10":"10","07_ages_11":"11","07_ages_12":"12","07_ages_13":"13","07_ages_14":"14","07_ages_15":"15","07_ages_16":"16","07_ages_17":"17","07_ages_18":"18","08":"Yes","08_ages_1":"1","08_ages_2":"2","08_ages_3":"3","08_ages_4":"4","08_ages_5":"5","08_ages_6":"6","08_ages_7":"7","08_ages_8":"8","08_ages_9":"9","08_ages_10":"10","08_ages_11":"11","08_ages_12":"12","08_ages_13":"13","08_ages_14":"14","08_ages_16":"16","08_ages_17":"17","08_ages_18":"18"},"rt":107559.69999980927,"item_order":[0,1,2,3,4,5,6,7],"radio_events":[3253.2999997138977,17908.299999713898,23299.099999904633,31563.39999961853,45469.699999809265,47646.89999961853,57059.699999809265,87648.89999961853],"checkbox_events":[6056.799999713898,7444,8376.099999904633,8987.39999961853,10178.5,11511.099999904633,12470.799999713898,13260.699999809265,14192.299999713898,24864.099999904633,25619.199999809265,26343.099999904633,27011.89999961853,27623.5,28183.5,33586.199999809265,34251.199999809265,34928.59999990463,35555.2999997139,36204.09999990463,37388,38092.59999990463,38932.39999961853,39844.699999809265,40547.7999997139,41409,51362.5,59073.7999997139,59855.2999997139,61336.7999997139,73118.39999961853,73988.19999980927,74598.7999997139,75175.09999990463,76984.5,77764.69999980927,78450.89999961853,79182.59999990463,80009.89999961853,80626.5,81235.39999961853,82426.5,82994.2999997139,83664,84311.09999990463,89069.5,89693.69999980927,91060.5,92050.89999961853,93033.2999997139,93633.2999997139,94180.89999961853,94718.59999990463,96259.89999961853,97773.89999961853,98450.09999990463,99359.09999990463,100800.69999980927,101666.09999990463,102276.69999980927,103272.89999961853,103994.39999961853,105225.09999990463,105919.7999997139],"key_events":[],"mouse_events":[3253.2999997138977,5243.89999961853,6056.799999713898,6782.89999961853,7444,8376.099999904633,8987.39999961853,10178.5,11511.099999904633,12470.799999713898,13260.699999809265,14192.299999713898,17011.89999961853,17908.299999713898,23299.099999904633,24864.099999904633,25619.199999809265,26343.099999904633,27011.89999961853,27623.5,28183.5,30868.699999809265,31563.39999961853,33586.199999809265,34251.199999809265,34928.59999990463,35555.2999997139,36204.09999990463,36914.199999809265,37388,38092.59999990463,38932.39999961853,39844.699999809265,40547.7999997139,41409,45469.699999809265,47646.89999961853,51362.5,57059.699999809265,59073.7999997139,59855.2999997139,60653.09999990463,61336.7999997139,72490.59999990463,73118.39999961853,73988.19999980927,74598.7999997139,75175.09999990463,75831.39999961853,76311.39999961853,76984.5,77764.69999980927,78450.89999961853,79182.59999990463,80009.89999961853,80626.5,81235.39999961853,81832.2999997139,82426.5,82994.2999997139,83664,84311.09999990463,86735.59999990463,87648.89999961853,89069.5,89693.69999980927,90224.39999961853,91060.5,92050.89999961853,93033.2999997139,93633.2999997139,94180.89999961853,94718.59999990463,95217.5,95719.89999961853,96259.89999961853,96988.5,97773.89999961853,98450.09999990463,99359.09999990463,99979.69999980927,100800.69999980927,101666.09999990463,102276.69999980927,103272.89999961853,103994.39999961853,105225.09999990463,105919.7999997139,107556.39999961853],"honeypot":0,"survey":"mace","page":10,"trial_type":"survey-mace","trial_index":18,"time_elapsed":897146,"internal_node_id":"0.0-18.0","task_version":"prescreen-v0.3","browser_interactions":0,"instructed":0},{"rt":2628.2999997138977,"trial_type":"mental-health-alert","trial_index":19,"time_elapsed":899776,"internal_node_id":"0.0-19.0","task_version":"prescreen-v0.3","interactions":"[]"}]