[{"view_history":[{"page_index":0,"viewing_time":2321.099999997765},{"page_index":1,"viewing_time":2559.800000000745},{"page_index":2,"viewing_time":2879.800000000745},{"page_index":3,"viewing_time":987.3000000007451}],"rt":8749,"trial_type":"instructions","trial_index":0,"time_elapsed":8795,"internal_node_id":"0.0-0.0","task_version":"prescreen-v0.3"},{"rt":20485.20000000298,"responses":{"age":"24","gender-categorical":"Female","gender-free-response":"","ethnicity":"Not Hispanic or Latino","race":["White"],"education":"Some college"},"trial_type":"survey-demo","trial_index":1,"time_elapsed":29287,"internal_node_id":"0.0-1.0","task_version":"prescreen-v0.3"},{"responses":{"Q09":"2","Q07":"0","Q17":"0","Q05":"1","Q11":"2","Q12":"1","Q04":"0","Q19":"1","Q10":"1","Q06":"1","Q08":"1","Q02":"0","Q21":"3","Q03":"0","Q01":"1","Q14":"2","Q20":"0","Q13":"2","Q15":"3","Q16":"1","Q18":"1"},"rt":183076.19999999925,"item_order":[8,6,16,4,10,11,3,18,9,5,7,1,20,2,0,13,19,12,14,15,17],"radio_events":[10286.29999999702,22672.599999997765,28470.5,47767.099999997765,53376.099999997765,60305,66433.5,76258.5,86977.29999999702,94666.5,101563.89999999851,109155.5,114278.5,119837,126519.5,130616.69999999925,133465.29999999702,137907.69999999925,145006.79999999702,153154.69999999925,160701.09999999776,162748.29999999702,170085.29999999702,182002.3999999985],"key_events":[],"mouse_events":[8906.599999997765,9491.699999999255,10286.29999999702,22672.599999997765,28470.5,47767.099999997765,53376.099999997765,60305,66433.5,76258.5,86977.29999999702,94666.5,101563.89999999851,108513.39999999851,109155.5,114278.5,119837,126519.5,130616.69999999925,133465.29999999702,137907.69999999925,145006.79999999702,153154.69999999925,160701.09999999776,162748.29999999702,170085.29999999702,182002.3999999985,183070.59999999776],"straightlining":0.42857142857142855,"zigzagging":0.55,"honeypot":0,"survey":"sns","trial_type":"survey-template","trial_index":2,"time_elapsed":212374,"internal_node_id":"0.0-2.0","task_version":"prescreen-v0.3","browser_interactions":0,"infrequency":0},{"responses":{"Q10":"2","Q09":"2","Q03":"3","Q01":"2","Q12":"1","Q04":"3","Q08":"2","Q02":"2","Q11":"2","Q06":"3","Q13":"0","Q05":"3","Q07":"3"},"rt":106062.19999999925,"item_order":[9,8,2,0,11,3,7,1,10,5,12,4,6],"radio_events":[8768.5,15496.599999997765,21498.199999999255,24419.89999999851,36407.29999999702,43692.099999997765,50703.89999999851,61256.5,70042.09999999776,74341.09999999776,77768.29999999702,82909.89999999851,98358.59999999776,103085.79999999702,104024.79999999702],"key_events":[],"mouse_events":[8768.5,15496.599999997765,21498.199999999255,24419.89999999851,36407.29999999702,43692.099999997765,49773.199999999255,50703.89999999851,61256.5,70042.09999999776,74341.09999999776,77768.29999999702,82909.89999999851,98358.59999999776,103085.79999999702,104024.79999999702,106059.69999999925],"straightlining":0.46153846153846156,"zigzagging":0.5833333333333334,"honeypot":0,"survey":"bisbas","trial_type":"survey-template","trial_index":3,"time_elapsed":318443,"internal_node_id":"0.0-3.0","task_version":"prescreen-v0.3","browser_interactions":0,"infrequency":0},{"responses":{"Q01":"3","Q02":"2","Q03":"3"},"rt":31910.800000000745,"radio_events":[6811.70000000298,19946.70000000298,30557.5],"key_events":[],"mouse_events":[6811.70000000298,19946.70000000298,30557.5,31909.400000002235],"survey":"map","page":1,"trial_type":"survey-map","trial_index":4,"time_elapsed":350359,"internal_node_id":"0.0-4.0","task_version":"prescreen-v0.3","browser_interactions":0},{"responses":{"Q04":"2","Q05":"2","Q06":"2"},"rt":17349.199999999255,"radio_events":[6816.39999999851,12303.099999997765,16265],"key_events":[],"mouse_events":[6816.39999999851,12303.099999997765,16265,17348],"survey":"map","page":2,"trial_type":"survey-map","trial_index":5,"time_elapsed":367711,"internal_node_id":"0.0-5.0","task_version":"prescreen-v0.3","browser_interactions":0},{"responses":{"Q07":"4","Q08":"4","Q09":"4"},"rt":19762,"radio_events":[7771.099999997765,15036.199999999255,18881.099999997765],"key_events":[],"mouse_events":[7771.099999997765,15036.199999999255,18881.099999997765,19760.699999999255],"survey":"map","page":3,"trial_type":"survey-map","trial_index":6,"time_elapsed":387476,"internal_node_id":"0.0-6.0","task_version":"prescreen-v0.3","browser_interactions":0},{"responses":{"Q10":"4","Q11":"3","Q12":"1","Q13":"3","Q16":"0","Q14":"2","Q15":"2"},"rt":55124.400000002235,"radio_events":[10627.60000000149,17162.10000000149,27438.5,36178.60000000149,41641.60000000149,46663.10000000149,53139.10000000149],"key_events":[],"mouse_events":[10627.60000000149,17162.10000000149,27438.5,36178.60000000149,41641.60000000149,46663.10000000149,53139.10000000149,55122.400000002235],"survey":"map","page":4,"trial_type":"survey-map","trial_index":7,"time_elapsed":442605,"internal_node_id":"0.0-7.0","task_version":"prescreen-v0.3","browser_interactions":0,"infrequency":0},{"view_history":[{"page_index":0,"viewing_time":1909},{"page_index":1,"viewing_time":2175}],"rt":4085.10000000149,"trial_type":"instructions","trial_index":8,"time_elapsed":446692,"internal_node_id":"0.0-8.0","task_version":"prescreen-v0.3"},{"responses":{"01":"No","02":"No","03":"No","04":"No","05":"No","06":"No"},"rt":37657.699999999255,"item_order":[0,1,2,3,4,5],"radio_events":[17185.300000000745,24305.199999999255,27705.89999999851,30319,32293.199999999255,36721.300000000745],"checkbox_events":[],"key_events":[],"mouse_events":[0.10000000149011612,16287.5,17185.300000000745,24305.199999999255,27705.89999999851,30319,32293.199999999255,36721.300000000745,37652.10000000149],"honeypot":0,"survey":"mace","page":1,"trial_type":"survey-mace","trial_index":9,"time_elapsed":484359,"internal_node_id":"0.0-9.0","task_version":"prescreen-v0.3","browser_interactions":0},{"responses":{"01":"No","02":"No","03":"No","04":"No","05":"No","06":"No","07":"No","08":"No"},"rt":18005.599999997765,"item_order":[0,1,2,3,4,5,6,7],"radio_events":[2314.800000000745,4489.800000000745,6128.39999999851,7544.699999999255,11434.599999997765,14117.199999999255,15377.39999999851,17323.39999999851],"checkbox_events":[],"key_events":[],"mouse_events":[2314.800000000745,4489.800000000745,6128.39999999851,7544.699999999255,11434.599999997765,14117.199999999255,15377.39999999851,17323.39999999851,17997.89999999851],"honeypot":0,"survey":"mace","page":2,"trial_type":"survey-mace","trial_index":10,"time_elapsed":502370,"internal_node_id":"0.0-10.0","task_version":"prescreen-v0.3","browser_interactions":0},{"responses":{"01":"No","02":"No","03":"No","04":"No"},"rt":9835.900000002235,"item_order":[0,1,2,3],"radio_events":[2846.199999999255,4957.699999999255,7683.60000000149,8253.10000000149],"checkbox_events":[],"key_events":[],"mouse_events":[2846.199999999255,4957.699999999255,6511.10000000149,7683.60000000149,8253.10000000149,9831.199999999255],"honeypot":0,"survey":"mace","page":3,"trial_type":"survey-mace","trial_index":11,"time_elapsed":512209,"internal_node_id":"0.0-11.0","task_version":"prescreen-v0.3","browser_interactions":0},{"responses":{"01":"No","02":"No"},"rt":5217.29999999702,"item_order":[0,1],"radio_events":[2873.89999999851,4512.099999997765],"checkbox_events":[],"key_events":[],"mouse_events":[2873.89999999851,4512.099999997765,5214.699999999255],"honeypot":0,"survey":"mace","page":4,"trial_type":"survey-mace","trial_index":12,"time_elapsed":517429,"internal_node_id":"0.0-12.0","task_version":"prescreen-v0.3","browser_interactions":0},{"responses":{"01":"No","02":"No","03":"No","04":"No","05":"No"},"rt":13323.70000000298,"item_order":[0,1,2,3,4],"radio_events":[4085.7000000029802,6871.300000000745,9018.900000002235,10729.60000000149,12407.800000000745],"checkbox_events":[],"key_events":[],"mouse_events":[4085.7000000029802,6871.300000000745,9018.900000002235,10729.60000000149,12407.800000000745,13318.900000002235],"honeypot":0,"survey":"mace","page":5,"trial_type":"survey-mace","trial_index":13,"time_elapsed":530757,"internal_node_id":"0.0-13.0","task_version":"prescreen-v0.3","browser_interactions":0},{"responses":{"01":"Yes","01_ages_14":"14","01_ages_15":"15","01_ages_16":"16","02":"Yes","02_ages_16":"16","02_ages_17":"17","02_ages_18":"18","03":"Yes","03_ages_15":"15","03_ages_17":"17","03_ages_18":"18","04":"No","05":"No"},"rt":89944.5,"item_order":[0,1,2,3,4],"radio_events":[30630.5,61423.70000000298,74133.90000000224,85776.90000000224,88686.80000000075],"checkbox_events":[37418.800000000745,42846,43597,44174.60000000149,45901.10000000149,67388.80000000075,68356.60000000149,69030.60000000149,77000.60000000149,77875.30000000075,81709.60000000149],"key_events":[],"mouse_events":[30630.5,37418.800000000745,42846,43597,44174.60000000149,45901.10000000149,61423.70000000298,67388.80000000075,68356.60000000149,69030.60000000149,74133.90000000224,77000.60000000149,77875.30000000075,81709.60000000149,85776.90000000224,88686.80000000075,89939.90000000224],"honeypot":0,"survey":"mace","page":6,"trial_type":"survey-mace","trial_index":14,"time_elapsed":620708,"internal_node_id":"0.0-14.0","task_version":"prescreen-v0.3","browser_interactions":0},{"responses":{"01":"No","02":"No","03":"No","04":"No","05":"No","06":"No","07":"No"},"rt":25480.199999999255,"item_order":[0,1,2,3,4,5,6],"radio_events":[4129.89999999851,7293.39999999851,12243.300000000745,14166.39999999851,21122.800000000745,22591.39999999851,23948.699999999255],"checkbox_events":[],"key_events":[],"mouse_events":[4129.89999999851,7293.39999999851,12243.300000000745,14166.39999999851,21122.800000000745,22591.39999999851,23948.699999999255,25473.39999999851],"honeypot":0,"survey":"mace","page":7,"trial_type":"survey-mace","trial_index":15,"time_elapsed":646193,"internal_node_id":"0.0-15.0","task_version":"prescreen-v0.3","browser_interactions":0},{"responses":{"01":"No","02":"No","03":"No","04":"No"},"rt":32059.5,"item_order":[0,1,2,3],"radio_events":[12717.5,17957.5,27081.300000000745,31220.39999999851],"checkbox_events":[],"key_events":[],"mouse_events":[12717.5,17957.5,27081.300000000745,31220.39999999851,32055.199999999255],"honeypot":0,"survey":"mace","page":8,"trial_type":"survey-mace","trial_index":16,"time_elapsed":678256,"internal_node_id":"0.0-16.0","task_version":"prescreen-v0.3","browser_interactions":0},{"responses":{"01":"Yes","01_ages_1":"1","01_ages_2":"2","01_ages_3":"3","01_ages_4":"4","01_ages_5":"5","01_ages_6":"6","01_ages_7":"7","01_ages_8":"8","01_ages_9":"9","01_ages_10":"10","01_ages_11":"11","01_ages_12":"12","01_ages_13":"13","01_ages_14":"14","01_ages_15":"15","01_ages_16":"16","01_ages_17":"17","01_ages_18":"18","02":"Yes","02_ages_1":"1","02_ages_2":"2","02_ages_3":"3","02_ages_4":"4","02_ages_5":"5","02_ages_6":"6","02_ages_7":"7","02_ages_8":"8","02_ages_9":"9","02_ages_10":"10","02_ages_11":"11","02_ages_12":"12","02_ages_13":"13","02_ages_14":"14","02_ages_15":"15","02_ages_16":"16","02_ages_17":"17","02_ages_18":"18","03":"Yes","03_ages_1":"1","03_ages_2":"2","03_ages_3":"3","03_ages_4":"4","03_ages_5":"5","03_ages_6":"6","03_ages_7":"7","03_ages_8":"8","03_ages_9":"9","03_ages_10":"10","03_ages_11":"11","03_ages_12":"12","03_ages_13":"13","03_ages_14":"14","03_ages_15":"15","03_ages_16":"16","03_ages_17":"17","03_ages_18":"18","04":"Yes","04_ages_1":"1","04_ages_2":"2","04_ages_3":"3","04_ages_4":"4","04_ages_5":"5","04_ages_6":"6","04_ages_7":"7","04_ages_8":"8","04_ages_9":"9","04_ages_10":"10","04_ages_11":"11","04_ages_12":"12","04_ages_13":"13","04_ages_14":"14","04_ages_15":"15","04_ages_16":"16","04_ages_17":"17","04_ages_18":"18"},"rt":84493.19999999925,"item_order":[0,1,2,3],"radio_events":[4260.10000000149,24826.800000000745,43467.800000000745,64639.39999999851],"checkbox_events":[8680,9418.39999999851,9957,10554.89999999851,11807.5,12297.60000000149,13469.60000000149,14469.39999999851,15320.89999999851,16220,16861.89999999851,17720.89999999851,18435.800000000745,19106,19901.39999999851,20599.699999999255,21193.5,21980.199999999255,26480.60000000149,27095,27689.5,28508.5,29070.199999999255,29665.10000000149,30291.300000000745,30941.800000000745,33514.5,34253.10000000149,34848,35441.60000000149,36007.699999999255,36569.60000000149,37139.89999999851,37742.10000000149,38376.89999999851,39018.699999999255,44643.89999999851,45438.89999999851,46499.300000000745,47149.199999999255,47824.199999999255,48374,49120.5,49667,50245,50830.89999999851,51417.5,51972.60000000149,53012.10000000149,53726.800000000745,54513.199999999255,55083.60000000149,55653.60000000149,56271.60000000149,72047.10000000149,72785.30000000075,73492.80000000075,74021.80000000075,74608,75146.60000000149,75704.80000000075,76290.80000000075,76820.69999999925,77350.89999999851,77897.39999999851,78507.5,79708.39999999851,80671.30000000075,81240.80000000075,81811.39999999851,82782.89999999851,83409],"key_events":[],"mouse_events":[4260.10000000149,8680,9418.39999999851,9957,10554.89999999851,11132.60000000149,11807.5,12297.60000000149,12835.800000000745,13469.60000000149,13974.89999999851,14469.39999999851,15320.89999999851,15850,16220,16861.89999999851,17720.89999999851,18435.800000000745,19106,19901.39999999851,20599.699999999255,21193.5,21980.199999999255,24826.800000000745,26480.60000000149,27095,27689.5,28508.5,29070.199999999255,29665.10000000149,30291.300000000745,30941.800000000745,33514.5,34253.10000000149,34848,35441.60000000149,36007.699999999255,36569.60000000149,37139.89999999851,37742.10000000149,38376.89999999851,39018.699999999255,43467.800000000745,44643.89999999851,45438.89999999851,46017.5,46499.300000000745,47149.199999999255,47824.199999999255,48374,49120.5,49667,50245,50830.89999999851,51417.5,51972.60000000149,52537.699999999255,53012.10000000149,53726.800000000745,54513.199999999255,55083.60000000149,55653.60000000149,56271.60000000149,64639.39999999851,72047.10000000149,72785.30000000075,73492.80000000075,74021.80000000075,74608,75146.60000000149,75704.80000000075,76290.80000000075,76820.69999999925,77350.89999999851,77897.39999999851,78507.5,79149.30000000075,79708.39999999851,80269.69999999925,80671.30000000075,81240.80000000075,81811.39999999851,82373.80000000075,82782.89999999851,83409,84489.30000000075],"honeypot":0,"survey":"mace","page":9,"trial_type":"survey-mace","trial_index":17,"time_elapsed":762755,"internal_node_id":"0.0-17.0","task_version":"prescreen-v0.3","browser_interactions":0},{"responses":{"01":"No","02":"No","03":"No","04":"Yes","04_ages_14":"14","04_ages_15":"15","04_ages_16":"16","04_ages_17":"17","04_ages_18":"18","05":"Yes","05_ages_13":"13","06":"Yes","06_ages_17":"17","07":"Yes","07_ages_1":"1","07_ages_2":"2","07_ages_3":"3","07_ages_4":"4","07_ages_5":"5","07_ages_6":"6","07_ages_7":"7","07_ages_8":"8","07_ages_9":"9","07_ages_10":"10","07_ages_11":"11","07_ages_12":"12","07_ages_13":"13","07_ages_14":"14","07_ages_15":"15","07_ages_16":"16","07_ages_17":"17","07_ages_18":"18","08":"Yes","08_ages_1":"1","08_ages_2":"2","08_ages_3":"3","08_ages_4":"4","08_ages_5":"5","08_ages_6":"6","08_ages_7":"7","08_ages_8":"8","08_ages_9":"9","08_ages_10":"10","08_ages_11":"11","08_ages_12":"12","08_ages_13":"13","08_ages_14":"14","08_ages_15":"15","08_ages_16":"16","08_ages_17":"17","08_ages_18":"18"},"rt":94833.10000000149,"item_order":[0,1,2,3,4,5,6,7],"radio_events":[3293,6234.60000000149,7953.900000002235,13224.5,45714.20000000298,59106.60000000149,63607.800000000745,79602.30000000075],"checkbox_events":[18431.60000000149,19052.900000002235,19551,20097.5,27435.20000000298,49403.300000000745,60814.400000002235,65603.20000000298,66108.60000000149,67153.40000000224,67859.60000000149,68478,69032.30000000075,69645.10000000149,70199.40000000224,70737.80000000075,71332.10000000149,71917.80000000075,72464.90000000224,73018,73969.80000000075,74532,75085.80000000075,75695.30000000075,76193.40000000224,81247.80000000075,82032.10000000149,82608.80000000075,83163.20000000298,83749.5,84312.40000000224,84841.60000000149,85371.60000000149,85889.10000000149,86828.40000000224,87880.5,88811.60000000149,89891.30000000075,90638,91375.80000000075,91986.70000000298,92565.5,93094.30000000075],"key_events":[],"mouse_events":[3293,6234.60000000149,7953.900000002235,13224.5,18431.60000000149,19052.900000002235,19551,20097.5,27435.20000000298,45714.20000000298,49403.300000000745,59106.60000000149,60814.400000002235,63607.800000000745,65603.20000000298,66108.60000000149,66727.20000000298,67153.40000000224,67859.60000000149,68478,69032.30000000075,69645.10000000149,70199.40000000224,70737.80000000075,71332.10000000149,71917.80000000075,72464.90000000224,73018,73552.70000000298,73969.80000000075,74532,75085.80000000075,75695.30000000075,76193.40000000224,79602.30000000075,81247.80000000075,82032.10000000149,82608.80000000075,83163.20000000298,83749.5,84312.40000000224,84841.60000000149,85371.60000000149,85889.10000000149,86435.30000000075,86828.40000000224,87390.80000000075,87880.5,88371,88811.60000000149,89373.60000000149,89891.30000000075,90638,91375.80000000075,91986.70000000298,92565.5,93094.30000000075,94824.90000000224],"honeypot":0,"survey":"mace","page":10,"trial_type":"survey-mace","trial_index":18,"time_elapsed":857596,"internal_node_id":"0.0-18.0","task_version":"prescreen-v0.3","browser_interactions":0,"instructed":0},{"rt":10130.699999999255,"trial_type":"mental-health-alert","trial_index":19,"time_elapsed":867729,"internal_node_id":"0.0-19.0","task_version":"prescreen-v0.3","interactions":"[]"}]