[{"view_history":[{"page_index":0,"viewing_time":5534.100000023842},{"page_index":1,"viewing_time":4663.5},{"page_index":2,"viewing_time":5736.200000047684},{"page_index":3,"viewing_time":1760.6999999284744}],"rt":17696.300000071526,"trial_type":"instructions","trial_index":0,"time_elapsed":17766,"internal_node_id":"0.0-0.0","task_version":"prescreen-v0.3"},{"rt":21902.100000023842,"responses":{"age":"55","gender-categorical":"Male","gender-free-response":"","ethnicity":"Not Hispanic or Latino","race":["White"],"education":"Bachelor degree","siblings":"1"},"trial_type":"survey-demo","trial_index":1,"time_elapsed":39682,"internal_node_id":"0.0-1.0","task_version":"prescreen-v0.3"},{"responses":{"Q13":"1","Q07":"0","Q09":"2","Q05":"2","Q01":"3","Q03":"2","Q12":"2","Q15":"3","Q18":"3","Q14":"2","Q17":"2","Q10":"2","Q19":"3","Q02":"2","Q11":"2","Q20":"2","Q08":"2","Q04":"2","Q21":"3","Q06":"2","Q16":"2"},"rt":123213.30000007153,"item_order":[12,6,8,4,0,2,11,14,17,13,16,9,18,1,10,19,7,3,20,5,15],"radio_events":[8896.200000047684,19136.400000095367,24775.600000023842,42792,50927.700000047684,52234.10000002384,56639.90000009537,65799.70000004768,66585.20000004768,70465.30000007153,73103.60000002384,78399.70000004768,83831.90000009537,88927.60000002384,92127.60000002384,93497,94935.60000002384,105215.60000002384,106415.60000002384,113359.5,118432],"key_events":[],"mouse_events":[8896.200000047684,17639.800000071526,19136.400000095367,24775.600000023842,42792,44479.60000002384,48056,50927.700000047684,52234.10000002384,56639.90000009537,62112.5,65055.5,65799.70000004768,66585.20000004768,70465.30000007153,73103.60000002384,78399.70000004768,83831.90000009537,88927.60000002384,92127.60000002384,93497,94935.60000002384,97169,103546,105215.60000002384,106415.60000002384,113359.5,118432,123207.70000004768],"straightlining":0.6666666666666666,"zigzagging":0.45,"honeypot":0,"survey":"sns","trial_type":"survey-template","trial_index":2,"time_elapsed":162907,"internal_node_id":"0.0-2.0","task_version":"prescreen-v0.3","browser_interactions":0,"infrequency":0},{"responses":{"Q10":"1","Q08":"1","Q03":"2","Q06":"2","Q05":"2","Q12":"1","Q13":"0","Q07":"3","Q09":"1","Q11":"1","Q02":"3","Q04":"3","Q01":"3"},"rt":56214,"item_order":[9,7,2,5,4,11,12,6,8,10,1,3,0],"radio_events":[4273.300000071526,8577.600000023842,13233.700000047684,16321.800000071526,19690,25161.800000071526,27965.5,33553.60000002384,36346.10000002384,39665.39999997616,43762.300000071526,46602.5,52635,53801.89999997616],"key_events":[],"mouse_events":[4273.300000071526,7147,8577.600000023842,13233.700000047684,16321.800000071526,19690,25161.800000071526,27965.5,33553.60000002384,34713.60000002384,36346.10000002384,39665.39999997616,43762.300000071526,45546.39999997616,46602.5,51634.200000047684,52635,53801.89999997616,56210.700000047684],"straightlining":0.38461538461538464,"zigzagging":0.3333333333333333,"honeypot":0,"survey":"bisbas","trial_type":"survey-template","trial_index":3,"time_elapsed":219129,"internal_node_id":"0.0-3.0","task_version":"prescreen-v0.3","browser_interactions":0,"infrequency":0},{"responses":{"Q01":"1","Q02":"1","Q03":"1"},"rt":17294.099999904633,"radio_events":[7035.5,12083.199999928474,15995.199999928474],"key_events":[],"mouse_events":[7035.5,9789,11051.399999976158,12083.199999928474,15259.299999952316,15995.199999928474,17291.199999928474],"survey":"map","page":1,"trial_type":"survey-map","trial_index":4,"time_elapsed":236432,"internal_node_id":"0.0-4.0","task_version":"prescreen-v0.3","browser_interactions":0},{"responses":{"Q04":"2","Q05":"2","Q06":"2"},"rt":13536.5,"radio_events":[4368.100000023842,7888.100000023842,12495.300000071526],"key_events":[],"mouse_events":[4368.100000023842,7888.100000023842,12495.300000071526,13534.399999976158],"survey":"map","page":2,"trial_type":"survey-map","trial_index":5,"time_elapsed":249973,"internal_node_id":"0.0-5.0","task_version":"prescreen-v0.3","browser_interactions":0},{"responses":{"Q07":"1","Q08":"1","Q09":"1"},"rt":16276.700000047684,"radio_events":[7602.399999976158,10996.399999976158,14874.299999952316],"key_events":[],"mouse_events":[7602.399999976158,9010.200000047684,10996.399999976158,12834.600000023842,14170.299999952316,14874.299999952316,16274.299999952316],"survey":"map","page":3,"trial_type":"survey-map","trial_index":6,"time_elapsed":266254,"internal_node_id":"0.0-6.0","task_version":"prescreen-v0.3","browser_interactions":0},{"responses":{"Q10":"1","Q11":"1","Q12":"1","Q13":"1","Q16":"0","Q14":"2","Q15":"2"},"rt":42203.89999997616,"radio_events":[3697.1999999284744,6497.5,8417.5,12609.399999976158,19241.399999976158,32841.199999928474,39913.699999928474],"key_events":[],"mouse_events":[3697.1999999284744,5209.699999928474,6497.5,8417.5,10752.899999976158,12609.399999976158,14777.600000023842,18178,19241.399999976158,31953.399999976158,32841.199999928474,38867.39999997616,39913.699999928474,42201.299999952316],"survey":"map","page":4,"trial_type":"survey-map","trial_index":7,"time_elapsed":308463,"internal_node_id":"0.0-7.0","task_version":"prescreen-v0.3","browser_interactions":0,"infrequency":0},{"view_history":[{"page_index":0,"viewing_time":52738.799999952316},{"page_index":1,"viewing_time":5999}],"rt":58739.39999997616,"trial_type":"instructions","trial_index":8,"time_elapsed":367205,"internal_node_id":"0.0-8.0","task_version":"prescreen-v0.3"},{"responses":{"01":"No","02":"Yes","02_ages_10":"10","02_ages_15":"15","02_ages_17":"17","03":"No","04":"No","05":"No","06":"No"},"rt":67042.40000009537,"item_order":[0,1,2,3,4,5],"radio_events":[16427.5,21307.300000071526,58012,61531.300000071526,63250.5,65410.60000002384],"checkbox_events":[31524.100000023842,37867.700000047684,41314.700000047684,46154.60000002384,53427.10000002384],"key_events":[],"mouse_events":[1.4000000953674316,16427.5,21307.300000071526,31524.100000023842,37867.700000047684,41314.700000047684,46154.60000002384,53427.10000002384,58012,59738.800000071526,61531.300000071526,63250.5,65410.60000002384,67037.10000002384],"honeypot":0,"survey":"mace","page":1,"trial_type":"survey-mace","trial_index":9,"time_elapsed":434261,"internal_node_id":"0.0-9.0","task_version":"prescreen-v0.3","browser_interactions":0},{"responses":{"01":"No","02":"No","03":"No","04":"No","05":"No","06":"No","07":"No","08":"No"},"rt":17336.300000071526,"item_order":[0,1,2,3,4,5,6,7],"radio_events":[2551.7000000476837,4169.200000047684,5416.200000047684,9271.900000095367,9959.600000023842,12719.700000047684,14143.700000047684,15856.700000047684],"checkbox_events":[],"key_events":[],"mouse_events":[2551.7000000476837,4169.200000047684,5416.200000047684,6513.600000023842,9271.900000095367,9959.600000023842,11199.700000047684,11823.600000023842,12719.700000047684,14143.700000047684,15856.700000047684,17328.600000023842],"honeypot":0,"survey":"mace","page":2,"trial_type":"survey-mace","trial_index":10,"time_elapsed":451606,"internal_node_id":"0.0-10.0","task_version":"prescreen-v0.3","browser_interactions":0},{"responses":{"01":"No","02":"No","03":"No","04":"No"},"rt":8621,"item_order":[0,1,2,3],"radio_events":[3986.100000023842,6145.399999976158,6817,7617.100000023842],"checkbox_events":[],"key_events":[],"mouse_events":[3986.100000023842,4969.100000023842,6145.399999976158,6817,7617.100000023842,8613],"honeypot":0,"survey":"mace","page":3,"trial_type":"survey-mace","trial_index":11,"time_elapsed":460235,"internal_node_id":"0.0-11.0","task_version":"prescreen-v0.3","browser_interactions":0},{"responses":{"01":"No","02":"No"},"rt":7726.300000071526,"item_order":[0,1],"radio_events":[5938.300000071526,6730.399999976158],"checkbox_events":[],"key_events":[],"mouse_events":[4514.600000023842,5938.300000071526,6730.399999976158,7723.300000071526],"honeypot":0,"survey":"mace","page":4,"trial_type":"survey-mace","trial_index":12,"time_elapsed":467968,"internal_node_id":"0.0-12.0","task_version":"prescreen-v0.3","browser_interactions":0},{"responses":{"01":"No","02":"No","03":"No","04":"No","05":"No"},"rt":13595.699999928474,"item_order":[0,1,2,3,4],"radio_events":[3694.2999999523163,5167.199999928474,9446.299999952316,10214.299999952316,11831.299999952316],"checkbox_events":[],"key_events":[],"mouse_events":[3694.2999999523163,5167.199999928474,6686.299999952316,8494.299999952316,9446.299999952316,10214.299999952316,11831.299999952316,13591.100000023842],"honeypot":0,"survey":"mace","page":5,"trial_type":"survey-mace","trial_index":13,"time_elapsed":481570,"internal_node_id":"0.0-13.0","task_version":"prescreen-v0.3","browser_interactions":0},{"responses":{"01":"Yes","01_ages_8":"8","01_ages_9":"9","01_ages_10":"10","01_ages_11":"11","01_ages_12":"12","01_ages_13":"13","01_ages_14":"14","01_ages_15":"15","01_ages_16":"16","01_ages_17":"17","01_ages_18":"18","02":"Yes","02_ages_8":"8","02_ages_9":"9","02_ages_10":"10","02_ages_11":"11","02_ages_12":"12","02_ages_13":"13","02_ages_14":"14","02_ages_15":"15","02_ages_16":"16","02_ages_17":"17","02_ages_18":"18","03":"No","04":"Yes","04_ages_12":"12","04_ages_13":"13","04_ages_14":"14","04_ages_15":"15","04_ages_16":"16","04_ages_17":"17","04_ages_18":"18","05":"Yes","05_ages_14":"14","05_ages_15":"15","05_ages_16":"16","05_ages_17":"17","05_ages_18":"18"},"rt":75639.09999990463,"item_order":[0,1,2,3,4],"radio_events":[9121.399999976158,19825.799999952316,49457.89999997616,51345.89999997616,65789.09999990463],"checkbox_events":[12361.299999952316,13098,13977.5,14898.299999952316,23825.5,24353.099999904633,25489.799999952316,26081.299999952316,26948.799999952316,29761.399999976158,30393.099999904633,31769.299999952316,33430.299999952316,34609.199999928474,35938,36746.39999997616,37937.199999928474,39033.199999928474,40418.199999928474,40985.699999928474,42681.199999928474,43769.09999990463,54697.39999997616,57969.89999997616,58561.799999952316,59690.199999928474,60681.09999990463,61307,62209.199999928474,68505.69999992847,69113.09999990463,70913.59999990463,71689.19999992847,72769],"key_events":[],"mouse_events":[8049.299999952316,9121.399999976158,12361.299999952316,13098,13977.5,14898.299999952316,18873.399999976158,19825.799999952316,23825.5,24353.099999904633,24872.799999952316,25489.799999952316,26081.299999952316,26948.799999952316,29761.399999976158,30393.099999904633,31009.599999904633,31769.299999952316,32409.5,33430.299999952316,34609.199999928474,35217.39999997616,35938,36746.39999997616,37937.199999928474,39033.199999928474,40418.199999928474,40985.699999928474,42681.199999928474,43769.09999990463,49457.89999997616,51345.89999997616,54697.39999997616,57969.89999997616,58561.799999952316,59256.5,59690.199999928474,60681.09999990463,61307,62209.199999928474,65789.09999990463,68505.69999992847,69113.09999990463,70009.89999997616,70913.59999990463,71689.19999992847,72769,75633.69999992847],"honeypot":0,"survey":"mace","page":6,"trial_type":"survey-mace","trial_index":14,"time_elapsed":557218,"internal_node_id":"0.0-14.0","task_version":"prescreen-v0.3","browser_interactions":0},{"responses":{"01":"No","02":"Yes","02_ages_8":"8","03":"No","04":"No","05":"No","06":"No","07":"No"},"rt":26224.600000023842,"item_order":[0,1,2,3,4,5,6],"radio_events":[6882.900000095367,8810.300000071526,11738.800000071526,19474.300000071526,21642,22586.100000023842,24418.600000023842,25306.100000023842],"checkbox_events":[16634.800000071526],"key_events":[],"mouse_events":[5571.100000023842,6882.900000095367,8810.300000071526,10531.700000047684,11738.800000071526,16634.800000071526,19474.300000071526,21642,22586.100000023842,23586.100000023842,24418.600000023842,25306.100000023842,26218.700000047684],"honeypot":0,"survey":"mace","page":7,"trial_type":"survey-mace","trial_index":15,"time_elapsed":583454,"internal_node_id":"0.0-15.0","task_version":"prescreen-v0.3","browser_interactions":0},{"responses":{"01":"No","02":"Yes","02_ages_9":"9","02_ages_10":"10","02_ages_11":"11","02_ages_12":"12","02_ages_13":"13","02_ages_14":"14","02_ages_15":"15","02_ages_16":"16","02_ages_17":"17","02_ages_18":"18","03":"Yes","03_ages_12":"12","03_ages_13":"13","03_ages_14":"14","03_ages_15":"15","03_ages_16":"16","03_ages_17":"17","03_ages_18":"18","04":"Yes","04_ages_12":"12","04_ages_13":"13","04_ages_14":"14","04_ages_15":"15","04_ages_16":"16","04_ages_17":"17","04_ages_18":"18"},"rt":71741.60000002384,"item_order":[0,1,2,3],"radio_events":[9528.300000071526,13640,42161.10000002384,62359.800000071526],"checkbox_events":[25144.5,25855.899999976158,26408.100000023842,27064.100000023842,27592.300000071526,28968.5,29952.100000023842,30937.399999976158,32360,38848.39999997616,48400,49032.10000002384,49591.89999997616,50511.89999997616,51231.800000071526,51799.700000047684,52555.89999997616,53647.5,54231.89999997616,54744.5,56600,57328.60000002384,57984.300000071526,64640,65386,67097.10000002384,67832.5,68911.80000007153,69537.70000004768,70337.60000002384],"key_events":[],"mouse_events":[9528.300000071526,13640,25144.5,25855.899999976158,26408.100000023842,27064.100000023842,27592.300000071526,28410.399999976158,28968.5,29952.100000023842,30937.399999976158,31507.600000023842,32360,33116.300000071526,38848.39999997616,42161.10000002384,48400,49032.10000002384,49591.89999997616,50511.89999997616,51231.800000071526,51799.700000047684,52555.89999997616,53647.5,54231.89999997616,54744.5,55479.89999997616,56600,57328.60000002384,57984.300000071526,62359.800000071526,64640,65386,66456,67097.10000002384,67832.5,68911.80000007153,69537.70000004768,70337.60000002384,71737.10000002384],"honeypot":0,"survey":"mace","page":8,"trial_type":"survey-mace","trial_index":16,"time_elapsed":655202,"internal_node_id":"0.0-16.0","task_version":"prescreen-v0.3","browser_interactions":0},{"responses":{"01":"No","02":"No","03":"No","03_ages_1":"1","03_ages_2":"2","03_ages_3":"3","03_ages_4":"4","03_ages_5":"5","03_ages_6":"6","03_ages_7":"7","03_ages_8":"8","03_ages_9":"9","04":"Yes","04_ages_1":"1","04_ages_2":"2","04_ages_3":"3","04_ages_4":"4","04_ages_5":"5","04_ages_6":"6","04_ages_7":"7","04_ages_8":"8","04_ages_9":"9","04_ages_10":"10","04_ages_11":"11","04_ages_12":"12","04_ages_13":"13","04_ages_14":"14","04_ages_15":"15","04_ages_16":"16","04_ages_17":"17","04_ages_18":"18"},"rt":59235,"item_order":[0,1,2,3],"radio_events":[5291.800000071526,7043.600000023842,17245.100000023842,35059.60000002384,41356.300000071526],"checkbox_events":[24980.800000071526,25579.300000071526,26459.600000023842,27027.800000071526,27588.400000095367,28420.300000071526,29043,29845.200000047684,30491.5,43891.60000002384,44420.40000009537,45011.40000009537,45563.300000071526,46147.700000047684,46691.60000002384,47302,48147.800000071526,48749,50163.40000009537,50835.800000071526,52260.5,53748.40000009537,54595.700000047684,55251.60000002384,56795.800000071526,57427.800000071526,58051.5],"key_events":[],"mouse_events":[4555.800000071526,5291.800000071526,7043.600000023842,14188,16339.900000095367,17245.100000023842,22163.600000023842,23981.300000071526,24980.800000071526,25579.300000071526,26459.600000023842,27027.800000071526,27588.400000095367,28420.300000071526,29043,29845.200000047684,30491.5,31075.800000071526,31883.5,35059.60000002384,41356.300000071526,43891.60000002384,44420.40000009537,45011.40000009537,45563.300000071526,46147.700000047684,46691.60000002384,47302,48147.800000071526,48749,49285.60000002384,50163.40000009537,50835.800000071526,52260.5,52891.5,53748.40000009537,54595.700000047684,55251.60000002384,55859.60000002384,56795.800000071526,57427.800000071526,58051.5,59228],"honeypot":0,"survey":"mace","page":9,"trial_type":"survey-mace","trial_index":17,"time_elapsed":714444,"internal_node_id":"0.0-17.0","task_version":"prescreen-v0.3","browser_interactions":0},{"responses":{"01":"No","02":"No","03":"No","04":"No","05":"No","06":"Yes","06_ages_17":"17","07":"No","08":"No"},"rt":28177.899999976158,"item_order":[0,1,2,3,4,5,6,7],"radio_events":[6826.099999904633,8059.299999952316,9369.5,10730.199999928474,16034.199999928474,19377.299999952316,25506.799999952316,27217.599999904633],"checkbox_events":[20834.5],"key_events":[],"mouse_events":[6826.099999904633,8059.299999952316,9369.5,10730.199999928474,12177.699999928474,16034.199999928474,19377.299999952316,20834.5,25506.799999952316,27217.599999904633,28169.699999928474],"honeypot":0,"survey":"mace","page":10,"trial_type":"survey-mace","trial_index":18,"time_elapsed":742629,"internal_node_id":"0.0-18.0","task_version":"prescreen-v0.3","browser_interactions":0,"instructed":0},{"rt":8929.199999928474,"trial_type":"mental-health-alert","trial_index":19,"time_elapsed":751565,"internal_node_id":"0.0-19.0","task_version":"prescreen-v0.3","interactions":"[]"}]