[{"view_history":[{"page_index":0,"viewing_time":2198},{"page_index":1,"viewing_time":926},{"page_index":0,"viewing_time":1720},{"page_index":1,"viewing_time":860},{"page_index":2,"viewing_time":3383},{"page_index":3,"viewing_time":892}],"rt":9979,"trial_type":"instructions","trial_index":0,"time_elapsed":9982,"internal_node_id":"0.0-0.0","task_version":"prescreen-v0.3"},{"rt":19146,"responses":{"age":"23","gender-categorical":"Male","gender-free-response":"","ethnicity":"Not Hispanic or Latino","race":["Black or African American"],"education":"Some college","siblings":"2"},"trial_type":"survey-demo","trial_index":1,"time_elapsed":29137,"internal_node_id":"0.0-1.0","task_version":"prescreen-v0.3"},{"responses":{"Q16":"3","Q03":"3","Q10":"3","Q14":"3","Q11":"3","Q09":"3","Q19":"2","Q12":"1","Q05":"3","Q04":"2","Q18":"2","Q07":"3","Q01":"3","Q08":"3","Q02":"3","Q15":"3","Q21":"3","Q06":"1","Q17":"3","Q13":"3","Q20":"0"},"rt":148559,"item_order":[15,2,9,13,10,8,18,11,4,3,17,6,0,7,1,14,20,5,16,12,19],"radio_events":[76968,77343,79521,81232,82710,83684,86286,88584,93954,96144,100886,101431,103825,105383,107428,109370,112826,115774,117151,120004,127480,129686,133544,137594,141091,142666,144979],"key_events":[],"mouse_events":[75460,76968,77343,78953,79521,81232,82710,83684,86286,88584,93954,96144,98502,100886,101431,103825,105383,107428,109370,112286,112826,114396,115774,116257,117151,120004,121371,122938,127480,129686,133544,137594,138485,141091,142666,144979,148559],"straightlining":0.7142857142857143,"zigzagging":0.25,"honeypot":0,"survey":"sns","trial_type":"survey-template","trial_index":2,"time_elapsed":177702,"internal_node_id":"0.0-2.0","task_version":"prescreen-v0.3","browser_interactions":4,"infrequency":0},{"responses":{"Q07":"3","Q13":"0","Q11":"3","Q06":"3","Q12":"0","Q01":"2","Q03":"2","Q05":"2","Q09":"0","Q08":"2","Q04":"3","Q02":"3","Q10":"3"},"rt":136433,"item_order":[6,12,10,5,11,0,2,4,8,7,3,1,9],"radio_events":[27517,30228,34445,36118,39439,55860,57658,125282,126097,127984,129332,131681,132498,134187,135863],"key_events":[],"mouse_events":[27517,30228,32164,33170,34445,36118,39439,55860,57658,123879,125282,126097,127984,129332,131681,132498,133413,134187,135863,136433],"straightlining":0.46153846153846156,"zigzagging":0.3333333333333333,"honeypot":0,"survey":"bisbas","trial_type":"survey-template","trial_index":3,"time_elapsed":314141,"internal_node_id":"0.0-3.0","task_version":"prescreen-v0.3","browser_interactions":12,"infrequency":0},{"responses":{"Q01":"0","Q02":"0","Q03":"0"},"rt":1640053,"radio_events":[1628922,1632206,1634168,1639128],"key_events":[],"mouse_events":[291,1628922,1632206,1634168,1638241,1638745,1639128,1640053],"survey":"map","page":1,"trial_type":"survey-map","trial_index":4,"time_elapsed":1954200,"internal_node_id":"0.0-4.0","task_version":"prescreen-v0.3","browser_interactions":8},{"responses":{"Q04":"1","Q05":"0","Q06":"0"},"rt":118933,"radio_events":[113804,116609,118301],"key_events":[],"mouse_events":[113804,116609,117525,117946,118301,118933],"survey":"map","page":2,"trial_type":"survey-map","trial_index":5,"time_elapsed":2073137,"internal_node_id":"0.0-5.0","task_version":"prescreen-v0.3","browser_interactions":2},{"responses":{"Q07":"1","Q08":"0","Q09":"0"},"rt":16866,"radio_events":[2666,9105,13911,15034],"key_events":[],"mouse_events":[1629,2666,9105,13911,15034,16865],"survey":"map","page":3,"trial_type":"survey-map","trial_index":6,"time_elapsed":2090006,"internal_node_id":"0.0-6.0","task_version":"prescreen-v0.3","browser_interactions":0},{"responses":{"Q10":"0","Q11":"0","Q12":"0","Q13":"0","Q16":"0","Q14":"0","Q15":"1"},"rt":246431,"radio_events":[178633,194267,220337,229007,229745,242350,243360,245558],"key_events":[],"mouse_events":[178633,194267,219750,220337,229007,229745,241915,242350,243360,245558,246431],"survey":"map","page":4,"trial_type":"survey-map","trial_index":7,"time_elapsed":2336440,"internal_node_id":"0.0-7.0","task_version":"prescreen-v0.3","browser_interactions":10,"infrequency":0},{"view_history":[{"page_index":0,"viewing_time":1504},{"page_index":1,"viewing_time":3377}],"rt":4881,"trial_type":"instructions","trial_index":8,"time_elapsed":2341323,"internal_node_id":"0.0-8.0","task_version":"prescreen-v0.3"},{"responses":{"01":"Yes","01_ages_12":"12","01_ages_13":"13","01_ages_14":"14","01_ages_15":"15","01_ages_16":"16","01_ages_17":"17","01_ages_18":"18","02":"Yes","02_ages_6":"6","02_ages_7":"7","02_ages_8":"8","02_ages_9":"9","02_ages_10":"10","02_ages_11":"11","02_ages_12":"12","02_ages_13":"13","02_ages_14":"14","02_ages_15":"15","02_ages_16":"16","02_ages_17":"17","02_ages_18":"18","03":"No","04":"No","05":"No","06":"No"},"rt":58692,"item_order":[0,1,2,3,4,5],"radio_events":[3552,29289,41097,42951,49216,50270],"checkbox_events":[9939,10531,11302,11697,12111,12893,13671,15075,15554,16446,17236,17682,19597,19983,20440,21570,22206,22675,23170,23740,24431,32092,32561,32974,33449,33830,34211,34652,35450,35899,36351,36790,37342,38615],"key_events":[],"mouse_events":[0,2258,3552,9939,10531,10980,11302,11697,12111,12506,12893,13255,13671,15075,15554,15942,16446,17236,17682,18777,19282,19597,19983,20440,21570,22206,22675,23170,23740,24431,28702,29289,32092,32561,32974,33449,33830,34211,34652,35076,35450,35899,36351,36790,37342,38615,41097,42951,48719,49216,49798,50270,58692],"honeypot":0,"survey":"mace","page":1,"trial_type":"survey-mace","trial_index":9,"time_elapsed":2400028,"internal_node_id":"0.0-9.0","task_version":"prescreen-v0.3","browser_interactions":0},{"responses":{"01":"No","02":"No","03":"No","04":"No","05":"No","06":"No","07":"No","08":"No"},"rt":13350,"item_order":[0,1,2,3,4,5,6,7],"radio_events":[2864,5282,6166,6917,10050,10493,12048,12734],"checkbox_events":[],"key_events":[],"mouse_events":[2864,4076,5282,6166,6917,7610,8669,9434,10050,10493,12048,12734,13350],"honeypot":0,"survey":"mace","page":2,"trial_type":"survey-mace","trial_index":10,"time_elapsed":2413390,"internal_node_id":"0.0-10.0","task_version":"prescreen-v0.3","browser_interactions":0},{"responses":{"01":"No","02":"No","03":"No","04":"No"},"rt":10141,"item_order":[0,1,2,3],"radio_events":[5550,8621,9029,9666],"checkbox_events":[],"key_events":[],"mouse_events":[5550,7049,7749,8621,9029,9666,10141],"honeypot":0,"survey":"mace","page":3,"trial_type":"survey-mace","trial_index":11,"time_elapsed":2423537,"internal_node_id":"0.0-11.0","task_version":"prescreen-v0.3","browser_interactions":0},{"responses":{"01":"No","02":"No"},"rt":5658,"item_order":[0,1],"radio_events":[2927,5232],"checkbox_events":[],"key_events":[],"mouse_events":[133,2014,2927,4587,5232,5658],"honeypot":0,"survey":"mace","page":4,"trial_type":"survey-mace","trial_index":12,"time_elapsed":2429201,"internal_node_id":"0.0-12.0","task_version":"prescreen-v0.3","browser_interactions":0},{"responses":{"01":"Yes","01_ages_11":"11","01_ages_12":"12","02":"No","03":"No","04":"No","05":"No"},"rt":28973,"item_order":[0,1,2,3,4],"radio_events":[6848,10692,23627,26657,27802],"checkbox_events":[9493,9788],"key_events":[],"mouse_events":[6848,9493,9788,10692,23128,23627,24113,25506,26657,27173,27802,28973],"honeypot":0,"survey":"mace","page":5,"trial_type":"survey-mace","trial_index":13,"time_elapsed":2458185,"internal_node_id":"0.0-13.0","task_version":"prescreen-v0.3","browser_interactions":0},{"responses":{"01":"Yes","01_ages_12":"12","01_ages_13":"13","01_ages_14":"14","01_ages_15":"15","01_ages_16":"16","01_ages_17":"17","01_ages_18":"18","02":"Yes","02_ages_12":"12","02_ages_13":"13","02_ages_14":"14","02_ages_15":"15","02_ages_16":"16","02_ages_17":"17","02_ages_18":"18","03":"Yes","03_ages_17":"17","03_ages_18":"18","04":"No","05":"No"},"rt":39116,"item_order":[0,1,2,3,4],"radio_events":[4856,12971,14666,19886,20731,29276,33798,36101],"checkbox_events":[6579,6985,7423,9376,9848,10445,10836,15428,15925,16343,17025,17765,18209,19133,26591,26977],"key_events":[],"mouse_events":[4856,6579,6985,7423,7830,9093,9376,9848,10445,10836,12971,14381,14666,15428,15925,16343,17025,17496,17765,18209,18835,19133,19886,20731,26591,26977,29276,33798,35736,36101,39116],"honeypot":0,"survey":"mace","page":6,"trial_type":"survey-mace","trial_index":14,"time_elapsed":2497307,"internal_node_id":"0.0-14.0","task_version":"prescreen-v0.3","browser_interactions":0},{"responses":{"01":"No","02":"No","03":"No","04":"No","05":"No","06":"No","07":"No"},"rt":19460,"item_order":[0,1,2,3,4,5,6],"radio_events":[2653,4305,5948,6668,8303,8985,9661],"checkbox_events":[],"key_events":[],"mouse_events":[2653,4305,4703,5482,5948,6668,7760,8303,8985,9661,19460],"honeypot":0,"survey":"mace","page":7,"trial_type":"survey-mace","trial_index":15,"time_elapsed":2516780,"internal_node_id":"0.0-15.0","task_version":"prescreen-v0.3","browser_interactions":0},{"responses":{"01":"No","02":"No","03":"No","04":"No"},"rt":12010,"item_order":[0,1,2,3],"radio_events":[4076,5492,6280,7710],"checkbox_events":[],"key_events":[],"mouse_events":[4076,4824,5492,6280,7224,7710,12010],"honeypot":0,"survey":"mace","page":8,"trial_type":"survey-mace","trial_index":16,"time_elapsed":2528795,"internal_node_id":"0.0-16.0","task_version":"prescreen-v0.3","browser_interactions":0},{"responses":{"01":"No","02":"No","03":"No","04":"No"},"rt":5702,"item_order":[0,1,2,3],"radio_events":[2131,2669,4334,4950],"checkbox_events":[],"key_events":[],"mouse_events":[2131,2669,4334,4950,5702],"honeypot":0,"survey":"mace","page":9,"trial_type":"survey-mace","trial_index":17,"time_elapsed":2534503,"internal_node_id":"0.0-17.0","task_version":"prescreen-v0.3","browser_interactions":0},{"responses":{"01":"Yes","01_ages_6":"6","01_ages_7":"7","01_ages_8":"8","01_ages_9":"9","01_ages_10":"10","01_ages_11":"11","01_ages_12":"12","02":"No","03":"No","04":"Yes","04_ages_6":"6","04_ages_7":"7","04_ages_8":"8","04_ages_9":"9","04_ages_10":"10","04_ages_11":"11","04_ages_12":"12","04_ages_13":"13","04_ages_14":"14","04_ages_15":"15","04_ages_16":"16","04_ages_17":"17","04_ages_18":"18","05":"No","06":"Yes","06_ages_17":"17","07":"No","08":"No"},"rt":44021,"item_order":[0,1,2,3,4,5,6,7],"radio_events":[1878,2843,4736,5615,6287,7148,11131,23396,36872,42290,43283],"checkbox_events":[14714,15252,15684,16055,16442,16852,17783,25547,25933,27124,27486,28652,29062,30251,30625,31015,31429,31823,32209,32626,38430],"key_events":[],"mouse_events":[1878,2843,4736,5615,6287,7148,11131,14714,15252,15684,16055,16442,16852,17373,17783,23396,25547,25933,27124,27486,28129,28652,29062,29618,30251,30625,31015,31429,31823,32209,32626,36872,38430,42290,43283,44021],"honeypot":0,"survey":"mace","page":10,"trial_type":"survey-mace","trial_index":18,"time_elapsed":2578536,"internal_node_id":"0.0-18.0","task_version":"prescreen-v0.3","browser_interactions":2,"instructed":0},{"rt":3309,"trial_type":"mental-health-alert","trial_index":19,"time_elapsed":2581848,"internal_node_id":"0.0-19.0","task_version":"prescreen-v0.3","interactions":"[{\"event\":\"focus\",\"trial\":0,\"time\":1},{\"event\":\"blur\",\"trial\":0,\"time\":3860},{\"event\":\"focus\",\"trial\":0,\"time\":4189},{\"event\":\"blur\",\"trial\":2,\"time\":40230},{\"event\":\"focus\",\"trial\":2,\"time\":100036},{\"event\":\"blur\",\"trial\":2,\"time\":118409},{\"event\":\"focus\",\"trial\":2,\"time\":120499},{\"event\":\"blur\",\"trial\":3,\"time\":180877},{\"event\":\"focus\",\"trial\":3,\"time\":200632},{\"event\":\"blur\",\"trial\":3,\"time\":212360},{\"event\":\"focus\",\"trial\":3,\"time\":212466},{\"event\":\"blur\",\"trial\":3,\"time\":219018},{\"event\":\"focus\",\"trial\":3,\"time\":221300},{\"event\":\"blur\",\"trial\":3,\"time\":223192},{\"event\":\"focus\",\"trial\":3,\"time\":229467},{\"event\":\"blur\",\"trial\":3,\"time\":238681},{\"event\":\"focus\",\"trial\":3,\"time\":293214},{\"event\":\"blur\",\"trial\":3,\"time\":298487},{\"event\":\"focus\",\"trial\":3,\"time\":300500},{\"event\":\"blur\",\"trial\":4,\"time\":317121},{\"event\":\"focus\",\"trial\":4,\"time\":783014},{\"event\":\"blur\",\"trial\":4,\"time\":783949},{\"event\":\"focus\",\"trial\":4,\"time\":1932507},{\"event\":\"blur\",\"trial\":4,\"time\":1933363},{\"event\":\"focus\",\"trial\":4,\"time\":1937969},{\"event\":\"blur\",\"trial\":4,\"time\":1938731},{\"event\":\"focus\",\"trial\":4,\"time\":1939735},{\"event\":\"blur\",\"trial\":5,\"time\":1958890},{\"event\":\"focus\",\"trial\":5,\"time\":2062452},{\"event\":\"blur\",\"trial\":7,\"time\":2092138},{\"event\":\"focus\",\"trial\":7,\"time\":2096853},{\"event\":\"blur\",\"trial\":7,\"time\":2100383},{\"event\":\"focus\",\"trial\":7,\"time\":2254992},{\"event\":\"blur\",\"trial\":7,\"time\":2255944},{\"event\":\"focus\",\"trial\":7,\"time\":2266482},{\"event\":\"blur\",\"trial\":7,\"time\":2269552},{\"event\":\"focus\",\"trial\":7,\"time\":2282820},{\"event\":\"blur\",\"trial\":7,\"time\":2286380},{\"event\":\"focus\",\"trial\":7,\"time\":2307759},{\"event\":\"blur\",\"trial\":18,\"time\":2542967},{\"event\":\"focus\",\"trial\":18,\"time\":2543726}]"}]