[{"view_history":[{"page_index":0,"viewing_time":3973},{"page_index":1,"viewing_time":4048},{"page_index":2,"viewing_time":12490},{"page_index":3,"viewing_time":1052}],"rt":21563,"trial_type":"instructions","trial_index":0,"time_elapsed":21569,"internal_node_id":"0.0-0.0","task_version":"prescreen-v0.3"},{"rt":17287,"responses":{"age":"39","gender-categorical":"Male","gender-free-response":"","ethnicity":"Not Hispanic or Latino","race":["White"],"education":"Master degree or higher"},"trial_type":"survey-demo","trial_index":1,"time_elapsed":38864,"internal_node_id":"0.0-1.0","task_version":"prescreen-v0.3"},{"responses":{"Q05":"0","Q12":"1","Q14":"1","Q19":"2","Q04":"3","Q09":"2","Q20":"1","Q06":"0","Q10":"1","Q16":"2","Q11":"0","Q08":"1","Q13":"0","Q02":"1","Q15":"0","Q01":"1","Q17":"2","Q18":"2","Q03":"2","Q21":"3","Q07":"1"},"rt":136825,"item_order":[4,11,13,18,3,8,19,5,9,15,10,7,12,1,14,0,16,17,2,20,6],"radio_events":[30517,37402,41168,51748,52882,59931,67171,77120,79212,84269,86826,90468,94019,98449,107723,111837,116404,119345,125760,128587,135617],"key_events":[],"mouse_events":[30517,37402,41168,47241,51748,52882,59931,67171,77120,79212,84269,86826,90468,94019,98449,107723,111837,116404,119345,125760,128587,135617,136825],"straightlining":0.38095238095238093,"zigzagging":0.75,"honeypot":0,"survey":"sns","trial_type":"survey-template","trial_index":2,"time_elapsed":175693,"internal_node_id":"0.0-2.0","task_version":"prescreen-v0.3","browser_interactions":0,"infrequency":0},{"responses":{"Q05":"1","Q02":"2","Q01":"3","Q06":"2","Q04":"3","Q11":"1","Q09":"0","Q07":"2","Q13":"0","Q03":"2","Q08":"1","Q12":"0","Q10":"1"},"rt":73785,"item_order":[4,1,0,5,3,10,8,6,12,2,7,11,9],"radio_events":[16714,20067,21111,31819,33233,41960,45855,51147,52473,59185,63515,66764,72699],"key_events":[],"mouse_events":[16714,20067,21111,31819,33233,41960,45855,51147,52473,59185,63515,66764,72699,73785],"straightlining":0.3076923076923077,"zigzagging":0.6666666666666666,"honeypot":0,"survey":"bisbas","trial_type":"survey-template","trial_index":3,"time_elapsed":249483,"internal_node_id":"0.0-3.0","task_version":"prescreen-v0.3","browser_interactions":0,"infrequency":0},{"responses":{"Q01":"0","Q02":"0","Q03":"0"},"rt":17126,"radio_events":[9544,10835,15505],"key_events":[],"mouse_events":[9544,10835,15505,17126],"survey":"map","page":1,"trial_type":"survey-map","trial_index":4,"time_elapsed":266610,"internal_node_id":"0.0-4.0","task_version":"prescreen-v0.3","browser_interactions":0},{"responses":{"Q04":"1","Q05":"1","Q06":"1"},"rt":16590,"radio_events":[8754,12603,15525],"key_events":[],"mouse_events":[8754,12603,15525,16590],"survey":"map","page":2,"trial_type":"survey-map","trial_index":5,"time_elapsed":283203,"internal_node_id":"0.0-5.0","task_version":"prescreen-v0.3","browser_interactions":0},{"responses":{"Q07":"2","Q08":"0","Q09":"0"},"rt":21445,"radio_events":[13422,14922,19076],"key_events":[],"mouse_events":[13422,14922,19076,21445],"survey":"map","page":3,"trial_type":"survey-map","trial_index":6,"time_elapsed":304651,"internal_node_id":"0.0-6.0","task_version":"prescreen-v0.3","browser_interactions":0},{"responses":{"Q10":"0","Q11":"0","Q12":"3","Q13":"2","Q16":"0","Q14":"0","Q15":"0"},"rt":44930,"radio_events":[5586,12579,18810,30857,32335,36077,41533,43696],"key_events":[],"mouse_events":[5586,12579,18810,30857,32335,36077,41533,43696,44930],"survey":"map","page":4,"trial_type":"survey-map","trial_index":7,"time_elapsed":349583,"internal_node_id":"0.0-7.0","task_version":"prescreen-v0.3","browser_interactions":0,"infrequency":0},{"view_history":[{"page_index":0,"viewing_time":3972},{"page_index":1,"viewing_time":3344}],"rt":7316,"trial_type":"instructions","trial_index":8,"time_elapsed":356900,"internal_node_id":"0.0-8.0","task_version":"prescreen-v0.3"},{"responses":{"01":"Yes","01_ages_5":"5","01_ages_6":"6","01_ages_7":"7","01_ages_8":"8","01_ages_9":"9","01_ages_10":"10","01_ages_11":"11","01_ages_12":"12","01_ages_13":"13","01_ages_14":"14","01_ages_15":"15","01_ages_16":"16","01_ages_17":"17","02":"Yes","02_ages_5":"5","02_ages_6":"6","02_ages_7":"7","02_ages_8":"8","02_ages_9":"9","02_ages_10":"10","02_ages_11":"11","02_ages_12":"12","02_ages_13":"13","02_ages_14":"14","02_ages_15":"15","02_ages_16":"16","02_ages_17":"17","03":"Yes","03_ages_5":"5","03_ages_6":"6","03_ages_7":"7","03_ages_8":"8","03_ages_9":"9","03_ages_10":"10","03_ages_11":"11","03_ages_12":"12","03_ages_13":"13","03_ages_14":"14","03_ages_15":"15","04":"No","05":"No","06":"Yes","06_ages_5":"5","06_ages_6":"6","06_ages_7":"7","06_ages_8":"8","06_ages_9":"9","06_ages_10":"10","06_ages_11":"11","06_ages_12":"12","06_ages_13":"13","06_ages_14":"14","06_ages_15":"15"},"rt":97642,"item_order":[0,1,2,3,4,5],"radio_events":[12649,33188,51189,62917,77856,82078],"checkbox_events":[17573,18041,18883,19330,19818,20581,21172,21918,22421,22961,23425,24189,24655,25507,35471,35865,36270,36680,37060,37433,38318,39025,39914,40506,41081,41870,44487,45696,52402,53050,54241,54629,55107,55509,55892,56347,56919,57717,58269,84015,84531,84975,85331,85652,86032,86412,86785,87120,87468,87872,88594,90168],"key_events":[],"mouse_events":[0,12649,17573,18041,18475,18883,19330,19818,20242,20581,21172,21551,21918,22421,22961,23425,24189,24655,25507,33188,35471,35865,36270,36680,37060,37433,37797,38318,39025,39914,40506,41081,41870,44487,45696,51189,52402,53050,54241,54629,55107,55509,55892,56347,56919,57717,58269,62917,77856,82078,84015,84531,84975,85331,85652,86032,86412,86785,87120,87468,87872,88594,90168,97642],"honeypot":0,"survey":"mace","page":1,"trial_type":"survey-mace","trial_index":9,"time_elapsed":454555,"internal_node_id":"0.0-9.0","task_version":"prescreen-v0.3","browser_interactions":0},{"responses":{"01":"No","02":"No","03":"Yes","03_ages_5":"5","03_ages_6":"6","03_ages_7":"7","03_ages_8":"8","03_ages_9":"9","03_ages_10":"10","03_ages_11":"11","03_ages_12":"12","03_ages_13":"13","03_ages_14":"14","04":"Yes","04_ages_5":"5","04_ages_6":"6","04_ages_7":"7","04_ages_8":"8","04_ages_9":"9","04_ages_10":"10","04_ages_11":"11","04_ages_12":"12","04_ages_13":"13","04_ages_14":"14","05":"Yes","05_ages_5":"5","05_ages_6":"6","05_ages_7":"7","05_ages_8":"8","05_ages_9":"9","05_ages_10":"10","05_ages_11":"11","05_ages_12":"12","06":"No","07":"No","08":"No"},"rt":45049,"item_order":[0,1,2,3,4,5,6,7],"radio_events":[5203,8201,9874,18793,26636,35651,37596,39783],"checkbox_events":[11284,11847,12213,12549,12855,13207,13827,14149,14464,14839,20053,20373,21184,21582,21949,22271,22618,22941,23259,23916,27503,28042,28319,28721,29089,29476,29826,32632],"key_events":[],"mouse_events":[5203,8201,9874,11284,11847,12213,12549,12855,13207,13827,14149,14464,14839,18793,20053,20373,20811,21184,21582,21949,22271,22618,22941,23259,23916,26636,27503,28042,28319,28721,29089,29476,29826,32632,35651,37596,39783,45049],"honeypot":0,"survey":"mace","page":2,"trial_type":"survey-mace","trial_index":10,"time_elapsed":499615,"internal_node_id":"0.0-10.0","task_version":"prescreen-v0.3","browser_interactions":2},{"responses":{"01":"No","02":"No","03":"No","04":"No"},"rt":9366,"item_order":[0,1,2,3],"radio_events":[3557,6146,7583,8515],"checkbox_events":[],"key_events":[],"mouse_events":[3557,6146,7583,8515,9366],"honeypot":0,"survey":"mace","page":3,"trial_type":"survey-mace","trial_index":11,"time_elapsed":508986,"internal_node_id":"0.0-11.0","task_version":"prescreen-v0.3","browser_interactions":0},{"responses":{"01":"No","02":"No"},"rt":8435,"item_order":[0,1],"radio_events":[3923,5777],"checkbox_events":[],"key_events":[],"mouse_events":[3923,5777,8435],"honeypot":0,"survey":"mace","page":4,"trial_type":"survey-mace","trial_index":12,"time_elapsed":517425,"internal_node_id":"0.0-12.0","task_version":"prescreen-v0.3","browser_interactions":0},{"responses":{"01":"No","02":"No","03":"No","04":"No","05":"No"},"rt":31115,"item_order":[0,1,2,3,4],"radio_events":[10052,12658,17520,26209,29090],"checkbox_events":[],"key_events":[],"mouse_events":[10052,12658,17520,26209,29090,31115],"honeypot":0,"survey":"mace","page":5,"trial_type":"survey-mace","trial_index":13,"time_elapsed":548546,"internal_node_id":"0.0-13.0","task_version":"prescreen-v0.3","browser_interactions":0},{"responses":{"01":"Yes","01_ages_10":"10","01_ages_11":"11","01_ages_12":"12","02":"Yes","02_ages_10":"10","02_ages_11":"11","02_ages_12":"12","02_ages_13":"13","02_ages_14":"14","02_ages_15":"15","02_ages_16":"16","02_ages_17":"17","02_ages_18":"18","03":"Yes","03_ages_10":"10","03_ages_11":"11","03_ages_12":"12","03_ages_13":"13","03_ages_14":"14","03_ages_15":"15","03_ages_16":"16","03_ages_17":"17","04":"Yes","04_ages_10":"10","04_ages_11":"11","04_ages_12":"12","04_ages_13":"13","04_ages_14":"14","04_ages_15":"15","04_ages_16":"16","04_ages_17":"17","05":"Yes","05_ages_10":"10","05_ages_11":"11","05_ages_12":"12"},"rt":90098,"item_order":[0,1,2,3,4],"radio_events":[14588,15770,51793,66867,83196,85386],"checkbox_events":[31013,35505,36852,41409,41929,42967,43363,43834,44392,44743,45083,45496,54170,54670,55058,55395,55782,57030,58044,59658,60796,65905,68449,69009,69400,70355,71240,71614,72125,73810,88250,88699,89106],"key_events":[],"mouse_events":[14588,15770,31013,35505,36852,41409,41929,42305,42967,43363,43834,44392,44743,45083,45496,51793,54170,54670,55058,55395,55782,57030,57616,58044,59658,60796,65905,66867,68449,69009,69400,69732,70355,70692,71240,71614,72125,73810,83196,85386,88250,88699,89106,90098],"honeypot":0,"survey":"mace","page":6,"trial_type":"survey-mace","trial_index":14,"time_elapsed":638653,"internal_node_id":"0.0-14.0","task_version":"prescreen-v0.3","browser_interactions":0},{"responses":{"01":"No","02":"No","03":"No","04":"No","05":"No","06":"No","07":"No"},"rt":23216,"item_order":[0,1,2,3,4,5,6],"radio_events":[6274,11636,15153,16142,19181,20427,22229],"checkbox_events":[],"key_events":[],"mouse_events":[6274,11636,15153,16142,19181,20427,22229,23216],"honeypot":0,"survey":"mace","page":7,"trial_type":"survey-mace","trial_index":15,"time_elapsed":661880,"internal_node_id":"0.0-15.0","task_version":"prescreen-v0.3","browser_interactions":0},{"responses":{"01":"No","02":"No","03":"Yes","03_ages_5":"5","03_ages_6":"6","03_ages_7":"7","03_ages_8":"8","03_ages_9":"9","03_ages_10":"10","03_ages_11":"11","03_ages_12":"12","03_ages_13":"13","03_ages_14":"14","03_ages_15":"15","03_ages_16":"16","03_ages_17":"17","04":"No"},"rt":38121,"item_order":[0,1,2,3],"radio_events":[13709,17875,21195,35070],"checkbox_events":[23602,24108,24464,24876,25271,26305,26762,27574,28013,28591,29119,29659,30301],"key_events":[],"mouse_events":[13709,17875,21195,23602,24108,24464,24876,25271,25676,26305,26762,27206,27574,28013,28591,29119,29659,30301,35070,38121],"honeypot":0,"survey":"mace","page":8,"trial_type":"survey-mace","trial_index":16,"time_elapsed":700007,"internal_node_id":"0.0-16.0","task_version":"prescreen-v0.3","browser_interactions":0},{"responses":{"01":"Yes","01_ages_1":"1","01_ages_2":"2","01_ages_3":"3","01_ages_4":"4","01_ages_5":"5","01_ages_6":"6","01_ages_7":"7","01_ages_8":"8","01_ages_9":"9","01_ages_10":"10","01_ages_11":"11","01_ages_12":"12","01_ages_13":"13","01_ages_14":"14","01_ages_15":"15","01_ages_16":"16","01_ages_17":"17","01_ages_18":"18","02":"Yes","02_ages_1":"1","02_ages_2":"2","02_ages_3":"3","02_ages_4":"4","02_ages_5":"5","02_ages_6":"6","02_ages_7":"7","02_ages_8":"8","02_ages_9":"9","02_ages_10":"10","02_ages_11":"11","02_ages_12":"12","02_ages_13":"13","02_ages_14":"14","02_ages_15":"15","02_ages_16":"16","02_ages_17":"17","02_ages_18":"18","03":"Yes","03_ages_1":"1","03_ages_2":"2","03_ages_3":"3","03_ages_4":"4","03_ages_5":"5","03_ages_6":"6","03_ages_7":"7","03_ages_8":"8","03_ages_9":"9","03_ages_10":"10","03_ages_11":"11","03_ages_12":"12","03_ages_13":"13","03_ages_14":"14","03_ages_15":"15","03_ages_16":"16","03_ages_17":"17","03_ages_18":"18","04":"Yes","04_ages_1":"1","04_ages_2":"2","04_ages_3":"3","04_ages_4":"4","04_ages_5":"5","04_ages_6":"6","04_ages_7":"7","04_ages_8":"8","04_ages_9":"9","04_ages_10":"10","04_ages_11":"11","04_ages_12":"12","04_ages_13":"13","04_ages_14":"14","04_ages_15":"15","04_ages_16":"16","04_ages_17":"17"},"rt":71238,"item_order":[0,1,2,3],"radio_events":[5716,22539,34334,49835],"checkbox_events":[9283,9666,10197,10510,11247,11942,12643,13090,13866,14411,14841,15349,15797,16197,16616,17342,18165,19245,23905,24235,24651,25051,25470,25883,26263,26659,27057,27814,28209,28751,29178,29743,30234,30674,31444,32219,35418,35873,36310,36660,37029,37402,37810,38537,38922,39688,40196,40818,41192,41932,42337,42766,43235,43840,57564,58086,58754,59376,62841,63500,63996,64398,64996,65365,65918,66302,66821,67185,67716,68879,69229],"key_events":[],"mouse_events":[5716,9283,9666,10197,10510,10878,11247,11626,11942,12288,12643,13090,13513,13866,14411,14841,15349,15797,16197,16616,17342,18165,19245,22539,23905,24235,24651,25051,25470,25883,26263,26659,27057,27426,27814,28209,28751,29178,29743,30234,30674,31084,31444,32219,34334,35418,35873,36310,36660,37029,37402,37810,38168,38537,38922,39303,39688,40196,40818,41192,41605,41932,42337,42766,43235,43840,49835,57564,58086,58434,58754,59376,62841,63192,63500,63996,64398,64996,65365,65918,66302,66821,67185,67716,68879,69229,71238],"honeypot":0,"survey":"mace","page":9,"trial_type":"survey-mace","trial_index":17,"time_elapsed":771253,"internal_node_id":"0.0-17.0","task_version":"prescreen-v0.3","browser_interactions":0},{"responses":{"01":"No","02":"No","03":"Yes","03_ages_12":"12","03_ages_13":"13","03_ages_14":"14","03_ages_15":"15","03_ages_16":"16","03_ages_17":"17","03_ages_18":"18","04":"No","05":"No","06":"Yes","06_ages_17":"17","07":"Yes","07_ages_1":"1","07_ages_2":"2","07_ages_3":"3","07_ages_4":"4","07_ages_5":"5","07_ages_6":"6","07_ages_7":"7","07_ages_8":"8","07_ages_9":"9","07_ages_10":"10","07_ages_11":"11","07_ages_12":"12","07_ages_13":"13","07_ages_14":"14","07_ages_15":"15","07_ages_16":"16","07_ages_17":"17","07_ages_18":"18","08":"Yes","08_ages_1":"1","08_ages_2":"2","08_ages_3":"3","08_ages_4":"4","08_ages_5":"5","08_ages_6":"6","08_ages_7":"7","08_ages_8":"8","08_ages_9":"9","08_ages_10":"10","08_ages_11":"11","08_ages_12":"12","08_ages_13":"13","08_ages_14":"14","08_ages_15":"15","08_ages_16":"16","08_ages_17":"17","08_ages_18":"18"},"rt":50448,"item_order":[0,1,2,3,4,5,6,7],"radio_events":[3256,4109,12257,19047,22191,25301,29627,39383],"checkbox_events":[14165,14584,14997,15418,15784,16131,16573,26737,31282,31928,32656,33002,33347,33714,34153,34523,34909,35282,35707,36079,36447,36840,37194,37574,37984,38488,41072,41728,42256,42745,43515,43882,44262,44642,45435,45950,46618,47086,47577,47945,48345,48884,49234,49791],"key_events":[],"mouse_events":[3256,4109,12257,14165,14584,14997,15418,15784,16131,16573,19047,22191,25301,26737,29627,31282,31928,32656,33002,33347,33714,34153,34523,34909,35282,35707,36079,36447,36840,37194,37574,37984,38488,39383,41072,41728,42256,42745,43142,43515,43882,44262,44642,45035,45435,45950,46618,47086,47577,47945,48345,48884,49234,49791,50448],"honeypot":0,"survey":"mace","page":10,"trial_type":"survey-mace","trial_index":18,"time_elapsed":821710,"internal_node_id":"0.0-18.0","task_version":"prescreen-v0.3","browser_interactions":0,"instructed":0},{"rt":17048,"trial_type":"mental-health-alert","trial_index":19,"time_elapsed":838761,"internal_node_id":"0.0-19.0","task_version":"prescreen-v0.3","interactions":"[{\"event\":\"focus\",\"trial\":0,\"time\":2},{\"event\":\"blur\",\"trial\":10,\"time\":495363},{\"event\":\"focus\",\"trial\":10,\"time\":497266}]"}]