[{"view_history":[{"page_index":0,"viewing_time":6038.5},{"page_index":1,"viewing_time":3938.4000000953674},{"page_index":2,"viewing_time":3099.699999809265},{"page_index":3,"viewing_time":1320.2000000476837}],"rt":14397.400000095367,"trial_type":"instructions","trial_index":0,"time_elapsed":14403,"internal_node_id":"0.0-0.0","task_version":"prescreen-v0.3"},{"rt":13476.799999952316,"responses":{"age":"21","gender-categorical":"Female","gender-free-response":"","ethnicity":"Not Hispanic or Latino","race":["White"],"education":"Some college"},"trial_type":"survey-demo","trial_index":1,"time_elapsed":27885,"internal_node_id":"0.0-1.0","task_version":"prescreen-v0.3"},{"responses":{"Q13":"2","Q14":"3","Q20":"2","Q07":"1","Q17":"1","Q06":"1","Q08":"0","Q09":"2","Q12":"2","Q16":"3","Q02":"1","Q04":"2","Q18":"2","Q03":"1","Q11":"2","Q21":"3","Q10":"2","Q01":"1","Q05":"2","Q15":"2","Q19":"2"},"rt":119168.60000014305,"item_order":[12,13,19,6,16,5,7,8,11,15,1,3,17,2,10,20,9,0,4,14,18],"radio_events":[10102.600000143051,11717.600000143051,15854.600000143051,26037.300000190735,34079.90000009537,40834.10000014305,44905.200000047684,51349.40000009537,53785.90000009537,57433.300000190735,61479.60000014305,64759,72933.60000014305,76840.90000009537,86036.30000019073,89257.80000019073,94450,99019,103619.10000014305,108858.30000019073,111971.80000019073,116576.20000004768],"key_events":[],"mouse_events":[8697,10102.600000143051,11717.600000143051,15854.600000143051,25044.200000047684,26037.300000190735,34079.90000009537,40834.10000014305,44905.200000047684,51349.40000009537,53785.90000009537,55847,57433.300000190735,61479.60000014305,64759,72933.60000014305,76840.90000009537,86036.30000019073,89257.80000019073,94450,99019,101415.40000009537,103619.10000014305,108858.30000019073,111971.80000019073,115759.40000009537,116576.20000004768,119162.90000009537],"straightlining":0.5238095238095238,"zigzagging":0.6,"honeypot":0,"survey":"sns","trial_type":"survey-template","trial_index":2,"time_elapsed":147069,"internal_node_id":"0.0-2.0","task_version":"prescreen-v0.3","browser_interactions":0,"infrequency":0},{"responses":{"Q06":"2","Q02":"1","Q09":"1","Q05":"3","Q04":"2","Q03":"3","Q07":"2","Q12":"1","Q10":"2","Q11":"1","Q01":"3","Q13":"0","Q08":"2"},"rt":150821.40000009537,"item_order":[5,1,8,4,3,2,6,11,9,10,0,12,7],"radio_events":[10223.299999952316,15677,17055.5,20255.900000095367,44098.299999952316,47196.10000014305,48841.200000047684,61794,85610.10000014305,86306.90000009537,115748.70000004768,119235,121867.40000009537,134165.20000004768,136053.40000009537],"key_events":[],"mouse_events":[10223.299999952316,14246.299999952316,15677,17055.5,20255.900000095367,44098.299999952316,47196.10000014305,48841.200000047684,61794,85610.10000014305,86306.90000009537,115748.70000004768,119235,121867.40000009537,134165.20000004768,136053.40000009537,141536.29999995232,148978.70000004768,150819.40000009537],"straightlining":0.38461538461538464,"zigzagging":0.6666666666666666,"honeypot":0,"survey":"bisbas","trial_type":"survey-template","trial_index":3,"time_elapsed":297902,"internal_node_id":"0.0-3.0","task_version":"prescreen-v0.3","browser_interactions":0,"infrequency":0},{"responses":{"Q01":"3","Q02":"3","Q03":"3"},"rt":124874.79999995232,"radio_events":[104799.60000014305,117205.90000009537,123946.70000004768],"key_events":[],"mouse_events":[104799.60000014305,117205.90000009537,123058.60000014305,123946.70000004768,124872.70000004768],"survey":"map","page":1,"trial_type":"survey-map","trial_index":4,"time_elapsed":422783,"internal_node_id":"0.0-4.0","task_version":"prescreen-v0.3","browser_interactions":2},{"responses":{"Q04":"2","Q05":"1","Q06":"3"},"rt":14416.200000047684,"radio_events":[6348.800000190735,8728,12820.300000190735],"key_events":[],"mouse_events":[6348.800000190735,8728,12001.100000143051,12820.300000190735,14414.600000143051],"survey":"map","page":2,"trial_type":"survey-map","trial_index":5,"time_elapsed":437206,"internal_node_id":"0.0-5.0","task_version":"prescreen-v0.3","browser_interactions":0},{"responses":{"Q07":"1","Q08":"0","Q09":"4"},"rt":15568.400000095367,"radio_events":[9082.700000047684,11401.799999952316,14585.299999952316],"key_events":[],"mouse_events":[7172.400000095367,9082.700000047684,11401.799999952316,14585.299999952316,15566.700000047684],"survey":"map","page":3,"trial_type":"survey-map","trial_index":6,"time_elapsed":452781,"internal_node_id":"0.0-6.0","task_version":"prescreen-v0.3","browser_interactions":0},{"responses":{"Q10":"2","Q11":"2","Q12":"1","Q13":"1","Q16":"0","Q14":"3","Q15":"3"},"rt":138843.59999990463,"radio_events":[40366.700000047684,83465.09999990463,86481.5,96197.40000009537,101756.5,134759.29999995232,137936.09999990463],"key_events":[],"mouse_events":[39623.40000009537,40366.700000047684,83465.09999990463,86481.5,87540.29999995232,96197.40000009537,101756.5,134759.29999995232,137046.70000004768,137936.09999990463,138840.70000004768],"survey":"map","page":4,"trial_type":"survey-map","trial_index":7,"time_elapsed":591633,"internal_node_id":"0.0-7.0","task_version":"prescreen-v0.3","browser_interactions":2,"infrequency":0},{"view_history":[{"page_index":0,"viewing_time":2577.800000190735},{"page_index":1,"viewing_time":6322.099999904633}],"rt":8900.800000190735,"trial_type":"instructions","trial_index":8,"time_elapsed":600537,"internal_node_id":"0.0-8.0","task_version":"prescreen-v0.3"},{"responses":{"01":"No","02":"No","03":"No","04":"No","05":"No","06":"No"},"rt":48404.40000009537,"item_order":[0,1,2,3,4,5],"radio_events":[13070,16823.900000095367,19816.299999952316,26694,28325.5,29949.299999952316,35938.59999990463,41443.59999990463,44176.90000009537],"checkbox_events":[],"key_events":[],"mouse_events":[0.20000004768371582,12150.5,13070,16823.900000095367,19816.299999952316,26694,28325.5,29949.299999952316,35938.59999990463,41443.59999990463,44176.90000009537,48396.09999990463],"honeypot":0,"survey":"mace","page":1,"trial_type":"survey-mace","trial_index":9,"time_elapsed":648960,"internal_node_id":"0.0-9.0","task_version":"prescreen-v0.3","browser_interactions":0},{"responses":{"01":"No","02":"No","03":"No","04":"No","05":"No","06":"No","07":"No","08":"No"},"rt":38890.09999990463,"item_order":[0,1,2,3,4,5,6,7],"radio_events":[18844.39999985695,24137.39999985695,28134.299999952316,29864.099999904633,31793,33358.799999952316,35401.09999990463,37043.89999985695],"checkbox_events":[],"key_events":[],"mouse_events":[18844.39999985695,24137.39999985695,28134.299999952316,29864.099999904633,31793,33358.799999952316,35401.09999990463,37043.89999985695,38882],"honeypot":0,"survey":"mace","page":2,"trial_type":"survey-mace","trial_index":10,"time_elapsed":687865,"internal_node_id":"0.0-10.0","task_version":"prescreen-v0.3","browser_interactions":0},{"responses":{"01":"No","02":"No","03":"No","04":"No"},"rt":15712,"item_order":[0,1,2,3],"radio_events":[5975.800000190735,10577.300000190735,13163.300000190735,14370.300000190735],"checkbox_events":[],"key_events":[],"mouse_events":[5975.800000190735,10577.300000190735,13163.300000190735,14370.300000190735,15706.600000143051],"honeypot":0,"survey":"mace","page":3,"trial_type":"survey-mace","trial_index":11,"time_elapsed":703584,"internal_node_id":"0.0-11.0","task_version":"prescreen-v0.3","browser_interactions":0},{"responses":{"01":"No","02":"No"},"rt":9784.700000047684,"item_order":[0,1],"radio_events":[6208.099999904633,7698],"checkbox_events":[],"key_events":[],"mouse_events":[6208.099999904633,7698,9783],"honeypot":0,"survey":"mace","page":4,"trial_type":"survey-mace","trial_index":12,"time_elapsed":713375,"internal_node_id":"0.0-12.0","task_version":"prescreen-v0.3","browser_interactions":0},{"responses":{"01":"No","02":"No","03":"No","04":"No","05":"No"},"rt":22967.599999904633,"item_order":[0,1,2,3,4],"radio_events":[8791.799999952316,11514.899999856949,14493.5,19550.799999952316,21183.799999952316],"checkbox_events":[],"key_events":[],"mouse_events":[8791.799999952316,11514.899999856949,14493.5,19550.799999952316,21183.799999952316,22961.099999904633],"honeypot":0,"survey":"mace","page":5,"trial_type":"survey-mace","trial_index":13,"time_elapsed":736352,"internal_node_id":"0.0-13.0","task_version":"prescreen-v0.3","browser_interactions":0},{"responses":{"01":"No","02":"Yes","02_ages_9":"9","02_ages_11":"11","02_ages_14":"14","03":"Yes","03_ages_18":"18","04":"No","05":"No"},"rt":46692.200000047684,"item_order":[0,1,2,3,4],"radio_events":[10148.300000190735,11699.600000143051,36755.60000014305,42294.10000014305,45794.800000190735],"checkbox_events":[18918.5,20484,26392.10000014305,39149.5],"key_events":[],"mouse_events":[10148.300000190735,11699.600000143051,18918.5,20484,26392.10000014305,36755.60000014305,39149.5,42294.10000014305,45794.800000190735,46685.90000009537],"honeypot":0,"survey":"mace","page":6,"trial_type":"survey-mace","trial_index":14,"time_elapsed":783056,"internal_node_id":"0.0-14.0","task_version":"prescreen-v0.3","browser_interactions":0},{"responses":{"01":"No","02":"No","03":"No","04":"No","05":"No","06":"No","07":"No"},"rt":21878.700000047684,"item_order":[0,1,2,3,4,5,6],"radio_events":[7520.100000143051,8875,11163,13750.900000095367,15567.200000047684,18452.900000095367,21037.700000047684],"checkbox_events":[],"key_events":[],"mouse_events":[7520.100000143051,8875,11163,13750.900000095367,15567.200000047684,18452.900000095367,19939.700000047684,21037.700000047684,21875],"honeypot":0,"survey":"mace","page":7,"trial_type":"survey-mace","trial_index":15,"time_elapsed":804946,"internal_node_id":"0.0-15.0","task_version":"prescreen-v0.3","browser_interactions":0},{"responses":{"01":"No","02":"No","03":"No","04":"No"},"rt":25797.60000014305,"item_order":[0,1,2,3],"radio_events":[13866.200000047684,15372.200000047684,21422.900000095367,23763.299999952316],"checkbox_events":[],"key_events":[],"mouse_events":[12541.400000095367,13866.200000047684,15372.200000047684,21422.900000095367,23763.299999952316,25792.5],"honeypot":0,"survey":"mace","page":8,"trial_type":"survey-mace","trial_index":16,"time_elapsed":830751,"internal_node_id":"0.0-16.0","task_version":"prescreen-v0.3","browser_interactions":0},{"responses":{"01":"Yes","01_ages_1":"1","01_ages_2":"2","01_ages_3":"3","01_ages_4":"4","01_ages_5":"5","01_ages_6":"6","01_ages_7":"7","01_ages_8":"8","01_ages_9":"9","01_ages_10":"10","01_ages_11":"11","01_ages_12":"12","01_ages_13":"13","01_ages_14":"14","01_ages_15":"15","01_ages_16":"16","01_ages_17":"17","01_ages_18":"18","02":"Yes","02_ages_1":"1","02_ages_2":"2","02_ages_3":"3","02_ages_4":"4","02_ages_5":"5","02_ages_6":"6","02_ages_7":"7","02_ages_8":"8","02_ages_9":"9","02_ages_10":"10","02_ages_11":"11","02_ages_12":"12","02_ages_13":"13","02_ages_14":"14","02_ages_15":"15","02_ages_16":"16","02_ages_17":"17","02_ages_18":"18","03":"Yes","03_ages_1":"1","03_ages_2":"2","03_ages_3":"3","03_ages_4":"4","03_ages_5":"5","03_ages_6":"6","03_ages_7":"7","03_ages_8":"8","03_ages_9":"9","03_ages_10":"10","03_ages_11":"11","03_ages_12":"12","03_ages_13":"13","03_ages_14":"14","03_ages_15":"15","03_ages_16":"16","03_ages_17":"17","03_ages_18":"18","04":"Yes","04_ages_1":"1","04_ages_2":"2","04_ages_3":"3","04_ages_4":"4","04_ages_5":"5","04_ages_6":"6","04_ages_7":"7","04_ages_8":"8","04_ages_9":"9","04_ages_10":"10","04_ages_11":"11","04_ages_12":"12","04_ages_13":"13","04_ages_14":"14","04_ages_15":"15","04_ages_16":"16","04_ages_17":"17","04_ages_18":"18"},"rt":106853.20000004768,"item_order":[0,1,2,3],"radio_events":[5571.700000047684,43334.09999990463,68230.20000004768,88533.09999990463],"checkbox_events":[8531.599999904633,9820.299999952316,11415.299999952316,12360,13384.799999952316,14774.099999904633,15863.299999952316,16535.099999904633,17269.799999952316,17833.900000095367,18971.900000095367,19774.200000047684,20514.299999952316,21184.099999904633,21853,22521.299999952316,23410.5,24430.099999904633,24629.299999952316,24839.900000095367,25162.200000047684,26047.700000047684,44253.59999990463,44886.59999990463,45466.700000047684,46591.299999952316,47428.5,48038.40000009537,48662.59999990463,49463,50367.5,51227.09999990463,52122.09999990463,52792.200000047684,53475.5,54128.200000047684,54658.299999952316,55400.90000009537,56443.90000009537,57288.700000047684,69325.59999990463,70046.5,70655.90000009537,71435.20000004768,72271.40000009537,72853.40000009537,73403.90000009537,74101.09999990463,74939.20000004768,75579.59999990463,76554.70000004768,77238.79999995232,78532.20000004768,79406.79999995232,80075.09999990463,80722.79999995232,81332.29999995232,81919.59999990463,90252.20000004768,92581.40000009537,93154,93780,94469.40000009537,95864,98252.79999995232,98752.5,99332.5,100245,100985.5,101705.09999990463,102345.90000009537,103049.59999990463,104018.90000009537,104594.29999995232,105203.09999990463,105937.5],"key_events":[],"mouse_events":[5571.700000047684,8145.799999952316,8531.599999904633,9820.299999952316,11415.299999952316,12360,13384.799999952316,14774.099999904633,15863.299999952316,16535.099999904633,17269.799999952316,17833.900000095367,18427.799999952316,18971.900000095367,19774.200000047684,20514.299999952316,21184.099999904633,21853,22521.299999952316,23410.5,24430.099999904633,24629.299999952316,24839.900000095367,25162.200000047684,26047.700000047684,43334.09999990463,44253.59999990463,44886.59999990463,45466.700000047684,46591.299999952316,47428.5,48038.40000009537,48662.59999990463,49463,50367.5,51227.09999990463,52122.09999990463,52792.200000047684,53475.5,54128.200000047684,54658.299999952316,55400.90000009537,56443.90000009537,57288.700000047684,68230.20000004768,69325.59999990463,70046.5,70655.90000009537,71435.20000004768,72271.40000009537,72853.40000009537,73403.90000009537,74101.09999990463,74939.20000004768,75579.59999990463,76554.70000004768,77238.79999995232,78532.20000004768,79406.79999995232,80075.09999990463,80722.79999995232,81332.29999995232,81919.59999990463,88533.09999990463,90252.20000004768,92581.40000009537,93154,93780,94469.40000009537,95864,98252.79999995232,98752.5,99332.5,99841.5,100245,100985.5,101705.09999990463,102345.90000009537,103049.59999990463,104018.90000009537,104594.29999995232,105203.09999990463,105937.5,106848.09999990463],"honeypot":0,"survey":"mace","page":9,"trial_type":"survey-mace","trial_index":17,"time_elapsed":937615,"internal_node_id":"0.0-17.0","task_version":"prescreen-v0.3","browser_interactions":0},{"responses":{"01":"No","02":"No","03":"No","04":"No","05":"No","06":"Yes","06_ages_17":"17","07":"Yes","07_ages_1":"1","07_ages_2":"2","07_ages_3":"3","07_ages_4":"4","07_ages_5":"5","07_ages_6":"6","07_ages_7":"7","07_ages_8":"8","07_ages_9":"9","07_ages_10":"10","07_ages_11":"11","07_ages_12":"12","07_ages_13":"13","07_ages_14":"14","07_ages_15":"15","07_ages_16":"16","07_ages_17":"17","07_ages_18":"18","08":"Yes","08_ages_1":"1","08_ages_2":"2","08_ages_3":"3","08_ages_4":"4","08_ages_5":"5","08_ages_6":"6","08_ages_7":"7","08_ages_8":"8","08_ages_9":"9","08_ages_10":"10","08_ages_11":"11","08_ages_12":"12","08_ages_13":"13","08_ages_14":"14","08_ages_15":"15","08_ages_16":"16","08_ages_17":"17","08_ages_18":"18"},"rt":66757.5,"item_order":[0,1,2,3,4,5,6,7],"radio_events":[3664.2000000476837,5374.200000047684,6784.600000143051,14109.400000095367,16351.100000143051,19178,28165.5,43400.299999952316],"checkbox_events":[21489,29362.400000095367,30236.400000095367,30787.200000047684,31360,31889.799999952316,32850.90000009537,33667.700000047684,34408.10000014305,35466.60000014305,36033.10000014305,36757.799999952316,37369.700000047684,38171.299999952316,38794.700000047684,39499.5,40219.799999952316,40864.799999952316,41394.5,44869.90000009537,45487.10000014305,46067.60000014305,46831.10000014305,47564.40000009537,48197.299999952316,48887.90000009537,49504.60000014305,50972.299999952316,51826.700000047684,52497.200000047684,53119.10000014305,53845.90000009537,54566.40000009537,55361.10000014305,55933.5,56582.799999952316,57924.700000047684],"key_events":[],"mouse_events":[3664.2000000476837,5374.200000047684,6784.600000143051,14109.400000095367,16351.100000143051,19178,21489,28165.5,29362.400000095367,30236.400000095367,30787.200000047684,31360,31889.799999952316,32850.90000009537,33667.700000047684,34408.10000014305,35466.60000014305,36033.10000014305,36757.799999952316,37369.700000047684,38171.299999952316,38794.700000047684,39499.5,40219.799999952316,40864.799999952316,41394.5,43400.299999952316,44869.90000009537,45487.10000014305,46067.60000014305,46831.10000014305,47564.40000009537,48197.299999952316,48887.90000009537,49504.60000014305,50188.60000014305,50972.299999952316,51826.700000047684,52497.200000047684,53119.10000014305,53845.90000009537,54566.40000009537,55361.10000014305,55933.5,56582.799999952316,57224.90000009537,57924.700000047684,66750.29999995232],"honeypot":0,"survey":"mace","page":10,"trial_type":"survey-mace","trial_index":18,"time_elapsed":1004386,"internal_node_id":"0.0-18.0","task_version":"prescreen-v0.3","browser_interactions":0,"instructed":0},{"rt":5907.299999952316,"trial_type":"mental-health-alert","trial_index":19,"time_elapsed":1010298,"internal_node_id":"0.0-19.0","task_version":"prescreen-v0.3","interactions":"[{\"event\":\"blur\",\"trial\":4,\"time\":401959},{\"event\":\"focus\",\"trial\":4,\"time\":402595},{\"event\":\"blur\",\"trial\":7,\"time\":541116},{\"event\":\"focus\",\"trial\":7,\"time\":542601}]"}]