[{"view_history":[{"page_index":0,"viewing_time":2852.8000000044703},{"page_index":1,"viewing_time":3673.89999999851},{"page_index":2,"viewing_time":5395.69999999553},{"page_index":3,"viewing_time":3877.7000000029802}],"rt":15800.80000000447,"trial_type":"instructions","trial_index":0,"time_elapsed":15814,"internal_node_id":"0.0-0.0","task_version":"prescreen-v0.3"},{"rt":18590.5,"responses":{"age":"52","gender-categorical":"Male","gender-free-response":"","ethnicity":"Not Hispanic or Latino","race":["White"],"education":"Master degree or higher","siblings":"6"},"trial_type":"survey-demo","trial_index":1,"time_elapsed":34409,"internal_node_id":"0.0-1.0","task_version":"prescreen-v0.3"},{"responses":{"Q17":"1","Q20":"1","Q02":"1","Q07":"1","Q01":"1","Q09":"1","Q18":"0","Q03":"0","Q12":"1","Q21":"3","Q06":"2","Q10":"1","Q05":"1","Q15":"1","Q14":"0","Q19":"1","Q13":"0","Q11":"1","Q16":"1","Q08":"1","Q04":"1"},"rt":106007.20000000298,"item_order":[16,19,1,6,0,8,17,2,11,20,5,9,4,14,13,18,12,10,15,7,3],"radio_events":[5312.70000000298,13366.30000000447,14754.70000000298,16924.89999999851,26374.70000000298,30894.60000000149,36916.80000000447,38900.70000000298,42874.89999999851,54716.70000000298,56277.10000000149,60898.60000000149,69010.70000000298,72750.60000000149,80142.80000000447,85062.80000000447,85864.70000000298,86904.60000000149,93225,97490.70000000298,100910.60000000149,103260.89999999851],"key_events":[],"mouse_events":[5312.70000000298,7432.80000000447,8924.70000000298,13366.30000000447,14754.70000000298,16924.89999999851,25674.20000000298,26374.70000000298,26974.89999999851,30894.60000000149,36916.80000000447,38900.70000000298,42874.89999999851,47964.80000000447,51230.80000000447,54716.70000000298,56277.10000000149,60898.60000000149,68139,69010.70000000298,72750.60000000149,76670.89999999851,77724.70000000298,80142.80000000447,83582.80000000447,85062.80000000447,85864.70000000298,86904.60000000149,93225,95838.80000000447,97490.70000000298,98550.70000000298,100910.60000000149,103260.89999999851,106005.20000000298],"straightlining":0.7142857142857143,"zigzagging":0.4,"honeypot":0,"survey":"sns","trial_type":"survey-template","trial_index":2,"time_elapsed":140421,"internal_node_id":"0.0-2.0","task_version":"prescreen-v0.3","browser_interactions":0,"infrequency":0},{"responses":{"Q11":"3","Q12":"2","Q01":"1","Q05":"3","Q06":"3","Q02":"1","Q13":"0","Q04":"2","Q03":"2","Q08":"3","Q09":"2","Q10":"3","Q07":"2"},"rt":55859.39999999851,"item_order":[10,11,0,4,5,1,12,3,2,7,8,9,6],"radio_events":[6537.69999999553,10258.09999999404,12054,13986,18612,23468.29999999702,30440.29999999702,33655.69999999553,36732.29999999702,40062.19999999553,41086.39999999851,44250.09999999404,45420,47732.39999999851,54216.19999999553],"key_events":[],"mouse_events":[6537.69999999553,9022.09999999404,10258.09999999404,12054,13986,15092,18612,22056.19999999553,23468.29999999702,30440.29999999702,32416.39999999851,33655.69999999553,36732.29999999702,40062.19999999553,41086.39999999851,41828.09999999404,44250.09999999404,45420,46376.29999999702,47732.39999999851,48798.39999999851,54216.19999999553,55858.19999999553],"straightlining":0.38461538461538464,"zigzagging":0.5833333333333334,"honeypot":0,"survey":"bisbas","trial_type":"survey-template","trial_index":3,"time_elapsed":196284,"internal_node_id":"0.0-3.0","task_version":"prescreen-v0.3","browser_interactions":0,"infrequency":0},{"responses":{"Q01":"3","Q02":"3","Q03":"3"},"rt":15512.29999999702,"radio_events":[5518.0999999940395,10251.59999999404,14097.39999999851],"key_events":[],"mouse_events":[5518.0999999940395,7477.29999999702,10251.59999999404,14097.39999999851,15511.69999999553],"survey":"map","page":1,"trial_type":"survey-map","trial_index":4,"time_elapsed":211799,"internal_node_id":"0.0-4.0","task_version":"prescreen-v0.3","browser_interactions":0},{"responses":{"Q04":"3","Q05":"3","Q06":"3"},"rt":8853.5,"radio_events":[4203.5999999940395,5411.5,6345.19999999553],"key_events":[],"mouse_events":[4203.5999999940395,5411.5,6345.19999999553,8853.09999999404],"survey":"map","page":2,"trial_type":"survey-map","trial_index":5,"time_elapsed":220655,"internal_node_id":"0.0-5.0","task_version":"prescreen-v0.3","browser_interactions":0},{"responses":{"Q07":"3","Q08":"4","Q09":"3"},"rt":10932,"radio_events":[4306.10000000149,8282.29999999702,9947.79999999702],"key_events":[],"mouse_events":[4306.10000000149,5429.79999999702,6847.79999999702,8282.29999999702,9947.79999999702,10931.69999999553],"survey":"map","page":3,"trial_type":"survey-map","trial_index":6,"time_elapsed":231588,"internal_node_id":"0.0-6.0","task_version":"prescreen-v0.3","browser_interactions":0},{"responses":{"Q10":"3","Q11":"3","Q12":"2","Q13":"3","Q16":"0","Q14":"3","Q15":"4"},"rt":32069.5,"radio_events":[3954.2000000029802,6680.10000000149,10214.30000000447,11684.39999999851,15756.20000000298,16681.70000000298,20578,24127.80000000447,26176.20000000298,28426.20000000298],"key_events":[],"mouse_events":[3954.2000000029802,4904,6680.10000000149,7594.20000000298,10214.30000000447,11684.39999999851,14390.60000000149,15756.20000000298,16681.70000000298,20578,24127.80000000447,26176.20000000298,28426.20000000298,32068.39999999851],"survey":"map","page":4,"trial_type":"survey-map","trial_index":7,"time_elapsed":263660,"internal_node_id":"0.0-7.0","task_version":"prescreen-v0.3","browser_interactions":0,"infrequency":0},{"view_history":[{"page_index":0,"viewing_time":2295.2000000029802},{"page_index":1,"viewing_time":6223.79999999702}],"rt":8519.40000000596,"trial_type":"instructions","trial_index":8,"time_elapsed":272181,"internal_node_id":"0.0-8.0","task_version":"prescreen-v0.3"},{"responses":{"01":"No","02":"No","03":"No","04":"No","05":"No","06":"No"},"rt":16186.79999999702,"item_order":[0,1,2,3,4,5],"radio_events":[5053.79999999702,9841.59999999404,10435.29999999702,11081.19999999553,12097.69999999553,13225.59999999404],"checkbox_events":[],"key_events":[],"mouse_events":[0.19999999552965164,5053.79999999702,5919.39999999851,6839.5,9171.39999999851,9841.59999999404,10435.29999999702,11081.19999999553,12097.69999999553,13225.59999999404,16184.09999999404],"honeypot":0,"survey":"mace","page":1,"trial_type":"survey-mace","trial_index":9,"time_elapsed":288374,"internal_node_id":"0.0-9.0","task_version":"prescreen-v0.3","browser_interactions":0},{"responses":{"01":"No","02":"No","03":"No","04":"No","05":"No","06":"No","07":"No","08":"No"},"rt":18123.39999999851,"item_order":[0,1,2,3,4,5,6,7],"radio_events":[3384.5999999940395,9192,9808.19999999553,10846.5,12387.19999999553,13926.19999999553,14612.29999999702,16304.19999999553],"checkbox_events":[],"key_events":[],"mouse_events":[3384.5999999940395,4786,5627.69999999553,9192,9808.19999999553,10846.5,12387.19999999553,13220.29999999702,13926.19999999553,14612.29999999702,16304.19999999553,18120.29999999702],"honeypot":0,"survey":"mace","page":2,"trial_type":"survey-mace","trial_index":10,"time_elapsed":306503,"internal_node_id":"0.0-10.0","task_version":"prescreen-v0.3","browser_interactions":0},{"responses":{"01":"No","02":"No","03":"No","04":"No"},"rt":8193.10000000149,"item_order":[0,1,2,3],"radio_events":[3014.10000000149,4286,6113.79999999702,7379.60000000149],"checkbox_events":[],"key_events":[],"mouse_events":[3014.10000000149,3649.7999999970198,4286,5158.10000000149,6113.79999999702,7379.60000000149,8191.79999999702],"honeypot":0,"survey":"mace","page":3,"trial_type":"survey-mace","trial_index":11,"time_elapsed":314698,"internal_node_id":"0.0-11.0","task_version":"prescreen-v0.3","browser_interactions":0},{"responses":{"01":"No","02":"No"},"rt":7098.10000000149,"item_order":[0,1],"radio_events":[2204.89999999851,4264.5],"checkbox_events":[],"key_events":[],"mouse_events":[2204.89999999851,4264.5,7097.10000000149],"honeypot":0,"survey":"mace","page":4,"trial_type":"survey-mace","trial_index":12,"time_elapsed":321798,"internal_node_id":"0.0-12.0","task_version":"prescreen-v0.3","browser_interactions":0},{"responses":{"01":"No","02":"No","03":"No","04":"No","05":"No"},"rt":14889.79999999702,"item_order":[0,1,2,3,4],"radio_events":[4366.39999999851,6764.0999999940395,11424.39999999851,12895.79999999702,14005.79999999702],"checkbox_events":[],"key_events":[],"mouse_events":[4366.39999999851,5018,6764.0999999940395,7348.19999999553,9780.19999999553,11424.39999999851,12159.89999999851,12895.79999999702,14005.79999999702,14888],"honeypot":0,"survey":"mace","page":5,"trial_type":"survey-mace","trial_index":13,"time_elapsed":336691,"internal_node_id":"0.0-13.0","task_version":"prescreen-v0.3","browser_interactions":0},{"responses":{"01":"No","02":"No","03":"No","04":"No","05":"No"},"rt":13530.69999999553,"item_order":[0,1,2,3,4],"radio_events":[4378.39999999851,5442.0999999940395,7330.29999999702,8122.29999999702,11652.29999999702],"checkbox_events":[],"key_events":[],"mouse_events":[3162.39999999851,4378.39999999851,5442.0999999940395,7330.29999999702,8122.29999999702,10482,11652.29999999702,13528.39999999851],"honeypot":0,"survey":"mace","page":6,"trial_type":"survey-mace","trial_index":14,"time_elapsed":350224,"internal_node_id":"0.0-14.0","task_version":"prescreen-v0.3","browser_interactions":0},{"responses":{"01":"No","02":"No","03":"No","04":"No","05":"No","06":"No","07":"No"},"rt":12954.5,"item_order":[0,1,2,3,4,5,6],"radio_events":[2176.1999999955297,3136.1999999955297,3845.60000000149,6454.10000000149,9197.79999999702,9940,11479.5],"checkbox_events":[],"key_events":[],"mouse_events":[2176.1999999955297,3136.1999999955297,3845.60000000149,5141.89999999851,6454.10000000149,6993.60000000149,8212.19999999553,9197.79999999702,9940,11479.5,12951.69999999553],"honeypot":0,"survey":"mace","page":7,"trial_type":"survey-mace","trial_index":15,"time_elapsed":363182,"internal_node_id":"0.0-15.0","task_version":"prescreen-v0.3","browser_interactions":0},{"responses":{"01":"No","02":"No","03":"No","04":"No"},"rt":16121,"item_order":[0,1,2,3],"radio_events":[5287.19999999553,7253.10000000149,11918.60000000149,14734.29999999702],"checkbox_events":[],"key_events":[],"mouse_events":[5287.19999999553,7253.10000000149,11061,11918.60000000149,13460.5,14734.29999999702,16119.10000000149],"honeypot":0,"survey":"mace","page":8,"trial_type":"survey-mace","trial_index":16,"time_elapsed":379305,"internal_node_id":"0.0-16.0","task_version":"prescreen-v0.3","browser_interactions":0},{"responses":{"01":"Yes","01_ages_1":"1","01_ages_2":"2","01_ages_3":"3","01_ages_4":"4","01_ages_5":"5","01_ages_6":"6","01_ages_7":"7","01_ages_8":"8","01_ages_9":"9","01_ages_10":"10","01_ages_11":"11","01_ages_12":"12","01_ages_13":"13","01_ages_14":"14","01_ages_15":"15","01_ages_16":"16","01_ages_17":"17","01_ages_18":"18","02":"Yes","02_ages_1":"1","02_ages_2":"2","02_ages_3":"3","02_ages_4":"4","02_ages_5":"5","02_ages_6":"6","02_ages_7":"7","02_ages_8":"8","02_ages_9":"9","02_ages_10":"10","02_ages_11":"11","02_ages_12":"12","02_ages_13":"13","02_ages_14":"14","02_ages_15":"15","02_ages_16":"16","02_ages_17":"17","02_ages_18":"18","03":"Yes","03_ages_1":"1","03_ages_2":"2","03_ages_3":"3","03_ages_4":"4","03_ages_5":"5","03_ages_6":"6","03_ages_7":"7","03_ages_8":"8","03_ages_9":"9","03_ages_10":"10","03_ages_11":"11","03_ages_12":"12","03_ages_13":"13","03_ages_14":"14","03_ages_15":"15","04":"Yes","04_ages_1":"1","04_ages_2":"2","04_ages_3":"3","04_ages_4":"4","04_ages_5":"5","04_ages_6":"6","04_ages_7":"7","04_ages_8":"8","04_ages_9":"9","04_ages_10":"10","04_ages_11":"11","04_ages_12":"12","04_ages_13":"13","04_ages_14":"14","04_ages_15":"15"},"rt":81787.89999999851,"item_order":[0,1,2,3],"radio_events":[5035.30000000447,30057.20000000298,47747.30000000447,66575.30000000447],"checkbox_events":[15107.39999999851,16443.60000000149,17231.39999999851,17927.20000000298,18855.20000000298,19449.80000000447,19989.5,20726.89999999851,21250.89999999851,21791.30000000447,22697.10000000149,23297.10000000149,23829.39999999851,24351.20000000298,24784.80000000447,26242.89999999851,26831.89999999851,27485.5,32583.10000000149,33869.39999999851,35455,35962.80000000447,36528.89999999851,37423.39999999851,38023.20000000298,38637.30000000447,39217.20000000298,39829,40359.39999999851,40961.60000000149,41596.89999999851,42231.20000000298,42757.20000000298,43236.20000000298,44441.60000000149,45115.10000000149,49960.89999999851,51359.30000000447,51895.30000000447,52469.60000000149,53029.30000000447,53519.60000000149,54045.30000000447,55663.5,56263.60000000149,57057.5,57591.5,60037.30000000447,61383.70000000298,61973.60000000149,62841.30000000447,68761.60000000149,69387.5,70477.20000000298,71167.5,71733.60000000149,72241.60000000149,72863.5,73447,75213.39999999851,75747,76267,76851,77689.10000000149,78435.5,79651.70000000298],"key_events":[],"mouse_events":[5035.30000000447,15107.39999999851,15627.10000000149,16443.60000000149,17231.39999999851,17927.20000000298,18855.20000000298,19449.80000000447,19989.5,20726.89999999851,21250.89999999851,21791.30000000447,22697.10000000149,23297.10000000149,23829.39999999851,24351.20000000298,24784.80000000447,25239.39999999851,26242.89999999851,26831.89999999851,27485.5,30057.20000000298,32583.10000000149,33083.5,33869.39999999851,34395.30000000447,35455,35962.80000000447,36528.89999999851,37423.39999999851,38023.20000000298,38637.30000000447,39217.20000000298,39829,40359.39999999851,40961.60000000149,41596.89999999851,42231.20000000298,42757.20000000298,43236.20000000298,43787.20000000298,44441.60000000149,45115.10000000149,47747.30000000447,49960.89999999851,50467.39999999851,51359.30000000447,51895.30000000447,52469.60000000149,53029.30000000447,53519.60000000149,54045.30000000447,54579.10000000149,55159.30000000447,55663.5,56263.60000000149,57057.5,57591.5,60037.30000000447,60763.39999999851,61383.70000000298,61973.60000000149,62841.30000000447,66575.30000000447,68761.60000000149,69387.5,70477.20000000298,71167.5,71733.60000000149,72241.60000000149,72863.5,73447,74365.10000000149,75213.39999999851,75747,76267,76851,77689.10000000149,78435.5,78925.30000000447,79651.70000000298,81786],"honeypot":0,"survey":"mace","page":9,"trial_type":"survey-mace","trial_index":17,"time_elapsed":461096,"internal_node_id":"0.0-17.0","task_version":"prescreen-v0.3","browser_interactions":0},{"responses":{"01":"No","02":"No","03":"No","04":"Yes","04_ages_1":"1","04_ages_2":"2","04_ages_3":"3","04_ages_4":"4","04_ages_5":"5","04_ages_6":"6","04_ages_7":"7","04_ages_8":"8","04_ages_9":"9","04_ages_10":"10","04_ages_11":"11","04_ages_12":"12","04_ages_13":"13","04_ages_14":"14","04_ages_15":"15","04_ages_16":"16","04_ages_17":"17","04_ages_18":"18","05":"Yes","05_ages_1":"1","05_ages_2":"2","05_ages_3":"3","05_ages_4":"4","05_ages_5":"5","05_ages_6":"6","05_ages_7":"7","05_ages_8":"8","05_ages_9":"9","05_ages_10":"10","05_ages_11":"11","05_ages_12":"12","05_ages_13":"13","05_ages_14":"14","05_ages_15":"15","06":"Yes","06_ages_17":"17","07":"Yes","07_ages_1":"1","07_ages_2":"2","07_ages_3":"3","07_ages_4":"4","07_ages_5":"5","07_ages_6":"6","07_ages_7":"7","07_ages_8":"8","07_ages_9":"9","07_ages_10":"10","07_ages_11":"11","07_ages_12":"12","07_ages_13":"13","07_ages_14":"14","07_ages_15":"15","07_ages_16":"16","07_ages_17":"17","07_ages_18":"18","08":"Yes","08_ages_1":"1","08_ages_2":"2","08_ages_3":"3","08_ages_4":"4","08_ages_5":"5","08_ages_6":"6","08_ages_7":"7","08_ages_8":"8","08_ages_9":"9","08_ages_10":"10","08_ages_11":"11","08_ages_12":"12","08_ages_13":"13","08_ages_14":"14","08_ages_15":"15","08_ages_16":"16","08_ages_17":"17","08_ages_18":"18"},"rt":89392.59999999404,"item_order":[0,1,2,3,4,5,6,7],"radio_events":[3173.6999999955297,4854.5,5470.29999999702,9934.39999999851,13956.29999999702,32724.39999999851,47316.19999999553,53822.5,72552.09999999404],"checkbox_events":[16256.09999999404,16728.5,17221.59999999404,17778.09999999404,18292.5,19018,19532.5,19985.59999999404,21464.19999999553,21994.59999999404,23160.29999999702,23850.39999999851,24796.29999999702,25576.29999999702,26452.29999999702,27008.5,28268.39999999851,28970.39999999851,33890,34559.79999999702,35251.79999999702,36052.59999999404,36558.29999999702,38522.39999999851,39824.19999999553,40406.5,41076.19999999553,41602.5,42530.29999999702,43129.89999999851,43892.29999999702,44316.39999999851,44902.29999999702,49108,55586.39999999851,56408.29999999702,58944.59999999404,59408.59999999404,61063.29999999702,62137.5,62678.19999999553,63430.5,64016.39999999851,64592.39999999851,65116.79999999702,66362.29999999702,66961.89999999851,67572.19999999553,68540.19999999553,69486,70338.09999999404,71272,75538.29999999702,77077.69999999553,77516,78262,79170.29999999702,79694.29999999702,80274.39999999851,80774.5,81278.59999999404,81978.69999999553,82654.69999999553,83794.5,84278.69999999553,84768.09999999404,85238.59999999404,85978.59999999404,88100.29999999702,88616.5],"key_events":[],"mouse_events":[2426,3173.6999999955297,3734.2999999970198,4854.5,5470.29999999702,9934.39999999851,12724.39999999851,13956.29999999702,16256.09999999404,16728.5,17221.59999999404,17778.09999999404,18292.5,19018,19532.5,19985.59999999404,20970.5,21464.19999999553,21994.59999999404,22696.5,23160.29999999702,23850.39999999851,24796.29999999702,25576.29999999702,26452.29999999702,27008.5,28268.39999999851,28970.39999999851,32724.39999999851,33890,34559.79999999702,35251.79999999702,36052.59999999404,36558.29999999702,37151.79999999702,38522.39999999851,39148.09999999404,39824.19999999553,40406.5,41076.19999999553,41602.5,42530.29999999702,43129.89999999851,43892.29999999702,44316.39999999851,44902.29999999702,47316.19999999553,49108,53822.5,55586.39999999851,56408.29999999702,56946.39999999851,57708.59999999404,58944.59999999404,59408.59999999404,59822.69999999553,60276.29999999702,61063.29999999702,61526.09999999404,62137.5,62678.19999999553,63430.5,64016.39999999851,64592.39999999851,65116.79999999702,65666.59999999404,66362.29999999702,66961.89999999851,67572.19999999553,68540.19999999553,69486,70338.09999999404,71272,72552.09999999404,75538.29999999702,76168.59999999404,77077.69999999553,77516,78262,79170.29999999702,79694.29999999702,80274.39999999851,80774.5,81278.59999999404,81978.69999999553,82654.69999999553,83794.5,84278.69999999553,84768.09999999404,85238.59999999404,85978.59999999404,88100.29999999702,88616.5,89388.89999999851],"honeypot":0,"survey":"mace","page":10,"trial_type":"survey-mace","trial_index":18,"time_elapsed":550493,"internal_node_id":"0.0-18.0","task_version":"prescreen-v0.3","browser_interactions":0,"instructed":0},{"rt":8948.90000000596,"trial_type":"mental-health-alert","trial_index":19,"time_elapsed":559443,"internal_node_id":"0.0-19.0","task_version":"prescreen-v0.3","interactions":"[]"}]