[{"view_history":[{"page_index":0,"viewing_time":2032.2000000476837},{"page_index":1,"viewing_time":4098.199999809265},{"page_index":2,"viewing_time":2749.300000190735},{"page_index":3,"viewing_time":1415}],"rt":10296.700000047684,"trial_type":"instructions","trial_index":0,"time_elapsed":10332,"internal_node_id":"0.0-0.0","task_version":"prescreen-v0.3"},{"rt":12313.099999904633,"responses":{"age":"24","gender-categorical":"Female","gender-free-response":"","ethnicity":"Not Hispanic or Latino","race":["White"],"education":"Bachelor degree"},"trial_type":"survey-demo","trial_index":1,"time_elapsed":22663,"internal_node_id":"0.0-1.0","task_version":"prescreen-v0.3"},{"responses":{"Q09":"2","Q17":"1","Q11":"2","Q06":"0","Q10":"1","Q02":"1","Q19":"2","Q16":"3","Q13":"1","Q20":"0","Q21":"3","Q03":"1","Q07":"0","Q18":"2","Q08":"1","Q15":"2","Q04":"1","Q05":"1","Q01":"1","Q14":"2","Q12":"2"},"rt":70758.20000004768,"item_order":[8,16,10,5,9,1,18,15,12,19,20,2,6,17,7,14,3,4,0,13,11],"radio_events":[4252.5,6235.299999952316,8954.799999952316,11624.400000095367,15496.600000143051,17998.400000095367,22111,24948.5,27894,29833.900000095367,34989.299999952316,39101.40000009537,42253.60000014305,45133.40000009537,47547.700000047684,52717.700000047684,53882.90000009537,56676.90000009537,61752.5,64530.90000009537,69166.90000009537,69905.60000014305],"key_events":[],"mouse_events":[4252.5,6235.299999952316,8954.799999952316,11624.400000095367,15496.600000143051,17998.400000095367,21176.700000047684,22111,24948.5,27894,29833.900000095367,32320.299999952316,34989.299999952316,37819.5,39101.40000009537,42253.60000014305,45133.40000009537,47547.700000047684,49801.10000014305,52717.700000047684,53882.90000009537,56676.90000009537,61752.5,64530.90000009537,69166.90000009537,69905.60000014305,70752],"straightlining":0.42857142857142855,"zigzagging":0.6,"honeypot":0,"survey":"sns","trial_type":"survey-template","trial_index":2,"time_elapsed":93440,"internal_node_id":"0.0-2.0","task_version":"prescreen-v0.3","browser_interactions":0,"infrequency":0},{"responses":{"Q11":"1","Q03":"3","Q01":"3","Q05":"3","Q09":"2","Q04":"3","Q06":"3","Q02":"3","Q10":"1","Q07":"2","Q12":"1","Q08":"3","Q13":"0"},"rt":43925.09999990463,"item_order":[10,2,0,4,8,3,5,1,9,6,11,7,12],"radio_events":[8982.5,12322.799999952316,13841.099999904633,15182.5,18340.700000047684,21235.799999952316,25377.400000095367,27907.700000047684,29446.400000095367,31896.900000095367,35499.200000047684,39137.299999952316,42959],"key_events":[],"mouse_events":[8982.5,12322.799999952316,13841.099999904633,15182.5,18340.700000047684,21235.799999952316,25377.400000095367,27907.700000047684,29446.400000095367,31896.900000095367,34091.200000047684,35499.200000047684,39137.299999952316,42959,43921.40000009537],"straightlining":0.5384615384615384,"zigzagging":0.4166666666666667,"honeypot":0,"survey":"bisbas","trial_type":"survey-template","trial_index":3,"time_elapsed":137376,"internal_node_id":"0.0-3.0","task_version":"prescreen-v0.3","browser_interactions":0,"infrequency":0},{"responses":{"Q01":"3","Q02":"2","Q03":"2"},"rt":13596.200000047684,"radio_events":[6861.299999952316,8815.600000143051,12819.100000143051],"key_events":[],"mouse_events":[6861.299999952316,8815.600000143051,12819.100000143051,13593.5],"survey":"map","page":1,"trial_type":"survey-map","trial_index":4,"time_elapsed":150983,"internal_node_id":"0.0-4.0","task_version":"prescreen-v0.3","browser_interactions":0},{"responses":{"Q04":"1","Q05":"2","Q06":"3"},"rt":10884,"radio_events":[4641.299999952316,7580.400000095367,10154.599999904633],"key_events":[],"mouse_events":[4641.299999952316,7580.400000095367,10154.599999904633,10882.5],"survey":"map","page":2,"trial_type":"survey-map","trial_index":5,"time_elapsed":161874,"internal_node_id":"0.0-5.0","task_version":"prescreen-v0.3","browser_interactions":0},{"responses":{"Q07":"2","Q08":"4","Q09":"3"},"rt":12050.600000143051,"radio_events":[5571,9378.700000047684,11326.300000190735],"key_events":[],"mouse_events":[5571,9378.700000047684,11326.300000190735,12049],"survey":"map","page":3,"trial_type":"survey-map","trial_index":6,"time_elapsed":173931,"internal_node_id":"0.0-6.0","task_version":"prescreen-v0.3","browser_interactions":0},{"responses":{"Q10":"0","Q11":"1","Q12":"0","Q13":"2","Q16":"0","Q14":"2","Q15":"1"},"rt":36154,"radio_events":[4175.700000047684,6846.299999952316,11300.700000047684,13896.599999904633,19277.900000095367,31623,35195.59999990463],"key_events":[],"mouse_events":[4175.700000047684,6846.299999952316,9187.5,11300.700000047684,12540.400000095367,13896.599999904633,19277.900000095367,30536.400000095367,31623,35195.59999990463,36151.09999990463],"survey":"map","page":4,"trial_type":"survey-map","trial_index":7,"time_elapsed":210092,"internal_node_id":"0.0-7.0","task_version":"prescreen-v0.3","browser_interactions":0,"infrequency":0},{"view_history":[{"page_index":0,"viewing_time":2341.899999856949},{"page_index":1,"viewing_time":3017.7999999523163}],"rt":5360.599999904633,"trial_type":"instructions","trial_index":8,"time_elapsed":215456,"internal_node_id":"0.0-8.0","task_version":"prescreen-v0.3"},{"responses":{"01":"No","02":"Yes","02_ages_6":"6","02_ages_7":"7","02_ages_8":"8","02_ages_9":"9","02_ages_10":"10","02_ages_11":"11","02_ages_12":"12","02_ages_13":"13","02_ages_14":"14","02_ages_15":"15","02_ages_16":"16","02_ages_17":"17","02_ages_18":"18","03":"No","04":"No","05":"No","06":"No"},"rt":41692.5,"item_order":[0,1,2,3,4,5],"radio_events":[5304.099999904633,15447.399999856949,20061.699999809265,35562.09999990463,36642.299999952316,39218.39999985695,40997.199999809265],"checkbox_events":[23738.299999952316,25240.699999809265,25961.599999904633,26647.199999809265,27384.099999904633,27973.299999952316,28674.39999985695,29300.299999952316,29928.699999809265,30489.5,31051.299999952316,31678.89999985695,32312.099999904633],"key_events":[],"mouse_events":[0.09999990463256836,5304.099999904633,15447.399999856949,20061.699999809265,22396.5,23738.299999952316,25240.699999809265,25961.599999904633,26647.199999809265,27384.099999904633,27973.299999952316,28674.39999985695,29300.299999952316,29928.699999809265,30489.5,31051.299999952316,31678.89999985695,32312.099999904633,35562.09999990463,36642.299999952316,39218.39999985695,40997.199999809265,41683.89999985695],"honeypot":0,"survey":"mace","page":1,"trial_type":"survey-mace","trial_index":9,"time_elapsed":257164,"internal_node_id":"0.0-9.0","task_version":"prescreen-v0.3","browser_interactions":0},{"responses":{"01":"No","02":"No","03":"Yes","03_ages_1":"1","03_ages_2":"2","03_ages_3":"3","03_ages_4":"4","03_ages_5":"5","03_ages_6":"6","03_ages_7":"7","04":"Yes","04_ages_1":"1","04_ages_2":"2","04_ages_3":"3","04_ages_4":"4","04_ages_5":"5","04_ages_6":"6","04_ages_7":"7","05":"Yes","05_ages_5":"5","05_ages_6":"6","05_ages_7":"7","06":"Yes","06_ages_12":"12","06_ages_13":"13","06_ages_14":"14","06_ages_15":"15","07":"Yes","07_ages_12":"12","07_ages_13":"13","07_ages_14":"14","07_ages_15":"15","08":"No"},"rt":46458.40000009537,"item_order":[0,1,2,3,4,5,6,7],"radio_events":[3784.5,4857.600000143051,6934.900000095367,15997.799999952316,24549.10000014305,31131.200000047684,39702.299999952316,45046.90000009537],"checkbox_events":[8356.200000047684,8901.700000047684,9552.799999952316,10149,10770.299999952316,11338.600000143051,11870.5,17177.700000047684,17805.700000047684,18374.200000047684,19044.10000014305,19722.60000014305,20298.60000014305,20823,26188.5,26787.10000014305,27374.700000047684,33099.10000014305,35613.5,36313.40000009537,36962.5,40824.700000047684,41459.799999952316,42079,42713.5],"key_events":[],"mouse_events":[3784.5,4857.600000143051,6934.900000095367,8356.200000047684,8901.700000047684,9552.799999952316,10149,10770.299999952316,11338.600000143051,11870.5,12986.200000047684,13580.900000095367,15422,15997.799999952316,17177.700000047684,17805.700000047684,18374.200000047684,19044.10000014305,19722.60000014305,20298.60000014305,20823,23593.299999952316,24549.10000014305,26188.5,26787.10000014305,27374.700000047684,31131.200000047684,33099.10000014305,33782.60000014305,34293.5,34826.40000009537,35613.5,36313.40000009537,36962.5,39702.299999952316,40824.700000047684,41459.799999952316,42079,42713.5,45046.90000009537,45847.90000009537,46447.10000014305],"honeypot":0,"survey":"mace","page":2,"trial_type":"survey-mace","trial_index":10,"time_elapsed":303635,"internal_node_id":"0.0-10.0","task_version":"prescreen-v0.3","browser_interactions":0},{"responses":{"01":"No","02":"No","03":"No","04":"No"},"rt":12775.5,"item_order":[0,1,2,3],"radio_events":[7484.100000143051,8319.900000095367,9482.200000047684,11967.900000095367],"checkbox_events":[],"key_events":[],"mouse_events":[7484.100000143051,8319.900000095367,9482.200000047684,10530.700000047684,11027.299999952316,11967.900000095367,12769.700000047684],"honeypot":0,"survey":"mace","page":3,"trial_type":"survey-mace","trial_index":11,"time_elapsed":316420,"internal_node_id":"0.0-11.0","task_version":"prescreen-v0.3","browser_interactions":0},{"responses":{"01":"No","02":"No"},"rt":6622.600000143051,"item_order":[0,1],"radio_events":[4462.200000047684,5844.5],"checkbox_events":[],"key_events":[],"mouse_events":[4462.200000047684,5844.5,6619.600000143051],"honeypot":0,"survey":"mace","page":4,"trial_type":"survey-mace","trial_index":12,"time_elapsed":323050,"internal_node_id":"0.0-12.0","task_version":"prescreen-v0.3","browser_interactions":0},{"responses":{"01":"No","02":"Yes","02_ages_1":"1","02_ages_2":"2","02_ages_3":"3","03":"No","04":"No","05":"No"},"rt":24025.400000095367,"item_order":[0,1,2,3,4],"radio_events":[9179.799999952316,12447.900000095367,19483.599999904633,22218.099999904633,23326],"checkbox_events":[13614,14182.400000095367,14817.099999904633],"key_events":[],"mouse_events":[9179.799999952316,12447.900000095367,13614,14182.400000095367,14817.099999904633,19483.599999904633,22218.099999904633,23326,24018.200000047684],"honeypot":0,"survey":"mace","page":5,"trial_type":"survey-mace","trial_index":13,"time_elapsed":347087,"internal_node_id":"0.0-13.0","task_version":"prescreen-v0.3","browser_interactions":0},{"responses":{"01":"Yes","01_ages_11":"11","01_ages_12":"12","01_ages_13":"13","02":"Yes","02_ages_11":"11","02_ages_12":"12","02_ages_13":"13","03":"Yes","03_ages_10":"10","03_ages_11":"11","03_ages_12":"12","03_ages_13":"13","04":"No","05":"Yes","05_ages_10":"10","05_ages_11":"11"},"rt":43677.09999990463,"item_order":[0,1,2,3,4],"radio_events":[7725.799999952316,18013.200000047684,26754.400000095367,35928.40000009537,37276.5,39209],"checkbox_events":[11109,11749.799999952316,12377.599999904633,19428.299999952316,20040.299999952316,20703.599999904633,30297.5,30962.599999904633,31670.299999952316,32406.5,40514.200000047684,41060.59999990463],"key_events":[],"mouse_events":[7725.799999952316,11109,11749.799999952316,12377.599999904633,18013.200000047684,19428.299999952316,20040.299999952316,20703.599999904633,26754.400000095367,30297.5,30962.599999904633,31670.299999952316,32406.5,35928.40000009537,37276.5,38516.09999990463,39209,40514.200000047684,41060.59999990463,43670.200000047684],"honeypot":0,"survey":"mace","page":6,"trial_type":"survey-mace","trial_index":14,"time_elapsed":390776,"internal_node_id":"0.0-14.0","task_version":"prescreen-v0.3","browser_interactions":0},{"responses":{"01":"No","02":"Yes","02_ages_14":"14","02_ages_15":"15","02_ages_16":"16","02_ages_17":"17","03":"No","04":"No","05":"No","06":"Yes","06_ages_14":"14","06_ages_15":"15","06_ages_16":"16","06_ages_17":"17","07":"Yes","07_ages_14":"14","07_ages_15":"15","07_ages_16":"16","07_ages_17":"17"},"rt":36766.40000009537,"item_order":[0,1,2,3,4,5,6],"radio_events":[4320.400000095367,6666.799999952316,15686.900000095367,16692.200000047684,20249.60000014305,22815.400000095367,31477.200000047684],"checkbox_events":[11100.200000047684,11654.799999952316,12252.799999952316,12843.200000047684,25148.900000095367,25776.60000014305,26359,26971.299999952316,33511.5,34136.799999952316,34758.10000014305,36078.10000014305],"key_events":[],"mouse_events":[4320.400000095367,6666.799999952316,11100.200000047684,11654.799999952316,12252.799999952316,12843.200000047684,15686.900000095367,16692.200000047684,20249.60000014305,21103.5,22815.400000095367,25148.900000095367,25776.60000014305,26359,26971.299999952316,31477.200000047684,33511.5,34136.799999952316,34758.10000014305,35429.299999952316,36078.10000014305,36756.5],"honeypot":0,"survey":"mace","page":7,"trial_type":"survey-mace","trial_index":15,"time_elapsed":427555,"internal_node_id":"0.0-15.0","task_version":"prescreen-v0.3","browser_interactions":0},{"responses":{"01":"Yes","01_ages_6":"6","01_ages_7":"7","01_ages_8":"8","01_ages_9":"9","01_ages_10":"10","01_ages_11":"11","01_ages_12":"12","01_ages_13":"13","01_ages_14":"14","01_ages_15":"15","01_ages_16":"16","01_ages_17":"17","01_ages_18":"18","02":"No","03":"Yes","03_ages_6":"6","03_ages_7":"7","03_ages_8":"8","03_ages_9":"9","03_ages_10":"10","03_ages_11":"11","03_ages_12":"12","03_ages_13":"13","03_ages_14":"14","03_ages_15":"15","03_ages_16":"16","03_ages_17":"17","03_ages_18":"18","04":"No"},"rt":42537.90000009537,"item_order":[0,1,2,3],"radio_events":[5904.900000095367,22694.60000014305,25472.200000047684,41781],"checkbox_events":[8596.400000095367,9157.299999952316,10600.700000047684,11379.299999952316,11993,12678.100000143051,13559.100000143051,15069,15659.600000143051,16417.5,17613.799999952316,18303.60000014305,18969.299999952316,30086.799999952316,30720.799999952316,31341.299999952316,32011.700000047684,32602.299999952316,33170.40000009537,33731.5,34533,35161.60000014305,36480.5,37260.60000014305,37954.10000014305,38536.799999952316],"key_events":[],"mouse_events":[5904.900000095367,8596.400000095367,9157.299999952316,10031.799999952316,10600.700000047684,11379.299999952316,11993,12678.100000143051,13559.100000143051,15069,15659.600000143051,16417.5,17613.799999952316,18303.60000014305,18969.299999952316,22694.60000014305,25472.200000047684,30086.799999952316,30720.799999952316,31341.299999952316,32011.700000047684,32602.299999952316,33170.40000009537,33731.5,34533,35161.60000014305,35781.200000047684,36480.5,37260.60000014305,37954.10000014305,38536.799999952316,41781,42531.90000009537],"honeypot":0,"survey":"mace","page":8,"trial_type":"survey-mace","trial_index":16,"time_elapsed":470103,"internal_node_id":"0.0-16.0","task_version":"prescreen-v0.3","browser_interactions":0},{"responses":{"01":"No","02":"Yes","02_ages_4":"4","02_ages_5":"5","02_ages_6":"6","02_ages_7":"7","02_ages_8":"8","02_ages_9":"9","02_ages_10":"10","02_ages_11":"11","02_ages_12":"12","02_ages_13":"13","02_ages_14":"14","02_ages_15":"15","02_ages_16":"16","02_ages_17":"17","02_ages_18":"18","03":"Yes","03_ages_1":"1","03_ages_2":"2","03_ages_3":"3","03_ages_4":"4","03_ages_5":"5","03_ages_6":"6","03_ages_7":"7","03_ages_8":"8","03_ages_9":"9","03_ages_10":"10","03_ages_11":"11","03_ages_12":"12","03_ages_13":"13","03_ages_14":"14","03_ages_15":"15","03_ages_16":"16","03_ages_17":"17","03_ages_18":"18","04":"Yes","04_ages_1":"1","04_ages_2":"2","04_ages_3":"3","04_ages_4":"4","04_ages_5":"5","04_ages_6":"6","04_ages_7":"7","04_ages_8":"8","04_ages_9":"9","04_ages_10":"10","04_ages_11":"11","04_ages_12":"12","04_ages_13":"13","04_ages_14":"14","04_ages_15":"15","04_ages_16":"16","04_ages_17":"17","04_ages_18":"18"},"rt":81327.90000009537,"item_order":[0,1,2,3],"radio_events":[7456.600000143051,8417.799999952316,29399.60000014305,61475.60000014305],"checkbox_events":[13113.900000095367,15438.900000095367,16858.400000095367,17771.60000014305,18434.5,19105.60000014305,19790.900000095367,20572,21212.5,22700,23437,24173,24864.799999952316,25550.299999952316,26236.299999952316,32710.10000014305,33621,34414.5,35795.40000009537,36639.90000009537,39264,40537.299999952316,41526.700000047684,42817.5,44511.10000014305,46094.700000047684,47376.10000014305,49365.40000009537,49791.799999952316,50472.799999952316,52064.5,53809.200000047684,54878.799999952316,56465.700000047684,57638,64643.799999952316,65854.20000004768,66817.5,69587.10000014305,70497,71190.90000009537,71826,72511.40000009537,73153.10000014305,73829.60000014305,74574.79999995232,75281.79999995232,76017.29999995232,77051.20000004768,77833,78501.79999995232,79151.79999995232,79895.20000004768],"key_events":[],"mouse_events":[7456.600000143051,8417.799999952316,12005.100000143051,13113.900000095367,13799.100000143051,14286.100000143051,15438.900000095367,16313.5,16858.400000095367,17771.60000014305,18434.5,19105.60000014305,19790.900000095367,20572,21212.5,22064.700000047684,22700,23437,24173,24864.799999952316,25550.299999952316,26236.299999952316,29399.60000014305,31995.60000014305,32710.10000014305,33621,34414.5,35064.90000009537,35795.40000009537,36639.90000009537,37890.200000047684,38768.200000047684,39264,40537.299999952316,41526.700000047684,42817.5,43668.299999952316,44511.10000014305,46094.700000047684,47376.10000014305,49365.40000009537,49791.799999952316,50472.799999952316,52064.5,53809.200000047684,54878.799999952316,56465.700000047684,57638,61475.60000014305,63362.200000047684,64643.799999952316,65854.20000004768,66817.5,67976.10000014305,69587.10000014305,70497,71190.90000009537,71826,72511.40000009537,73153.10000014305,73829.60000014305,74574.79999995232,75281.79999995232,76017.29999995232,77051.20000004768,77833,78501.79999995232,79151.79999995232,79895.20000004768,81322.5],"honeypot":0,"survey":"mace","page":9,"trial_type":"survey-mace","trial_index":17,"time_elapsed":551444,"internal_node_id":"0.0-17.0","task_version":"prescreen-v0.3","browser_interactions":0},{"responses":{"01":"Yes","01_ages_6":"6","01_ages_7":"7","01_ages_8":"8","01_ages_9":"9","01_ages_10":"10","01_ages_11":"11","02":"No","03":"Yes","03_ages_9":"9","03_ages_10":"10","03_ages_11":"11","03_ages_12":"12","03_ages_13":"13","03_ages_14":"14","03_ages_15":"15","03_ages_16":"16","03_ages_17":"17","03_ages_18":"18","04":"Yes","04_ages_5":"5","04_ages_6":"6","04_ages_7":"7","04_ages_8":"8","04_ages_9":"9","04_ages_10":"10","04_ages_11":"11","04_ages_12":"12","04_ages_13":"13","04_ages_14":"14","04_ages_15":"15","04_ages_16":"16","04_ages_17":"17","04_ages_18":"18","05":"No","06":"Yes","06_ages_17":"17","07":"No","08":"No"},"rt":58303.799999952316,"item_order":[0,1,2,3,4,5,6,7],"radio_events":[3519.399999856949,13643.799999952316,14592.799999952316,32596,47045.09999990463,49077.699999809265,55252.699999809265,57664.799999952316],"checkbox_events":[6186.5,7076.099999904633,7671.799999952316,8279,9081.599999904633,9730.299999952316,18243.799999952316,18907.799999952316,19476.299999952316,23886,26080.39999985695,27123.099999904633,27770.89999985695,28617.699999809265,29302.89999985695,30148.099999904633,34842,35527.5,36205.09999990463,36883.699999809265,37552.89999985695,38188,38837,39507.799999952316,40185.699999809265,40964.59999990463,41884,42620.199999809265,43303.5,43953.89999985695,50528.199999809265],"key_events":[],"mouse_events":[3519.399999856949,6186.5,7076.099999904633,7671.799999952316,8279,9081.599999904633,9730.299999952316,13643.799999952316,14592.799999952316,18243.799999952316,18907.799999952316,19476.299999952316,20321.099999904633,20853.099999904633,23886,24673.5,25322.89999985695,26080.39999985695,27123.099999904633,27770.89999985695,28617.699999809265,29302.89999985695,30148.099999904633,32596,34842,35527.5,36205.09999990463,36883.699999809265,37552.89999985695,38188,38837,39507.799999952316,40185.699999809265,40964.59999990463,41884,42620.199999809265,43303.5,43953.89999985695,47045.09999990463,49077.699999809265,50528.199999809265,55252.699999809265,57664.799999952316,58292.799999952316],"honeypot":0,"survey":"mace","page":10,"trial_type":"survey-mace","trial_index":18,"time_elapsed":609758,"internal_node_id":"0.0-18.0","task_version":"prescreen-v0.3","browser_interactions":0,"instructed":0},{"rt":10738.599999904633,"trial_type":"mental-health-alert","trial_index":19,"time_elapsed":620502,"internal_node_id":"0.0-19.0","task_version":"prescreen-v0.3","interactions":"[]"}]