[{"view_history":[{"page_index":0,"viewing_time":7494.600000023842},{"page_index":1,"viewing_time":8277.600000023842},{"page_index":2,"viewing_time":10362.699999928474},{"page_index":3,"viewing_time":3857.899999976158}],"rt":29993.5,"trial_type":"instructions","trial_index":0,"time_elapsed":30017,"internal_node_id":"0.0-0.0","task_version":"prescreen-v0.3"},{"rt":19267.299999952316,"responses":{"age":"35","gender-categorical":"Male","gender-free-response":"","ethnicity":"Not Hispanic or Latino","race":["White"],"education":"High school"},"trial_type":"survey-demo","trial_index":1,"time_elapsed":49292,"internal_node_id":"0.0-1.0","task_version":"prescreen-v0.3"},{"responses":{"Q07":"2","Q20":"0","Q03":"3","Q17":"2","Q10":"2","Q06":"1","Q01":"3","Q11":"1","Q15":"2","Q09":"2","Q02":"1","Q04":"3","Q18":"1","Q05":"1","Q16":"2","Q13":"1","Q19":"2","Q12":"2","Q21":"3","Q14":"2","Q08":"3"},"rt":180313.79999995232,"item_order":[6,19,2,16,9,5,0,10,14,8,1,3,17,4,15,12,18,11,20,13,7],"radio_events":[16148.700000047684,20919.899999976158,26220.299999952316,31937.899999976158,37318.60000002384,42558,47633.60000002384,54367.700000047684,63176.60000002384,68627.5,75268.70000004768,109288.29999995232,117462.89999997616,122063.70000004768,140866.79999995232,145627.60000002384,147225.39999997616,154141.20000004768,160233.79999995232,166398.60000002384,173832.70000004768,177697.70000004768],"key_events":[],"mouse_events":[16148.700000047684,20919.899999976158,26220.299999952316,31937.899999976158,37318.60000002384,42558,47633.60000002384,54367.700000047684,63176.60000002384,68627.5,75268.70000004768,109288.29999995232,117462.89999997616,119285.20000004768,119397.60000002384,119652.5,122063.70000004768,140866.79999995232,145627.60000002384,147225.39999997616,154141.20000004768,160233.79999995232,166398.60000002384,173832.70000004768,177697.70000004768,179223.10000002384,180311.29999995232],"straightlining":0.42857142857142855,"zigzagging":0.55,"honeypot":0,"survey":"sns","trial_type":"survey-template","trial_index":2,"time_elapsed":229614,"internal_node_id":"0.0-2.0","task_version":"prescreen-v0.3","browser_interactions":0,"infrequency":0},{"responses":{"Q04":"2","Q13":"0","Q03":"2","Q05":"2","Q10":"2","Q01":"2","Q08":"2","Q09":"2","Q06":"2","Q11":"1","Q12":"1","Q02":"1","Q07":"1"},"rt":86355.79999995232,"item_order":[3,12,2,4,9,0,7,8,5,10,11,1,6],"radio_events":[13370.899999976158,17702.399999976158,26916.599999904633,43632.89999997616,46072.39999997616,51085.89999997616,56890.699999928474,63123.89999997616,67963.59999990463,72376,77144.19999992847,78465,80631.19999992847,85104.29999995232],"key_events":[],"mouse_events":[13370.899999976158,17702.399999976158,26916.599999904633,31949.599999904633,37267.5,43632.89999997616,46072.39999997616,49164.699999928474,51085.89999997616,56890.699999928474,63123.89999997616,67963.59999990463,72376,77144.19999992847,78465,80631.19999992847,84280.39999997616,85104.29999995232,86354.5],"straightlining":0.6153846153846154,"zigzagging":0.08333333333333333,"honeypot":0,"survey":"bisbas","trial_type":"survey-template","trial_index":3,"time_elapsed":315974,"internal_node_id":"0.0-3.0","task_version":"prescreen-v0.3","browser_interactions":0,"infrequency":0},{"responses":{"Q01":"1","Q02":"2","Q03":"2"},"rt":34324.60000002384,"radio_events":[18069.899999976158,21871.600000023842,23346.100000023842,33155],"key_events":[],"mouse_events":[18069.899999976158,21871.600000023842,23346.100000023842,33155,34323.89999997616],"survey":"map","page":1,"trial_type":"survey-map","trial_index":4,"time_elapsed":350303,"internal_node_id":"0.0-4.0","task_version":"prescreen-v0.3","browser_interactions":0},{"responses":{"Q04":"0","Q05":"0","Q06":"2"},"rt":31288.900000095367,"radio_events":[11457.800000071526,22080,29397.800000071526],"key_events":[],"mouse_events":[11457.800000071526,22080,29397.800000071526,31288.400000095367],"survey":"map","page":2,"trial_type":"survey-map","trial_index":5,"time_elapsed":381594,"internal_node_id":"0.0-5.0","task_version":"prescreen-v0.3","browser_interactions":0},{"responses":{"Q07":"2","Q08":"4","Q09":"1"},"rt":24025.100000023842,"radio_events":[7701.799999952316,17835,22225.399999976158],"key_events":[],"mouse_events":[7701.799999952316,17835,22225.399999976158,24024.399999976158],"survey":"map","page":3,"trial_type":"survey-map","trial_index":6,"time_elapsed":405621,"internal_node_id":"0.0-6.0","task_version":"prescreen-v0.3","browser_interactions":0},{"responses":{"Q10":"0","Q11":"0","Q12":"2","Q13":"2","Q16":"0","Q14":"0","Q15":"0"},"rt":52762.89999997616,"radio_events":[6399.600000023842,12437.100000023842,16643.700000047684,20465.200000047684,29622.700000047684,35882.799999952316,44489.200000047684,48533.700000047684,50882],"key_events":[],"mouse_events":[6399.600000023842,11217.200000047684,12437.100000023842,16643.700000047684,20465.200000047684,21217.200000047684,21684.899999976158,23199,29622.700000047684,35882.799999952316,44489.200000047684,48533.700000047684,50882,52761.60000002384],"survey":"map","page":4,"trial_type":"survey-map","trial_index":7,"time_elapsed":458387,"internal_node_id":"0.0-7.0","task_version":"prescreen-v0.3","browser_interactions":0,"infrequency":0},{"view_history":[{"page_index":0,"viewing_time":4608.799999952316},{"page_index":1,"viewing_time":7276.100000023842}],"rt":11885.799999952316,"trial_type":"instructions","trial_index":8,"time_elapsed":470275,"internal_node_id":"0.0-8.0","task_version":"prescreen-v0.3"},{"responses":{"01":"Yes","01_ages_11":"11","01_ages_12":"12","01_ages_13":"13","01_ages_14":"14","01_ages_15":"15","01_ages_16":"16","02":"Yes","02_ages_11":"11","02_ages_12":"12","02_ages_13":"13","02_ages_14":"14","02_ages_15":"15","02_ages_16":"16","03":"Yes","03_ages_10":"10","03_ages_11":"11","03_ages_12":"12","03_ages_13":"13","04":"No","05":"No","06":"No"},"rt":89584.30000007153,"item_order":[0,1,2,3,4,5],"radio_events":[22734,46895.39999997616,61259.300000071526,76192.89999997616,79149.10000002384,85822.30000007153],"checkbox_events":[32518.800000071526,33636,34520.300000071526,35617.10000002384,36673.89999997616,38493.200000047684,49231.89999997616,49841.200000047684,50491.700000047684,51040.300000071526,51782,52483,63677.60000002384,66054.80000007153,67254,68350.89999997616,69559.30000007153,70859.20000004768],"key_events":[],"mouse_events":[0,22734,32518.800000071526,33636,34520.300000071526,35617.10000002384,36673.89999997616,38493.200000047684,43379.89999997616,46895.39999997616,49231.89999997616,49841.200000047684,50491.700000047684,51040.300000071526,51782,52483,58943.5,61259.300000071526,63677.60000002384,65181.5,66054.80000007153,67254,68350.89999997616,69559.30000007153,70859.20000004768,76192.89999997616,79149.10000002384,85822.30000007153,89581.60000002384],"honeypot":0,"survey":"mace","page":1,"trial_type":"survey-mace","trial_index":9,"time_elapsed":559868,"internal_node_id":"0.0-9.0","task_version":"prescreen-v0.3","browser_interactions":0},{"responses":{"01":"No","02":"No","03":"Yes","03_ages_8":"8","03_ages_9":"9","03_ages_10":"10","03_ages_11":"11","03_ages_12":"12","04":"Yes","04_ages_8":"8","04_ages_9":"9","04_ages_10":"10","04_ages_11":"11","04_ages_12":"12","05":"Yes","05_ages_8":"8","05_ages_9":"9","05_ages_10":"10","05_ages_11":"11","05_ages_12":"12","06":"No","07":"No","08":"No"},"rt":58020.800000071526,"item_order":[0,1,2,3,4,5,6,7],"radio_events":[8777.700000047684,13115.300000071526,15908.400000095367,30199.5,40010.90000009537,49861.40000009537,52523.10000002384,55813.10000002384],"checkbox_events":[20500.200000047684,21252,22236.5,22936.800000071526,23831.5,32342.600000023842,33896.200000047684,34577,35236.90000009537,36527.40000009537,42062,42743.40000009537,43342.5,43992.10000002384,44703.10000002384],"key_events":[],"mouse_events":[8777.700000047684,13115.300000071526,15908.400000095367,20500.200000047684,21252,22236.5,22936.800000071526,23831.5,29528.800000071526,30199.5,32342.600000023842,32993.200000047684,33896.200000047684,34577,35236.90000009537,35978.800000071526,36527.40000009537,40010.90000009537,42062,42743.40000009537,43342.5,43992.10000002384,44703.10000002384,49861.40000009537,52523.10000002384,55813.10000002384,58016.60000002384],"honeypot":0,"survey":"mace","page":2,"trial_type":"survey-mace","trial_index":10,"time_elapsed":617894,"internal_node_id":"0.0-10.0","task_version":"prescreen-v0.3","browser_interactions":0},{"responses":{"01":"Yes","01_ages_12":"12","02":"No","03":"No","04":"No"},"rt":35293.89999997616,"item_order":[0,1,2,3],"radio_events":[9699.399999976158,29066.5,31473.299999952316,32803.60000002384],"checkbox_events":[21897.100000023842],"key_events":[],"mouse_events":[9699.399999976158,21897.100000023842,29066.5,31473.299999952316,32803.60000002384,35292],"honeypot":0,"survey":"mace","page":3,"trial_type":"survey-mace","trial_index":11,"time_elapsed":653192,"internal_node_id":"0.0-11.0","task_version":"prescreen-v0.3","browser_interactions":0},{"responses":{"01":"No","02":"No"},"rt":16772.899999976158,"item_order":[0,1],"radio_events":[10567.100000023842,15512.399999976158],"checkbox_events":[],"key_events":[],"mouse_events":[10567.100000023842,15512.399999976158,16771.799999952316],"honeypot":0,"survey":"mace","page":4,"trial_type":"survey-mace","trial_index":12,"time_elapsed":669969,"internal_node_id":"0.0-12.0","task_version":"prescreen-v0.3","browser_interactions":0},{"responses":{"01":"No","02":"No","03":"No","04":"No","05":"No"},"rt":29032.100000023842,"item_order":[0,1,2,3,4],"radio_events":[12466.5,15198.399999976158,20165,24236.5,27567.5],"checkbox_events":[],"key_events":[],"mouse_events":[12466.5,13462,13481.700000047684,15198.399999976158,20165,24236.5,27567.5,29029.800000071526],"honeypot":0,"survey":"mace","page":5,"trial_type":"survey-mace","trial_index":13,"time_elapsed":699005,"internal_node_id":"0.0-13.0","task_version":"prescreen-v0.3","browser_interactions":0},{"responses":{"01":"Yes","01_ages_9":"9","01_ages_10":"10","01_ages_11":"11","01_ages_12":"12","01_ages_13":"13","01_ages_14":"14","01_ages_15":"15","01_ages_16":"16","01_ages_17":"17","01_ages_18":"18","02":"Yes","02_ages_9":"9","02_ages_10":"10","02_ages_11":"11","02_ages_12":"12","02_ages_13":"13","02_ages_14":"14","02_ages_15":"15","02_ages_16":"16","02_ages_17":"17","02_ages_18":"18","03":"No","04":"No","05":"Yes","05_ages_14":"14","05_ages_15":"15","05_ages_16":"16","05_ages_17":"17"},"rt":80062.20000004768,"item_order":[0,1,2,3,4],"radio_events":[12099.300000071526,24407.800000071526,59845.39999997616,61419.700000047684,68079.70000004768],"checkbox_events":[15319.100000023842,16100.300000071526,17319.200000047684,32897.39999997616,33709.60000002384,34968.89999997616,35446.200000047684,36562.800000071526,37517.89999997616,38095.89999997616,38909,39995,40838.200000047684,48728,49621.200000047684,50657.800000071526,51185.200000047684,51936.5,52850.39999997616,53469.5,72374.89999997616,72974.20000004768,74263.20000004768,76913],"key_events":[],"mouse_events":[12099.300000071526,15319.100000023842,16100.300000071526,17319.200000047684,24407.800000071526,32897.39999997616,33709.60000002384,34968.89999997616,35446.200000047684,36126.60000002384,36562.800000071526,37517.89999997616,38095.89999997616,38909,39995,40838.200000047684,48728,49621.200000047684,50657.800000071526,51185.200000047684,51936.5,52850.39999997616,53469.5,59845.39999997616,61419.700000047684,67023.80000007153,68079.70000004768,72374.89999997616,72974.20000004768,74263.20000004768,76913,80060],"honeypot":0,"survey":"mace","page":6,"trial_type":"survey-mace","trial_index":14,"time_elapsed":779071,"internal_node_id":"0.0-14.0","task_version":"prescreen-v0.3","browser_interactions":0},{"responses":{"01":"No","02":"No","03":"Yes","03_ages_11":"11","03_ages_12":"12","03_ages_13":"13","03_ages_14":"14","03_ages_15":"15","03_ages_16":"16","03_ages_17":"17","03_ages_18":"18","04":"Yes","04_ages_15":"15","04_ages_16":"16","04_ages_17":"17","05":"No","06":"No","07":"No"},"rt":41193.300000071526,"item_order":[0,1,2,3,4,5,6],"radio_events":[5078.800000071526,8490.600000023842,12642.400000095367,24541.200000047684,34215.40000009537,36977.10000002384,39464.5],"checkbox_events":[15597.300000071526,16216.800000071526,17688.600000023842,18288.300000071526,18866,19587.600000023842,20236.700000047684,21496.200000047684,27526.300000071526,28054,28602.300000071526],"key_events":[],"mouse_events":[5078.800000071526,7911.5,8490.600000023842,10621.900000095367,12642.400000095367,15597.300000071526,16216.800000071526,16713.300000071526,17688.600000023842,18288.300000071526,18866,19587.600000023842,20236.700000047684,21130.700000047684,21496.200000047684,24541.200000047684,27526.300000071526,28054,28602.300000071526,34215.40000009537,36977.10000002384,39464.5,41190.200000047684],"honeypot":0,"survey":"mace","page":7,"trial_type":"survey-mace","trial_index":15,"time_elapsed":820270,"internal_node_id":"0.0-15.0","task_version":"prescreen-v0.3","browser_interactions":0},{"responses":{"01":"No","02":"No","03":"No","04":"No"},"rt":29464.5,"item_order":[0,1,2,3],"radio_events":[14610.599999904633,19920.099999904633,24508.399999976158,28467],"checkbox_events":[],"key_events":[],"mouse_events":[14610.599999904633,19920.099999904633,24508.399999976158,28467,29461.899999976158],"honeypot":0,"survey":"mace","page":8,"trial_type":"survey-mace","trial_index":16,"time_elapsed":849739,"internal_node_id":"0.0-16.0","task_version":"prescreen-v0.3","browser_interactions":0},{"responses":{"01":"Yes","01_ages_1":"1","01_ages_2":"2","01_ages_3":"3","01_ages_4":"4","01_ages_5":"5","01_ages_6":"6","01_ages_7":"7","01_ages_8":"8","01_ages_9":"9","01_ages_10":"10","01_ages_11":"11","01_ages_12":"12","01_ages_13":"13","01_ages_14":"14","01_ages_15":"15","01_ages_16":"16","01_ages_17":"17","01_ages_18":"18","02":"Yes","02_ages_1":"1","02_ages_2":"2","02_ages_3":"3","02_ages_4":"4","02_ages_5":"5","02_ages_6":"6","02_ages_7":"7","02_ages_8":"8","02_ages_9":"9","02_ages_10":"10","02_ages_11":"11","02_ages_12":"12","02_ages_13":"13","02_ages_14":"14","02_ages_15":"15","02_ages_16":"16","02_ages_17":"17","02_ages_18":"18","03":"Yes","03_ages_1":"1","03_ages_2":"2","03_ages_3":"3","03_ages_4":"4","03_ages_5":"5","03_ages_6":"6","03_ages_7":"7","03_ages_8":"8","03_ages_9":"9","03_ages_10":"10","03_ages_11":"11","03_ages_12":"12","03_ages_13":"13","03_ages_14":"14","03_ages_15":"15","03_ages_16":"16","03_ages_17":"17","03_ages_18":"18","04":"Yes","04_ages_1":"1","04_ages_2":"2","04_ages_3":"3","04_ages_4":"4","04_ages_5":"5","04_ages_6":"6","04_ages_7":"7","04_ages_8":"8","04_ages_9":"9","04_ages_10":"10","04_ages_11":"11","04_ages_12":"12","04_ages_13":"13","04_ages_14":"14","04_ages_15":"15","04_ages_16":"16","04_ages_17":"17","04_ages_18":"18"},"rt":114806.39999997616,"item_order":[0,1,2,3],"radio_events":[8987.199999928474,29595.199999928474,65675.09999990463,91572.69999992847],"checkbox_events":[11769,12409,13311.899999976158,14967.199999928474,15677.399999976158,16398,17302.199999928474,17911.199999928474,18652.199999928474,19302.5,20307.199999928474,20824.899999976158,21737.799999952316,22388.299999952316,22966.599999904633,23778.699999928474,24459,25271.299999952316,31239.599999904633,32071.899999976158,32975.699999928474,33635.799999952316,35239,35909.59999990463,36833,37503.39999997616,38224.39999997616,39259.09999990463,40192.89999997616,41076.5,42101.699999928474,57395,57654.199999928474,58104.699999928474,59431.39999997616,60106.199999928474,60882.799999952316,61568.799999952316,66721.39999997616,67329.19999992847,68048.79999995232,68915.29999995232,69500.19999992847,70118.79999995232,70805,72638.79999995232,73370.5,76014.29999995232,77218.59999990463,78488.79999995232,79535.59999990463,81042.59999990463,82707.39999997616,84158.79999995232,85036.5,85656.39999997616,94171.59999990463,94824.09999990463,96556.39999997616,98131.69999992847,99110.59999990463,100179.09999990463,101157.69999992847,102001.59999990463,102946.39999997616,103801.5,104443.39999997616,106861.5,108166.59999990463,109167.79999995232,110056.5,110866.5,112060.79999995232,112993],"key_events":[],"mouse_events":[8987.199999928474,11769,12409,13311.899999976158,14012.199999928474,14967.199999928474,15677.399999976158,16398,17302.199999928474,17911.199999928474,18652.199999928474,19302.5,19799.599999904633,20307.199999928474,20824.899999976158,21737.799999952316,22388.299999952316,22966.599999904633,23778.699999928474,24459,25271.299999952316,29595.199999928474,31239.599999904633,32071.899999976158,32975.699999928474,33635.799999952316,34244.89999997616,35239,35909.59999990463,36833,37503.39999997616,38224.39999997616,39259.09999990463,40192.89999997616,41076.5,41655.199999928474,42101.699999928474,56461.299999952316,56978.699999928474,57395,57654.199999928474,58104.699999928474,59431.39999997616,60106.199999928474,60882.799999952316,61568.799999952316,65675.09999990463,66721.39999997616,67329.19999992847,68048.79999995232,68566.29999995232,68915.29999995232,69500.19999992847,70118.79999995232,70805,71526.19999992847,72076.39999997616,72638.79999995232,73370.5,75507.69999992847,76014.29999995232,77218.59999990463,78028.69999992847,78488.79999995232,79535.59999990463,80457.69999992847,81042.59999990463,82707.39999997616,84158.79999995232,85036.5,85656.39999997616,91572.69999992847,94171.59999990463,94824.09999990463,95634.5,96556.39999997616,97378.69999992847,98131.69999992847,99110.59999990463,100179.09999990463,101157.69999992847,102001.59999990463,102946.39999997616,103801.5,104443.39999997616,106861.5,107683,108166.59999990463,109167.79999995232,110056.5,110866.5,112060.79999995232,112993,114804.5],"honeypot":0,"survey":"mace","page":9,"trial_type":"survey-mace","trial_index":17,"time_elapsed":964549,"internal_node_id":"0.0-17.0","task_version":"prescreen-v0.3","browser_interactions":0},{"responses":{"01":"No","02":"No","03":"No","04":"No","05":"No","06":"Yes","06_ages_17":"17","07":"Yes","07_ages_1":"1","07_ages_2":"2","07_ages_3":"3","07_ages_4":"4","07_ages_5":"5","07_ages_6":"6","07_ages_7":"7","07_ages_8":"8","07_ages_9":"9","07_ages_10":"10","07_ages_11":"11","07_ages_12":"12","07_ages_13":"13","07_ages_14":"14","07_ages_15":"15","07_ages_16":"16","07_ages_17":"17","07_ages_18":"18","08":"Yes","08_ages_1":"1","08_ages_2":"2","08_ages_3":"3","08_ages_4":"4","08_ages_5":"5","08_ages_6":"6","08_ages_7":"7","08_ages_8":"8","08_ages_9":"9","08_ages_10":"10","08_ages_11":"11","08_ages_12":"12","08_ages_13":"13","08_ages_14":"14","08_ages_15":"15","08_ages_16":"16","08_ages_17":"17","08_ages_18":"18"},"rt":70950.79999995232,"item_order":[0,1,2,3,4,5,6,7],"radio_events":[5505.600000023842,6225.5,9545.299999952316,14708,19061.899999976158,24214.5,30390.399999976158,50539.39999997616],"checkbox_events":[26374.5,33867.60000002384,34541.799999952316,35138.200000047684,36769.700000047684,37680.700000047684,39199.39999997616,39885.5,40583.200000047684,41146.5,41708.299999952316,42574.60000002384,43249.5,45207.299999952316,45703.299999952316,46264.5,46793.200000047684,47637,48818.5,52980.89999997616,53599.60000002384,54432.60000002384,55377.700000047684,56456.89999997616,57255.700000047684,58808.200000047684,59528.5,60540.799999952316,61351.299999952316,62982,63994.5,65119.700000047684,65749.5,66514.39999997616,67392.20000004768,69372,69912.39999997616],"key_events":[],"mouse_events":[5505.600000023842,6225.5,8959.799999952316,9545.299999952316,14708,19061.899999976158,24214.5,26374.5,30390.399999976158,33293.60000002384,33867.60000002384,34541.799999952316,35138.200000047684,35745.5,36769.700000047684,37680.700000047684,39199.39999997616,39885.5,40583.200000047684,41146.5,41708.299999952316,42574.60000002384,43249.5,44014.299999952316,45207.299999952316,45703.299999952316,46264.5,46793.200000047684,47637,48312,48818.5,50539.39999997616,52980.89999997616,53599.60000002384,54432.60000002384,55130,55377.700000047684,56456.89999997616,57255.700000047684,58415.799999952316,58808.200000047684,59528.5,60540.799999952316,61351.299999952316,62982,63994.5,64648.200000047684,65119.700000047684,65749.5,66514.39999997616,67392.20000004768,69372,69912.39999997616,70947.39999997616],"honeypot":0,"survey":"mace","page":10,"trial_type":"survey-mace","trial_index":18,"time_elapsed":1035505,"internal_node_id":"0.0-18.0","task_version":"prescreen-v0.3","browser_interactions":0,"instructed":0},{"rt":15911.700000047684,"trial_type":"mental-health-alert","trial_index":19,"time_elapsed":1051419,"internal_node_id":"0.0-19.0","task_version":"prescreen-v0.3","interactions":"[]"}]