[{"view_history":[{"page_index":0,"viewing_time":1951},{"page_index":1,"viewing_time":944.5999999642372},{"page_index":2,"viewing_time":4430.5},{"page_index":1,"viewing_time":350.4000000357628},{"page_index":0,"viewing_time":3543.5},{"page_index":1,"viewing_time":4935.199999988079},{"page_index":2,"viewing_time":4626.899999976158},{"page_index":3,"viewing_time":1097.4000000357628}],"rt":21881.599999964237,"trial_type":"instructions","trial_index":0,"time_elapsed":21956,"internal_node_id":"0.0-0.0","task_version":"prescreen-v0.3"},{"rt":19642.69999998808,"responses":{"age":"22","gender-categorical":"Female","gender-free-response":"","ethnicity":"Not Hispanic or Latino","race":["Black or African American"],"education":"Some college"},"trial_type":"survey-demo","trial_index":1,"time_elapsed":41618,"internal_node_id":"0.0-1.0","task_version":"prescreen-v0.3"},{"responses":{"Q07":"0","Q20":"0","Q16":"2","Q03":"1","Q19":"0","Q13":"3","Q11":"1","Q08":"2","Q09":"2","Q12":"0","Q21":"2","Q17":"1","Q14":"3","Q10":"1","Q06":"0","Q18":"0","Q01":"3","Q05":"0","Q15":"3","Q02":"1","Q04":"2"},"rt":138559.60000002384,"item_order":[6,19,15,2,18,12,10,7,8,11,20,16,13,9,5,17,0,4,14,1,3],"radio_events":[29047.19999998808,32726.100000023842,38938,42601.30000001192,44247.80000001192,49091.89999997616,53665.89999997616,57375.10000002384,61096.30000001192,72635.30000001192,75426.89999997616,76646.19999998808,80951,88658.19999998808,90484.10000002384,93157.5,97126.39999997616,103277.19999998808,109468.39999997616,116670.5,118790,120231.69999998808,125476.10000002384,130199.89999997616,134330.30000001192,137237],"key_events":[],"mouse_events":[15402.300000011921,16987.30000001192,29047.19999998808,32726.100000023842,38938,42601.30000001192,44247.80000001192,49091.89999997616,53665.89999997616,57375.10000002384,61096.30000001192,72635.30000001192,75426.89999997616,76646.19999998808,80951,88658.19999998808,90484.10000002384,93157.5,97126.39999997616,103277.19999998808,109468.39999997616,116670.5,118790,120231.69999998808,125476.10000002384,129659.60000002384,130199.89999997616,134330.30000001192,137237,138554.30000001192],"straightlining":0.3333333333333333,"zigzagging":0.5,"honeypot":0,"survey":"sns","trial_type":"survey-template","trial_index":2,"time_elapsed":180196,"internal_node_id":"0.0-2.0","task_version":"prescreen-v0.3","browser_interactions":0,"infrequency":0.5},{"responses":{"Q05":"3","Q11":"1","Q04":"3","Q12":"1","Q09":"1","Q10":"1","Q08":"2","Q03":"3","Q13":"0","Q01":"2","Q02":"3","Q06":"2","Q07":"2"},"rt":66554.69999998808,"item_order":[4,10,3,11,8,9,7,2,12,0,1,5,6],"radio_events":[10542.399999976158,22823,26635.69999998808,32297.899999976158,34801.69999998808,37127.30000001192,41485.69999998808,44632.80000001192,50186.5,53589.30000001192,56876.19999998808,59131.19999998808,62278.5,65778.60000002384],"key_events":[],"mouse_events":[10542.399999976158,22823,26635.69999998808,32297.899999976158,34801.69999998808,37127.30000001192,40671.39999997616,41485.69999998808,44632.80000001192,50186.5,52707.19999998808,53589.30000001192,56876.19999998808,59131.19999998808,62278.5,65778.60000002384,66551.5],"straightlining":0.3076923076923077,"zigzagging":0.4166666666666667,"honeypot":0,"survey":"bisbas","trial_type":"survey-template","trial_index":3,"time_elapsed":246769,"internal_node_id":"0.0-3.0","task_version":"prescreen-v0.3","browser_interactions":0,"infrequency":0},{"responses":{"Q01":"2","Q02":"2","Q03":"3"},"rt":16511.400000035763,"radio_events":[5782.5,9952.100000023842,15941.700000047684],"key_events":[],"mouse_events":[5782.5,9952.100000023842,15941.700000047684,16509.30000001192],"survey":"map","page":1,"trial_type":"survey-map","trial_index":4,"time_elapsed":263297,"internal_node_id":"0.0-4.0","task_version":"prescreen-v0.3","browser_interactions":0},{"responses":{"Q04":"3","Q05":"3","Q06":"4"},"rt":11676.399999976158,"radio_events":[4890.099999964237,8696.099999964237,10742.399999976158],"key_events":[],"mouse_events":[4890.099999964237,8696.099999964237,10742.399999976158,11675.099999964237],"survey":"map","page":2,"trial_type":"survey-map","trial_index":5,"time_elapsed":274986,"internal_node_id":"0.0-5.0","task_version":"prescreen-v0.3","browser_interactions":0},{"responses":{"Q07":"3","Q08":"3","Q09":"4"},"rt":16378.899999976158,"radio_events":[6206.599999964237,10636.5,11474.800000011921,15747.099999964237],"key_events":[],"mouse_events":[6206.599999964237,8490.899999976158,10636.5,11474.800000011921,15171.399999976158,15747.099999964237,16377.5],"survey":"map","page":3,"trial_type":"survey-map","trial_index":6,"time_elapsed":291378,"internal_node_id":"0.0-6.0","task_version":"prescreen-v0.3","browser_interactions":0},{"responses":{"Q10":"2","Q11":"2","Q12":"1","Q13":"1","Q16":"0","Q14":"3","Q15":"3"},"rt":55596.10000002384,"radio_events":[10116.300000011921,13205.600000023842,15972.600000023842,22013.399999976158,39626.19999998808,43232.30000001192,51132.5,54922.10000002384],"key_events":[],"mouse_events":[10116.300000011921,13205.600000023842,15972.600000023842,21457.600000023842,22013.399999976158,37782.5,38638.5,39626.19999998808,43232.30000001192,51132.5,54345.89999997616,54922.10000002384,55594.39999997616],"survey":"map","page":4,"trial_type":"survey-map","trial_index":7,"time_elapsed":346988,"internal_node_id":"0.0-7.0","task_version":"prescreen-v0.3","browser_interactions":0,"infrequency":0},{"view_history":[{"page_index":0,"viewing_time":1595.6000000238419},{"page_index":1,"viewing_time":2352.699999988079}],"rt":3949,"trial_type":"instructions","trial_index":8,"time_elapsed":350943,"internal_node_id":"0.0-8.0","task_version":"prescreen-v0.3"},{"responses":{"01":"Yes","01_ages_8":"8","01_ages_9":"9","01_ages_10":"10","01_ages_11":"11","01_ages_12":"12","01_ages_13":"13","01_ages_14":"14","01_ages_15":"15","01_ages_16":"16","01_ages_17":"17","02":"Yes","02_ages_15":"15","02_ages_16":"16","02_ages_17":"17","03":"Yes","03_ages_5":"5","03_ages_6":"6","03_ages_7":"7","03_ages_8":"8","03_ages_9":"9","03_ages_10":"10","03_ages_11":"11","03_ages_12":"12","03_ages_13":"13","04":"Yes","04_ages_7":"7","04_ages_8":"8","04_ages_9":"9","04_ages_10":"10","04_ages_11":"11","04_ages_12":"12","04_ages_13":"13","04_ages_14":"14","05":"Yes","05_ages_8":"8","06":"Yes","06_ages_5":"5","06_ages_6":"6","06_ages_7":"7","06_ages_8":"8","06_ages_9":"9","06_ages_10":"10","06_ages_11":"11","06_ages_12":"12","06_ages_13":"13","06_ages_14":"14"},"rt":146452.69999998808,"item_order":[0,1,2,3,4,5],"radio_events":[9857.299999952316,77665.89999997616,92360.09999996424,106258.5,121070,132151.79999995232],"checkbox_events":[31618,39107.89999997616,40407.39999997616,43815.09999996424,49111.69999998808,50904,51313.299999952316,52011.299999952316,54767.19999998808,55217.69999998808,56901.19999998808,58133.19999998808,60941.39999997616,61178.69999998808,62196.299999952316,63246.09999996424,64711.59999996424,66041.79999995232,67371.59999996424,68304.59999996424,85854.29999995232,86881.69999998808,87758.59999996424,94368.59999996424,96692,97317.39999997616,98765.39999997616,99436.69999998808,100107.69999998808,100779.79999995232,101369.59999996424,101999.09999996424,110145.59999996424,110927.59999996424,111854.39999997616,113190.89999997616,113806.39999997616,114478.29999995232,115528.5,116809.69999998808,123790.39999997616,128215.19999998808,129291.89999997616,134674.79999995232,135731.29999995232,136737.5,137430.89999997616,138390.39999997616,139558.39999997616,140175.19999998808,140764.69999998808,141369.19999998808,142553.79999995232],"key_events":[],"mouse_events":[0.2999999523162842,9857.299999952316,31618,39107.89999997616,40407.39999997616,43815.09999996424,49111.69999998808,50904,51313.299999952316,52011.299999952316,54767.19999998808,55217.69999998808,56901.19999998808,58133.19999998808,59748,60941.39999997616,61178.69999998808,62196.299999952316,63246.09999996424,64711.59999996424,66041.79999995232,67371.59999996424,68304.59999996424,76623.29999995232,77665.89999997616,85854.29999995232,86881.69999998808,87758.59999996424,92360.09999996424,94368.59999996424,96692,97317.39999997616,98765.39999997616,99436.69999998808,100107.69999998808,100779.79999995232,101369.59999996424,101999.09999996424,106258.5,110145.59999996424,110927.59999996424,111854.39999997616,113190.89999997616,113806.39999997616,114478.29999995232,115528.5,116809.69999998808,121070,123790.39999997616,128215.19999998808,129291.89999997616,132151.79999995232,134674.79999995232,135731.29999995232,136737.5,137430.89999997616,138390.39999997616,139558.39999997616,140175.19999998808,140764.69999998808,141369.19999998808,141951.29999995232,142553.79999995232,146448.19999998808],"honeypot":0,"survey":"mace","page":1,"trial_type":"survey-mace","trial_index":9,"time_elapsed":497408,"internal_node_id":"0.0-9.0","task_version":"prescreen-v0.3","browser_interactions":0},{"responses":{"01":"Yes","01_ages_8":"8","01_ages_9":"9","01_ages_10":"10","01_ages_11":"11","02":"No","03":"Yes","03_ages_5":"5","03_ages_6":"6","03_ages_7":"7","03_ages_8":"8","03_ages_9":"9","03_ages_10":"10","03_ages_11":"11","03_ages_12":"12","03_ages_13":"13","04":"Yes","04_ages_5":"5","04_ages_6":"6","04_ages_7":"7","04_ages_8":"8","04_ages_9":"9","04_ages_10":"10","04_ages_11":"11","05":"Yes","05_ages_5":"5","05_ages_6":"6","05_ages_7":"7","05_ages_8":"8","05_ages_9":"9","05_ages_10":"10","05_ages_11":"11","05_ages_12":"12","05_ages_13":"13","06":"No","07":"No","08":"No"},"rt":65718.80000001192,"item_order":[0,1,2,3,4,5,6,7],"radio_events":[3557.5,16037.5,18711.80000001192,30355.69999998808,40032.69999998808,59645,63218.09999996424,64700.39999997616],"checkbox_events":[8033,9001.899999976158,9864.899999976158,10611.5,19972.80000001192,21406.899999976158,22213.80000001192,22881.099999964237,23558.599999964237,24161.899999976158,24835.899999976158,25754.80000001192,26480.099999964237,32111.899999976158,32701.80000001192,33235.19999998808,33893.89999997616,35479.30000001192,36212.30000001192,37419.89999997616,43769.39999997616,45059.19999998808,46106.39999997616,46685.30000001192,48322.39999997616,49785.09999996424,50372,51464.5,52415.59999996424,53129.09999996424,56903.30000001192],"key_events":[],"mouse_events":[3557.5,8033,9001.899999976158,9864.899999976158,10611.5,16037.5,18711.80000001192,19972.80000001192,21406.899999976158,22213.80000001192,22881.099999964237,23558.599999964237,24161.899999976158,24835.899999976158,25754.80000001192,26480.099999964237,30355.69999998808,32111.899999976158,32701.80000001192,33235.19999998808,33893.89999997616,35479.30000001192,36212.30000001192,37419.89999997616,40032.69999998808,42919.39999997616,43769.39999997616,45059.19999998808,46106.39999997616,46685.30000001192,48322.39999997616,49228.80000001192,49785.09999996424,50372,51081.19999998808,51464.5,52415.59999996424,53129.09999996424,56903.30000001192,59645,62617,63218.09999996424,64700.39999997616,65708.80000001192],"honeypot":0,"survey":"mace","page":2,"trial_type":"survey-mace","trial_index":10,"time_elapsed":563142,"internal_node_id":"0.0-10.0","task_version":"prescreen-v0.3","browser_interactions":0},{"responses":{"01":"Yes","01_ages_5":"5","01_ages_6":"6","01_ages_7":"7","01_ages_8":"8","01_ages_9":"9","01_ages_10":"10","01_ages_11":"11","01_ages_12":"12","01_ages_13":"13","01_ages_14":"14","02":"No","03":"No","04":"No"},"rt":27993.30000001192,"item_order":[0,1,2,3],"radio_events":[4921.800000011921,23412.399999976158,26759.69999998808,27377.80000001192],"checkbox_events":[9887.800000011921,10737.199999988079,11608.800000011921,12192.599999964237,12899.800000011921,14215.399999976158,14839.5,15478.300000011921,16191,17110.399999976158],"key_events":[],"mouse_events":[4921.800000011921,9887.800000011921,10737.199999988079,11608.800000011921,12192.599999964237,12899.800000011921,14215.399999976158,14839.5,15478.300000011921,16191,17110.399999976158,23412.399999976158,26759.69999998808,27377.80000001192,27988.399999976158],"honeypot":0,"survey":"mace","page":3,"trial_type":"survey-mace","trial_index":11,"time_elapsed":591152,"internal_node_id":"0.0-11.0","task_version":"prescreen-v0.3","browser_interactions":0},{"responses":{"01":"No","02":"No"},"rt":4624.800000011921,"item_order":[0,1],"radio_events":[2928,4024.900000035763],"checkbox_events":[],"key_events":[],"mouse_events":[2928,4024.900000035763,4621.800000011921],"honeypot":0,"survey":"mace","page":4,"trial_type":"survey-mace","trial_index":12,"time_elapsed":595791,"internal_node_id":"0.0-12.0","task_version":"prescreen-v0.3","browser_interactions":0},{"responses":{"01":"No","02":"No","03":"No","04":"Yes","04_ages_12":"12","05":"No"},"rt":28058.30000001192,"item_order":[0,1,2,3,4],"radio_events":[4335,7524.899999976158,11892.699999988079,15717.699999988079,25273.399999976158],"checkbox_events":[20347.100000023842],"key_events":[],"mouse_events":[4335,7524.899999976158,11892.699999988079,15717.699999988079,20347.100000023842,25273.399999976158,28051.5],"honeypot":0,"survey":"mace","page":5,"trial_type":"survey-mace","trial_index":13,"time_elapsed":623867,"internal_node_id":"0.0-13.0","task_version":"prescreen-v0.3","browser_interactions":0},{"responses":{"01":"No","01_ages_7":"7","01_ages_8":"8","01_ages_9":"9","01_ages_10":"10","01_ages_11":"11","01_ages_12":"12","01_ages_13":"13","01_ages_14":"14","01_ages_15":"15","01_ages_16":"16","01_ages_17":"17","02":"No","02_ages_14":"14","02_ages_15":"15","02_ages_16":"16","02_ages_17":"17","02_ages_18":"18","03":"No","03_ages_18":"18","04":"Yes","04_ages_11":"11","04_ages_12":"12","04_ages_13":"13","04_ages_14":"14","04_ages_15":"15","05":"No","05_ages_5":"5","05_ages_6":"6","05_ages_7":"7","05_ages_8":"8","05_ages_9":"9","05_ages_10":"10","05_ages_11":"11","05_ages_12":"12","05_ages_13":"13","05_ages_14":"14"},"rt":110341.5,"item_order":[0,1,2,3,4],"radio_events":[8148.699999988079,27734.5,39304.89999997616,48252.89999997616,50763.89999997616,75445.39999997616,89087.19999998808,93762.10000002384,97103.60000002384,108344.19999998808],"checkbox_events":[14252.600000023842,15005.800000011921,15752.699999988079,17311,18160.899999976158,19163.30000001192,20301.19999998808,20918,21466.399999976158,22049.30000001192,22920.600000023842,23455.19999998808,26053,31093.600000023842,31944.19999998808,32604.30000001192,33181.19999998808,34010.19999998808,41191.30000001192,42596.80000001192,43111.60000002384,52059.60000002384,53425.10000002384,53920.30000001192,55085.80000001192,55846.60000002384,56662.19999998808,57238.30000001192,58273.39999997616,59136.5,60069.5,60981.69999998808,62161.39999997616,100641.19999998808,101292.19999998808,102055.69999998808,103030.69999998808,105704.39999997616],"key_events":[],"mouse_events":[8148.699999988079,14252.600000023842,15005.800000011921,15752.699999988079,16433.5,17311,18160.899999976158,19163.30000001192,20301.19999998808,20918,21466.399999976158,22049.30000001192,22920.600000023842,23455.19999998808,26053,27734.5,31093.600000023842,31944.19999998808,32604.30000001192,33181.19999998808,34010.19999998808,39304.89999997616,41191.30000001192,42596.80000001192,43111.60000002384,48252.89999997616,50763.89999997616,52059.60000002384,52609.5,53425.10000002384,53920.30000001192,55085.80000001192,55846.60000002384,56662.19999998808,57238.30000001192,58273.39999997616,59136.5,60069.5,60582.80000001192,60981.69999998808,62161.39999997616,74959.10000002384,75445.39999997616,89087.19999998808,93762.10000002384,97103.60000002384,100641.19999998808,101292.19999998808,102055.69999998808,103030.69999998808,105704.39999997616,108344.19999998808,110334.80000001192],"honeypot":0,"survey":"mace","page":6,"trial_type":"survey-mace","trial_index":14,"time_elapsed":734227,"internal_node_id":"0.0-14.0","task_version":"prescreen-v0.3","browser_interactions":0},{"responses":{"01":"No","02":"Yes","02_ages_18":"18","03":"Yes","03_ages_13":"13","04":"Yes","04_ages_13":"13","05":"No","06":"No","07":"No"},"rt":47514.19999998808,"item_order":[0,1,2,3,4,5,6],"radio_events":[5990.5,8594.399999976158,16215.899999976158,36536.60000002384,40728.5,42181.39999997616,43334.10000002384,44850.60000002384,46832.10000002384],"checkbox_events":[10386.699999988079,22047,24927.69999998808,25885.899999976158,26772.19999998808,30803,31600.69999998808,32504.19999998808,37429.89999997616],"key_events":[],"mouse_events":[5990.5,8156.699999988079,8594.399999976158,9646,10386.699999988079,16215.899999976158,22047,24927.69999998808,25885.899999976158,26772.19999998808,30803,31600.69999998808,32504.19999998808,36366.89999997616,36536.60000002384,37429.89999997616,40728.5,42181.39999997616,43334.10000002384,44850.60000002384,46832.10000002384,47505.39999997616],"honeypot":0,"survey":"mace","page":7,"trial_type":"survey-mace","trial_index":15,"time_elapsed":781761,"internal_node_id":"0.0-15.0","task_version":"prescreen-v0.3","browser_interactions":0},{"responses":{"01":"Yes","01_ages_5":"5","01_ages_6":"6","01_ages_7":"7","01_ages_8":"8","01_ages_9":"9","01_ages_10":"10","01_ages_11":"11","01_ages_12":"12","01_ages_13":"13","01_ages_14":"14","01_ages_15":"15","01_ages_16":"16","01_ages_17":"17","01_ages_18":"18","02":"Yes","02_ages_9":"9","02_ages_10":"10","02_ages_11":"11","02_ages_12":"12","02_ages_13":"13","03":"No","04":"Yes","04_ages_5":"5","04_ages_6":"6","04_ages_7":"7","04_ages_8":"8","04_ages_9":"9","04_ages_10":"10","04_ages_11":"11","04_ages_12":"12","04_ages_13":"13","04_ages_14":"14","04_ages_15":"15","04_ages_16":"16","04_ages_17":"17","04_ages_18":"18"},"rt":60068.5,"item_order":[0,1,2,3],"radio_events":[8948.599999964237,24518.30000001192,44801.59999996424,47296.69999998808],"checkbox_events":[12096.099999964237,12654.099999964237,13729.5,14167.599999964237,14972.599999964237,15499.599999964237,15966.099999964237,16561.599999964237,17070.19999998808,17749.599999964237,18455.899999976158,20574.5,22246.80000001192,22934.099999964237,34139,34690,35231.80000001192,35863,38422.59999996424,49677.19999998808,50404.19999998808,50966.89999997616,51468.09999996424,52434.30000001192,53257.69999998808,53826.80000001192,54394.80000001192,54952.39999997616,55919.19999998808,56949.09999996424,57757.5,58801.39999997616,59459.59999996424],"key_events":[],"mouse_events":[8948.599999964237,12096.099999964237,12654.099999964237,13729.5,14167.599999964237,14972.599999964237,15499.599999964237,15966.099999964237,16561.599999964237,17070.19999998808,17749.599999964237,18455.899999976158,20574.5,22246.80000001192,22934.099999964237,24518.30000001192,34139,34690,35231.80000001192,35863,38422.59999996424,44801.59999996424,47296.69999998808,49677.19999998808,50404.19999998808,50966.89999997616,51468.09999996424,51988.19999998808,52434.30000001192,53257.69999998808,53826.80000001192,54394.80000001192,54952.39999997616,55541.69999998808,55919.19999998808,56565.30000001192,56949.09999996424,57757.5,58801.39999997616,59459.59999996424,60063.39999997616],"honeypot":0,"survey":"mace","page":8,"trial_type":"survey-mace","trial_index":16,"time_elapsed":841848,"internal_node_id":"0.0-16.0","task_version":"prescreen-v0.3","browser_interactions":0},{"responses":{"01":"Yes","01_ages_1":"1","01_ages_2":"2","01_ages_3":"3","01_ages_4":"4","01_ages_5":"5","01_ages_6":"6","01_ages_7":"7","01_ages_8":"8","01_ages_9":"9","01_ages_10":"10","01_ages_11":"11","01_ages_12":"12","01_ages_13":"13","01_ages_14":"14","01_ages_15":"15","01_ages_16":"16","01_ages_17":"17","01_ages_18":"18","02":"Yes","02_ages_3":"3","02_ages_4":"4","02_ages_5":"5","02_ages_6":"6","02_ages_7":"7","02_ages_8":"8","02_ages_9":"9","02_ages_10":"10","02_ages_11":"11","03":"Yes","03_ages_1":"1","03_ages_2":"2","03_ages_3":"3","03_ages_4":"4","03_ages_5":"5","03_ages_6":"6","03_ages_7":"7","03_ages_8":"8","03_ages_9":"9","03_ages_10":"10","03_ages_11":"11","03_ages_12":"12","03_ages_13":"13","03_ages_14":"14","03_ages_15":"15","03_ages_16":"16","03_ages_17":"17","03_ages_18":"18","04":"Yes","04_ages_1":"1","04_ages_2":"2","04_ages_3":"3","04_ages_4":"4","04_ages_5":"5","04_ages_6":"6","04_ages_7":"7","04_ages_8":"8","04_ages_9":"9","04_ages_10":"10","04_ages_11":"11","04_ages_12":"12","04_ages_13":"13","04_ages_14":"14","04_ages_15":"15","04_ages_16":"16","04_ages_17":"17","04_ages_18":"18"},"rt":95679.30000001192,"item_order":[0,1,2,3],"radio_events":[2975.400000035763,24776.100000023842,44511.90000003576,48406.10000002384,50717.200000047684,54374.60000002384],"checkbox_events":[4608.100000023842,6143,6754.600000023842,7749.900000035763,8332.700000047684,9182.5,9771.800000011921,10493.600000023842,11186.900000035763,11740.400000035763,12318.700000047684,12914.900000035763,13546.600000023842,14588.200000047684,15177.300000011921,16268.800000011921,17044.5,17672,27436.200000047684,28480.700000047684,29482.200000047684,30367.700000047684,31879.30000001192,34331.5,35313.40000003576,38789.5,39799.700000047684,57570.60000002384,58681.60000002384,60539.10000002384,62722.700000047684,63769.60000002384,64584.40000003576,65161.90000003576,65730.20000004768,66528,67186,67823.40000003576,68646.5,69681.20000004768,70465.30000001192,71945.30000001192,72680.5,73317.40000003576,74371.10000002384,80200.10000002384,81592.80000001192,82253.10000002384,83090.10000002384,83990.60000002384,85135.40000003576,85765.40000003576,86321.30000001192,87439.40000003576,88191.90000003576,88914.60000002384,89825,90812.80000001192,91471.90000003576,92136.40000003576,93384.20000004768,94007.5,94982.5],"key_events":[],"mouse_events":[2975.400000035763,4608.100000023842,6143,6754.600000023842,7749.900000035763,8332.700000047684,9182.5,9771.800000011921,10493.600000023842,11186.900000035763,11740.400000035763,12318.700000047684,12914.900000035763,13546.600000023842,14588.200000047684,15177.300000011921,15755,16268.800000011921,17044.5,17672,24776.100000023842,27436.200000047684,28480.700000047684,29482.200000047684,30367.700000047684,31879.30000001192,33947.90000003576,34331.5,35313.40000003576,38789.5,39799.700000047684,44511.90000003576,48406.10000002384,50717.200000047684,54374.60000002384,56926,57570.60000002384,58681.60000002384,59649.10000002384,60539.10000002384,61429.700000047684,62722.700000047684,63769.60000002384,64584.40000003576,65161.90000003576,65730.20000004768,66528,67186,67823.40000003576,68646.5,69681.20000004768,70465.30000001192,71945.30000001192,72680.5,73317.40000003576,73850,74371.10000002384,80200.10000002384,81592.80000001192,82253.10000002384,83090.10000002384,83990.60000002384,84641.5,85135.40000003576,85765.40000003576,86321.30000001192,86924.10000002384,87439.40000003576,88191.90000003576,88914.60000002384,89825,90812.80000001192,91471.90000003576,92136.40000003576,92816,93384.20000004768,94007.5,94982.5,95674.40000003576],"honeypot":0,"survey":"mace","page":9,"trial_type":"survey-mace","trial_index":17,"time_elapsed":937544,"internal_node_id":"0.0-17.0","task_version":"prescreen-v0.3","browser_interactions":0},{"responses":{"01":"No","02":"Yes","02_ages_5":"5","02_ages_6":"6","02_ages_7":"7","02_ages_8":"8","02_ages_9":"9","02_ages_10":"10","02_ages_11":"11","02_ages_12":"12","02_ages_13":"13","02_ages_14":"14","02_ages_15":"15","03":"Yes","03_ages_5":"5","03_ages_6":"6","03_ages_7":"7","03_ages_8":"8","03_ages_9":"9","03_ages_10":"10","03_ages_11":"11","03_ages_12":"12","03_ages_13":"13","03_ages_14":"14","03_ages_15":"15","04":"Yes","04_ages_3":"3","04_ages_4":"4","04_ages_5":"5","04_ages_6":"6","04_ages_7":"7","04_ages_8":"8","05":"No","06":"Yes","06_ages_17":"17","07":"Yes","07_ages_5":"5","07_ages_6":"6","07_ages_7":"7","07_ages_8":"8","07_ages_9":"9","07_ages_10":"10","07_ages_11":"11","07_ages_12":"12","07_ages_13":"13","07_ages_14":"14","07_ages_15":"15","07_ages_16":"16","07_ages_17":"17","07_ages_18":"18","08":"Yes","08_ages_5":"5","08_ages_6":"6","08_ages_7":"7","08_ages_8":"8","08_ages_9":"9","08_ages_13":"13","08_ages_14":"14","08_ages_15":"15","08_ages_16":"16","08_ages_17":"17","08_ages_18":"18"},"rt":85643.40000003576,"item_order":[0,1,2,3,4,5,6,7],"radio_events":[4380.400000035763,6231.800000011921,20371.30000001192,36695.30000001192,47574.40000003576,51156,57480.60000002384,73022.10000002384],"checkbox_events":[8130.200000047684,8790.100000023842,9316.900000035763,9900.600000023842,10668.5,11279,11909.5,12863.200000047684,13418.300000011921,14036.100000023842,14645,15222.900000035763,17031.100000023842,21855,23041.600000023842,24253.200000047684,25014.700000047684,26071.900000035763,27230,27897.200000047684,28652.30000001192,29399.600000023842,30112.400000035763,33823.700000047684,38677.60000002384,39390,39961.60000002384,40516.60000002384,41121.5,41875.200000047684,53199.80000001192,59366.60000002384,59872.90000003576,60402.80000001192,60902.200000047684,61423.700000047684,62514.60000002384,63652,64414.80000001192,65079.60000002384,66095.80000001192,66905.60000002384,67633,68283.80000001192,68935.60000002384,74422.5,75012.80000001192,75768.20000004768,76686.70000004768,77590.90000003576,79224.70000004768,80005.70000004768,80872,81729.30000001192,82854,83951.20000004768],"key_events":[],"mouse_events":[4380.400000035763,6231.800000011921,8130.200000047684,8790.100000023842,9316.900000035763,9900.600000023842,10668.5,11279,11909.5,12863.200000047684,13418.300000011921,14036.100000023842,14645,15222.900000035763,17031.100000023842,20371.30000001192,21855,22438.100000023842,23041.600000023842,23644.5,24253.200000047684,25014.700000047684,25579.400000035763,26071.900000035763,27230,27897.200000047684,28652.30000001192,29399.600000023842,30112.400000035763,32984.60000002384,33823.700000047684,36695.30000001192,38677.60000002384,39390,39961.60000002384,40516.60000002384,41121.5,41875.200000047684,47574.40000003576,51156,53199.80000001192,57480.60000002384,59366.60000002384,59872.90000003576,60402.80000001192,60902.200000047684,61423.700000047684,62014.5,62514.60000002384,63208.200000047684,63652,64414.80000001192,65079.60000002384,65559.40000003576,66095.80000001192,66905.60000002384,67633,68283.80000001192,68935.60000002384,72261.10000002384,73022.10000002384,74422.5,75012.80000001192,75768.20000004768,76686.70000004768,77208.30000001192,77590.90000003576,79224.70000004768,80005.70000004768,80872,81729.30000001192,82285.10000002384,82854,83951.20000004768,85633.10000002384],"honeypot":0,"survey":"mace","page":10,"trial_type":"survey-mace","trial_index":18,"time_elapsed":1023207,"internal_node_id":"0.0-18.0","task_version":"prescreen-v0.3","browser_interactions":0,"instructed":0},{"rt":2907.600000023842,"trial_type":"mental-health-alert","trial_index":19,"time_elapsed":1026128,"internal_node_id":"0.0-19.0","task_version":"prescreen-v0.3","interactions":"[]"}]