[{"view_history":[{"page_index":0,"viewing_time":4012},{"page_index":1,"viewing_time":4640.800000011921},{"page_index":2,"viewing_time":5239.800000011921},{"page_index":3,"viewing_time":1424.0999999642372}],"rt":15317.600000023842,"trial_type":"instructions","trial_index":0,"time_elapsed":15335,"internal_node_id":"0.0-0.0","task_version":"prescreen-v0.3"},{"rt":21783.5,"responses":{"age":"28","gender-categorical":"Female","gender-free-response":"","ethnicity":"Not Hispanic or Latino","race":["American Indian/Alaska Native","White"],"education":"Associate degree"},"trial_type":"survey-demo","trial_index":1,"time_elapsed":37123,"internal_node_id":"0.0-1.0","task_version":"prescreen-v0.3"},{"responses":{"Q08":"3","Q13":"3","Q01":"2","Q10":"1","Q21":"3","Q14":"2","Q02":"1","Q09":"1","Q06":"2","Q19":"1","Q03":"0","Q11":"1","Q07":"2","Q18":"1","Q15":"2","Q12":"1","Q20":"2","Q05":"1","Q04":"2","Q16":"3","Q17":"1"},"rt":575170.2999999523,"item_order":[7,12,0,9,20,13,1,8,5,18,2,10,6,17,14,11,19,4,3,15,16],"radio_events":[33426.19999998808,35049.69999998808,38506.89999997616,41659.19999998808,47139.89999997616,50396.09999996424,57086.09999996424,60350,507649.5,512066.7999999523,516691.89999997616,519710,522662.7999999523,527807.0999999642,537754.0999999642,543267.0999999642,547739,553563.5999999642,558668.8999999762,565855.6999999881,570455.7999999523,574616.5999999642],"key_events":[],"mouse_events":[33426.19999998808,35049.69999998808,38506.89999997616,41659.19999998808,47139.89999997616,50396.09999996424,57086.09999996424,60350,507649.5,512066.7999999523,516691.89999997616,519710,522118.1999999881,522662.7999999523,527807.0999999642,537754.0999999642,543267.0999999642,547739,553563.5999999642,558668.8999999762,564126.1999999881,565040.2999999523,565855.6999999881,570455.7999999523,573729.1999999881,574616.5999999642,575168.8999999762],"straightlining":0.42857142857142855,"zigzagging":0.8,"honeypot":0,"survey":"sns","trial_type":"survey-template","trial_index":2,"time_elapsed":612289,"internal_node_id":"0.0-2.0","task_version":"prescreen-v0.3","browser_interactions":6,"infrequency":0},{"responses":{"Q10":"1","Q04":"2","Q12":"1","Q13":"0","Q07":"3","Q03":"3","Q09":"1","Q01":"2","Q06":"1","Q02":"3","Q11":"1","Q08":"1","Q05":"2"},"rt":75787.5,"item_order":[9,3,11,12,6,2,8,0,5,1,10,7,4],"radio_events":[10499.300000011921,16812.600000023842,22541.19999998808,36255.30000001192,39281.60000002384,45160.19999998808,48328.60000002384,54077.60000002384,58912.30000001192,61320.60000002384,66209.5,71801.5,75314.60000002384],"key_events":[],"mouse_events":[10499.300000011921,15692.600000023842,16812.600000023842,21136.30000001192,22541.19999998808,36255.30000001192,39281.60000002384,45160.19999998808,48328.60000002384,54077.60000002384,58912.30000001192,61320.60000002384,66209.5,71801.5,75314.60000002384,75786.5],"straightlining":0.46153846153846156,"zigzagging":0.5833333333333334,"honeypot":0,"survey":"bisbas","trial_type":"survey-template","trial_index":3,"time_elapsed":688078,"internal_node_id":"0.0-3.0","task_version":"prescreen-v0.3","browser_interactions":0,"infrequency":0},{"responses":{"Q01":"3","Q02":"3","Q03":"4"},"rt":19183.400000035763,"radio_events":[5413.700000047684,14294.5,18806.30000001192],"key_events":[],"mouse_events":[5413.700000047684,14294.5,18806.30000001192,19182.80000001192],"survey":"map","page":1,"trial_type":"survey-map","trial_index":4,"time_elapsed":707264,"internal_node_id":"0.0-4.0","task_version":"prescreen-v0.3","browser_interactions":0},{"responses":{"Q04":"2","Q05":"3","Q06":"3"},"rt":13007.299999952316,"radio_events":[5349.5,9751,12350.899999976158],"key_events":[],"mouse_events":[5349.5,9751,12350.899999976158,13006.899999976158],"survey":"map","page":2,"trial_type":"survey-map","trial_index":5,"time_elapsed":720273,"internal_node_id":"0.0-5.0","task_version":"prescreen-v0.3","browser_interactions":0},{"responses":{"Q07":"4","Q08":"4","Q09":"4"},"rt":24042.100000023842,"radio_events":[7083.300000011921,22249.30000001192,23513.80000001192],"key_events":[],"mouse_events":[7083.300000011921,22249.30000001192,23513.80000001192,24041.600000023842],"survey":"map","page":3,"trial_type":"survey-map","trial_index":6,"time_elapsed":744316,"internal_node_id":"0.0-6.0","task_version":"prescreen-v0.3","browser_interactions":2},{"responses":{"Q10":"3","Q11":"4","Q12":"3","Q13":"2","Q16":"0","Q14":"2","Q15":"2"},"rt":72524.69999998808,"radio_events":[39194,42827.19999998808,47399.09999996424,54054.5,58727.30000001192,67452.09999996424,71579.89999997616],"key_events":[],"mouse_events":[39194,42827.19999998808,47399.09999996424,54054.5,58727.30000001192,67452.09999996424,71579.89999997616,72524],"survey":"map","page":4,"trial_type":"survey-map","trial_index":7,"time_elapsed":816843,"internal_node_id":"0.0-7.0","task_version":"prescreen-v0.3","browser_interactions":0,"infrequency":0},{"view_history":[{"page_index":0,"viewing_time":2894.199999988079},{"page_index":1,"viewing_time":4785.899999976158}],"rt":7681,"trial_type":"instructions","trial_index":8,"time_elapsed":824525,"internal_node_id":"0.0-8.0","task_version":"prescreen-v0.3"},{"responses":{"01":"Yes","01_ages_7":"7","01_ages_8":"8","01_ages_9":"9","01_ages_10":"10","01_ages_11":"11","01_ages_12":"12","01_ages_13":"13","01_ages_14":"14","01_ages_15":"15","01_ages_16":"16","01_ages_17":"17","01_ages_18":"18","02":"Yes","02_ages_7":"7","02_ages_8":"8","02_ages_9":"9","02_ages_10":"10","02_ages_11":"11","02_ages_12":"12","02_ages_13":"13","02_ages_14":"14","02_ages_15":"15","02_ages_16":"16","02_ages_17":"17","02_ages_18":"18","03":"Yes","03_ages_7":"7","03_ages_8":"8","03_ages_9":"9","03_ages_10":"10","03_ages_11":"11","03_ages_12":"12","03_ages_13":"13","03_ages_14":"14","03_ages_15":"15","03_ages_16":"16","03_ages_17":"17","03_ages_18":"18","04":"No","05":"Yes","05_ages_6":"6","05_ages_7":"7","05_ages_8":"8","05_ages_9":"9","05_ages_10":"10","06":"No"},"rt":83326.60000002384,"item_order":[0,1,2,3,4,5],"radio_events":[12698.100000023842,28443.400000035763,53254.90000003576,68769.20000004768,71825,81795.40000003576],"checkbox_events":[18211.700000047684,18715.100000023842,19131.100000023842,19643.200000047684,20147.100000023842,21491,21979.5,22435.600000023842,23059.30000001192,23531.900000035763,24067.400000035763,24548,37589.30000001192,38205.200000047684,39285.200000047684,39685.30000001192,40077.30000001192,40533.200000047684,40950.40000003576,41365.10000002384,43494,44142.10000002384,44734.30000001192,45142.40000003576,45886.200000047684,46365.90000003576,46775,47206,47566,47951.10000002384,48304,48678.40000003576,56815.30000001192,57312.80000001192,57944.5,58336.10000002384,59176.200000047684,59832.700000047684,62032.5,62432.30000001192,63032.40000003576,64209.200000047684,65264.200000047684,65888.10000002384,74561.5,75026.10000002384,75498.20000004768,76282,77153.90000003576],"key_events":[],"mouse_events":[0,10353.5,12698.100000023842,18211.700000047684,18715.100000023842,19131.100000023842,19643.200000047684,20147.100000023842,20634.5,21491,21979.5,22435.600000023842,23059.30000001192,23531.900000035763,24067.400000035763,24548,28443.400000035763,37589.30000001192,38205.200000047684,38597.30000001192,39285.200000047684,39685.30000001192,40077.30000001192,40533.200000047684,40950.40000003576,41365.10000002384,41815.200000047684,43494,44142.10000002384,44734.30000001192,45142.40000003576,45886.200000047684,46365.90000003576,46775,47206,47566,47951.10000002384,48304,48678.40000003576,53254.90000003576,56815.30000001192,57312.80000001192,57944.5,58336.10000002384,59176.200000047684,59832.700000047684,62032.5,62432.30000001192,63032.40000003576,63456.200000047684,64209.200000047684,64562.60000002384,65264.200000047684,65888.10000002384,68769.20000004768,71825,74561.5,75026.10000002384,75498.20000004768,76282,76714.30000001192,77153.90000003576,81795.40000003576,83323.70000004768],"honeypot":0,"survey":"mace","page":1,"trial_type":"survey-mace","trial_index":9,"time_elapsed":907858,"internal_node_id":"0.0-9.0","task_version":"prescreen-v0.3","browser_interactions":0},{"responses":{"01":"No","02":"No","03":"Yes","03_ages_4":"4","03_ages_5":"5","03_ages_6":"6","03_ages_7":"7","04":"No","05":"No","06":"No","07":"No","08":"No"},"rt":25471.100000023842,"item_order":[0,1,2,3,4,5,6,7],"radio_events":[3441.100000023842,6584.900000035763,8729,13785.700000047684,15793.800000011921,20498.600000023842,21897.400000035763,23442.900000035763,24587.400000035763],"checkbox_events":[10050.100000023842,10432.600000023842,11073.800000011921,12865.700000047684],"key_events":[],"mouse_events":[3441.100000023842,6584.900000035763,8729,10050.100000023842,10432.600000023842,11073.800000011921,11481.400000035763,12865.700000047684,13785.700000047684,15793.800000011921,19394.5,20498.600000023842,21897.400000035763,23442.900000035763,24587.400000035763,25467.30000001192],"honeypot":0,"survey":"mace","page":2,"trial_type":"survey-mace","trial_index":10,"time_elapsed":933334,"internal_node_id":"0.0-10.0","task_version":"prescreen-v0.3","browser_interactions":0},{"responses":{"01":"No","02":"No","03":"No","04":"No"},"rt":15267.900000035763,"item_order":[0,1,2,3],"radio_events":[3120.800000011921,7504.900000035763,10289.800000011921,14833.900000035763],"checkbox_events":[],"key_events":[],"mouse_events":[3120.800000011921,7504.900000035763,10289.800000011921,14833.900000035763,15265.900000035763],"honeypot":0,"survey":"mace","page":3,"trial_type":"survey-mace","trial_index":11,"time_elapsed":948605,"internal_node_id":"0.0-11.0","task_version":"prescreen-v0.3","browser_interactions":0},{"responses":{"01":"No","02":"No"},"rt":8326.800000011921,"item_order":[0,1],"radio_events":[7396.399999976158,7916.300000011921],"checkbox_events":[],"key_events":[],"mouse_events":[7396.399999976158,7916.300000011921,8325.699999988079],"honeypot":0,"survey":"mace","page":4,"trial_type":"survey-mace","trial_index":12,"time_elapsed":956934,"internal_node_id":"0.0-12.0","task_version":"prescreen-v0.3","browser_interactions":0},{"responses":{"01":"No","02":"No","03":"No","04":"No","05":"No"},"rt":30625,"item_order":[0,1,2,3,4],"radio_events":[13412.399999976158,17309.099999964237,18333.5,24869.19999998808,25502.5],"checkbox_events":[],"key_events":[],"mouse_events":[13412.399999976158,16716.099999964237,17309.099999964237,18333.5,24869.19999998808,25502.5,30622.399999976158],"honeypot":0,"survey":"mace","page":5,"trial_type":"survey-mace","trial_index":13,"time_elapsed":987562,"internal_node_id":"0.0-13.0","task_version":"prescreen-v0.3","browser_interactions":0},{"responses":{"01":"Yes","01_ages_8":"8","01_ages_9":"9","01_ages_10":"10","01_ages_11":"11","01_ages_12":"12","02":"Yes","02_ages_8":"8","02_ages_9":"9","02_ages_10":"10","02_ages_11":"11","02_ages_12":"12","02_ages_13":"13","02_ages_14":"14","03":"No","04":"No","05":"No"},"rt":32207.299999952316,"item_order":[0,1,2,3,4],"radio_events":[8684.099999964237,17629.19999998808,29317.599999964237,30101.69999998808,31750.099999964237],"checkbox_events":[10620,11756.199999988079,12668,13628,14276.199999988079,14780.299999952316,15196.5,15724.099999964237,16908.299999952316,18572,18989.19999998808,19413,19909,20740.69999998808,21533.099999964237,22037.299999952316],"key_events":[],"mouse_events":[8684.099999964237,10620,10980.199999988079,11756.199999988079,12668,13628,14276.199999988079,14780.299999952316,15196.5,15724.099999964237,16908.299999952316,17629.19999998808,18572,18989.19999998808,19413,19909,20740.69999998808,21533.099999964237,22037.299999952316,26518.099999964237,29317.599999964237,30101.69999998808,31350.099999964237,31750.099999964237,32205.69999998808],"honeypot":0,"survey":"mace","page":6,"trial_type":"survey-mace","trial_index":14,"time_elapsed":1019772,"internal_node_id":"0.0-14.0","task_version":"prescreen-v0.3","browser_interactions":0},{"responses":{"01":"No","02":"No","03":"No","04":"No","05":"No","06":"No","07":"No"},"rt":16194.400000035763,"item_order":[0,1,2,3,4,5,6],"radio_events":[3284.800000011921,8469.199999988079,9421.900000035763,11581.900000035763,13894.100000023842,14837.800000011921,15326],"checkbox_events":[],"key_events":[],"mouse_events":[3284.800000011921,5645.100000023842,7349,8469.199999988079,9421.900000035763,11581.900000035763,12910.100000023842,13894.100000023842,14837.800000011921,15326,16191],"honeypot":0,"survey":"mace","page":7,"trial_type":"survey-mace","trial_index":15,"time_elapsed":1035970,"internal_node_id":"0.0-15.0","task_version":"prescreen-v0.3","browser_interactions":0},{"responses":{"01":"Yes","01_ages_8":"8","01_ages_9":"9","01_ages_10":"10","01_ages_11":"11","01_ages_12":"12","01_ages_13":"13","01_ages_14":"14","01_ages_15":"15","01_ages_16":"16","01_ages_17":"17","01_ages_18":"18","02":"Yes","02_ages_8":"8","02_ages_9":"9","02_ages_10":"10","02_ages_11":"11","02_ages_12":"12","02_ages_13":"13","02_ages_14":"14","02_ages_15":"15","02_ages_16":"16","02_ages_17":"17","02_ages_18":"18","03":"Yes","03_ages_4":"4","03_ages_5":"5","03_ages_6":"6","03_ages_7":"7","03_ages_8":"8","03_ages_9":"9","03_ages_10":"10","03_ages_11":"11","03_ages_12":"12","03_ages_13":"13","03_ages_14":"14","03_ages_15":"15","03_ages_16":"16","03_ages_17":"17","03_ages_18":"18","04":"No"},"rt":71780.69999998808,"item_order":[0,1,2,3],"radio_events":[12185.699999988079,27851.69999998808,46646.80000001192,67657.10000002384,71073],"checkbox_events":[18707.100000023842,19531.19999998808,19987,20739.19999998808,21811.19999998808,22499,22954.900000035763,23555.600000023842,24355.69999998808,31508.19999998808,33068.60000002384,34140.10000002384,34540,35212.90000003576,35660.90000003576,36605.90000003576,36982,37556.90000003576,38494,38878,41445.60000002384,42172.90000003576,42637.19999998808,43301.90000003576,49230.69999998808,49623.19999998808,50014.90000003576,50398.80000001192,50863,51287.10000002384,51727,54230.60000002384,54679.90000003576,56663.90000003576,57639.69999998808,58087.69999998808,58960.19999998808,59720,60328.10000002384],"key_events":[],"mouse_events":[10241.800000011921,12185.699999988079,18707.100000023842,19531.19999998808,19987,20739.19999998808,21811.19999998808,22499,22954.900000035763,23555.600000023842,24355.69999998808,27851.69999998808,31508.19999998808,32285.100000023842,33068.60000002384,34140.10000002384,34540,35212.90000003576,35660.90000003576,36068.69999998808,36605.90000003576,36982,37556.90000003576,38030.10000002384,38494,38878,41445.60000002384,42172.90000003576,42637.19999998808,43301.90000003576,46646.80000001192,49230.69999998808,49623.19999998808,50014.90000003576,50398.80000001192,50863,51287.10000002384,51727,52174.69999998808,53167.30000001192,54230.60000002384,54679.90000003576,55239.80000001192,56079.19999998808,56663.90000003576,57088,57639.69999998808,58087.69999998808,58544,58960.19999998808,59720,60328.10000002384,67657.10000002384,70328.90000003576,71073,71778.60000002384],"honeypot":0,"survey":"mace","page":8,"trial_type":"survey-mace","trial_index":16,"time_elapsed":1107754,"internal_node_id":"0.0-16.0","task_version":"prescreen-v0.3","browser_interactions":0},{"responses":{"01":"Yes","01_ages_1":"1","01_ages_2":"2","01_ages_3":"3","01_ages_4":"4","01_ages_5":"5","01_ages_6":"6","01_ages_7":"7","01_ages_8":"8","01_ages_9":"9","01_ages_10":"10","01_ages_11":"11","01_ages_12":"12","01_ages_13":"13","01_ages_14":"14","01_ages_15":"15","01_ages_16":"16","01_ages_17":"17","01_ages_18":"18","02":"Yes","02_ages_1":"1","02_ages_2":"2","02_ages_3":"3","02_ages_4":"4","02_ages_5":"5","02_ages_6":"6","02_ages_7":"7","02_ages_8":"8","02_ages_9":"9","02_ages_10":"10","02_ages_11":"11","02_ages_12":"12","02_ages_13":"13","02_ages_14":"14","02_ages_15":"15","02_ages_16":"16","02_ages_17":"17","02_ages_18":"18","03":"Yes","03_ages_1":"1","03_ages_2":"2","03_ages_3":"3","03_ages_4":"4","03_ages_5":"5","03_ages_6":"6","03_ages_7":"7","03_ages_8":"8","03_ages_9":"9","03_ages_10":"10","03_ages_11":"11","03_ages_12":"12","03_ages_13":"13","03_ages_14":"14","03_ages_15":"15","03_ages_16":"16","03_ages_17":"17","03_ages_18":"18","04":"Yes","04_ages_1":"1","04_ages_2":"2","04_ages_3":"3","04_ages_4":"4","04_ages_5":"5","04_ages_6":"6","04_ages_7":"7","04_ages_8":"8","04_ages_9":"9","04_ages_10":"10","04_ages_11":"11","04_ages_12":"12","04_ages_13":"13","04_ages_14":"14","04_ages_15":"15","04_ages_16":"16","04_ages_17":"17","04_ages_18":"18"},"rt":74173.5,"item_order":[0,1,2,3],"radio_events":[6027.399999976158,27454.30000001192,46176.10000002384,61106.19999998808],"checkbox_events":[7330.300000011921,7691.199999988079,9163,14652.199999988079,15556.100000023842,15964.199999988079,16395.100000023842,19332.19999998808,20853.100000023842,21325.30000001192,21971.80000001192,22588.30000001192,22996.399999976158,23413.399999976158,23837,24252.899999976158,24677.19999998808,26013.30000001192,33214.30000001192,34430.10000002384,35142,36349.89999997616,36775.30000001192,37407.30000001192,37982.30000001192,38375,38823.39999997616,39270.89999997616,40238.89999997616,40927.30000001192,42166.89999997616,42831.30000001192,43367.19999998808,43799.19999998808,44143.19999998808,44856.39999997616,47096.39999997616,47448.5,47848.19999998808,48336.19999998808,48720.10000002384,49176.30000001192,49648,50216.30000001192,50889.19999998808,51440,51999.80000001192,52777.30000001192,53447.89999997616,54561.19999998808,55017.10000002384,55729.19999998808,56097.30000001192,56777.19999998808,63314.30000001192,63698.10000002384,64618.10000002384,65122,65578,66042.30000001192,66530.30000001192,67707.39999997616,68210.10000002384,68811.10000002384,69354.30000001192,70314.39999997616,70803.10000002384,71434.80000001192,72138.80000001192,72650.80000001192,73147.30000001192,73779.19999998808],"key_events":[],"mouse_events":[6027.399999976158,7330.300000011921,7691.199999988079,8051.800000011921,9163,14652.199999988079,15556.100000023842,15964.199999988079,16395.100000023842,17004.30000001192,17724.100000023842,19332.19999998808,20853.100000023842,21325.30000001192,21971.80000001192,22588.30000001192,22996.399999976158,23413.399999976158,23837,24252.899999976158,24677.19999998808,25421,26013.30000001192,27454.30000001192,29212.899999976158,31678,33214.30000001192,34430.10000002384,35142,35709.89999997616,36349.89999997616,36775.30000001192,37407.30000001192,37982.30000001192,38375,38823.39999997616,39270.89999997616,39919.19999998808,40238.89999997616,40927.30000001192,42166.89999997616,42831.30000001192,43367.19999998808,43799.19999998808,44143.19999998808,44487.30000001192,44856.39999997616,45600.19999998808,46176.10000002384,47096.39999997616,47448.5,47848.19999998808,48336.19999998808,48720.10000002384,49176.30000001192,49648,50216.30000001192,50889.19999998808,51440,51999.80000001192,52777.30000001192,53447.89999997616,53937.10000002384,54561.19999998808,55017.10000002384,55729.19999998808,56097.30000001192,56777.19999998808,60097,61106.19999998808,63314.30000001192,63698.10000002384,64074.39999997616,64618.10000002384,65122,65578,66042.30000001192,66530.30000001192,66986.60000002384,67362.10000002384,67707.39999997616,68210.10000002384,68811.10000002384,69354.30000001192,70314.39999997616,70803.10000002384,71434.80000001192,72138.80000001192,72650.80000001192,73147.30000001192,73779.19999998808,74171.5],"honeypot":0,"survey":"mace","page":9,"trial_type":"survey-mace","trial_index":17,"time_elapsed":1181930,"internal_node_id":"0.0-17.0","task_version":"prescreen-v0.3","browser_interactions":0},{"responses":{"01":"No","02":"No","03":"Yes","03_ages_7":"7","03_ages_8":"8","03_ages_9":"9","03_ages_10":"10","03_ages_11":"11","03_ages_12":"12","03_ages_13":"13","03_ages_14":"14","03_ages_15":"15","03_ages_16":"16","03_ages_17":"17","03_ages_18":"18","04":"No","05":"No","06":"Yes","06_ages_17":"17","07":"Yes","07_ages_1":"1","07_ages_2":"2","07_ages_3":"3","07_ages_4":"4","07_ages_5":"5","07_ages_6":"6","07_ages_7":"7","07_ages_8":"8","07_ages_9":"9","07_ages_10":"10","07_ages_11":"11","07_ages_12":"12","07_ages_13":"13","07_ages_14":"14","07_ages_15":"15","07_ages_16":"16","07_ages_17":"17","07_ages_18":"18","08":"No"},"rt":54310.19999998808,"item_order":[0,1,2,3,4,5,6,7],"radio_events":[4411.199999988079,5259.300000011921,7986.900000035763,21413.19999998808,27518.100000023842,34254.90000003576,47641,50505,52481.19999998808],"checkbox_events":[9995,10764.100000023842,11164.400000035763,12051.100000023842,12732,13220.199999988079,13660.199999988079,14243.900000035763,14644,16285,16669.30000001192,17060.100000023842,29214.100000023842,36399,36855.5,37286.69999998808,37734.60000002384,38142.60000002384,38519.69999998808,38942.90000003576,39528,40231.69999998808,42167.90000003576,42551.90000003576,43568.5,44032,44471.90000003576,44903.69999998808,45320,45847.60000002384,46359.90000003576],"key_events":[],"mouse_events":[3210,4411.199999988079,5259.300000011921,7986.900000035763,9995,10412.400000035763,10764.100000023842,11164.400000035763,12051.100000023842,12732,13220.199999988079,13660.199999988079,14243.900000035763,14644,15260.300000011921,16285,16669.30000001192,17060.100000023842,21413.19999998808,24391.19999998808,27518.100000023842,29214.100000023842,34254.90000003576,36399,36855.5,37286.69999998808,37734.60000002384,38142.60000002384,38519.69999998808,38942.90000003576,39528,40231.69999998808,40759.90000003576,41839.80000001192,42167.90000003576,42551.90000003576,42959.69999998808,43568.5,44032,44471.90000003576,44903.69999998808,45320,45847.60000002384,46359.90000003576,47641,48049.30000001192,48496.90000003576,50505,52481.19999998808,54306.40000003576],"honeypot":0,"survey":"mace","page":10,"trial_type":"survey-mace","trial_index":18,"time_elapsed":1236245,"internal_node_id":"0.0-18.0","task_version":"prescreen-v0.3","browser_interactions":0,"instructed":0},{"rt":3040.7000000476837,"trial_type":"mental-health-alert","trial_index":19,"time_elapsed":1239287,"internal_node_id":"0.0-19.0","task_version":"prescreen-v0.3","interactions":"[{\"event\":\"blur\",\"trial\":2,\"time\":49348},{\"event\":\"focus\",\"trial\":2,\"time\":66783},{\"event\":\"blur\",\"trial\":2,\"time\":101112},{\"event\":\"focus\",\"trial\":2,\"time\":534450},{\"event\":\"blur\",\"trial\":2,\"time\":536521},{\"event\":\"focus\",\"trial\":2,\"time\":544687},{\"event\":\"blur\",\"trial\":6,\"time\":733888},{\"event\":\"focus\",\"trial\":6,\"time\":742428}]"}]