[{"view_history":[{"page_index":0,"viewing_time":4006.7999999523163},{"page_index":1,"viewing_time":5541.899999856949},{"page_index":2,"viewing_time":5171.700000047684},{"page_index":3,"viewing_time":1515.1000001430511}],"rt":16236,"trial_type":"instructions","trial_index":0,"time_elapsed":16248,"internal_node_id":"0.0-0.0","task_version":"prescreen-v0.3"},{"rt":44655.60000014305,"responses":{"age":"24","gender-categorical":"Female","gender-free-response":"","ethnicity":"Not Hispanic or Latino","race":["Asian","White"],"education":"Associate degree"},"trial_type":"survey-demo","trial_index":1,"time_elapsed":60907,"internal_node_id":"0.0-1.0","task_version":"prescreen-v0.3"},{"responses":{"Q08":"1","Q17":"0","Q15":"2","Q20":"1","Q13":"1","Q16":"2","Q05":"1","Q12":"0","Q07":"2","Q10":"0","Q03":"0","Q02":"0","Q21":"3","Q11":"0","Q14":"2","Q09":"0","Q18":"1","Q06":"2","Q19":"0","Q04":"0","Q01":"1"},"rt":213474.70000004768,"item_order":[7,16,14,19,12,15,4,11,6,9,2,1,20,10,13,8,17,5,18,3,0],"radio_events":[11436.399999856949,15336.599999904633,28704.599999904633,33604.700000047684,42385.799999952316,51793.799999952316,81877.70000004768,98410.70000004768,105707.5,113323.89999985695,115883.70000004768,125326.5,136311.5,142017.5,147549.59999990463,158938.70000004768,163575.59999990463,174244.70000004768,175868.59999990463,188775.5,201634.29999995232,203081.5,209236.59999990463,211794.39999985695],"key_events":[],"mouse_events":[10078.099999904633,10587,11436.399999856949,14475,15336.599999904633,28704.599999904633,33604.700000047684,42385.799999952316,45327.799999952316,45852.59999990463,51793.799999952316,70529.09999990463,80574,81877.70000004768,92626.09999990463,93276,98410.70000004768,105161.70000004768,105707.5,113323.89999985695,115883.70000004768,125326.5,134989.70000004768,136311.5,141412.59999990463,142017.5,147549.59999990463,158938.70000004768,163223.79999995232,163575.59999990463,174244.70000004768,175868.59999990463,188775.5,201634.29999995232,203081.5,207934.79999995232,208907.79999995232,209236.59999990463,211794.39999985695,213473],"straightlining":0.42857142857142855,"zigzagging":0.5,"honeypot":0,"survey":"sns","trial_type":"survey-template","trial_index":2,"time_elapsed":274386,"internal_node_id":"0.0-2.0","task_version":"prescreen-v0.3","browser_interactions":0,"infrequency":0},{"responses":{"Q12":"2","Q04":"3","Q10":"2","Q08":"3","Q11":"2","Q02":"2","Q07":"3","Q06":"3","Q05":"3","Q13":"0","Q01":"2","Q03":"2","Q09":"3"},"rt":137615.60000014305,"item_order":[11,3,9,7,10,1,6,5,4,12,0,2,8],"radio_events":[28306.400000095367,37964.299999952316,41742.40000009537,45925.5,51025.5,54957.299999952316,58741.5,65725.90000009537,68005.5,71776.40000009537,82175.5,92242.29999995232,98236.40000009537,102649.29999995232,103700.5],"key_events":[],"mouse_events":[11076.700000047684,22724.400000095367,28306.400000095367,35606.700000047684,37358.5,37964.299999952316,41342.40000009537,41742.40000009537,45925.5,51025.5,54957.299999952316,58741.5,65725.90000009537,67355.79999995232,68005.5,71776.40000009537,82175.5,92242.29999995232,98236.40000009537,102649.29999995232,103700.5,113030.5,113318.5,116012.40000009537,135874.40000009537,137614.5],"straightlining":0.46153846153846156,"zigzagging":0.5833333333333334,"honeypot":0,"survey":"bisbas","trial_type":"survey-template","trial_index":3,"time_elapsed":412006,"internal_node_id":"0.0-3.0","task_version":"prescreen-v0.3","browser_interactions":6,"infrequency":0},{"responses":{"Q01":"4","Q02":"3","Q03":"4"},"rt":28336.700000047684,"radio_events":[5479.900000095367,15105.100000143051,26933.900000095367],"key_events":[],"mouse_events":[5479.900000095367,15105.100000143051,26933.900000095367,28336],"survey":"map","page":1,"trial_type":"survey-map","trial_index":4,"time_elapsed":440347,"internal_node_id":"0.0-4.0","task_version":"prescreen-v0.3","browser_interactions":0},{"responses":{"Q04":"4","Q05":"3","Q06":"2"},"rt":34996.700000047684,"radio_events":[13742.100000143051,20743.299999952316,28288.900000095367,31333,33149.799999952316],"key_events":[],"mouse_events":[13742.100000143051,20743.299999952316,28288.900000095367,31333,32695.10000014305,33149.799999952316,34996],"survey":"map","page":2,"trial_type":"survey-map","trial_index":5,"time_elapsed":475347,"internal_node_id":"0.0-5.0","task_version":"prescreen-v0.3","browser_interactions":0},{"responses":{"Q07":"3","Q08":"1","Q09":"4"},"rt":58990.10000014305,"radio_events":[7629.400000095367,37457.299999952316,44218.40000009537,46845.40000009537,52238.40000009537,58161.5],"key_events":[],"mouse_events":[6274.5,7629.400000095367,37457.299999952316,43075.700000047684,44218.40000009537,46845.40000009537,52238.40000009537,57128.5,58161.5,58989.5],"survey":"map","page":3,"trial_type":"survey-map","trial_index":6,"time_elapsed":534340,"internal_node_id":"0.0-6.0","task_version":"prescreen-v0.3","browser_interactions":0},{"responses":{"Q10":"4","Q11":"4","Q12":"3","Q13":"3","Q16":"0","Q14":"4","Q15":"4"},"rt":50802.59999990463,"radio_events":[3824.399999856949,7185.299999952316,16343.5,25714.5,30866.199999809265,43154.299999952316,48194.199999809265],"key_events":[],"mouse_events":[3824.399999856949,7185.299999952316,16343.5,25714.5,30866.199999809265,43154.299999952316,48194.199999809265,50801.5],"survey":"map","page":4,"trial_type":"survey-map","trial_index":7,"time_elapsed":585146,"internal_node_id":"0.0-7.0","task_version":"prescreen-v0.3","browser_interactions":0,"infrequency":0},{"view_history":[{"page_index":0,"viewing_time":3258.100000143051},{"page_index":1,"viewing_time":4809.099999904633}],"rt":8067.600000143051,"trial_type":"instructions","trial_index":8,"time_elapsed":593216,"internal_node_id":"0.0-8.0","task_version":"prescreen-v0.3"},{"responses":{"01":"No","02":"Yes","02_ages_12":"12","02_ages_13":"13","02_ages_14":"14","02_ages_15":"15","02_ages_16":"16","02_ages_17":"17","02_ages_18":"18","03":"No","04":"No","04_ages_15":"15","04_ages_16":"16","04_ages_17":"17","04_ages_18":"18","05":"No","06":"No"},"rt":180357.29999995232,"item_order":[0,1,2,3,4,5],"radio_events":[9640.399999856949,50737.699999809265,65564.59999990463,69531.79999995232,89595.79999995232,98651.89999985695,105428.89999985695,111224.69999980927,139838,145062.69999980927,154964.79999995232,156306.89999985695,162321.69999980927],"checkbox_events":[29622.89999985695,30007.599999904633,30942.89999985695,32254.799999952316,33155,38876.799999952316,53588.89999985695,54086.699999809265,54613.799999952316,55943,56616.89999985695,57253.799999952316,57778.09999990463,58254.89999985695,70773.79999995232,76176.69999980927,76610.69999980927,78832.79999995232,107634.89999985695,108027.69999980927,108585.69999980927,109466.89999985695,109852.79999995232,110187.89999985695,116852.5,117199.79999995232,124621,124936.69999980927,129545.69999980927,132505.79999995232,134037.09999990463],"key_events":[],"mouse_events":[0.09999990463256836,9640.399999856949,29622.89999985695,30007.599999904633,30942.89999985695,32254.799999952316,33155,38876.799999952316,50737.699999809265,53588.89999985695,54086.699999809265,54613.799999952316,54932,55412,55943,56235.09999990463,56616.89999985695,56944.199999809265,57253.799999952316,57778.09999990463,58254.89999985695,65564.59999990463,69531.79999995232,70773.79999995232,76176.69999980927,76610.69999980927,78832.79999995232,89595.79999995232,98651.89999985695,102250.19999980927,105428.89999985695,107634.89999985695,108027.69999980927,108585.69999980927,108952.19999980927,109466.89999985695,109852.79999995232,110187.89999985695,110916.89999985695,111224.69999980927,116852.5,117199.79999995232,123764,124324,124621,124936.69999980927,129545.69999980927,132505.79999995232,134037.09999990463,139838,141934.09999990463,145062.69999980927,154964.79999995232,155792.19999980927,156306.89999985695,162321.69999980927,180354.39999985695],"honeypot":0,"survey":"mace","page":1,"trial_type":"survey-mace","trial_index":9,"time_elapsed":773578,"internal_node_id":"0.0-9.0","task_version":"prescreen-v0.3","browser_interactions":0},{"responses":{"01":"No","02":"No","03":"No","04":"No","05":"No","06":"No","07":"No","08":"No"},"rt":45077.90000009537,"item_order":[0,1,2,3,4,5,6,7],"radio_events":[2957.300000190735,5017.400000095367,7591.600000143051,21089.200000047684,24669.10000014305,26153.10000014305,31572.10000014305,32001,42427],"checkbox_events":[],"key_events":[],"mouse_events":[2957.300000190735,5017.400000095367,7591.600000143051,21089.200000047684,24669.10000014305,26153.10000014305,27294.5,28002.5,30975.200000047684,31572.10000014305,32001,42427,45075.5],"honeypot":0,"survey":"mace","page":2,"trial_type":"survey-mace","trial_index":10,"time_elapsed":818661,"internal_node_id":"0.0-10.0","task_version":"prescreen-v0.3","browser_interactions":0},{"responses":{"01":"No","02":"No","03":"No","04":"No"},"rt":14903.299999952316,"item_order":[0,1,2,3],"radio_events":[10224.899999856949,11191.399999856949,12578.399999856949,13428.5],"checkbox_events":[],"key_events":[],"mouse_events":[8789.200000047684,10224.899999856949,10820,11191.399999856949,12210.599999904633,12578.399999856949,13428.5,14901.700000047684],"honeypot":0,"survey":"mace","page":3,"trial_type":"survey-mace","trial_index":11,"time_elapsed":833568,"internal_node_id":"0.0-11.0","task_version":"prescreen-v0.3","browser_interactions":0},{"responses":{"01":"No","02":"No"},"rt":8201.599999904633,"item_order":[0,1],"radio_events":[3281.7999999523163,5579.799999952316],"checkbox_events":[],"key_events":[],"mouse_events":[3281.7999999523163,5579.799999952316,8199.899999856949],"honeypot":0,"survey":"mace","page":4,"trial_type":"survey-mace","trial_index":12,"time_elapsed":841773,"internal_node_id":"0.0-12.0","task_version":"prescreen-v0.3","browser_interactions":0},{"responses":{"01":"No","02":"No","03":"No","04":"No","05":"No"},"rt":32998.60000014305,"item_order":[0,1,2,3,4],"radio_events":[12144.5,15558.600000143051,17808.200000047684,18684.700000047684,25116.60000014305],"checkbox_events":[],"key_events":[],"mouse_events":[12144.5,14061.800000190735,15558.600000143051,17009.800000190735,17808.200000047684,18684.700000047684,21154.900000095367,22193.800000190735,24209.60000014305,25116.60000014305,32996.90000009537],"honeypot":0,"survey":"mace","page":5,"trial_type":"survey-mace","trial_index":13,"time_elapsed":874776,"internal_node_id":"0.0-13.0","task_version":"prescreen-v0.3","browser_interactions":0},{"responses":{"01":"Yes","01_ages_13":"13","01_ages_14":"14","01_ages_15":"15","02":"Yes","02_ages_13":"13","02_ages_14":"14","02_ages_15":"15","03":"Yes","03_ages_13":"13","03_ages_14":"14","03_ages_15":"15","04":"Yes","04_ages_13":"13","04_ages_14":"14","04_ages_15":"15","05":"No"},"rt":130253.40000009537,"item_order":[0,1,2,3,4],"radio_events":[7597.799999952316,54979.90000009537,65830,85789.79999995232,104299.90000009537],"checkbox_events":[12616,13678.900000095367,14047.900000095367,14683,15547.799999952316,16082.799999952316,16566,17358.900000095367,20773.900000095367,39734.10000014305,50654.10000014305,51011.10000014305,51299.799999952316,58449.799999952316,59618.799999952316,62235.90000009537,69766.79999995232,70043.90000009537,70833.90000009537,71135.79999995232,71469.79999995232,71801.90000009537,73119.79999995232,76059.79999995232,77121.70000004768,78248.90000009537,78705.70000004768,87867.70000004768,88149.79999995232,88460.90000009537,91589.79999995232,95004.79999995232,97537.79999995232,101104.79999995232,108587.60000014305,109487,110033.90000009537,112505.90000009537],"key_events":[],"mouse_events":[7597.799999952316,12616,13678.900000095367,14047.900000095367,14683,15161.299999952316,15547.799999952316,16082.799999952316,16566,17358.900000095367,20773.900000095367,39734.10000014305,50654.10000014305,51011.10000014305,51299.799999952316,54979.90000009537,58449.799999952316,58943.10000014305,59618.799999952316,62235.90000009537,65045,65830,69766.79999995232,70043.90000009537,70337.90000009537,70833.90000009537,71135.79999995232,71469.79999995232,71801.90000009537,73119.79999995232,76059.79999995232,76672.29999995232,77121.70000004768,77928.90000009537,78248.90000009537,78705.70000004768,82403.90000009537,85789.79999995232,87867.70000004768,88149.79999995232,88460.90000009537,91589.79999995232,95004.79999995232,97211,97537.79999995232,100725,101104.79999995232,104299.90000009537,108587.60000014305,109487,110033.90000009537,111181.10000014305,111834.10000014305,112505.90000009537,130251.40000009537],"honeypot":0,"survey":"mace","page":6,"trial_type":"survey-mace","trial_index":14,"time_elapsed":1005034,"internal_node_id":"0.0-14.0","task_version":"prescreen-v0.3","browser_interactions":4},{"responses":{"01":"No","02":"No","03":"No","04":"No","05":"No","06":"No","07":"No"},"rt":22037.099999904633,"item_order":[0,1,2,3,4,5,6],"radio_events":[3283.399999856949,5886.399999856949,8744.199999809265,10147.299999952316,13693.099999904633,14843.199999809265,16910.299999952316],"checkbox_events":[],"key_events":[],"mouse_events":[3283.399999856949,5886.399999856949,8744.199999809265,10147.299999952316,12236.699999809265,13693.099999904633,14843.199999809265,16359.5,16910.299999952316,22034.799999952316],"honeypot":0,"survey":"mace","page":7,"trial_type":"survey-mace","trial_index":15,"time_elapsed":1027076,"internal_node_id":"0.0-15.0","task_version":"prescreen-v0.3","browser_interactions":0},{"responses":{"01":"No","02":"Yes","02_ages_9":"9","02_ages_10":"10","02_ages_11":"11","02_ages_12":"12","02_ages_13":"13","02_ages_14":"14","02_ages_15":"15","02_ages_16":"16","02_ages_17":"17","02_ages_18":"18","03":"Yes","03_ages_12":"12","03_ages_13":"13","03_ages_14":"14","03_ages_15":"15","03_ages_16":"16","03_ages_17":"17","03_ages_18":"18","04":"No","04_ages_12":"12","04_ages_13":"13","04_ages_14":"14","04_ages_15":"15"},"rt":136970.19999980927,"item_order":[0,1,2,3],"radio_events":[13792.199999809265,25725.199999809265,82106.39999985695,105524.19999980927,130366.39999985695],"checkbox_events":[55995.5,56593.5,56888.299999952316,57207.09999990463,57503.09999990463,57902.299999952316,58317.199999809265,58639.39999985695,62916.299999952316,63305.199999809265,64533.199999809265,64952.299999952316,65588.19999980927,66164.19999980927,70510.29999995232,71927.19999980927,72805.19999980927,75000.59999990463,75636.09999990463,76858.39999985695,84965.5,85993.19999980927,86743.19999980927,87612.19999980927,88021.09999990463,88855.59999990463,89365.29999995232,89840.09999990463,90192.09999990463,90582.39999985695,96338.09999990463,97038,98089.19999980927,108652.19999980927,108990.29999995232,109442.89999985695,110205.19999980927,111660.5,112724.39999985695,113343.29999995232,114008,115789.29999995232,116139.29999995232,117437.09999990463,118262.19999980927,120169.09999990463,126887.19999980927],"key_events":[],"mouse_events":[12969.399999856949,13792.199999809265,25725.199999809265,55995.5,56593.5,56888.299999952316,57207.09999990463,57503.09999990463,57902.299999952316,58317.199999809265,58639.39999985695,62916.299999952316,63305.199999809265,63668.799999952316,64533.199999809265,64952.299999952316,65588.19999980927,66164.19999980927,70510.29999995232,71927.19999980927,72443.19999980927,72805.19999980927,75000.59999990463,75349.29999995232,75636.09999990463,75958.29999995232,76858.39999985695,82106.39999985695,84699.09999990463,84965.5,85993.19999980927,86743.19999980927,87308.19999980927,87612.19999980927,88021.09999990463,88343.5,88855.59999990463,89365.29999995232,89840.09999990463,90192.09999990463,90582.39999985695,96338.09999990463,96667.29999995232,97038,98089.19999980927,105524.19999980927,108652.19999980927,108990.29999995232,109442.89999985695,109746.29999995232,110205.19999980927,110716,111409.29999995232,111660.5,112279.29999995232,112724.39999985695,113343.29999995232,114008,115789.29999995232,116139.29999995232,116530.29999995232,117004.5,117437.09999990463,118262.19999980927,120169.09999990463,126887.19999980927,130366.39999985695,136968.59999990463],"honeypot":0,"survey":"mace","page":8,"trial_type":"survey-mace","trial_index":16,"time_elapsed":1164051,"internal_node_id":"0.0-16.0","task_version":"prescreen-v0.3","browser_interactions":2},{"responses":{"01":"Yes","01_ages_1":"1","01_ages_2":"2","01_ages_3":"3","01_ages_4":"4","01_ages_5":"5","01_ages_6":"6","01_ages_7":"7","01_ages_8":"8","01_ages_9":"9","01_ages_10":"10","01_ages_11":"11","01_ages_12":"12","01_ages_13":"13","01_ages_14":"14","01_ages_15":"15","01_ages_16":"16","01_ages_17":"17","01_ages_18":"18","02":"Yes","02_ages_1":"1","02_ages_2":"2","02_ages_3":"3","02_ages_4":"4","02_ages_5":"5","02_ages_6":"6","02_ages_7":"7","02_ages_8":"8","02_ages_9":"9","02_ages_10":"10","02_ages_11":"11","02_ages_12":"12","02_ages_13":"13","02_ages_14":"14","02_ages_15":"15","02_ages_16":"16","02_ages_17":"17","02_ages_18":"18","03":"Yes","03_ages_1":"1","03_ages_2":"2","03_ages_3":"3","03_ages_4":"4","03_ages_5":"5","03_ages_6":"6","03_ages_7":"7","03_ages_8":"8","03_ages_9":"9","03_ages_10":"10","03_ages_11":"11","03_ages_12":"12","03_ages_13":"13","03_ages_14":"14","03_ages_15":"15","03_ages_16":"16","03_ages_17":"17","03_ages_18":"18","04":"Yes","04_ages_1":"1","04_ages_2":"2","04_ages_3":"3","04_ages_4":"4","04_ages_5":"5","04_ages_6":"6","04_ages_7":"7","04_ages_8":"8","04_ages_9":"9","04_ages_10":"10","04_ages_11":"11","04_ages_12":"12","04_ages_13":"13","04_ages_14":"14","04_ages_15":"15","04_ages_16":"16","04_ages_17":"17","04_ages_18":"18"},"rt":73453,"item_order":[0,1,2,3],"radio_events":[3671,23133,36900.89999985695,57406.89999985695],"checkbox_events":[6787,7361.899999856949,7713.799999952316,8268.899999856949,8609,9328.899999856949,9732.099999904633,10719.799999952316,11090.899999856949,11514.899999856949,12892.899999856949,13190.899999856949,14037.899999856949,14314.799999952316,14723.700000047684,15845.899999856949,16272.799999952316,16752.599999904633,24569,24891.89999985695,25534,25828.200000047684,26515.89999985695,26799.799999952316,27158.200000047684,27832.89999985695,28679.89999985695,29125.89999985695,29579,30207.099999904633,30989.099999904633,31310.89999985695,31641,32214.799999952316,32853.89999985695,33660.89999985695,37793.799999952316,38262.09999990463,38569.89999985695,38894.09999990463,40494.700000047684,40749.89999985695,41134.799999952316,41830,42124.799999952316,42525,42876.89999985695,43172.09999990463,44103.89999985695,44946,45480.799999952316,46081.700000047684,46415.799999952316,46782.89999985695,59360.700000047684,59813.200000047684,60134.89999985695,61417.799999952316,61716.799999952316,62140,63300.89999985695,63645.799999952316,64259.59999990463,64522.89999985695,65101.89999985695,65417.799999952316,66246.79999995232,66848.79999995232,68102.79999995232,68597,69058,69599.79999995232],"key_events":[],"mouse_events":[3671,6787,7361.899999856949,7713.799999952316,8268.899999856949,8609,9003.099999904633,9328.899999856949,9732.099999904633,10227.599999904633,10719.799999952316,11090.899999856949,11514.899999856949,12104,12892.899999856949,13190.899999856949,13677,14037.899999856949,14314.799999952316,14723.700000047684,15265.099999904633,15578.899999856949,15845.899999856949,16272.799999952316,16752.599999904633,23133,24569,24891.89999985695,25228.799999952316,25534,25828.200000047684,26169,26515.89999985695,26799.799999952316,27158.200000047684,27501.099999904633,27832.89999985695,28679.89999985695,29125.89999985695,29579,29919,30207.099999904633,30696.89999985695,30989.099999904633,31310.89999985695,31641,32214.799999952316,32541.700000047684,32853.89999985695,33200.200000047684,33660.89999985695,36900.89999985695,37793.799999952316,38262.09999990463,38569.89999985695,38894.09999990463,39218.89999985695,39760.09999990463,40130.59999990463,40494.700000047684,40749.89999985695,41134.799999952316,41450,41830,42124.799999952316,42525,42876.89999985695,43172.09999990463,43516.09999990463,44103.89999985695,44553.09999990463,44946,45480.799999952316,46081.700000047684,46415.799999952316,46782.89999985695,57406.89999985695,58629.09999990463,59008.799999952316,59360.700000047684,59813.200000047684,60134.89999985695,60457,61021.5,61417.799999952316,61716.799999952316,62140,62924,63300.89999985695,63645.799999952316,63957,64259.59999990463,64522.89999985695,65101.89999985695,65417.799999952316,65807,66246.79999995232,66590.70000004768,66848.79999995232,67104.70000004768,67693.09999990463,68102.79999995232,68597,69058,69599.79999995232,73451.29999995232],"honeypot":0,"survey":"mace","page":9,"trial_type":"survey-mace","trial_index":17,"time_elapsed":1237508,"internal_node_id":"0.0-17.0","task_version":"prescreen-v0.3","browser_interactions":0},{"responses":{"01":"No","02":"No","03":"Yes","03_ages_12":"12","03_ages_13":"13","03_ages_14":"14","03_ages_15":"15","03_ages_16":"16","03_ages_17":"17","03_ages_18":"18","04":"No","04_ages_13":"13","05":"No","06":"Yes","06_ages_17":"17","07":"Yes","07_ages_1":"1","07_ages_2":"2","07_ages_3":"3","07_ages_4":"4","07_ages_5":"5","07_ages_6":"6","07_ages_7":"7","07_ages_8":"8","07_ages_9":"9","07_ages_10":"10","07_ages_11":"11","07_ages_12":"12","07_ages_13":"13","07_ages_14":"14","07_ages_15":"15","07_ages_16":"16","07_ages_17":"17","07_ages_18":"18","08":"Yes","08_ages_1":"1","08_ages_2":"2","08_ages_3":"3","08_ages_4":"4","08_ages_5":"5","08_ages_6":"6","08_ages_7":"7","08_ages_8":"8","08_ages_9":"9","08_ages_10":"10","08_ages_11":"11","08_ages_12":"12","08_ages_13":"13","08_ages_14":"14","08_ages_15":"15","08_ages_16":"16","08_ages_17":"17","08_ages_18":"18"},"rt":111135.59999990463,"item_order":[0,1,2,3,4,5,6,7],"radio_events":[5003.299999952316,7230.299999952316,9742.199999809265,30806.39999985695,61471.09999990463,65568.89999985695,72871.29999995232,74716.19999980927,80618.19999980927,99433.09999990463],"checkbox_events":[19419.099999904633,19654.299999952316,20278.299999952316,20644.199999809265,21336.099999904633,21855.199999809265,22618.299999952316,48823.799999952316,54230.199999809265,55241.09999990463,56090.199999809265,58320.5,76329.29999995232,82208.5,82710.59999990463,83110.09999990463,84218.19999980927,85599.5,86374.09999990463,86842.5,87260.09999990463,87866.29999995232,91561.29999995232,92538.19999980927,92883.19999980927,93277.29999995232,93774.79999995232,94509.09999990463,96493.09999990463,96992.29999995232,97563.09999990463,100737.69999980927,101068.19999980927,101944.59999990463,102254,102984.29999995232,103471.89999985695,103869.09999990463,104837,105196.19999980927,105764.29999995232,106188.09999990463,106664.29999995232,107600.19999980927,108009.29999995232,108747.29999995232,109180.29999995232,109533.09999990463,110142],"key_events":[],"mouse_events":[4463.699999809265,5003.299999952316,7230.299999952316,9742.199999809265,19419.099999904633,19654.299999952316,19996.799999952316,20278.299999952316,20644.199999809265,21008.39999985695,21336.099999904633,21855.199999809265,22618.299999952316,30806.39999985695,48823.799999952316,54230.199999809265,55241.09999990463,55694.5,56090.199999809265,58320.5,61471.09999990463,65568.89999985695,72871.29999995232,74716.19999980927,76329.29999995232,79850.5,80618.19999980927,82208.5,82710.59999990463,83110.09999990463,83472.59999990463,84218.19999980927,84649.5,85599.5,85964.59999990463,86374.09999990463,86842.5,87260.09999990463,87866.29999995232,91561.29999995232,92060.39999985695,92538.19999980927,92883.19999980927,93277.29999995232,93774.79999995232,94209.5,94509.09999990463,96493.09999990463,96992.29999995232,97563.09999990463,99433.09999990463,100737.69999980927,101068.19999980927,101397.19999980927,101944.59999990463,102254,102635.5,102984.29999995232,103471.89999985695,103869.09999990463,104307.5,104837,105196.19999980927,105764.29999995232,106188.09999990463,106664.29999995232,107224.29999995232,107600.19999980927,108009.29999995232,108747.29999995232,109180.29999995232,109533.09999990463,110142,111132.79999995232],"honeypot":0,"survey":"mace","page":10,"trial_type":"survey-mace","trial_index":18,"time_elapsed":1348649,"internal_node_id":"0.0-18.0","task_version":"prescreen-v0.3","browser_interactions":2,"instructed":0},{"rt":2373.0999999046326,"trial_type":"mental-health-alert","trial_index":19,"time_elapsed":1351025,"internal_node_id":"0.0-19.0","task_version":"prescreen-v0.3","interactions":"[{\"event\":\"blur\",\"trial\":1,\"time\":51329},{\"event\":\"focus\",\"trial\":1,\"time\":57614},{\"event\":\"blur\",\"trial\":3,\"time\":289312},{\"event\":\"focus\",\"trial\":3,\"time\":293923},{\"event\":\"blur\",\"trial\":3,\"time\":393667},{\"event\":\"focus\",\"trial\":3,\"time\":402687},{\"event\":\"blur\",\"trial\":3,\"time\":403129},{\"event\":\"focus\",\"trial\":3,\"time\":408917},{\"event\":\"blur\",\"trial\":14,\"time\":904290},{\"event\":\"focus\",\"trial\":14,\"time\":913125},{\"event\":\"blur\",\"trial\":14,\"time\":916599},{\"event\":\"focus\",\"trial\":14,\"time\":924096},{\"event\":\"blur\",\"trial\":16,\"time\":1067050},{\"event\":\"focus\",\"trial\":16,\"time\":1081121},{\"event\":\"blur\",\"trial\":18,\"time\":1269629},{\"event\":\"focus\",\"trial\":18,\"time\":1282409}]"}]