[{"view_history":[{"page_index":0,"viewing_time":1630.9000000953674},{"page_index":1,"viewing_time":2109.9000000953674},{"page_index":2,"viewing_time":1454.1999998092651},{"page_index":3,"viewing_time":1620.2000002861023}],"rt":6816.599999904633,"trial_type":"instructions","trial_index":0,"time_elapsed":6857,"internal_node_id":"0.0-0.0","task_version":"prescreen-v0.3"},{"rt":11395.699999809265,"responses":{"age":"34","gender-categorical":"Male","gender-free-response":"","ethnicity":"Not Hispanic or Latino","race":["Asian"],"education":"Bachelor degree"},"trial_type":"survey-demo","trial_index":1,"time_elapsed":18268,"internal_node_id":"0.0-1.0","task_version":"prescreen-v0.3"},{"responses":{"Q14":"1","Q02":"2","Q04":"3","Q09":"2","Q21":"3","Q18":"2","Q13":"2","Q11":"1","Q08":"2","Q17":"2","Q10":"1","Q03":"2","Q07":"2","Q01":"2","Q16":"2","Q19":"2","Q06":"0","Q05":"2","Q20":"1","Q15":"2","Q12":"2"},"rt":127863.2000002861,"item_order":[13,1,3,8,20,17,12,10,7,16,9,2,6,0,15,18,5,4,19,14,11],"radio_events":[7649.5,9786.200000286102,13709.599999904633,17269.099999904633,20872.800000190735,30330.700000286102,33120.2000002861,91657.09999990463,93688.09999990463,96758.5,98260.80000019073,100206,101260.59999990463,102438.59999990463,105236.30000019073,106798,109917.90000009537,110842.30000019073,114470.40000009537,121377.40000009537,123310.30000019073,125381.30000019073,127192.30000019073],"key_events":[],"mouse_events":[6528.900000095367,7649.5,9786.200000286102,12100.400000095367,13120.400000095367,13709.599999904633,17269.099999904633,19982.300000190735,20872.800000190735,30330.700000286102,33120.2000002861,91657.09999990463,93688.09999990463,96758.5,97706.90000009537,98260.80000019073,100206,101260.59999990463,102438.59999990463,105236.30000019073,106798,109917.90000009537,110842.30000019073,113907.7000002861,114470.40000009537,121377.40000009537,123310.30000019073,125381.30000019073,126234.5,127192.30000019073,127860.2000002861],"straightlining":0.6666666666666666,"zigzagging":0.55,"honeypot":0,"survey":"sns","trial_type":"survey-template","trial_index":2,"time_elapsed":146146,"internal_node_id":"0.0-2.0","task_version":"prescreen-v0.3","browser_interactions":4,"infrequency":0},{"responses":{"Q09":"1","Q02":"2","Q01":"2","Q07":"2","Q12":"2","Q13":"0","Q11":"1","Q08":"2","Q10":"1","Q04":"2","Q03":"2","Q05":"2","Q06":"3"},"rt":53596.40000009537,"item_order":[8,1,0,6,11,12,10,7,9,3,2,4,5],"radio_events":[20674.199999809265,24488.799999713898,26145.400000095367,27622.299999713898,29097.199999809265,31214.5,34822.40000009537,39976.40000009537,43126.59999990463,44673.2999997139,47976.5,49377,50404.2999997139,53238.2999997139],"key_events":[],"mouse_events":[20130.199999809265,20674.199999809265,23247.900000095367,24488.799999713898,25370.699999809265,26145.400000095367,27622.299999713898,29097.199999809265,29840.900000095367,31214.5,33938.59999990463,34822.40000009537,39976.40000009537,43126.59999990463,44673.2999997139,45475.5,46758.7999997139,47730.699999809265,47976.5,49377,50404.2999997139,52909,53238.2999997139,53594.699999809265],"straightlining":0.6153846153846154,"zigzagging":0.5,"honeypot":0,"survey":"bisbas","trial_type":"survey-template","trial_index":3,"time_elapsed":199753,"internal_node_id":"0.0-3.0","task_version":"prescreen-v0.3","browser_interactions":2,"infrequency":0},{"responses":{"Q01":"1","Q02":"2","Q03":"2"},"rt":10697.800000190735,"radio_events":[4908.800000190735,6162.200000286102,9932.5],"key_events":[],"mouse_events":[4908.800000190735,6162.200000286102,9932.5,10697],"survey":"map","page":1,"trial_type":"survey-map","trial_index":4,"time_elapsed":210455,"internal_node_id":"0.0-4.0","task_version":"prescreen-v0.3","browser_interactions":0},{"responses":{"Q04":"2","Q05":"1","Q06":"2"},"rt":14176.099999904633,"radio_events":[8328,11609.900000095367,13349.900000095367],"key_events":[],"mouse_events":[7378.200000286102,8328,10655.800000190735,11609.900000095367,13349.900000095367,14175.400000095367],"survey":"map","page":2,"trial_type":"survey-map","trial_index":5,"time_elapsed":224639,"internal_node_id":"0.0-5.0","task_version":"prescreen-v0.3","browser_interactions":2},{"responses":{"Q07":"3","Q08":"3","Q09":"3"},"rt":11061.300000190735,"radio_events":[6035.200000286102,9413.300000190735,10549.300000190735],"key_events":[],"mouse_events":[5083.200000286102,6035.200000286102,9413.300000190735,10188.099999904633,10549.300000190735,11060.800000190735],"survey":"map","page":3,"trial_type":"survey-map","trial_index":6,"time_elapsed":235703,"internal_node_id":"0.0-6.0","task_version":"prescreen-v0.3","browser_interactions":0},{"responses":{"Q10":"2","Q11":"1","Q12":"1","Q13":"2","Q16":"2","Q14":"2","Q15":"2"},"rt":26845.400000095367,"radio_events":[5271.300000190735,7550,9418.199999809265,14256.099999904633,18639.900000095367,23089.400000095367,25687.5],"key_events":[],"mouse_events":[3355.300000190735,5271.300000190735,6641.800000190735,7550,9418.199999809265,14256.099999904633,18639.900000095367,23089.400000095367,25687.5,26843.900000095367],"survey":"map","page":4,"trial_type":"survey-map","trial_index":7,"time_elapsed":262551,"internal_node_id":"0.0-7.0","task_version":"prescreen-v0.3","browser_interactions":2,"infrequency":1},{"view_history":[{"page_index":0,"viewing_time":2689.7999997138977},{"page_index":1,"viewing_time":2152.5999999046326}],"rt":4844.199999809265,"trial_type":"instructions","trial_index":8,"time_elapsed":267397,"internal_node_id":"0.0-8.0","task_version":"prescreen-v0.3"},{"responses":{"01":"No","02":"No","03":"No","04":"No","05":"No","06":"No"},"rt":22613.799999713898,"item_order":[0,1,2,3,4,5],"radio_events":[7746.299999713898,9398,11433.299999713898,18715.799999713898,19497.599999904633,22107.299999713898],"checkbox_events":[],"key_events":[],"mouse_events":[0.19999980926513672,7746.299999713898,8873.89999961853,9398,11123.89999961853,11433.299999713898,13304.5,18015.89999961853,18715.799999713898,19497.599999904633,22107.299999713898,22609.89999961853],"honeypot":0,"survey":"mace","page":1,"trial_type":"survey-mace","trial_index":9,"time_elapsed":290025,"internal_node_id":"0.0-9.0","task_version":"prescreen-v0.3","browser_interactions":0},{"responses":{"01":"No","02":"No","03":"No","04":"No","05":"No","06":"No","07":"No","08":"No"},"rt":16341.599999904633,"item_order":[0,1,2,3,4,5,6,7],"radio_events":[3919,5651.39999961853,7717.099999904633,9614.299999713898,11511.5,12787.5,13737.099999904633,15869.099999904633],"checkbox_events":[],"key_events":[],"mouse_events":[3919,4913.799999713898,5651.39999961853,7717.099999904633,9614.299999713898,10844.89999961853,11511.5,12095.5,12787.5,13737.099999904633,15869.099999904633,16337.5],"honeypot":0,"survey":"mace","page":2,"trial_type":"survey-mace","trial_index":10,"time_elapsed":306372,"internal_node_id":"0.0-10.0","task_version":"prescreen-v0.3","browser_interactions":0},{"responses":{"01":"No","02":"No","03":"No","04":"No"},"rt":8586.099999904633,"item_order":[0,1,2,3],"radio_events":[3974.9000000953674,4918.5,6740.799999713898,7950.699999809265],"checkbox_events":[],"key_events":[],"mouse_events":[3974.9000000953674,4918.5,5734.900000095367,6740.799999713898,7244.900000095367,7950.699999809265,8583],"honeypot":0,"survey":"mace","page":3,"trial_type":"survey-mace","trial_index":11,"time_elapsed":314963,"internal_node_id":"0.0-11.0","task_version":"prescreen-v0.3","browser_interactions":0},{"responses":{"01":"No","02":"No"},"rt":6485.599999904633,"item_order":[0,1],"radio_events":[2431.9000000953674,4437.5],"checkbox_events":[],"key_events":[],"mouse_events":[2431.9000000953674,4437.5,6483.900000095367],"honeypot":0,"survey":"mace","page":4,"trial_type":"survey-mace","trial_index":12,"time_elapsed":321452,"internal_node_id":"0.0-12.0","task_version":"prescreen-v0.3","browser_interactions":0},{"responses":{"01":"No","02":"No","03":"No","04":"No","05":"No"},"rt":11746.099999904633,"item_order":[0,1,2,3,4],"radio_events":[4994,5755.900000095367,7465.699999809265,10443.5,10958.900000095367],"checkbox_events":[],"key_events":[],"mouse_events":[4994,5755.900000095367,7465.699999809265,8683.099999904633,9753.699999809265,10443.5,10958.900000095367,11743.400000095367],"honeypot":0,"survey":"mace","page":5,"trial_type":"survey-mace","trial_index":13,"time_elapsed":333205,"internal_node_id":"0.0-13.0","task_version":"prescreen-v0.3","browser_interactions":0},{"responses":{"01":"Yes","01_ages_6":"6","02":"Yes","02_ages_4":"4","03":"Yes","03_ages_7":"7","04":"Yes","04_ages_5":"5","05":"No"},"rt":22361.400000095367,"item_order":[0,1,2,3,4],"radio_events":[7613.599999904633,12029.099999904633,15442,18286,21821.699999809265],"checkbox_events":[9763.699999809265,12608,16537.299999713898,19367.400000095367],"key_events":[],"mouse_events":[7613.599999904633,9763.699999809265,11670.599999904633,12029.099999904633,12608,15442,16215.599999904633,16537.299999713898,18286,18885.799999713898,19367.400000095367,21821.699999809265,22358],"honeypot":0,"survey":"mace","page":6,"trial_type":"survey-mace","trial_index":14,"time_elapsed":355578,"internal_node_id":"0.0-14.0","task_version":"prescreen-v0.3","browser_interactions":0},{"responses":{"01":"No","02":"No","03":"Yes","03_ages_1":"1","04":"Yes","04_ages_2":"2","05":"No","06":"No","07":"No"},"rt":17784.5,"item_order":[0,1,2,3,4,5,6],"radio_events":[2473.2000002861023,3471.4000000953674,5155,7148.900000095367,10951.300000190735,11627.5,13939.5,16101.300000190735,17455.60000038147],"checkbox_events":[8209.700000286102,12363.400000095367],"key_events":[],"mouse_events":[2473.2000002861023,3471.4000000953674,5155,6307.400000095367,7148.900000095367,8209.700000286102,10951.300000190735,11627.5,12363.400000095367,13939.5,14765.10000038147,15509.400000095367,16101.300000190735,17202.200000286102,17455.60000038147,17781.200000286102],"honeypot":0,"survey":"mace","page":7,"trial_type":"survey-mace","trial_index":15,"time_elapsed":373367,"internal_node_id":"0.0-15.0","task_version":"prescreen-v0.3","browser_interactions":0},{"responses":{"01":"No","02":"No","03":"No","04":"No"},"rt":10161.900000095367,"item_order":[0,1,2,3],"radio_events":[5411.099999904633,6497.200000286102,8901.200000286102,9580.700000286102],"checkbox_events":[],"key_events":[],"mouse_events":[5411.099999904633,6497.200000286102,8180.599999904633,8901.200000286102,9580.700000286102,10158.700000286102],"honeypot":0,"survey":"mace","page":8,"trial_type":"survey-mace","trial_index":16,"time_elapsed":383533,"internal_node_id":"0.0-16.0","task_version":"prescreen-v0.3","browser_interactions":0},{"responses":{"01":"Yes","01_ages_1":"1","01_ages_2":"2","01_ages_3":"3","01_ages_4":"4","01_ages_5":"5","01_ages_6":"6","01_ages_7":"7","01_ages_8":"8","01_ages_9":"9","01_ages_10":"10","01_ages_11":"11","01_ages_12":"12","01_ages_13":"13","01_ages_14":"14","01_ages_15":"15","01_ages_16":"16","01_ages_17":"17","01_ages_18":"18","02":"Yes","02_ages_1":"1","02_ages_2":"2","02_ages_3":"3","02_ages_4":"4","02_ages_5":"5","02_ages_6":"6","02_ages_7":"7","02_ages_8":"8","02_ages_9":"9","02_ages_10":"10","02_ages_11":"11","02_ages_12":"12","02_ages_13":"13","02_ages_14":"14","02_ages_15":"15","02_ages_16":"16","02_ages_17":"17","02_ages_18":"18","03":"Yes","03_ages_1":"1","03_ages_2":"2","03_ages_3":"3","03_ages_4":"4","03_ages_5":"5","03_ages_6":"6","03_ages_7":"7","03_ages_8":"8","03_ages_9":"9","03_ages_10":"10","03_ages_11":"11","03_ages_12":"12","03_ages_13":"13","03_ages_14":"14","03_ages_15":"15","03_ages_16":"16","03_ages_17":"17","03_ages_18":"18","04":"Yes","04_ages_1":"1","04_ages_2":"2","04_ages_3":"3","04_ages_4":"4","04_ages_5":"5","04_ages_6":"6","04_ages_7":"7","04_ages_8":"8","04_ages_9":"9","04_ages_10":"10","04_ages_11":"11","04_ages_12":"12","04_ages_13":"13","04_ages_14":"14","04_ages_15":"15","04_ages_16":"16","04_ages_17":"17","04_ages_18":"18"},"rt":71176.59999990463,"item_order":[0,1,2,3],"radio_events":[4551.299999713898,29469.39999961853,44695.699999809265,59203.09999990463],"checkbox_events":[13693.5,14073.599999904633,14809.199999809265,15851.699999809265,16658.699999809265,17116.099999904633,17913.699999809265,18655,19447.5,19858.299999713898,20213.599999904633,21081.39999961853,22074.699999809265,22529.599999904633,23023.199999809265,23559.39999961853,24026.5,25094.699999809265,31966.199999809265,32659.699999809265,33189.59999990463,33687.199999809265,34397.7999997139,34879.199999809265,35452.09999990463,36229.39999961853,36781.5,37211.5,37871.7999997139,38179.89999961853,38835.89999961853,39515.699999809265,40007.5,40453.39999961853,40994.7999997139,41867.5,46111.699999809265,46467.2999997139,47120.39999961853,47623.09999990463,48303.2999997139,48645.09999990463,49303.09999990463,49679.89999961853,50362,50683.59999990463,51081.2999997139,51725.699999809265,52177.39999961853,53099.39999961853,53588,54375.5,55407.5,56082,60313.89999961853,60691.2999997139,61280.699999809265,61617.89999961853,62289.199999809265,62595.5,63223.59999990463,63687.699999809265,64445.89999961853,64939.5,66261.39999961853,67373.59999990463,67985.5,68360.2999997139,69221.5,69697.39999961853,70191.39999961853,70664.69999980927],"key_events":[],"mouse_events":[4551.299999713898,13693.5,14073.599999904633,14809.199999809265,15223.299999713898,15851.699999809265,16170.699999809265,16658.699999809265,17116.099999904633,17620.39999961853,17913.699999809265,18321.699999809265,18655,19033.799999713898,19447.5,19858.299999713898,20213.599999904633,20659.699999809265,21081.39999961853,21739.199999809265,22074.699999809265,22529.599999904633,23023.199999809265,23559.39999961853,24026.5,24743.799999713898,25094.699999809265,28389.599999904633,28751.39999961853,29141.599999904633,29469.39999961853,30696,31429.39999961853,31966.199999809265,32328.299999713898,32659.699999809265,33189.59999990463,33687.199999809265,34131.2999997139,34397.7999997139,34879.199999809265,35452.09999990463,35961.89999961853,36229.39999961853,36781.5,37211.5,37871.7999997139,38179.89999961853,38835.89999961853,39282.7999997139,39515.699999809265,40007.5,40453.39999961853,40994.7999997139,41867.5,44695.699999809265,46111.699999809265,46467.2999997139,47120.39999961853,47623.09999990463,48009.199999809265,48303.2999997139,48645.09999990463,48989.699999809265,49303.09999990463,49679.89999961853,50036.199999809265,50362,50683.59999990463,51081.2999997139,51725.699999809265,52177.39999961853,52690.2999997139,53099.39999961853,53588,54375.5,55407.5,56082,59203.09999990463,60313.89999961853,60691.2999997139,61280.699999809265,61617.89999961853,62289.199999809265,62595.5,63223.59999990463,63687.699999809265,64445.89999961853,64939.5,65806,66261.39999961853,67043.5,67373.59999990463,67985.5,68360.2999997139,69221.5,69697.39999961853,70191.39999961853,70664.69999980927,71174],"honeypot":0,"survey":"mace","page":9,"trial_type":"survey-mace","trial_index":17,"time_elapsed":454718,"internal_node_id":"0.0-17.0","task_version":"prescreen-v0.3","browser_interactions":0},{"responses":{"01":"No","02":"No","03":"No","04":"No","05":"No","06":"Yes","06_ages_17":"17","07":"Yes","07_ages_1":"1","07_ages_2":"2","07_ages_3":"3","07_ages_4":"4","07_ages_5":"5","07_ages_6":"6","07_ages_7":"7","07_ages_8":"8","07_ages_9":"9","07_ages_10":"10","07_ages_11":"11","07_ages_12":"12","07_ages_13":"13","07_ages_14":"14","07_ages_15":"15","07_ages_16":"16","07_ages_17":"17","07_ages_18":"18","08":"Yes","08_ages_1":"1","08_ages_2":"2","08_ages_3":"3","08_ages_4":"4","08_ages_5":"5","08_ages_6":"6","08_ages_7":"7","08_ages_8":"8","08_ages_9":"9","08_ages_10":"10","08_ages_11":"11","08_ages_12":"12","08_ages_13":"13","08_ages_14":"14","08_ages_15":"15","08_ages_16":"16","08_ages_17":"17","08_ages_18":"18"},"rt":51047,"item_order":[0,1,2,3,4,5,6,7],"radio_events":[7221.300000190735,8475.800000190735,10777.700000286102,11439,13955.400000095367,17031.400000095367,18909.900000095367,24861.200000286102,40813.40000009537],"checkbox_events":[21847.099999904633,26371.599999904633,27587.5,27981.200000286102,29175.300000190735,29807.300000190735,30379.900000095367,30777.200000286102,31151.400000095367,32186.800000190735,32593.200000286102,33057.800000190735,33419.2000002861,33798,34515.59999990463,34970.300000190735,36528.2000002861,36959.300000190735,37639.800000190735,41643.90000009537,42085.2000002861,42459.7000002861,43077.300000190735,43693.40000009537,44703.300000190735,45255.2000002861,45601,45946.09999990463,46293,46606.300000190735,46971.800000190735,47313.2000002861,47672.7000002861,48437.300000190735,48751.7000002861,49101.800000190735,49895.2000002861],"key_events":[],"mouse_events":[6328.400000095367,7221.300000190735,7737.300000190735,8475.800000190735,10777.700000286102,11439,13069.700000286102,13955.400000095367,17031.400000095367,18909.900000095367,21847.099999904633,24425.300000190735,24861.200000286102,26371.599999904633,27003.200000286102,27587.5,27981.200000286102,28445.400000095367,29175.300000190735,29807.300000190735,30379.900000095367,30777.200000286102,31151.400000095367,31535,32186.800000190735,32593.200000286102,33057.800000190735,33419.2000002861,33798,34515.59999990463,34970.300000190735,36030.300000190735,36528.2000002861,36959.300000190735,37639.800000190735,40813.40000009537,41643.90000009537,42085.2000002861,42459.7000002861,43077.300000190735,43693.40000009537,44703.300000190735,45255.2000002861,45601,45946.09999990463,46293,46606.300000190735,46971.800000190735,47313.2000002861,47672.7000002861,48025.300000190735,48437.300000190735,48751.7000002861,49101.800000190735,49435.2000002861,49895.2000002861,51040],"honeypot":0,"survey":"mace","page":10,"trial_type":"survey-mace","trial_index":18,"time_elapsed":505777,"internal_node_id":"0.0-18.0","task_version":"prescreen-v0.3","browser_interactions":2,"instructed":0},{"rt":3611.5,"trial_type":"mental-health-alert","trial_index":19,"time_elapsed":509391,"internal_node_id":"0.0-19.0","task_version":"prescreen-v0.3","interactions":"[{\"event\":\"blur\",\"trial\":2,\"time\":55358},{\"event\":\"focus\",\"trial\":2,\"time\":99262},{\"event\":\"blur\",\"trial\":2,\"time\":101725},{\"event\":\"focus\",\"trial\":2,\"time\":109855},{\"event\":\"blur\",\"trial\":3,\"time\":148451},{\"event\":\"focus\",\"trial\":3,\"time\":166225},{\"event\":\"blur\",\"trial\":5,\"time\":213781},{\"event\":\"focus\",\"trial\":5,\"time\":217758},{\"event\":\"blur\",\"trial\":7,\"time\":248113},{\"event\":\"focus\",\"trial\":7,\"time\":249915},{\"event\":\"blur\",\"trial\":18,\"time\":456826},{\"event\":\"focus\",\"trial\":18,\"time\":460968}]"}]