[{"view_history":[{"page_index":0,"viewing_time":2667},{"page_index":1,"viewing_time":2426.000000000001},{"page_index":2,"viewing_time":2855.999999999999},{"page_index":3,"viewing_time":1127}],"rt":9079,"trial_type":"instructions","trial_index":0,"time_elapsed":9086,"internal_node_id":"0.0-0.0","task_version":"prescreen-v0.3"},{"rt":13766,"responses":{"age":"22","gender-categorical":"Female","gender-free-response":"","ethnicity":"Not Hispanic or Latino","race":["White"],"education":"Some college"},"trial_type":"survey-demo","trial_index":1,"time_elapsed":22860,"internal_node_id":"0.0-1.0","task_version":"prescreen-v0.3"},{"responses":{"Q16":"1","Q02":"1","Q14":"2","Q05":"0","Q19":"0","Q21":"3","Q07":"1","Q13":"2","Q06":"1","Q09":"0","Q15":"1","Q12":"0","Q01":"0","Q04":"1","Q18":"0","Q11":"0","Q17":"0","Q10":"0","Q08":"2","Q03":"0","Q20":"0"},"rt":76098,"item_order":[15,1,13,4,18,20,6,12,5,8,14,11,0,3,17,10,16,9,7,2,19],"radio_events":[8401,10871,13492,18332,19539,22774,25381,31239,35099,38097,44967,46814,50426,51884,56279.000000000015,58714,61160.000000000015,62775,64803,68824,72781,75077],"key_events":[],"mouse_events":[8401,10871,13492,18332,19539,22774,25381,31239,35099,38097,44967,46814,50426,51884,56279.000000000015,58714,61160.000000000015,62775,64803,68824,72781,75077,76082],"straightlining":0.5238095238095238,"zigzagging":0.45,"honeypot":0,"survey":"sns","trial_type":"survey-template","trial_index":2,"time_elapsed":98967,"internal_node_id":"0.0-2.0","task_version":"prescreen-v0.3","browser_interactions":0,"infrequency":0},{"responses":{"Q09":"2","Q03":"3","Q04":"3","Q13":"0","Q01":"2","Q11":"2","Q07":"2","Q08":"3","Q05":"3","Q12":"1","Q02":"1","Q06":"3","Q10":"3"},"rt":77831,"item_order":[8,2,3,12,0,10,6,7,4,11,1,5,9],"radio_events":[5143,7988,10417,54385,56549,59556,61559,65163,67044,71006.00000000003,73282,75527,77085],"key_events":[],"mouse_events":[5143,7988,10417,54385,56549,59556,61559,65163,67044,71006.00000000003,73282,75527,77085,77819],"straightlining":0.46153846153846156,"zigzagging":0.25,"honeypot":0,"survey":"bisbas","trial_type":"survey-template","trial_index":3,"time_elapsed":176804,"internal_node_id":"0.0-3.0","task_version":"prescreen-v0.3","browser_interactions":0,"infrequency":0},{"responses":{"Q01":"3","Q02":"2","Q03":"2"},"rt":14969,"radio_events":[5463,9853,14057.00000000003],"key_events":[],"mouse_events":[5463,9853,14057.00000000003,14962.00000000003],"survey":"map","page":1,"trial_type":"survey-map","trial_index":4,"time_elapsed":191778,"internal_node_id":"0.0-4.0","task_version":"prescreen-v0.3","browser_interactions":0},{"responses":{"Q04":"3","Q05":"2","Q06":"3"},"rt":10505,"radio_events":[3128,6478.000000000029,9317.00000000003],"key_events":[],"mouse_events":[3128,6478.000000000029,8666,9317.00000000003,10499],"survey":"map","page":2,"trial_type":"survey-map","trial_index":5,"time_elapsed":202286,"internal_node_id":"0.0-5.0","task_version":"prescreen-v0.3","browser_interactions":0},{"responses":{"Q07":"4","Q08":"4","Q09":"4"},"rt":10748.99999999997,"radio_events":[3218.999999999971,7739.999999999971,10015.99999999997],"key_events":[],"mouse_events":[3218.999999999971,7739.999999999971,10015.99999999997,10742.99999999997],"survey":"map","page":3,"trial_type":"survey-map","trial_index":6,"time_elapsed":213038,"internal_node_id":"0.0-6.0","task_version":"prescreen-v0.3","browser_interactions":0},{"responses":{"Q10":"3","Q11":"2","Q12":"4","Q13":"3","Q16":"0","Q14":"3","Q15":"2"},"rt":76124,"radio_events":[3340,55709,61157,64417.00000000006,69928,72238,75382],"key_events":[],"mouse_events":[2781,3340,55709,61157,64417.00000000006,69928,72238,75382,76118],"survey":"map","page":4,"trial_type":"survey-map","trial_index":7,"time_elapsed":289169,"internal_node_id":"0.0-7.0","task_version":"prescreen-v0.3","browser_interactions":0,"infrequency":0},{"view_history":[{"page_index":0,"viewing_time":1610},{"page_index":1,"viewing_time":3728.000000000058}],"rt":5339,"trial_type":"instructions","trial_index":8,"time_elapsed":294509,"internal_node_id":"0.0-8.0","task_version":"prescreen-v0.3"},{"responses":{"01":"No","02":"No","03":"No","04":"No","05":"No","06":"No"},"rt":17627,"item_order":[0,1,2,3,4,5],"radio_events":[7292,10678,12453,13548,14994,16696],"checkbox_events":[],"key_events":[],"mouse_events":[0,7292,10678,12453,13548,14994,16696,17618],"honeypot":0,"survey":"mace","page":1,"trial_type":"survey-mace","trial_index":9,"time_elapsed":312146,"internal_node_id":"0.0-9.0","task_version":"prescreen-v0.3","browser_interactions":0},{"responses":{"01":"No","02":"No","03":"No","04":"No","05":"No","06":"No","07":"No","08":"No"},"rt":14903,"item_order":[0,1,2,3,4,5,6,7],"radio_events":[2393,4647,6470,8242,9785,11431,12526,13854],"checkbox_events":[],"key_events":[],"mouse_events":[2393,4647,6470,8242,9785,11431,12526,13854,14891],"honeypot":0,"survey":"mace","page":2,"trial_type":"survey-mace","trial_index":10,"time_elapsed":327056,"internal_node_id":"0.0-10.0","task_version":"prescreen-v0.3","browser_interactions":0},{"responses":{"01":"No","02":"No","03":"No","04":"No"},"rt":16021.000000000058,"item_order":[0,1,2,3],"radio_events":[8299,12872.000000000058,14159,15086.000000000058],"checkbox_events":[],"key_events":[],"mouse_events":[8299,12872.000000000058,14159,15086.000000000058,16013],"honeypot":0,"survey":"mace","page":3,"trial_type":"survey-mace","trial_index":11,"time_elapsed":343083,"internal_node_id":"0.0-11.0","task_version":"prescreen-v0.3","browser_interactions":0},{"responses":{"01":"No","02":"No"},"rt":4554.999999999942,"item_order":[0,1],"radio_events":[2501.999999999942,3519],"checkbox_events":[],"key_events":[],"mouse_events":[2501.999999999942,3519,4548],"honeypot":0,"survey":"mace","page":4,"trial_type":"survey-mace","trial_index":12,"time_elapsed":347643,"internal_node_id":"0.0-12.0","task_version":"prescreen-v0.3","browser_interactions":0},{"responses":{"01":"No","02":"No","03":"No","04":"No","05":"No"},"rt":11183.999999999942,"item_order":[0,1,2,3,4],"radio_events":[4142.999999999942,5575.999999999942,7539.999999999942,8530.999999999942,10178.999999999942],"checkbox_events":[],"key_events":[],"mouse_events":[4142.999999999942,5575.999999999942,7539.999999999942,8530.999999999942,10178.999999999942,11176.999999999942],"honeypot":0,"survey":"mace","page":5,"trial_type":"survey-mace","trial_index":13,"time_elapsed":358832,"internal_node_id":"0.0-13.0","task_version":"prescreen-v0.3","browser_interactions":0},{"responses":{"01":"No","02":"No","03":"Yes","03_ages_15":"15","03_ages_16":"16","03_ages_17":"17","04":"Yes","04_ages_15":"15","04_ages_16":"16","04_ages_17":"17","05":"No"},"rt":27505,"item_order":[0,1,2,3,4],"radio_events":[6119,8173,10584,21500,26648],"checkbox_events":[16818,17816,18482,22971,23650,24290],"key_events":[],"mouse_events":[6119,8173,10584,16818,17816,18482,21500,22971,23650,24290,26648,27492],"honeypot":0,"survey":"mace","page":6,"trial_type":"survey-mace","trial_index":14,"time_elapsed":386343,"internal_node_id":"0.0-14.0","task_version":"prescreen-v0.3","browser_interactions":0},{"responses":{"01":"No","02":"No","03":"No","04":"No","05":"No","06":"No","07":"No"},"rt":13783.000000000058,"item_order":[0,1,2,3,4,5,6],"radio_events":[3069,7220,8501,9905,10960,12012,12957],"checkbox_events":[],"key_events":[],"mouse_events":[3069,7220,8501,9905,10960,12012,12957,13773],"honeypot":0,"survey":"mace","page":7,"trial_type":"survey-mace","trial_index":15,"time_elapsed":400133,"internal_node_id":"0.0-15.0","task_version":"prescreen-v0.3","browser_interactions":0},{"responses":{"01":"No","02":"No","03":"No","04":"No"},"rt":11110,"item_order":[0,1,2,3],"radio_events":[5014,6658,9032,10181],"checkbox_events":[],"key_events":[],"mouse_events":[5014,6658,9032,10181,11099],"honeypot":0,"survey":"mace","page":8,"trial_type":"survey-mace","trial_index":16,"time_elapsed":411249,"internal_node_id":"0.0-16.0","task_version":"prescreen-v0.3","browser_interactions":0},{"responses":{"01":"Yes","01_ages_1":"1","01_ages_2":"2","01_ages_3":"3","01_ages_4":"4","01_ages_5":"5","01_ages_6":"6","01_ages_7":"7","01_ages_8":"8","01_ages_9":"9","01_ages_10":"10","01_ages_11":"11","01_ages_12":"12","01_ages_13":"13","01_ages_14":"14","01_ages_15":"15","01_ages_16":"16","01_ages_17":"17","01_ages_18":"18","02":"Yes","02_ages_1":"1","02_ages_2":"2","02_ages_3":"3","02_ages_4":"4","02_ages_5":"5","02_ages_6":"6","02_ages_7":"7","02_ages_8":"8","02_ages_9":"9","02_ages_10":"10","02_ages_11":"11","02_ages_12":"12","02_ages_13":"13","02_ages_14":"14","02_ages_15":"15","02_ages_16":"16","02_ages_17":"17","02_ages_18":"18","03":"Yes","03_ages_1":"1","03_ages_2":"2","03_ages_3":"3","03_ages_4":"4","03_ages_5":"5","03_ages_6":"6","03_ages_7":"7","03_ages_8":"8","03_ages_9":"9","03_ages_10":"10","03_ages_11":"11","03_ages_12":"12","03_ages_13":"13","03_ages_14":"14","03_ages_15":"15","03_ages_16":"16","03_ages_17":"17","03_ages_18":"18","04":"Yes","04_ages_1":"1","04_ages_2":"2","04_ages_3":"3","04_ages_4":"4","04_ages_5":"5","04_ages_6":"6","04_ages_7":"7","04_ages_8":"8","04_ages_9":"9","04_ages_10":"10","04_ages_11":"11","04_ages_12":"12","04_ages_13":"13","04_ages_15":"15","04_ages_16":"16","04_ages_17":"17","04_ages_18":"18"},"rt":85068,"item_order":[0,1,2,3],"radio_events":[4809,25431,34980,37695],"checkbox_events":[6890,7924,8740,12859,13595.000000000058,14323,15848,16411,17056,17849,18433,19248,20053,21053,21917.00000000006,22722,23391,24009,29472,30264,31041,40421,41021,41596,42131.00000000006,42651,43345.00000000006,43983,44579,45353,46559,47207,47846,48628,49322,49897,56125,56714,57340.00000000006,57945,59087,59680,60228,61038,61483,62157,62681,63361,64164,64825,65474,66600,67217,67983,68862,69723,70348,71131.00000000006,72923,73734,74407,75556,76157,77388.00000000006,78115,78786,79410,80983,81885,82535,83108],"key_events":[],"mouse_events":[4809,6890,7924,8740,12859,13595.000000000058,14323,15848,16411,17056,17849,18433,19248,20053,21053,21917.00000000006,22722,23391,24009,25431,28929.00000000006,29472,30264,31041,34980,37695,40421,41021,41596,42131.00000000006,42651,43345.00000000006,43983,44579,45353,46048,46559,47207,47846,48628,49322,49897,53198,56125,56714,57340.00000000006,57945,58522,59087,59680,60228,61038,61483,62157,62681,63361,64164,64825,65474,66048,66600,67217,67983,68862,69723,70348,71131.00000000006,72923,73734,74407,75046,75556,76157,76805,77388.00000000006,78115,78786,79410,80983,81885,82535,83108,85058],"honeypot":0,"survey":"mace","page":9,"trial_type":"survey-mace","trial_index":17,"time_elapsed":496328,"internal_node_id":"0.0-17.0","task_version":"prescreen-v0.3","browser_interactions":0},{"responses":{"01":"No","02":"No","03":"No","04":"No","05":"No","06":"Yes","06_ages_17":"17","07":"Yes","07_ages_18":"18","08":"Yes","08_ages_18":"18"},"rt":23082.00000000006,"item_order":[0,1,2,3,4,5,6,7],"radio_events":[2901,3933,5410,6921,9017,10886,15387.999999999942,19296],"checkbox_events":[12998.000000000058,21295,22267.99999999994],"key_events":[],"mouse_events":[2901,3933,5410,6921,9017,10886,12998.000000000058,15387.999999999942,19296,21295,22267.99999999994,23068.00000000006],"honeypot":0,"survey":"mace","page":10,"trial_type":"survey-mace","trial_index":18,"time_elapsed":519417,"internal_node_id":"0.0-18.0","task_version":"prescreen-v0.3","browser_interactions":0,"instructed":0},{"rt":6034.999999999942,"trial_type":"mental-health-alert","trial_index":19,"time_elapsed":525457,"internal_node_id":"0.0-19.0","task_version":"prescreen-v0.3","interactions":"[]"}]