[{"view_history":[{"page_index":0,"viewing_time":5946.800000011921},{"page_index":1,"viewing_time":4463.5999999940395},{"page_index":2,"viewing_time":4584.199999988079},{"page_index":3,"viewing_time":1960}],"rt":16955.30000001192,"trial_type":"instructions","trial_index":0,"time_elapsed":16987,"internal_node_id":"0.0-0.0","task_version":"prescreen-v0.3"},{"rt":41106.39999997616,"responses":{"age":"57","gender-categorical":"Female","gender-free-response":"","ethnicity":"Not Hispanic or Latino","race":["White"],"education":"Bachelor degree"},"trial_type":"survey-demo","trial_index":1,"time_elapsed":58100,"internal_node_id":"0.0-1.0","task_version":"prescreen-v0.3"},{"responses":{"Q05":"3","Q07":"3","Q08":"2","Q14":"0","Q18":"0","Q13":"2","Q11":"1","Q10":"2","Q15":"1","Q12":"2","Q17":"2","Q21":"1","Q09":"0","Q19":"0","Q04":"1","Q16":"1","Q01":"1","Q06":"1","Q02":"2","Q20":"3","Q03":"1"},"rt":363029.40000000596,"item_order":[4,6,7,13,17,12,10,9,14,11,16,20,8,18,3,15,0,5,1,19,2],"radio_events":[18843.80000001192,31563.59999999404,41115.59999999404,94635.69999998808,120627.69999998808,136067.59999999404,151275.59999999404,165451.59999999404,198235.59999999404,207187.80000001192,219331.69999998808,249507.5,259539.80000001192,271259.90000000596,283388.1999999881,298908.3000000119,325883.6999999881,333483.8000000119,347228,353580.09999999404,360500.09999999404],"key_events":[],"mouse_events":[18843.80000001192,31563.59999999404,41115.59999999404,94635.69999998808,120627.69999998808,136067.59999999404,151275.59999999404,165451.59999999404,198235.59999999404,207187.80000001192,219331.69999998808,249507.5,259539.80000001192,271259.90000000596,283388.1999999881,298908.3000000119,324403.8000000119,325883.6999999881,333483.8000000119,347228,353580.09999999404,360500.09999999404,363027.90000000596],"straightlining":0.38095238095238093,"zigzagging":0.5,"honeypot":0,"survey":"sns","trial_type":"survey-template","trial_index":2,"time_elapsed":421133,"internal_node_id":"0.0-2.0","task_version":"prescreen-v0.3","browser_interactions":6,"infrequency":1},{"responses":{"Q06":"2","Q05":"3","Q09":"2","Q13":"0","Q01":"3","Q11":"2","Q10":"3","Q07":"3","Q03":"2","Q08":"2","Q12":"0","Q04":"3","Q02":"3"},"rt":246227.90000000596,"item_order":[5,4,8,12,0,10,9,6,2,7,11,3,1],"radio_events":[43898.5,51562.40000000596,60258.59999999404,65858.5,71242.69999998808,75818.40000000596,92226.40000000596,135346.40000000596,142338.59999999404,153618.59999999404,163474.59999999404,229034.59999999404,239410.90000000596,245259.19999998808],"key_events":[],"mouse_events":[43898.5,51562.40000000596,60258.59999999404,65858.5,71242.69999998808,75818.40000000596,92226.40000000596,135346.40000000596,142338.59999999404,153618.59999999404,163474.59999999404,229034.59999999404,239410.90000000596,245259.19999998808,246226.69999998808],"straightlining":0.46153846153846156,"zigzagging":0.5833333333333334,"honeypot":0,"survey":"bisbas","trial_type":"survey-template","trial_index":3,"time_elapsed":667365,"internal_node_id":"0.0-3.0","task_version":"prescreen-v0.3","browser_interactions":6,"infrequency":0},{"responses":{"Q01":"3","Q02":"2","Q03":"3"},"rt":51228.70000001788,"radio_events":[17684,28756.09999999404,39084],"key_events":[],"mouse_events":[17684,28756.09999999404,39084,51228.20000001788],"survey":"map","page":1,"trial_type":"survey-map","trial_index":4,"time_elapsed":718596,"internal_node_id":"0.0-4.0","task_version":"prescreen-v0.3","browser_interactions":0},{"responses":{"Q04":"3","Q05":"3","Q06":"3"},"rt":36861.30000001192,"radio_events":[17165.20000001788,29788.80000001192,34876.90000000596],"key_events":[],"mouse_events":[17165.20000001788,29788.80000001192,34876.90000000596,36860.90000000596],"survey":"map","page":2,"trial_type":"survey-map","trial_index":5,"time_elapsed":755459,"internal_node_id":"0.0-5.0","task_version":"prescreen-v0.3","browser_interactions":0},{"responses":{"Q07":"0","Q08":"0","Q09":"3"},"rt":25926.70000001788,"radio_events":[13566.09999999404,18582,24774],"key_events":[],"mouse_events":[13566.09999999404,18582,24774,25926.30000001192],"survey":"map","page":3,"trial_type":"survey-map","trial_index":6,"time_elapsed":781388,"internal_node_id":"0.0-6.0","task_version":"prescreen-v0.3","browser_interactions":0},{"responses":{"Q10":"3","Q11":"3","Q12":"2","Q13":"4","Q16":"0","Q14":"3","Q15":"2"},"rt":59950.40000000596,"radio_events":[9253.40000000596,16253.800000011921,32405.5,43125.5,48517.70000001788,54245.59999999404,58533.40000000596],"key_events":[],"mouse_events":[9253.40000000596,16253.800000011921,32405.5,43125.5,48517.70000001788,54245.59999999404,58533.40000000596,59949.5],"survey":"map","page":4,"trial_type":"survey-map","trial_index":7,"time_elapsed":841340,"internal_node_id":"0.0-7.0","task_version":"prescreen-v0.3","browser_interactions":0,"infrequency":0},{"view_history":[{"page_index":0,"viewing_time":3533.5},{"page_index":1,"viewing_time":3687.800000011921}],"rt":7221.600000023842,"trial_type":"instructions","trial_index":8,"time_elapsed":848563,"internal_node_id":"0.0-8.0","task_version":"prescreen-v0.3"},{"responses":{"01":"No","02":"No","03":"No","04":"No","05":"No","06":"No"},"rt":41302.69999998808,"item_order":[0,1,2,3,4,5],"radio_events":[21861,26996.59999999404,33100.39999997616,33964.69999998808,37148.39999997616,40364.5],"checkbox_events":[],"key_events":[],"mouse_events":[0.09999999403953552,21861,26996.59999999404,30804.5,33100.39999997616,33964.69999998808,37148.39999997616,40364.5,41300.69999998808],"honeypot":0,"survey":"mace","page":1,"trial_type":"survey-mace","trial_index":9,"time_elapsed":889871,"internal_node_id":"0.0-9.0","task_version":"prescreen-v0.3","browser_interactions":0},{"responses":{"01":"No","02":"No","03":"No","04":"No","05":"No","06":"No","07":"No","08":"No"},"rt":21484.5,"item_order":[0,1,2,3,4,5,6,7],"radio_events":[7705.800000011921,9489.800000011921,11977.700000017881,13425.90000000596,15417.800000011921,16713.70000001788,18777.90000000596,20721.80000001192],"checkbox_events":[],"key_events":[],"mouse_events":[7705.800000011921,9489.800000011921,11977.700000017881,13425.90000000596,15417.800000011921,16713.70000001788,18777.90000000596,20721.80000001192,21481.90000000596],"honeypot":0,"survey":"mace","page":2,"trial_type":"survey-mace","trial_index":10,"time_elapsed":911359,"internal_node_id":"0.0-10.0","task_version":"prescreen-v0.3","browser_interactions":0},{"responses":{"01":"No","02":"No","03":"No","04":"No"},"rt":11515.59999999404,"item_order":[0,1,2,3],"radio_events":[5218.4000000059605,6186.4000000059605,8466.200000017881,10658.300000011921],"checkbox_events":[],"key_events":[],"mouse_events":[5218.4000000059605,6186.4000000059605,8466.200000017881,10658.300000011921,11514.200000017881],"honeypot":0,"survey":"mace","page":3,"trial_type":"survey-mace","trial_index":11,"time_elapsed":922877,"internal_node_id":"0.0-11.0","task_version":"prescreen-v0.3","browser_interactions":0},{"responses":{"01":"No","02":"No"},"rt":7605.300000011921,"item_order":[0,1],"radio_events":[2652.5,4341],"checkbox_events":[],"key_events":[],"mouse_events":[2652.5,4341,7604.600000023842],"honeypot":0,"survey":"mace","page":4,"trial_type":"survey-mace","trial_index":12,"time_elapsed":930484,"internal_node_id":"0.0-12.0","task_version":"prescreen-v0.3","browser_interactions":0},{"responses":{"01":"No","02":"No","03":"No","04":"No","05":"No"},"rt":32270.69999998808,"item_order":[0,1,2,3,4],"radio_events":[19957.29999998212,23141,25332.90000000596,27772.79999998212,31388.90000000596],"checkbox_events":[],"key_events":[],"mouse_events":[19957.29999998212,23141,25332.90000000596,27772.79999998212,31388.90000000596,32269],"honeypot":0,"survey":"mace","page":5,"trial_type":"survey-mace","trial_index":13,"time_elapsed":962757,"internal_node_id":"0.0-13.0","task_version":"prescreen-v0.3","browser_interactions":0},{"responses":{"01":"No","02":"No","03":"No","04":"No","05":"No"},"rt":39158.09999999404,"item_order":[0,1,2,3,4],"radio_events":[19451.80000001192,23987.80000001192,28763.90000000596,33659.90000000596,37795.70000001788],"checkbox_events":[],"key_events":[],"mouse_events":[19451.80000001192,23987.80000001192,28763.90000000596,33659.90000000596,37795.70000001788,39156.40000000596],"honeypot":0,"survey":"mace","page":6,"trial_type":"survey-mace","trial_index":14,"time_elapsed":1001918,"internal_node_id":"0.0-14.0","task_version":"prescreen-v0.3","browser_interactions":0},{"responses":{"01":"No","02":"No","03":"No","04":"No","05":"No","06":"No","07":"No"},"rt":20556.90000000596,"item_order":[0,1,2,3,4,5,6],"radio_events":[6906.300000011921,9530.100000023842,11522.40000000596,13018.600000023842,14210.200000017881,17794.600000023842,19794.20000001788],"checkbox_events":[],"key_events":[],"mouse_events":[6906.300000011921,9530.100000023842,11522.40000000596,13018.600000023842,14210.200000017881,17794.600000023842,19794.20000001788,20554.600000023842],"honeypot":0,"survey":"mace","page":7,"trial_type":"survey-mace","trial_index":15,"time_elapsed":1022479,"internal_node_id":"0.0-15.0","task_version":"prescreen-v0.3","browser_interactions":0},{"responses":{"01":"No","02":"Yes","02_ages_12":"12","02_ages_13":"13","02_ages_14":"14","02_ages_15":"15","02_ages_16":"16","02_ages_17":"17","03":"No","04":"No"},"rt":87395.90000000596,"item_order":[0,1,2,3],"radio_events":[13330.5,37946.40000000596,73706.40000000596,85410.40000000596],"checkbox_events":[55378.90000000596,56186.5,56786.5,58010.80000001192,58666.40000000596,60162.30000001192],"key_events":[],"mouse_events":[13330.5,37946.40000000596,55378.90000000596,56186.5,56786.5,58010.80000001192,58666.40000000596,60162.30000001192,73706.40000000596,85410.40000000596,87394.5],"honeypot":0,"survey":"mace","page":8,"trial_type":"survey-mace","trial_index":16,"time_elapsed":1109878,"internal_node_id":"0.0-16.0","task_version":"prescreen-v0.3","browser_interactions":0},{"responses":{"01":"Yes","01_ages_4":"4","01_ages_5":"5","01_ages_6":"6","01_ages_7":"7","01_ages_8":"8","01_ages_9":"9","01_ages_10":"10","01_ages_11":"11","01_ages_12":"12","01_ages_13":"13","01_ages_14":"14","01_ages_15":"15","01_ages_16":"16","01_ages_17":"17","01_ages_18":"18","02":"Yes","02_ages_4":"4","02_ages_5":"5","02_ages_6":"6","02_ages_7":"7","02_ages_8":"8","02_ages_9":"9","02_ages_10":"10","02_ages_11":"11","02_ages_12":"12","02_ages_13":"13","02_ages_14":"14","02_ages_15":"15","02_ages_16":"16","02_ages_17":"17","03":"Yes","03_ages_1":"1","03_ages_2":"2","03_ages_3":"3","03_ages_4":"4","03_ages_5":"5","03_ages_6":"6","03_ages_7":"7","03_ages_8":"8","03_ages_9":"9","03_ages_10":"10","03_ages_11":"11","03_ages_12":"12","03_ages_13":"13","03_ages_14":"14","03_ages_15":"15","03_ages_16":"16","03_ages_17":"17","03_ages_18":"18","04":"Yes","04_ages_1":"1","04_ages_2":"2","04_ages_3":"3","04_ages_4":"4","04_ages_5":"5","04_ages_6":"6","04_ages_7":"7","04_ages_8":"8","04_ages_9":"9","04_ages_10":"10","04_ages_11":"11","04_ages_12":"12","04_ages_13":"13","04_ages_14":"14","04_ages_15":"15","04_ages_16":"16","04_ages_17":"17","04_ages_18":"18"},"rt":97917.69999998808,"item_order":[0,1,2,3],"radio_events":[8620.40000000596,40564.09999999404,59700.09999999404,81868.19999998808],"checkbox_events":[21788.09999999404,22380.19999998808,23100.5,23676.09999999404,24300.5,24932.09999999404,25596.19999998808,26420.09999999404,26964,27516.29999998212,28100.09999999404,28660,29300,29908.09999999404,33828,42956.09999999404,43836.29999998212,44492.19999998808,45139.90000000596,45692.09999999404,46316.40000000596,46996.09999999404,47596.19999998808,48236.29999998212,48964.09999999404,49940.09999999404,50788.09999999404,51684.19999998808,52820.69999998808,61412.09999999404,62140.29999998212,62900.19999998808,63476.19999998808,64140.19999998808,64747.90000000596,65276,65876,66332.09999999404,66972.09999999404,67668.09999999404,68228.09999999404,68964.09999999404,69716.09999999404,70492.19999998808,71820.79999998212,72580.5,73468,83556.09999999404,84244.5,84955.90000000596,85603.90000000596,86268.09999999404,87259.90000000596,87908.09999999404,88596.90000000596,89244.09999999404,89956.09999999404,90564.09999999404,91380.09999999404,92116.5,92708.19999998808,93468.19999998808,94140.19999998808,94852.09999999404,95772.19999998808],"key_events":[],"mouse_events":[8620.40000000596,21788.09999999404,22380.19999998808,23100.5,23676.09999999404,24300.5,24932.09999999404,25596.19999998808,26420.09999999404,26964,27516.29999998212,28100.09999999404,28660,29300,29908.09999999404,33828,40564.09999999404,42956.09999999404,43836.29999998212,44492.19999998808,45139.90000000596,45692.09999999404,46316.40000000596,46996.09999999404,47596.19999998808,48236.29999998212,48964.09999999404,49940.09999999404,50788.09999999404,51684.19999998808,52820.69999998808,53971.90000000596,59700.09999999404,61412.09999999404,62140.29999998212,62900.19999998808,63476.19999998808,64140.19999998808,64747.90000000596,65276,65876,66332.09999999404,66972.09999999404,67668.09999999404,68228.09999999404,68964.09999999404,69716.09999999404,70492.19999998808,71820.79999998212,72580.5,73468,80316.09999999404,81868.19999998808,83556.09999999404,84244.5,84955.90000000596,85603.90000000596,86268.09999999404,87259.90000000596,87908.09999999404,88596.90000000596,89244.09999999404,89956.09999999404,90564.09999999404,91380.09999999404,92116.5,92708.19999998808,93468.19999998808,94140.19999998808,94852.09999999404,95772.19999998808,97916.40000000596],"honeypot":0,"survey":"mace","page":9,"trial_type":"survey-mace","trial_index":17,"time_elapsed":1207798,"internal_node_id":"0.0-17.0","task_version":"prescreen-v0.3","browser_interactions":0},{"responses":{"01":"No","02":"No","03":"No","04":"No","05":"No","06":"Yes","06_ages_17":"17","07":"Yes","07_ages_4":"4","07_ages_5":"5","07_ages_6":"6","07_ages_7":"7","07_ages_8":"8","07_ages_9":"9","07_ages_10":"10","07_ages_11":"11","07_ages_12":"12","07_ages_13":"13","07_ages_14":"14","07_ages_15":"15","07_ages_16":"16","07_ages_17":"17","07_ages_18":"18","08":"Yes","08_ages_1":"1","08_ages_2":"2","08_ages_3":"3","08_ages_4":"4","08_ages_5":"5","08_ages_6":"6","08_ages_7":"7","08_ages_8":"8","08_ages_9":"9","08_ages_10":"10","08_ages_11":"11","08_ages_12":"12","08_ages_13":"13","08_ages_14":"14","08_ages_15":"15","08_ages_16":"16","08_ages_17":"17","08_ages_18":"18"},"rt":126357.90000000596,"item_order":[0,1,2,3,4,5,6,7],"radio_events":[15731.59999999404,17987.09999999404,25571,29411.09999999404,35178.90000000596,48475,96979.09999999404,123619.40000000596],"checkbox_events":[37243,78571,82795.19999998808,83955.09999999404,84539,85283,85747,86563.09999999404,87051,87514.90000000596,88083.5,89787.09999999404,90323.09999999404,91043,91851.09999999404,92619,101051.59999999404,101771.09999999404,102411,103155.30000001192,103827.30000001192,104419.19999998808,104963.09999999404,105859.40000000596,106371.09999999404,107083.19999998808,107627.19999998808,108147.09999999404,109099,109803.09999999404,110603.09999999404,111451.19999998808,111971.09999999404,112491],"key_events":[],"mouse_events":[15731.59999999404,17987.09999999404,20667.40000000596,25571,29411.09999999404,35178.90000000596,37243,48475,78571,79803,82795.19999998808,83955.09999999404,84539,85283,85747,86563.09999999404,87051,87514.90000000596,88083.5,88811.19999998808,89787.09999999404,90323.09999999404,91043,91851.09999999404,92619,95963.09999999404,96979.09999999404,101051.59999999404,101771.09999999404,102411,103155.30000001192,103827.30000001192,104419.19999998808,104963.09999999404,105859.40000000596,106371.09999999404,107083.19999998808,107627.19999998808,108147.09999999404,109099,109803.09999999404,110603.09999999404,111451.19999998808,111971.09999999404,112491,113123.19999998808,117019.19999998808,123619.40000000596,126355.40000000596],"honeypot":0,"survey":"mace","page":10,"trial_type":"survey-mace","trial_index":18,"time_elapsed":1334159,"internal_node_id":"0.0-18.0","task_version":"prescreen-v0.3","browser_interactions":2,"instructed":0},{"rt":8970.700000017881,"trial_type":"mental-health-alert","trial_index":19,"time_elapsed":1343131,"internal_node_id":"0.0-19.0","task_version":"prescreen-v0.3","interactions":"[{\"event\":\"blur\",\"trial\":2,\"time\":111489},{\"event\":\"focus\",\"trial\":2,\"time\":129470},{\"event\":\"blur\",\"trial\":2,\"time\":201963},{\"event\":\"focus\",\"trial\":2,\"time\":209206},{\"event\":\"blur\",\"trial\":2,\"time\":288132},{\"event\":\"focus\",\"trial\":2,\"time\":298740},{\"event\":\"blur\",\"trial\":3,\"time\":438820},{\"event\":\"focus\",\"trial\":3,\"time\":456308},{\"event\":\"blur\",\"trial\":3,\"time\":521404},{\"event\":\"focus\",\"trial\":3,\"time\":544061},{\"event\":\"blur\",\"trial\":3,\"time\":594996},{\"event\":\"focus\",\"trial\":3,\"time\":639623},{\"event\":\"blur\",\"trial\":18,\"time\":1260781},{\"event\":\"focus\",\"trial\":18,\"time\":1279390}]"}]