[{"view_history":[{"page_index":0,"viewing_time":6121},{"page_index":1,"viewing_time":5224},{"page_index":2,"viewing_time":5665},{"page_index":3,"viewing_time":2139}],"rt":19150,"trial_type":"instructions","trial_index":0,"time_elapsed":19156,"internal_node_id":"0.0-0.0","task_version":"prescreen-v0.3"},{"rt":14420,"responses":{"age":"47","gender-categorical":"Male","gender-free-response":"","ethnicity":"Not Hispanic or Latino","race":["White"],"education":"Bachelor degree"},"trial_type":"survey-demo","trial_index":1,"time_elapsed":33582,"internal_node_id":"0.0-1.0","task_version":"prescreen-v0.3"},{"responses":{"Q02":"1","Q05":"1","Q20":"0","Q11":"2","Q14":"2","Q10":"0","Q16":"2","Q01":"2","Q04":"1","Q08":"2","Q17":"2","Q03":"2","Q15":"2","Q13":"2","Q09":"2","Q19":"1","Q12":"1","Q18":"2","Q07":"0","Q06":"1","Q21":"3"},"rt":146217,"item_order":[1,4,19,10,13,9,15,0,3,7,16,2,14,12,8,18,11,17,6,5,20],"radio_events":[10707,27793.000000000007,32948,38292,45318,50575,55846,64788,70202,73485,76982,85558,87521,94065.00000000001,101855,109525,115528,122295,131589,136890,143822.00000000003],"key_events":[],"mouse_events":[10707,27793.000000000007,32948,38292,45318,50575,55846,64788,70202,73485,76982,80640,85558,87521,94065.00000000001,101855,109525,115528,122295,131589,136890,143822.00000000003,146207],"straightlining":0.5238095238095238,"zigzagging":0.3,"honeypot":0,"survey":"sns","trial_type":"survey-template","trial_index":2,"time_elapsed":179808,"internal_node_id":"0.0-2.0","task_version":"prescreen-v0.3","browser_interactions":0,"infrequency":0},{"responses":{"Q05":"2","Q13":"0","Q04":"2","Q11":"1","Q02":"3","Q01":"2","Q09":"1","Q07":"2","Q03":"3","Q08":"3","Q06":"3","Q12":"1","Q10":"0"},"rt":73432,"item_order":[4,12,3,10,1,0,8,6,2,7,5,11,9],"radio_events":[9372,16057,25804,30037,35697,38419,41915.00000000003,46283,50701,57110,63382,67610,72369],"key_events":[],"mouse_events":[9372,16057,24689,25804,30037,35697,38419,41915.00000000003,46283,50701,57110,63382,67610,72369,73427.00000000003],"straightlining":0.3076923076923077,"zigzagging":0.5,"honeypot":0,"survey":"bisbas","trial_type":"survey-template","trial_index":3,"time_elapsed":253245,"internal_node_id":"0.0-3.0","task_version":"prescreen-v0.3","browser_interactions":0,"infrequency":0},{"responses":{"Q01":"1","Q02":"0","Q03":"2"},"rt":28028,"radio_events":[11806,18786,26811],"key_events":[],"mouse_events":[11806,18786,26811,28026],"survey":"map","page":1,"trial_type":"survey-map","trial_index":4,"time_elapsed":281278,"internal_node_id":"0.0-4.0","task_version":"prescreen-v0.3","browser_interactions":0},{"responses":{"Q04":"1","Q05":"1","Q06":"2"},"rt":18046,"radio_events":[8021,12168,16298],"key_events":[],"mouse_events":[8021,12168,16298,18043],"survey":"map","page":2,"trial_type":"survey-map","trial_index":5,"time_elapsed":299328,"internal_node_id":"0.0-5.0","task_version":"prescreen-v0.3","browser_interactions":0},{"responses":{"Q07":"1","Q08":"1","Q09":"2"},"rt":27824,"radio_events":[13282,22942,26951],"key_events":[],"mouse_events":[13282,22942,26951,27821],"survey":"map","page":3,"trial_type":"survey-map","trial_index":6,"time_elapsed":327157,"internal_node_id":"0.0-6.0","task_version":"prescreen-v0.3","browser_interactions":0},{"responses":{"Q10":"1","Q11":"0","Q12":"2","Q13":"2","Q16":"0","Q14":"3","Q15":"4"},"rt":44560,"radio_events":[5410,10047,16925,20424,28944,35224,38487.00000000006,41985,43546],"key_events":[],"mouse_events":[5410,10047,16925,20424,28944,35224,37867,38487.00000000006,41985,43546,44555],"survey":"map","page":4,"trial_type":"survey-map","trial_index":7,"time_elapsed":371721,"internal_node_id":"0.0-7.0","task_version":"prescreen-v0.3","browser_interactions":0,"infrequency":0},{"view_history":[{"page_index":0,"viewing_time":3819.999999999942},{"page_index":1,"viewing_time":6346}],"rt":10166.999999999942,"trial_type":"instructions","trial_index":8,"time_elapsed":381891,"internal_node_id":"0.0-8.0","task_version":"prescreen-v0.3"},{"responses":{"01":"No","02":"No","03":"No","04":"No","05":"No","06":"No"},"rt":29406,"item_order":[0,1,2,3,4,5],"radio_events":[12818,17028,20297,22120,24328.00000000006,27924.00000000006],"checkbox_events":[],"key_events":[],"mouse_events":[0,12818,17028,20297,22120,24328.00000000006,27924.00000000006,29400.00000000006],"honeypot":0,"survey":"mace","page":1,"trial_type":"survey-mace","trial_index":9,"time_elapsed":411304,"internal_node_id":"0.0-9.0","task_version":"prescreen-v0.3","browser_interactions":0},{"responses":{"01":"No","02":"No","03":"Yes","03_ages_6":"6","03_ages_7":"7","03_ages_8":"8","03_ages_9":"9","03_ages_10":"10","04":"Yes","04_ages_5":"5","04_ages_6":"6","04_ages_7":"7","04_ages_8":"8","05":"No","06":"Yes","06_ages_5":"5","06_ages_6":"6","06_ages_7":"7","06_ages_8":"8","07":"Yes","07_ages_5":"5","07_ages_6":"6","07_ages_7":"7","08":"Yes","08_ages_5":"5","08_ages_6":"6","08_ages_7":"7","08_ages_8":"8"},"rt":98745.99999999994,"item_order":[0,1,2,3,4,5,6,7],"radio_events":[16024.999999999942,38577.99999999994,46577.99999999994,62649,69298,79347.99999999994,80603.99999999994,88250],"checkbox_events":[24113.99999999994,25637,26329.99999999994,31395.99999999994,32115.99999999994,64917.99999999994,65717.99999999994,66298,71488.99999999994,72101,72777.99999999994,73363.99999999994,82036,83048,83473.99999999994,84503.99999999994,92086.99999999994,92697.99999999994,93188.99999999994,93964.99999999994],"key_events":[],"mouse_events":[16024.999999999942,24113.99999999994,25637,26329.99999999994,31395.99999999994,32115.99999999994,38577.99999999994,46577.99999999994,62649,64917.99999999994,65717.99999999994,66298,69298,71488.99999999994,72101,72777.99999999994,73363.99999999994,79347.99999999994,80603.99999999994,82036,83048,83473.99999999994,84503.99999999994,88250,92086.99999999994,92697.99999999994,93188.99999999994,93964.99999999994,98734.99999999994],"honeypot":0,"survey":"mace","page":2,"trial_type":"survey-mace","trial_index":10,"time_elapsed":510055,"internal_node_id":"0.0-10.0","task_version":"prescreen-v0.3","browser_interactions":0},{"responses":{"01":"No","02":"No","03":"No","04":"No"},"rt":15003,"item_order":[0,1,2,3],"radio_events":[5900,8828,10545,12727],"checkbox_events":[],"key_events":[],"mouse_events":[5900,8828,10545,12727,14998],"honeypot":0,"survey":"mace","page":3,"trial_type":"survey-mace","trial_index":11,"time_elapsed":525063,"internal_node_id":"0.0-11.0","task_version":"prescreen-v0.3","browser_interactions":0},{"responses":{"01":"Yes","01_ages_5":"5","01_ages_6":"6","01_ages_7":"7","01_ages_8":"8","01_ages_9":"9","01_ages_10":"10","02":"Yes","02_ages_5":"5","02_ages_6":"6","02_ages_7":"7","02_ages_8":"8"},"rt":25967.000000000116,"item_order":[0,1],"radio_events":[7958,20673],"checkbox_events":[9165,9704,10234,10935,12490,14116,22025.000000000116,22539,23086,24610],"key_events":[],"mouse_events":[7958,9165,9704,10234,10935,12490,14116,20673,22025.000000000116,22539,23086,24610,25962],"honeypot":0,"survey":"mace","page":4,"trial_type":"survey-mace","trial_index":12,"time_elapsed":551035,"internal_node_id":"0.0-12.0","task_version":"prescreen-v0.3","browser_interactions":0},{"responses":{"01":"No","02":"No","03":"No","04":"No","05":"No"},"rt":21184,"item_order":[0,1,2,3,4],"radio_events":[8102,11384,14924.000000000116,18655,20251],"checkbox_events":[],"key_events":[],"mouse_events":[8102,11384,14924.000000000116,18655,20251,21177],"honeypot":0,"survey":"mace","page":5,"trial_type":"survey-mace","trial_index":13,"time_elapsed":572228,"internal_node_id":"0.0-13.0","task_version":"prescreen-v0.3","browser_interactions":0},{"responses":{"01":"Yes","01_ages_5":"5","01_ages_6":"6","01_ages_7":"7","01_ages_8":"8","01_ages_9":"9","01_ages_10":"10","01_ages_11":"11","01_ages_12":"12","01_ages_13":"13","01_ages_14":"14","01_ages_15":"15","01_ages_16":"16","02":"Yes","02_ages_5":"5","02_ages_6":"6","02_ages_7":"7","02_ages_8":"8","02_ages_9":"9","02_ages_10":"10","02_ages_11":"11","02_ages_12":"12","02_ages_13":"13","02_ages_14":"14","02_ages_15":"15","02_ages_16":"16","03":"No","04":"No","05":"Yes","05_ages_5":"5","05_ages_6":"6","05_ages_7":"7","05_ages_8":"8","05_ages_9":"9"},"rt":54698,"item_order":[0,1,2,3,4],"radio_events":[7789,24153,40475,44684,48124],"checkbox_events":[12487,13084.000000000116,13501,14024,14643,15223,15753,16583,17198,17728.000000000116,18380,19073,25884,26284,26638,27717,28371,29000,29988,30649,31323,31886,33565,36074.00000000012,49459.00000000012,49966,51004,51740,52617],"key_events":[],"mouse_events":[7789,12487,13084.000000000116,13501,14024,14643,15223,15753,16583,17198,17728.000000000116,18380,19073,24153,25884,26284,26638,27049,27717,28371,29000,29988,30649,31323,31886,33565,36074.00000000012,40475,44684,48124,49459.00000000012,49966,50449.00000000012,51004,51740,52617,54692],"honeypot":0,"survey":"mace","page":6,"trial_type":"survey-mace","trial_index":14,"time_elapsed":626934,"internal_node_id":"0.0-14.0","task_version":"prescreen-v0.3","browser_interactions":0},{"responses":{"01":"No","02":"Yes","02_ages_6":"6","02_ages_7":"7","02_ages_8":"8","02_ages_9":"9","03":"Yes","03_ages_6":"6","03_ages_7":"7","03_ages_8":"8","03_ages_9":"9","03_ages_10":"10","03_ages_11":"11","03_ages_12":"12","04":"Yes","04_ages_7":"7","04_ages_8":"8","04_ages_9":"9","05":"No","06":"Yes","06_ages_5":"5","06_ages_6":"6","06_ages_7":"7","06_ages_8":"8","07":"Yes","07_ages_5":"5","07_ages_6":"6","07_ages_7":"7","07_ages_8":"8"},"rt":60253.00000000012,"item_order":[0,1,2,3,4,5,6],"radio_events":[12830,15377,23569,34977,43842,47826,55945.00000000012],"checkbox_events":[17564,17983,18393,18980,25005,25417,25762,26140,26576,27789,28445.000000000116,36783,37394,38344.00000000012,50303,50721,51267.00000000012,51993.00000000012,57135,57554,58020,58651],"key_events":[],"mouse_events":[12830,15377,17564,17983,18393,18980,23569,25005,25417,25762,26140,26576,27009,27789,28445.000000000116,34977,36783,37394,38344.00000000012,43842,47826,50303,50721,51267.00000000012,51993.00000000012,55157,55945.00000000012,57135,57554,58020,58651,60244],"honeypot":0,"survey":"mace","page":7,"trial_type":"survey-mace","trial_index":15,"time_elapsed":687196,"internal_node_id":"0.0-15.0","task_version":"prescreen-v0.3","browser_interactions":0},{"responses":{"01":"No","02":"Yes","02_ages_5":"5","02_ages_6":"6","02_ages_7":"7","02_ages_8":"8","02_ages_9":"9","02_ages_10":"10","02_ages_11":"11","02_ages_12":"12","02_ages_13":"13","02_ages_14":"14","02_ages_15":"15","02_ages_16":"16","02_ages_17":"17","02_ages_18":"18","03":"Yes","03_ages_5":"5","03_ages_6":"6","03_ages_7":"7","03_ages_8":"8","03_ages_9":"9","03_ages_10":"10","03_ages_11":"11","03_ages_12":"12","03_ages_13":"13","03_ages_14":"14","03_ages_15":"15","03_ages_16":"16","03_ages_17":"17","03_ages_18":"18","04":"Yes","04_ages_5":"5","04_ages_6":"6","04_ages_7":"7","04_ages_8":"8","04_ages_9":"9","04_ages_10":"10","04_ages_11":"11","04_ages_12":"12","04_ages_13":"13","04_ages_14":"14","04_ages_15":"15","04_ages_16":"16","04_ages_17":"17","04_ages_18":"18"},"rt":78450,"item_order":[0,1,2,3],"radio_events":[20189,40238.00000000012,60946,74546],"checkbox_events":[24485,25169,25604,26215,27338,27964.000000000116,28498,29204,29839.000000000116,30532,31093,31640,32248,32908,45055.00000000012,45672,46260,46687,47592,48404,49023,49651,50294,50996,51631,52422,53058,53797,62582,63169,63764,64281.00000000012,64763,65349,65816,66465,67067,68016,68643,69384,69971,70627],"key_events":[],"mouse_events":[13261,20189,24485,25169,25604,26215,26715,27338,27964.000000000116,28498,29204,29839.000000000116,30532,31093,31640,32248,32908,39404,40238.00000000012,45055.00000000012,45672,46260,46687,47592,48404,49023,49651,50294,50996,51631,52422,53058,53797,60946,62582,63169,63764,64281.00000000012,64763,65349,65816,66465,67067,68016,68643,69384,69971,70627,71408,74546,75103,78443],"honeypot":0,"survey":"mace","page":8,"trial_type":"survey-mace","trial_index":16,"time_elapsed":765652,"internal_node_id":"0.0-16.0","task_version":"prescreen-v0.3","browser_interactions":0},{"responses":{"01":"Yes","01_ages_3":"3","01_ages_4":"4","01_ages_5":"5","01_ages_6":"6","01_ages_7":"7","01_ages_8":"8","01_ages_9":"9","01_ages_10":"10","01_ages_11":"11","01_ages_12":"12","01_ages_13":"13","01_ages_14":"14","01_ages_15":"15","01_ages_16":"16","01_ages_17":"17","01_ages_18":"18","02":"Yes","02_ages_9":"9","02_ages_10":"10","02_ages_11":"11","02_ages_12":"12","02_ages_13":"13","02_ages_14":"14","03":"Yes","03_ages_3":"3","03_ages_4":"4","03_ages_5":"5","03_ages_6":"6","03_ages_7":"7","03_ages_8":"8","03_ages_9":"9","03_ages_10":"10","03_ages_11":"11","03_ages_12":"12","03_ages_13":"13","03_ages_14":"14","03_ages_15":"15","03_ages_16":"16","04":"Yes","04_ages_5":"5","04_ages_6":"6","04_ages_7":"7","04_ages_8":"8","04_ages_9":"9","04_ages_10":"10","04_ages_11":"11","04_ages_12":"12","04_ages_13":"13","04_ages_14":"14","04_ages_15":"15"},"rt":73182,"item_order":[0,1,2,3],"radio_events":[7935.000000000116,33436,46610,62823],"checkbox_events":[16162,16693,17510,18226,18901.000000000116,19464,20147,20889,21897,22572,23136,23916,24463,25057,26237,26912,35635,38210,39429,40162,40893,41472,48947,49423,49922,50427,51046,51545.00000000012,52186,52628,53167,53804,54309,54864,55475,56517,63997.00000000012,65015,65714,66334.00000000012,67912,68595,69081,69638,70127.00000000012,70658,71889],"key_events":[],"mouse_events":[7935.000000000116,16162,16693,17510,18226,18901.000000000116,19464,20147,20889,21897,22572,23136,23916,24463,25057,25596,26237,26912,33436,35635,38210,38793,39429,40162,40893,41472,46610,48947,49423,49922,50427,51046,51545.00000000012,52186,52628,53167,53804,54309,54864,55475,56517,62823,63997.00000000012,64392,65015,65714,66334.00000000012,67912,68595,69081,69638,70127.00000000012,70658,71189,71889,73176],"honeypot":0,"survey":"mace","page":9,"trial_type":"survey-mace","trial_index":17,"time_elapsed":838842,"internal_node_id":"0.0-17.0","task_version":"prescreen-v0.3","browser_interactions":0},{"responses":{"01":"No","02":"No","03":"No","04":"No","05":"No","06":"Yes","06_ages_17":"17","07":"Yes","07_ages_5":"5","07_ages_6":"6","07_ages_7":"7","07_ages_8":"8","07_ages_9":"9","07_ages_10":"10","07_ages_11":"11","07_ages_12":"12","08":"Yes","08_ages_7":"7","08_ages_8":"8","08_ages_9":"9","08_ages_10":"10","08_ages_11":"11","08_ages_12":"12","08_ages_13":"13"},"rt":49271,"item_order":[0,1,2,3,4,5,6,7],"radio_events":[6236,8522,11235.000000000116,14232,17299,22358,31032,42276],"checkbox_events":[23999,33990.00000000012,34417,35000,35482,36488,37075,37703,38499,43588,44096.00000000012,44633,45092,45648,46138,46721.00000000012],"key_events":[],"mouse_events":[6236,8522,11235.000000000116,14232,17299,22358,23999,31032,33990.00000000012,34417,35000,35482,35973,36488,37075,37703,38499,42276,43588,44096.00000000012,44633,45092,45648,46138,46721.00000000012,49263],"honeypot":0,"survey":"mace","page":10,"trial_type":"survey-mace","trial_index":18,"time_elapsed":888121,"internal_node_id":"0.0-18.0","task_version":"prescreen-v0.3","browser_interactions":0,"instructed":0},{"rt":20323,"trial_type":"mental-health-alert","trial_index":19,"time_elapsed":908451,"internal_node_id":"0.0-19.0","task_version":"prescreen-v0.3","interactions":"[]"}]