[{"view_history":[{"page_index":0,"viewing_time":47224.39999997616},{"page_index":1,"viewing_time":5232.5},{"page_index":2,"viewing_time":14265.199999988079},{"page_index":3,"viewing_time":1959.199999988079}],"rt":68683.79999995232,"trial_type":"instructions","trial_index":0,"time_elapsed":68710,"internal_node_id":"0.0-0.0","task_version":"prescreen-v0.3"},{"rt":21779.399999976158,"responses":{"age":"20","gender-categorical":"Female","gender-free-response":"","ethnicity":"Not Hispanic or Latino","race":["White"],"education":"Some college"},"trial_type":"survey-demo","trial_index":1,"time_elapsed":90497,"internal_node_id":"0.0-1.0","task_version":"prescreen-v0.3"},{"responses":{"Q13":"2","Q19":"1","Q10":"2","Q15":"2","Q01":"0","Q18":"1","Q16":"0","Q17":"1","Q14":"2","Q02":"0","Q08":"2","Q20":"0","Q07":"0","Q06":"0","Q03":"1","Q04":"2","Q12":"2","Q05":"0","Q09":"2","Q21":"3","Q11":"1"},"rt":149990.80000001192,"item_order":[12,18,9,14,0,17,15,16,13,1,7,19,6,5,2,3,11,4,8,20,10],"radio_events":[7435.399999976158,12779.800000011921,20326.100000023842,28717.69999998808,30436.80000001192,33569.30000001192,45567.30000001192,52040.19999998808,72830,78748.89999997616,95039.10000002384,100272.10000002384,102302,110373.60000002384,115501.19999998808,118261.60000002384,120674.80000001192,126769.30000001192,133178.30000001192,136900.60000002384,142956.19999998808,145456.19999998808,148523.80000001192],"key_events":[],"mouse_events":[7435.399999976158,12779.800000011921,20326.100000023842,28717.69999998808,30436.80000001192,33569.30000001192,45567.30000001192,52040.19999998808,72830,78748.89999997616,95039.10000002384,100272.10000002384,102302,110373.60000002384,115501.19999998808,118261.60000002384,120674.80000001192,126769.30000001192,133178.30000001192,136900.60000002384,141244.39999997616,142956.19999998808,145456.19999998808,148523.80000001192,149988.30000001192],"straightlining":0.38095238095238093,"zigzagging":0.45,"honeypot":0,"survey":"sns","trial_type":"survey-template","trial_index":2,"time_elapsed":240509,"internal_node_id":"0.0-2.0","task_version":"prescreen-v0.3","browser_interactions":0,"infrequency":0},{"responses":{"Q08":"3","Q05":"3","Q02":"3","Q07":"3","Q04":"3","Q09":"2","Q10":"2","Q11":"2","Q13":"0","Q01":"3","Q06":"3","Q12":"2","Q03":"3"},"rt":64297.90000003576,"item_order":[7,4,1,6,3,8,9,10,12,0,5,11,2],"radio_events":[14511.400000035763,15986.700000047684,19843,22550.700000047684,27179.100000023842,32448.100000023842,35622.30000001192,41228.700000047684,44168.5,48310.30000001192,52743.60000002384,58033.10000002384,63113.60000002384],"key_events":[],"mouse_events":[9594.800000011921,14511.400000035763,15986.700000047684,18538.700000047684,19843,22550.700000047684,27179.100000023842,32448.100000023842,35622.30000001192,41228.700000047684,44168.5,48310.30000001192,52743.60000002384,58033.10000002384,63113.60000002384,64294.5],"straightlining":0.6153846153846154,"zigzagging":0.3333333333333333,"honeypot":0,"survey":"bisbas","trial_type":"survey-template","trial_index":3,"time_elapsed":304818,"internal_node_id":"0.0-3.0","task_version":"prescreen-v0.3","browser_interactions":0,"infrequency":0},{"responses":{"Q01":"3","Q02":"3","Q03":"3"},"rt":32753.600000023842,"radio_events":[14865.400000035763,20745,31526.100000023842],"key_events":[],"mouse_events":[14865.400000035763,20745,31526.100000023842,32751.80000001192],"survey":"map","page":1,"trial_type":"survey-map","trial_index":4,"time_elapsed":337589,"internal_node_id":"0.0-4.0","task_version":"prescreen-v0.3","browser_interactions":0},{"responses":{"Q04":"1","Q05":"1","Q06":"1"},"rt":18681.899999976158,"radio_events":[7172,14527.699999988079,17111.19999998808],"key_events":[],"mouse_events":[7172,14527.699999988079,17111.19999998808,18680.5],"survey":"map","page":2,"trial_type":"survey-map","trial_index":5,"time_elapsed":356286,"internal_node_id":"0.0-5.0","task_version":"prescreen-v0.3","browser_interactions":0},{"responses":{"Q07":"2","Q08":"3","Q09":"3"},"rt":19820.899999976158,"radio_events":[8388.399999976158,13808.699999988079,18673.69999998808],"key_events":[],"mouse_events":[8388.399999976158,13808.699999988079,18673.69999998808,19819.30000001192],"survey":"map","page":3,"trial_type":"survey-map","trial_index":6,"time_elapsed":376122,"internal_node_id":"0.0-6.0","task_version":"prescreen-v0.3","browser_interactions":0},{"responses":{"Q10":"2","Q11":"2","Q12":"2","Q13":"3","Q16":"0","Q14":"3","Q15":"2"},"rt":41541.10000002384,"radio_events":[6153.400000035763,11331.600000023842,17125,24530.69999998808,28811.600000023842,35709.19999998808,40325.90000003576],"key_events":[],"mouse_events":[6153.400000035763,11331.600000023842,17125,24530.69999998808,28811.600000023842,34576.30000001192,35709.19999998808,40325.90000003576,41537.90000003576],"survey":"map","page":4,"trial_type":"survey-map","trial_index":7,"time_elapsed":417680,"internal_node_id":"0.0-7.0","task_version":"prescreen-v0.3","browser_interactions":0,"infrequency":0},{"view_history":[{"page_index":0,"viewing_time":2491.199999988079},{"page_index":1,"viewing_time":5793.400000035763}],"rt":8287,"trial_type":"instructions","trial_index":8,"time_elapsed":425979,"internal_node_id":"0.0-8.0","task_version":"prescreen-v0.3"},{"responses":{"01":"No","02":"Yes","02_ages_16":"16","02_ages_17":"17","02_ages_18":"18","03":"No","04":"No","05":"No","06":"No"},"rt":37108.39999997616,"item_order":[0,1,2,3,4,5],"radio_events":[11799.199999988079,16580.299999952316,28800.899999976158,31677.099999964237,33154.5,35845.89999997616],"checkbox_events":[22609.299999952316,23500,24691.19999998808],"key_events":[],"mouse_events":[0.19999998807907104,11799.199999988079,16580.299999952316,22609.299999952316,23500,24691.19999998808,28800.899999976158,31677.099999964237,33154.5,35845.89999997616,37099.89999997616],"honeypot":0,"survey":"mace","page":1,"trial_type":"survey-mace","trial_index":9,"time_elapsed":463111,"internal_node_id":"0.0-9.0","task_version":"prescreen-v0.3","browser_interactions":0},{"responses":{"01":"No","02":"No","03":"No","04":"No","05":"No","06":"No","07":"No","08":"No"},"rt":24165.400000035763,"item_order":[0,1,2,3,4,5,6,7],"radio_events":[6909,8578.800000011921,10546.300000011921,12612.400000035763,14180.199999988079,18408,19718.19999998808,20968.400000035763],"checkbox_events":[],"key_events":[],"mouse_events":[6909,8578.800000011921,10546.300000011921,12612.400000035763,14180.199999988079,16898.5,18408,19718.19999998808,20968.400000035763,24155.900000035763],"honeypot":0,"survey":"mace","page":2,"trial_type":"survey-mace","trial_index":10,"time_elapsed":487297,"internal_node_id":"0.0-10.0","task_version":"prescreen-v0.3","browser_interactions":0},{"responses":{"01":"No","02":"No","03":"No","04":"No"},"rt":9352.900000035763,"item_order":[0,1,2,3],"radio_events":[3465.699999988079,5217.300000011921,6478.699999988079,7825.300000011921],"checkbox_events":[],"key_events":[],"mouse_events":[3465.699999988079,5217.300000011921,6478.699999988079,7825.300000011921,9347.199999988079],"honeypot":0,"survey":"mace","page":3,"trial_type":"survey-mace","trial_index":11,"time_elapsed":496665,"internal_node_id":"0.0-11.0","task_version":"prescreen-v0.3","browser_interactions":0},{"responses":{"01":"No","02":"No"},"rt":6496.299999952316,"item_order":[0,1],"radio_events":[3829.599999964237,5455.199999988079],"checkbox_events":[],"key_events":[],"mouse_events":[3829.599999964237,5455.199999988079,6493.099999964237],"honeypot":0,"survey":"mace","page":4,"trial_type":"survey-mace","trial_index":12,"time_elapsed":503177,"internal_node_id":"0.0-12.0","task_version":"prescreen-v0.3","browser_interactions":0},{"responses":{"01":"No","02":"No","03":"No","04":"No","05":"No"},"rt":22600.599999964237,"item_order":[0,1,2,3,4],"radio_events":[12132.099999964237,13442.799999952316,16198.5,18567.299999952316,21431.899999976158],"checkbox_events":[],"key_events":[],"mouse_events":[8906.899999976158,12132.099999964237,13442.799999952316,16198.5,18567.299999952316,21431.899999976158,22593.5],"honeypot":0,"survey":"mace","page":5,"trial_type":"survey-mace","trial_index":13,"time_elapsed":525798,"internal_node_id":"0.0-13.0","task_version":"prescreen-v0.3","browser_interactions":0},{"responses":{"01":"No","02":"Yes","02_ages_12":"12","03":"No","04":"Yes","04_ages_16":"16","04_ages_17":"17","04_ages_18":"18","05":"No"},"rt":40773.5,"item_order":[0,1,2,3,4],"radio_events":[13887.800000011921,15397.5,23365.30000001192,29782.600000023842,39732],"checkbox_events":[17962.900000035763,31463.600000023842,34283.10000002384,35506.80000001192],"key_events":[],"mouse_events":[13887.800000011921,15397.5,17962.900000035763,23365.30000001192,29782.600000023842,31463.600000023842,34283.10000002384,35506.80000001192,39732,40766.40000003576],"honeypot":0,"survey":"mace","page":6,"trial_type":"survey-mace","trial_index":14,"time_elapsed":566590,"internal_node_id":"0.0-14.0","task_version":"prescreen-v0.3","browser_interactions":0},{"responses":{"01":"No","02":"No","03":"No","04":"No","05":"No","06":"No","07":"No"},"rt":17756.69999998808,"item_order":[0,1,2,3,4,5,6],"radio_events":[6219.900000035763,8039.900000035763,9641.400000035763,10848.199999988079,14328.800000011921,15611.699999988079,16710.900000035763],"checkbox_events":[],"key_events":[],"mouse_events":[4341.900000035763,6219.900000035763,8039.900000035763,9641.400000035763,10848.199999988079,14328.800000011921,15611.699999988079,16710.900000035763,17747],"honeypot":0,"survey":"mace","page":7,"trial_type":"survey-mace","trial_index":15,"time_elapsed":584368,"internal_node_id":"0.0-15.0","task_version":"prescreen-v0.3","browser_interactions":0},{"responses":{"01":"No","02":"No","03":"No","04":"No"},"rt":19997.899999976158,"item_order":[0,1,2,3],"radio_events":[9250.199999988079,14619,16095.399999976158,18962.80000001192],"checkbox_events":[],"key_events":[],"mouse_events":[9250.199999988079,11941.399999976158,14619,16095.399999976158,18962.80000001192,19992.099999964237],"honeypot":0,"survey":"mace","page":8,"trial_type":"survey-mace","trial_index":16,"time_elapsed":604384,"internal_node_id":"0.0-16.0","task_version":"prescreen-v0.3","browser_interactions":0},{"responses":{"01":"Yes","01_ages_1":"1","01_ages_2":"2","01_ages_3":"3","01_ages_4":"4","01_ages_5":"5","01_ages_6":"6","01_ages_7":"7","01_ages_8":"8","01_ages_9":"9","01_ages_10":"10","01_ages_11":"11","01_ages_12":"12","01_ages_13":"13","01_ages_14":"14","01_ages_15":"15","01_ages_16":"16","01_ages_17":"17","01_ages_18":"18","02":"Yes","02_ages_1":"1","02_ages_2":"2","02_ages_3":"3","02_ages_4":"4","02_ages_5":"5","02_ages_6":"6","02_ages_7":"7","02_ages_8":"8","02_ages_9":"9","02_ages_10":"10","02_ages_11":"11","02_ages_12":"12","02_ages_13":"13","02_ages_14":"14","02_ages_15":"15","02_ages_16":"16","02_ages_17":"17","02_ages_18":"18","03":"Yes","03_ages_1":"1","03_ages_2":"2","03_ages_3":"3","03_ages_4":"4","03_ages_5":"5","03_ages_6":"6","03_ages_7":"7","03_ages_8":"8","03_ages_9":"9","03_ages_10":"10","03_ages_11":"11","03_ages_12":"12","03_ages_13":"13","03_ages_14":"14","03_ages_15":"15","03_ages_16":"16","03_ages_17":"17","03_ages_18":"18","04":"Yes","04_ages_1":"1","04_ages_2":"2","04_ages_3":"3","04_ages_4":"4","04_ages_5":"5","04_ages_6":"6","04_ages_7":"7","04_ages_8":"8","04_ages_9":"9","04_ages_10":"10","04_ages_11":"11","04_ages_12":"12","04_ages_13":"13","04_ages_14":"14","04_ages_15":"15","04_ages_16":"16","04_ages_17":"17","04_ages_18":"18"},"rt":58541.90000003576,"item_order":[0,1,2,3],"radio_events":[6669,23281.5,35473.90000003576,50137.60000002384],"checkbox_events":[10992,11868.600000023842,14498.900000035763,14932.300000011921,15254.900000035763,16236.800000011921,16632.600000023842,16994.100000023842,17353.900000035763,17755.600000023842,18016.80000001192,18324.400000035763,18768.600000023842,18989.900000035763,19434.400000035763,19867.80000001192,20086.80000001192,20393.5,24151.600000023842,24478.700000047684,24769.100000023842,25059,25337.400000035763,25637.200000047684,25916.80000001192,26238.30000001192,26499.100000023842,26831.100000023842,27226.900000035763,27667.400000035763,28147.900000035763,28492,28810.5,29181.30000001192,29493.30000001192,29772.600000023842,36342.700000047684,36693.700000047684,39173.30000001192,39527.80000001192,39865.90000003576,40207.40000003576,40462.60000002384,40704.90000003576,40982.30000001192,41317.200000047684,41679.40000003576,41977.700000047684,42303.10000002384,42705.5,43155.90000003576,43606.40000003576,43877.700000047684,44074.80000001192,52411.40000003576,52756.5,53096.10000002384,53385.700000047684,53699.90000003576,53992.80000001192,54320.700000047684,54588.10000002384,54940.60000002384,55271.90000003576,55530,55831.700000047684,56141.5,56542.200000047684,56942.90000003576,57339.10000002384,57621.40000003576,57889],"key_events":[],"mouse_events":[6669,10992,11868.600000023842,14498.900000035763,14932.300000011921,15254.900000035763,15774.900000035763,16236.800000011921,16632.600000023842,16994.100000023842,17353.900000035763,17755.600000023842,18016.80000001192,18324.400000035763,18768.600000023842,18989.900000035763,19434.400000035763,19867.80000001192,20086.80000001192,20393.5,23281.5,24151.600000023842,24478.700000047684,24769.100000023842,25059,25337.400000035763,25637.200000047684,25916.80000001192,26238.30000001192,26499.100000023842,26831.100000023842,27226.900000035763,27667.400000035763,28147.900000035763,28492,28810.5,29181.30000001192,29493.30000001192,29772.600000023842,35473.90000003576,36342.700000047684,36693.700000047684,39173.30000001192,39527.80000001192,39865.90000003576,40207.40000003576,40462.60000002384,40704.90000003576,40982.30000001192,41317.200000047684,41679.40000003576,41977.700000047684,42303.10000002384,42705.5,43155.90000003576,43606.40000003576,43877.700000047684,44074.80000001192,50137.60000002384,52411.40000003576,52756.5,53096.10000002384,53385.700000047684,53699.90000003576,53992.80000001192,54320.700000047684,54588.10000002384,54940.60000002384,55271.90000003576,55530,55831.700000047684,56141.5,56542.200000047684,56942.90000003576,57339.10000002384,57621.40000003576,57889,58536.30000001192],"honeypot":0,"survey":"mace","page":9,"trial_type":"survey-mace","trial_index":17,"time_elapsed":662944,"internal_node_id":"0.0-17.0","task_version":"prescreen-v0.3","browser_interactions":0},{"responses":{"01":"No","02":"No","03":"No","04":"No","05":"No","06":"Yes","06_ages_17":"17","07":"Yes","07_ages_1":"1","07_ages_2":"2","07_ages_3":"3","07_ages_4":"4","07_ages_5":"5","07_ages_6":"6","07_ages_7":"7","07_ages_8":"8","07_ages_9":"9","07_ages_10":"10","07_ages_11":"11","07_ages_12":"12","07_ages_13":"13","07_ages_14":"14","07_ages_15":"15","07_ages_16":"16","07_ages_17":"17","07_ages_18":"18","08":"Yes","08_ages_1":"1","08_ages_2":"2","08_ages_3":"3","08_ages_4":"4","08_ages_5":"5","08_ages_6":"6","08_ages_7":"7","08_ages_8":"8","08_ages_9":"9","08_ages_10":"10","08_ages_11":"11","08_ages_12":"12","08_ages_13":"13","08_ages_14":"14","08_ages_15":"15","08_ages_16":"16","08_ages_17":"17","08_ages_18":"18"},"rt":54002.30000001192,"item_order":[0,1,2,3,4,5,6,7],"radio_events":[6748.400000035763,8092.699999988079,12342.400000035763,14161.300000011921,16281.699999988079,21559.69999998808,27767.80000001192,42634],"checkbox_events":[23407.600000023842,31448.30000001192,33573.90000003576,33934.19999998808,34286.69999998808,34592.90000003576,34886.30000001192,35105.90000003576,35316.69999998808,35523.10000002384,35745,36263.30000001192,36686.40000003576,37072.40000003576,37426.69999998808,37903,38265.30000001192,38804.19999998808,39245.69999998808,39605.19999998808,39810,44491.40000003576,44603.30000001192,45181.80000001192,45480.69999998808,45869.30000001192,46149,46418.30000001192,46660.60000002384,46910.19999998808,47307,47868.30000001192,48129.60000002384,48409,48711,49138.80000001192,49577.69999998808,49919.60000002384,50181.19999998808,50653.5,50968.19999998808,51221,51402.30000001192],"key_events":[],"mouse_events":[6748.400000035763,8092.699999988079,12342.400000035763,14161.300000011921,16281.699999988079,21559.69999998808,23407.600000023842,27767.80000001192,31448.30000001192,33573.90000003576,33934.19999998808,34286.69999998808,34592.90000003576,34886.30000001192,35105.90000003576,35316.69999998808,35523.10000002384,35745,36263.30000001192,36686.40000003576,37072.40000003576,37426.69999998808,37903,38265.30000001192,38804.19999998808,39245.69999998808,39605.19999998808,39810,42634,44491.40000003576,44603.30000001192,45181.80000001192,45480.69999998808,45869.30000001192,46149,46418.30000001192,46660.60000002384,46910.19999998808,47307,47868.30000001192,48129.60000002384,48409,48711,49138.80000001192,49577.69999998808,49919.60000002384,50181.19999998808,50653.5,50968.19999998808,51221,51402.30000001192,53997.40000003576],"honeypot":0,"survey":"mace","page":10,"trial_type":"survey-mace","trial_index":18,"time_elapsed":716966,"internal_node_id":"0.0-18.0","task_version":"prescreen-v0.3","browser_interactions":0,"instructed":0},{"rt":3969.5,"trial_type":"mental-health-alert","trial_index":19,"time_elapsed":720942,"internal_node_id":"0.0-19.0","task_version":"prescreen-v0.3","interactions":"[]"}]