[{"view_history":[{"page_index":0,"viewing_time":2325.7999999821186},{"page_index":1,"viewing_time":3021.5999999940395},{"page_index":2,"viewing_time":4534.700000017881},{"page_index":3,"viewing_time":1533.4000000059605}],"rt":11417.899999976158,"trial_type":"instructions","trial_index":0,"time_elapsed":11488,"internal_node_id":"0.0-0.0","task_version":"prescreen-v0.3"},{"rt":24182.80000001192,"responses":{"age":"49","gender-categorical":"Female","gender-free-response":"","ethnicity":"Not Hispanic or Latino","race":["White"],"education":"Master degree or higher"},"trial_type":"survey-demo","trial_index":1,"time_elapsed":35695,"internal_node_id":"0.0-1.0","task_version":"prescreen-v0.3"},{"responses":{"Q16":"2","Q13":"2","Q10":"0","Q15":"2","Q17":"0","Q09":"0","Q03":"1","Q20":"1","Q02":"0","Q05":"0","Q01":"2","Q14":"0","Q19":"0","Q18":"0","Q21":"3","Q12":"0","Q07":"0","Q04":"0","Q06":"0","Q08":"0","Q11":"2"},"rt":105759,"item_order":[15,12,9,14,16,8,2,19,1,4,0,13,18,17,20,11,6,3,5,7,10],"radio_events":[8355.699999988079,16719.19999998808,20000.79999998212,23627.29999998212,30007.19999998808,32314.59999999404,37766.5,43792.69999998808,46623.79999998212,55325,60191.89999997616,62786.09999999404,68309,70391.19999998808,71977.39999997616,75874.79999998212,83712.89999997616,86137.69999998808,93080.19999998808,96580.69999998808,101069.59999999404,103291.89999997616],"key_events":[],"mouse_events":[8355.699999988079,16719.19999998808,20000.79999998212,23627.29999998212,30007.19999998808,32314.59999999404,37766.5,43792.69999998808,46623.79999998212,55325,60191.89999997616,62786.09999999404,68309,70391.19999998808,71977.39999997616,75874.79999998212,79348.89999997616,83712.89999997616,86137.69999998808,93080.19999998808,96580.69999998808,101069.59999999404,103291.89999997616,105751.69999998808],"straightlining":0.6190476190476191,"zigzagging":0.2,"honeypot":0,"survey":"sns","trial_type":"survey-template","trial_index":2,"time_elapsed":141468,"internal_node_id":"0.0-2.0","task_version":"prescreen-v0.3","browser_interactions":0,"infrequency":0},{"responses":{"Q09":"2","Q10":"2","Q03":"1","Q05":"2","Q11":"2","Q13":"0","Q01":"1","Q02":"1","Q06":"3","Q08":"3","Q04":"2","Q07":"3","Q12":"2"},"rt":55063.79999998212,"item_order":[8,9,2,4,10,12,0,1,5,7,3,6,11],"radio_events":[5459.899999976158,12606.09999999404,15925,18097.5,20964.59999999404,25234.399999976158,29486.899999976158,35478.79999998212,39641.89999997616,42911.29999998212,45551.19999998808,49204.5,50375.5,52962.5],"key_events":[],"mouse_events":[5459.899999976158,12606.09999999404,15925,18097.5,20964.59999999404,23057.69999998808,25234.399999976158,29486.899999976158,35478.79999998212,39641.89999997616,42911.29999998212,45551.19999998808,49204.5,50375.5,52962.5,55059.89999997616],"straightlining":0.46153846153846156,"zigzagging":0.5,"honeypot":0,"survey":"bisbas","trial_type":"survey-template","trial_index":3,"time_elapsed":196550,"internal_node_id":"0.0-3.0","task_version":"prescreen-v0.3","browser_interactions":0,"infrequency":0},{"responses":{"Q01":"3","Q02":"3","Q03":"3"},"rt":12268.200000017881,"radio_events":[5878.300000011921,8239.09999999404,11147.700000017881],"key_events":[],"mouse_events":[5878.300000011921,8239.09999999404,11147.700000017881,12266.200000017881],"survey":"map","page":1,"trial_type":"survey-map","trial_index":4,"time_elapsed":208829,"internal_node_id":"0.0-4.0","task_version":"prescreen-v0.3","browser_interactions":0},{"responses":{"Q04":"3","Q05":"2","Q06":"3"},"rt":23080.90000000596,"radio_events":[10587,16356.5,17884.90000000596,22147.69999998808],"key_events":[],"mouse_events":[3863.199999988079,10587,16356.5,17884.90000000596,22147.69999998808,23078.90000000596],"survey":"map","page":2,"trial_type":"survey-map","trial_index":5,"time_elapsed":231916,"internal_node_id":"0.0-5.0","task_version":"prescreen-v0.3","browser_interactions":0},{"responses":{"Q07":"4","Q08":"0","Q09":"2"},"rt":12665.90000000596,"radio_events":[6819.5,8608.40000000596,11634],"key_events":[],"mouse_events":[6819.5,8608.40000000596,11634,12661.5],"survey":"map","page":3,"trial_type":"survey-map","trial_index":6,"time_elapsed":244589,"internal_node_id":"0.0-6.0","task_version":"prescreen-v0.3","browser_interactions":0},{"responses":{"Q10":"2","Q11":"3","Q12":"2","Q13":"2","Q16":"0","Q14":"2","Q15":"2"},"rt":26976.20000001788,"radio_events":[5627.9000000059605,8120.5,12549.59999999404,17316,20738.5,24150.09999999404,25738.90000000596],"key_events":[],"mouse_events":[5627.9000000059605,8120.5,12549.59999999404,17316,20738.5,24150.09999999404,25738.90000000596,26972.30000001192],"survey":"map","page":4,"trial_type":"survey-map","trial_index":7,"time_elapsed":271573,"internal_node_id":"0.0-7.0","task_version":"prescreen-v0.3","browser_interactions":0,"infrequency":0},{"view_history":[{"page_index":0,"viewing_time":2069.5},{"page_index":1,"viewing_time":6120.9000000059605}],"rt":8191.699999988079,"trial_type":"instructions","trial_index":8,"time_elapsed":279769,"internal_node_id":"0.0-8.0","task_version":"prescreen-v0.3"},{"responses":{"01":"Yes","01_ages_3":"3","01_ages_4":"4","01_ages_5":"5","01_ages_6":"6","01_ages_7":"7","01_ages_8":"8","01_ages_9":"9","01_ages_10":"10","01_ages_11":"11","01_ages_12":"12","01_ages_13":"13","01_ages_14":"14","01_ages_15":"15","02":"Yes","02_ages_3":"3","02_ages_4":"4","02_ages_5":"5","02_ages_6":"6","02_ages_7":"7","02_ages_8":"8","02_ages_9":"9","02_ages_10":"10","02_ages_11":"11","02_ages_12":"12","02_ages_13":"13","02_ages_14":"14","02_ages_15":"15","03":"Yes","03_ages_3":"3","03_ages_4":"4","03_ages_5":"5","03_ages_6":"6","03_ages_7":"7","03_ages_8":"8","03_ages_9":"9","03_ages_10":"10","03_ages_11":"11","04":"No","05":"No","06":"No"},"rt":70949.19999998808,"item_order":[0,1,2,3,4,5],"radio_events":[7745.699999988079,29004.69999998808,47200.40000000596,64117.90000000596,67979.5,69123.19999998808],"checkbox_events":[13408.09999999404,14421.59999999404,18716.59999999404,19301.09999999404,20532.30000001192,21730.5,22637.5,23405.59999999404,24110.80000001192,24749.90000000596,25427.5,26128.19999998808,27081.80000001192,31158.90000000596,32489,33615.5,34406.80000001192,36912.40000000596,37650.5,39553.19999998808,40168.40000000596,40950.69999998808,42062.40000000596,43606.09999999404,44192.09999999404,45137.90000000596,49447.80000001192,50190.80000001192,50925.19999998808,51660.40000000596,52397,53146,55018,55936.69999998808,56757.19999998808],"key_events":[],"mouse_events":[0.19999998807907104,7745.699999988079,13408.09999999404,14421.59999999404,17870.09999999404,18716.59999999404,19301.09999999404,20532.30000001192,21730.5,22637.5,23405.59999999404,24110.80000001192,24749.90000000596,25427.5,26128.19999998808,27081.80000001192,29004.69999998808,31158.90000000596,31761.90000000596,32489,33615.5,34406.80000001192,36912.40000000596,37650.5,38364.59999999404,39553.19999998808,40168.40000000596,40950.69999998808,42062.40000000596,42645.59999999404,43606.09999999404,44192.09999999404,45137.90000000596,47200.40000000596,49447.80000001192,50190.80000001192,50925.19999998808,51660.40000000596,52397,53146,53950,55018,55936.69999998808,56757.19999998808,57564.59999999404,64117.90000000596,65820.59999999404,67979.5,69123.19999998808,70939.59999999404],"honeypot":0,"survey":"mace","page":1,"trial_type":"survey-mace","trial_index":9,"time_elapsed":350738,"internal_node_id":"0.0-9.0","task_version":"prescreen-v0.3","browser_interactions":0},{"responses":{"01":"No","02":"No","03":"Yes","03_ages_3":"3","04":"No","05":"No","06":"No","07":"No","08":"No"},"rt":25389.90000000596,"item_order":[0,1,2,3,4,5,6,7],"radio_events":[5539.4000000059605,7297.0999999940395,11786.299999982119,16866.79999998212,18965.40000000596,19906.79999998212,22550.19999998808,23412.90000000596],"checkbox_events":[14115.09999999404],"key_events":[],"mouse_events":[3335.5,5539.4000000059605,7297.0999999940395,11786.299999982119,14115.09999999404,16866.79999998212,18965.40000000596,19906.79999998212,22550.19999998808,23412.90000000596,25378.69999998808],"honeypot":0,"survey":"mace","page":2,"trial_type":"survey-mace","trial_index":10,"time_elapsed":376143,"internal_node_id":"0.0-10.0","task_version":"prescreen-v0.3","browser_interactions":0},{"responses":{"01":"No","02":"No","03":"No","04":"No"},"rt":10805,"item_order":[0,1,2,3],"radio_events":[5186.700000017881,7859.300000011921,9007.90000000596,9908.300000011921],"checkbox_events":[],"key_events":[],"mouse_events":[3005.2000000178814,5186.700000017881,7859.300000011921,9007.90000000596,9908.300000011921,10798.800000011921],"honeypot":0,"survey":"mace","page":3,"trial_type":"survey-mace","trial_index":11,"time_elapsed":386959,"internal_node_id":"0.0-11.0","task_version":"prescreen-v0.3","browser_interactions":0},{"responses":{"01":"No","02":"No"},"rt":5874.0999999940395,"item_order":[0,1],"radio_events":[2827.5999999940395,5002.5999999940395],"checkbox_events":[],"key_events":[],"mouse_events":[2827.5999999940395,3827.5,5002.5999999940395,5870.800000011921],"honeypot":0,"survey":"mace","page":4,"trial_type":"survey-mace","trial_index":12,"time_elapsed":392840,"internal_node_id":"0.0-12.0","task_version":"prescreen-v0.3","browser_interactions":0},{"responses":{"01":"No","02":"No","03":"No","04":"No","05":"No"},"rt":19859.79999998212,"item_order":[0,1,2,3,4],"radio_events":[11050.59999999404,12027.5,13821.199999988079,15815.40000000596,18326.5],"checkbox_events":[],"key_events":[],"mouse_events":[11050.59999999404,12027.5,13821.199999988079,15815.40000000596,18326.5,19851.29999998212],"honeypot":0,"survey":"mace","page":5,"trial_type":"survey-mace","trial_index":13,"time_elapsed":412711,"internal_node_id":"0.0-13.0","task_version":"prescreen-v0.3","browser_interactions":0},{"responses":{"01":"No","02":"No","03":"No","04":"No","05":"No"},"rt":19023.40000000596,"item_order":[0,1,2,3,4],"radio_events":[13140.09999999404,14132.5,15243.200000017881,17163.70000001788,17950.59999999404],"checkbox_events":[],"key_events":[],"mouse_events":[11241.5,13140.09999999404,14132.5,15243.200000017881,16122.800000011921,17163.70000001788,17950.59999999404,19014.90000000596],"honeypot":0,"survey":"mace","page":6,"trial_type":"survey-mace","trial_index":14,"time_elapsed":431747,"internal_node_id":"0.0-14.0","task_version":"prescreen-v0.3","browser_interactions":0},{"responses":{"01":"No","02":"No","03":"No","04":"No","05":"No","06":"No","07":"No"},"rt":15217.699999988079,"item_order":[0,1,2,3,4,5,6],"radio_events":[2182.199999988079,3971.4000000059605,5087.799999982119,7261.9000000059605,10696.5,11608.09999999404,13399.40000000596],"checkbox_events":[],"key_events":[],"mouse_events":[2182.199999988079,3971.4000000059605,5087.799999982119,6305.799999982119,7261.9000000059605,8396.199999988079,9852.5,10696.5,11608.09999999404,13399.40000000596,15207.59999999404],"honeypot":0,"survey":"mace","page":7,"trial_type":"survey-mace","trial_index":15,"time_elapsed":446979,"internal_node_id":"0.0-15.0","task_version":"prescreen-v0.3","browser_interactions":0},{"responses":{"01":"No","02":"Yes","02_ages_3":"3","02_ages_4":"4","02_ages_5":"5","02_ages_6":"6","02_ages_7":"7","02_ages_8":"8","02_ages_9":"9","02_ages_10":"10","02_ages_11":"11","02_ages_12":"12","02_ages_13":"13","02_ages_14":"14","02_ages_15":"15","03":"Yes","03_ages_3":"3","03_ages_4":"4","03_ages_5":"5","03_ages_6":"6","03_ages_7":"7","03_ages_8":"8","03_ages_9":"9","03_ages_10":"10","03_ages_11":"11","03_ages_12":"12","03_ages_13":"13","03_ages_14":"14","03_ages_15":"15","04":"Yes","04_ages_3":"3","04_ages_4":"4","04_ages_5":"5","04_ages_6":"6","04_ages_7":"7","04_ages_8":"8","04_ages_9":"9","04_ages_10":"10","04_ages_11":"11","04_ages_12":"12","04_ages_13":"13","04_ages_14":"14","04_ages_15":"15"},"rt":60796.80000001192,"item_order":[0,1,2,3],"radio_events":[6896.200000017881,11372.90000000596,30680.30000001192,45705.09999999404],"checkbox_events":[14113.40000000596,14673.59999999404,15573.59999999404,17641.59999999404,18412.20000001788,19084.59999999404,19789.80000001192,20517.09999999404,21242.70000001788,21898.40000000596,23000.30000001192,23496.5,24234.09999999404,32790.20000001788,33324.5,33863.80000001192,35325.90000000596,35907.90000000596,36625.30000001192,37334.59999999404,37980.20000001788,39558.90000000596,40174.40000000596,40800.30000001192,41547.09999999404,42260.70000001788,47601.90000000596,48271.80000001192,49949.59999999404,50464.70000001788,51142.5,52630.70000001788,53271.80000001192,53983.20000001788,54790.09999999404,55538.09999999404,56265.09999999404,56948.30000001192,58996.20000001788],"key_events":[],"mouse_events":[6896.200000017881,11372.90000000596,14113.40000000596,14673.59999999404,15573.59999999404,16706.20000001788,17641.59999999404,18412.20000001788,19084.59999999404,19789.80000001192,20517.09999999404,21242.70000001788,21898.40000000596,23000.30000001192,23496.5,24234.09999999404,30680.30000001192,32790.20000001788,33324.5,33863.80000001192,34529.80000001192,35325.90000000596,35907.90000000596,36625.30000001192,37334.59999999404,37980.20000001788,38748.70000001788,39558.90000000596,40174.40000000596,40800.30000001192,41547.09999999404,42260.70000001788,45705.09999999404,47601.90000000596,48271.80000001192,48983.20000001788,49949.59999999404,50464.70000001788,51142.5,51844.90000000596,52630.70000001788,53271.80000001192,53983.20000001788,54790.09999999404,55538.09999999404,56265.09999999404,56948.30000001192,58006.80000001192,58996.20000001788,60790.70000001788],"honeypot":0,"survey":"mace","page":8,"trial_type":"survey-mace","trial_index":16,"time_elapsed":507786,"internal_node_id":"0.0-16.0","task_version":"prescreen-v0.3","browser_interactions":0},{"responses":{"01":"Yes","01_ages_1":"1","01_ages_2":"2","01_ages_3":"3","01_ages_4":"4","01_ages_5":"5","01_ages_6":"6","01_ages_7":"7","01_ages_8":"8","01_ages_9":"9","01_ages_10":"10","01_ages_11":"11","01_ages_12":"12","01_ages_13":"13","01_ages_14":"14","01_ages_15":"15","01_ages_16":"16","01_ages_17":"17","01_ages_18":"18","02":"Yes","02_ages_1":"1","02_ages_2":"2","02_ages_3":"3","02_ages_4":"4","02_ages_5":"5","02_ages_6":"6","02_ages_7":"7","02_ages_8":"8","02_ages_9":"9","02_ages_10":"10","02_ages_11":"11","02_ages_12":"12","02_ages_13":"13","02_ages_14":"14","02_ages_15":"15","02_ages_16":"16","02_ages_17":"17","02_ages_18":"18","03":"Yes","03_ages_1":"1","03_ages_2":"2","03_ages_3":"3","03_ages_4":"4","03_ages_5":"5","03_ages_6":"6","03_ages_7":"7","03_ages_8":"8","03_ages_9":"9","03_ages_10":"10","03_ages_11":"11","03_ages_12":"12","03_ages_13":"13","03_ages_14":"14","03_ages_15":"15","03_ages_16":"16","03_ages_17":"17","03_ages_18":"18","04":"Yes","04_ages_1":"1","04_ages_2":"2","04_ages_3":"3","04_ages_4":"4","04_ages_5":"5","04_ages_6":"6","04_ages_7":"7","04_ages_8":"8","04_ages_9":"9","04_ages_10":"10","04_ages_11":"11","04_ages_12":"12","04_ages_13":"13","04_ages_14":"14","04_ages_15":"15","04_ages_16":"16","04_ages_17":"17","04_ages_18":"18"},"rt":89243,"item_order":[0,1,2,3],"radio_events":[5963.5999999940395,27181.80000001192,50879.80000001192,68915.20000001788],"checkbox_events":[8650.800000011921,9211.700000017881,9899.300000011921,10693.5,11442.59999999404,12237.09999999404,14340.5,14996.300000011921,16083.800000011921,16646.30000001192,17795.70000001788,18385.70000001788,19159.59999999404,20232.90000000596,21776.30000001192,23349,23926.09999999404,24581.20000001788,28518,29115.5,30032,30788.59999999404,31748.30000001192,32391.70000001788,33066.20000001788,33920.5,35622.40000000596,36341.80000001192,37027.59999999404,37737,39331.30000001192,41790.90000000596,43278.90000000596,43858.09999999404,44532.5,45650.80000001192,52232.59999999404,52744.70000001788,53449.5,54142.90000000596,54902.40000000596,55849.59999999404,57129,57839.90000000596,58522.09999999404,60806.70000001788,61424.70000001788,62125.70000001788,62907.40000000596,63674.40000000596,64379.70000001788,65073.09999999404,65716.90000000596,66262.40000000596,70145,70707,72201.40000000596,73771,74471.59999999404,75167.40000000596,76058.09999999404,76743.09999999404,78295.09999999404,78850.70000001788,80393.30000001192,80965.20000001788,82428.09999999404,83130.70000001788,83875.5,84581.5,85240.90000000596,86611.80000001192],"key_events":[],"mouse_events":[5963.5999999940395,8650.800000011921,9211.700000017881,9899.300000011921,10693.5,11442.59999999404,12237.09999999404,13019.800000011921,14340.5,14996.300000011921,16083.800000011921,16646.30000001192,17795.70000001788,18385.70000001788,19159.59999999404,20232.90000000596,20928.70000001788,21776.30000001192,22288.30000001192,23349,23926.09999999404,24581.20000001788,27181.80000001192,28518,29115.5,30032,30788.59999999404,31748.30000001192,32391.70000001788,33066.20000001788,33920.5,35622.40000000596,36341.80000001192,37027.59999999404,37737,38604.5,39331.30000001192,39949.5,40865.70000001788,41790.90000000596,42612,43278.90000000596,43858.09999999404,44532.5,45650.80000001192,50879.80000001192,52232.59999999404,52744.70000001788,53449.5,54142.90000000596,54902.40000000596,55849.59999999404,57129,57839.90000000596,58522.09999999404,59910.80000001192,60806.70000001788,61424.70000001788,62125.70000001788,62907.40000000596,63674.40000000596,64379.70000001788,65073.09999999404,65716.90000000596,66262.40000000596,68915.20000001788,70145,70707,71433.5,72201.40000000596,72940.90000000596,73771,74471.59999999404,75167.40000000596,76058.09999999404,76743.09999999404,77413.59999999404,78295.09999999404,78850.70000001788,79585.70000001788,80393.30000001192,80965.20000001788,81690.30000001192,82428.09999999404,83130.70000001788,83875.5,84581.5,85240.90000000596,85846.90000000596,86611.80000001192,89236.90000000596],"honeypot":0,"survey":"mace","page":9,"trial_type":"survey-mace","trial_index":17,"time_elapsed":597039,"internal_node_id":"0.0-17.0","task_version":"prescreen-v0.3","browser_interactions":0},{"responses":{"01":"No","02":"No","03":"No","04":"Yes","04_ages_12":"12","04_ages_13":"13","04_ages_14":"14","04_ages_15":"15","04_ages_16":"16","04_ages_17":"17","04_ages_18":"18","05":"Yes","05_ages_12":"12","05_ages_13":"13","05_ages_14":"14","05_ages_15":"15","05_ages_16":"16","05_ages_17":"17","05_ages_18":"18","06":"Yes","06_ages_17":"17","07":"Yes","07_ages_1":"1","07_ages_2":"2","07_ages_3":"3","07_ages_4":"4","07_ages_5":"5","07_ages_6":"6","07_ages_7":"7","07_ages_8":"8","07_ages_9":"9","07_ages_10":"10","07_ages_11":"11","07_ages_12":"12","07_ages_13":"13","07_ages_14":"14","07_ages_15":"15","07_ages_16":"16","07_ages_17":"17","07_ages_18":"18","08":"Yes","08_ages_1":"1","08_ages_2":"2","08_ages_3":"3","08_ages_4":"4","08_ages_5":"5","08_ages_6":"6","08_ages_7":"7","08_ages_8":"8","08_ages_9":"9","08_ages_10":"10","08_ages_11":"11","08_ages_12":"12","08_ages_13":"13","08_ages_14":"14","08_ages_15":"15","08_ages_16":"16","08_ages_17":"17","08_ages_18":"18"},"rt":71311.5,"item_order":[0,1,2,3,4,5,6,7],"radio_events":[3533.800000011921,4620.4000000059605,5660.5,7168.4000000059605,15186.40000000596,26625,34276.59999999404,53071.40000000596],"checkbox_events":[9213.699999988079,9889,10616,11293.09999999404,11971.90000000596,12618.90000000596,13278.699999988079,17929.59999999404,18633.80000001192,19686,20367.30000001192,21002.30000001192,22085.80000001192,22641.09999999404,28552.09999999404,36134.69999998808,37791.30000001192,38506.80000001192,39169,39838.59999999404,40846.59999999404,41539.19999998808,42186,42951.5,43690.90000000596,45118.69999998808,46185,47375.90000000596,48064.40000000596,49301.69999998808,49872.5,50567.59999999404,51250.40000000596,54963.69999998808,55623.09999999404,56179.30000001192,56881.90000000596,57548,58251.90000000596,58959.19999998808,59802.09999999404,60528.30000001192,61279.30000001192,61986.19999998808,62698.59999999404,64409.90000000596,65012,66560.90000000596,67689.40000000596,68386.19999998808,69090.09999999404],"key_events":[],"mouse_events":[3533.800000011921,4620.4000000059605,5660.5,7168.4000000059605,9213.699999988079,9889,10616,11293.09999999404,11971.90000000596,12618.90000000596,13278.699999988079,15186.40000000596,17929.59999999404,18633.80000001192,19686,20367.30000001192,21002.30000001192,22085.80000001192,22641.09999999404,25864.09999999404,26625,28552.09999999404,34276.59999999404,36134.69999998808,36734,37791.30000001192,38506.80000001192,39169,39838.59999999404,40846.59999999404,41539.19999998808,42186,42951.5,43690.90000000596,45118.69999998808,46185,47375.90000000596,48064.40000000596,49301.69999998808,49872.5,50567.59999999404,51250.40000000596,53071.40000000596,54963.69999998808,55623.09999999404,56179.30000001192,56881.90000000596,57548,58251.90000000596,58959.19999998808,59802.09999999404,60528.30000001192,61279.30000001192,61986.19999998808,62698.59999999404,63437,64409.90000000596,65012,65887.59999999404,66560.90000000596,67036.59999999404,67689.40000000596,68386.19999998808,69090.09999999404,71299.90000000596],"honeypot":0,"survey":"mace","page":10,"trial_type":"survey-mace","trial_index":18,"time_elapsed":668365,"internal_node_id":"0.0-18.0","task_version":"prescreen-v0.3","browser_interactions":0,"instructed":0},{"rt":4223,"trial_type":"mental-health-alert","trial_index":19,"time_elapsed":672594,"internal_node_id":"0.0-19.0","task_version":"prescreen-v0.3","interactions":"[]"}]