[{"view_history":[{"page_index":0,"viewing_time":2722.699999809265},{"page_index":1,"viewing_time":2916.3999996185303},{"page_index":2,"viewing_time":2676.6000003814697},{"page_index":3,"viewing_time":927}],"rt":9243.699999809265,"trial_type":"instructions","trial_index":0,"time_elapsed":9250,"internal_node_id":"0.0-0.0","task_version":"prescreen-v0.3"},{"rt":12371.29999923706,"responses":{"age":"33","gender-categorical":"Male","gender-free-response":"","ethnicity":"Not Hispanic or Latino","race":["White"],"education":"High school","siblings":"0"},"trial_type":"survey-demo","trial_index":1,"time_elapsed":21628,"internal_node_id":"0.0-1.0","task_version":"prescreen-v0.3"},{"responses":{"Q05":"1","Q17":"2","Q07":"3","Q13":"0","Q16":"0","Q11":"3","Q01":"3","Q21":"3","Q19":"0","Q06":"0","Q08":"0","Q10":"0","Q15":"0","Q18":"0","Q12":"0","Q03":"2","Q09":"3","Q04":"3","Q14":"0","Q20":"1","Q02":"0"},"rt":120217.5,"item_order":[4,16,6,12,15,10,0,20,18,5,7,9,14,17,11,2,8,3,13,19,1],"radio_events":[19622.39999961853,22714.60000038147,24608.39999961853,50201.89999961853,52559,55451.699999809265,56474.5,58357.39999961853,61732.699999809265,65903.19999980927,71400.5,74628.60000038147,78048.5,79710.89999961853,81963.89999961853,89618.69999980927,92255.60000038147,93294.39999961853,94277.10000038147,96459.60000038147,98232.39999961853,100450.30000019073,104840.5,106191.39999961853,110090.5,119359.5],"key_events":[],"mouse_events":[19622.39999961853,22714.60000038147,24153,24608.39999961853,50201.89999961853,52559,55451.699999809265,56474.5,57672.800000190735,58357.39999961853,60677.39999961853,61732.699999809265,65903.19999980927,71400.5,74173.10000038147,74628.60000038147,78048.5,79710.89999961853,81963.89999961853,88500.39999961853,89067.39999961853,89618.69999980927,92255.60000038147,93294.39999961853,94277.10000038147,96459.60000038147,97793.19999980927,98232.39999961853,100450.30000019073,104840.5,106191.39999961853,108987.80000019073,109746.69999980927,110090.5,119359.5,120215],"straightlining":0.5238095238095238,"zigzagging":0.45,"honeypot":0,"survey":"sns","trial_type":"survey-template","trial_index":2,"time_elapsed":141858,"internal_node_id":"0.0-2.0","task_version":"prescreen-v0.3","browser_interactions":0,"infrequency":0},{"responses":{"Q09":"1","Q01":"1","Q03":"3","Q11":"1","Q02":"2","Q08":"1","Q10":"1","Q05":"2","Q12":"0","Q13":"0","Q04":"1","Q06":"3","Q07":"3"},"rt":52015.29999923706,"item_order":[8,0,2,10,1,7,9,4,11,12,3,5,6],"radio_events":[4103,5772.89999961853,9264.79999923706,16248.39999961853,17614.89999961853,18350.29999923706,21250.29999923706,22840.29999923706,24118.89999961853,24598.39999961853,31102.5,34330.699999809265,36136.5,37463,44321.599999427795,49185.099999427795,49976.099999427795,51342.29999923706],"key_events":[],"mouse_events":[4103,5772.89999961853,7019.5,8809,9264.79999923706,16248.39999961853,17614.89999961853,18350.29999923706,21250.29999923706,22840.29999923706,24118.89999961853,24598.39999961853,31102.5,33843.39999961853,34330.699999809265,36136.5,37463,44321.599999427795,49185.099999427795,49976.099999427795,51342.29999923706,52013.79999923706],"straightlining":0.46153846153846156,"zigzagging":0.3333333333333333,"honeypot":0,"survey":"bisbas","trial_type":"survey-template","trial_index":3,"time_elapsed":193881,"internal_node_id":"0.0-3.0","task_version":"prescreen-v0.3","browser_interactions":0,"infrequency":0},{"responses":{"Q01":"2","Q02":"2","Q03":"2"},"rt":12898.29999923706,"radio_events":[3673.8999996185303,7640.5,11840.099999427795],"key_events":[],"mouse_events":[3673.8999996185303,7141.699999809265,7640.5,11344.89999961853,11840.099999427795,12897.599999427795],"survey":"map","page":1,"trial_type":"survey-map","trial_index":4,"time_elapsed":206788,"internal_node_id":"0.0-4.0","task_version":"prescreen-v0.3","browser_interactions":0},{"responses":{"Q04":"2","Q05":"2","Q06":"2"},"rt":12047.39999961853,"radio_events":[7484.10000038147,8801.199999809265,10112.800000190735],"key_events":[],"mouse_events":[7484.10000038147,8801.199999809265,9729.39999961853,10112.800000190735,12046.699999809265],"survey":"map","page":2,"trial_type":"survey-map","trial_index":5,"time_elapsed":218843,"internal_node_id":"0.0-5.0","task_version":"prescreen-v0.3","browser_interactions":2},{"responses":{"Q07":"4","Q08":"0","Q09":"0"},"rt":14623.60000038147,"radio_events":[5242.300000190735,11323.300000190735,13248.60000038147],"key_events":[],"mouse_events":[5242.300000190735,11323.300000190735,13248.60000038147,14622.900000572205],"survey":"map","page":3,"trial_type":"survey-map","trial_index":6,"time_elapsed":233473,"internal_node_id":"0.0-6.0","task_version":"prescreen-v0.3","browser_interactions":0},{"responses":{"Q10":"1","Q11":"1","Q12":"2","Q13":"2","Q16":"0","Q14":"2","Q15":"2"},"rt":26506.300000190735,"radio_events":[3644.199999809265,5894.39999961853,11498.800000190735,13537.699999809265,16628.699999809265,23184.199999809265,25539.60000038147],"key_events":[],"mouse_events":[3644.199999809265,5894.39999961853,11498.800000190735,13537.699999809265,16628.699999809265,23184.199999809265,24491.39999961853,25539.60000038147,26505],"survey":"map","page":4,"trial_type":"survey-map","trial_index":7,"time_elapsed":259987,"internal_node_id":"0.0-7.0","task_version":"prescreen-v0.3","browser_interactions":0,"infrequency":0},{"view_history":[{"page_index":0,"viewing_time":1854},{"page_index":1,"viewing_time":1933.6000003814697}],"rt":3788,"trial_type":"instructions","trial_index":8,"time_elapsed":263781,"internal_node_id":"0.0-8.0","task_version":"prescreen-v0.3"},{"responses":{"01":"No","02":"No","03":"No","04":"No","05":"No","06":"No"},"rt":19056.300000190735,"item_order":[0,1,2,3,4,5],"radio_events":[7298.5,9239.800000190735,10343.099999427795,12036.39999961853,13419.099999427795,15208.599999427795],"checkbox_events":[],"key_events":[],"mouse_events":[0.09999942779541016,7298.5,9239.800000190735,10343.099999427795,12036.39999961853,13419.099999427795,14689.39999961853,15208.599999427795,15903.699999809265,19052.699999809265],"honeypot":0,"survey":"mace","page":1,"trial_type":"survey-mace","trial_index":9,"time_elapsed":282844,"internal_node_id":"0.0-9.0","task_version":"prescreen-v0.3","browser_interactions":0},{"responses":{"01":"No","02":"No","03":"No","04":"No","05":"No","06":"No","07":"No","08":"No"},"rt":12384.60000038147,"item_order":[0,1,2,3,4,5,6,7],"radio_events":[3206.9000005722046,3990,4685,5715.700000762939,6538.700000762939,7505.5,9511,10206.300000190735],"checkbox_events":[],"key_events":[],"mouse_events":[3206.9000005722046,3990,4685,5715.700000762939,6538.700000762939,7505.5,8480.60000038147,9511,10206.300000190735,12380],"honeypot":0,"survey":"mace","page":2,"trial_type":"survey-mace","trial_index":10,"time_elapsed":295238,"internal_node_id":"0.0-10.0","task_version":"prescreen-v0.3","browser_interactions":0},{"responses":{"01":"No","02":"No","03":"No","04":"No"},"rt":6493.800000190735,"item_order":[0,1,2,3],"radio_events":[2312,2991.3999996185303,5012.89999961853,5780],"checkbox_events":[],"key_events":[],"mouse_events":[2312,2991.3999996185303,4448.699999809265,5012.89999961853,5780,6491.39999961853],"honeypot":0,"survey":"mace","page":3,"trial_type":"survey-mace","trial_index":11,"time_elapsed":301739,"internal_node_id":"0.0-11.0","task_version":"prescreen-v0.3","browser_interactions":0},{"responses":{"01":"No","02":"No"},"rt":4345.89999961853,"item_order":[0,1],"radio_events":[2466.7999992370605,3683.5],"checkbox_events":[],"key_events":[],"mouse_events":[2466.7999992370605,3683.5,4344.5],"honeypot":0,"survey":"mace","page":4,"trial_type":"survey-mace","trial_index":12,"time_elapsed":306092,"internal_node_id":"0.0-12.0","task_version":"prescreen-v0.3","browser_interactions":0},{"responses":{"01":"No","02":"No","03":"No","04":"No","05":"No"},"rt":8128.5,"item_order":[0,1,2,3,4],"radio_events":[2212.7999992370605,3666.699999809265,4346,5624.5,6679.099999427795],"checkbox_events":[],"key_events":[],"mouse_events":[2212.7999992370605,3043.5,3666.699999809265,4346,5624.5,6679.099999427795,8125.5],"honeypot":0,"survey":"mace","page":5,"trial_type":"survey-mace","trial_index":13,"time_elapsed":314229,"internal_node_id":"0.0-13.0","task_version":"prescreen-v0.3","browser_interactions":0},{"responses":{"01":"Yes","01_ages_10":"10","01_ages_11":"11","01_ages_12":"12","01_ages_13":"13","01_ages_14":"14","01_ages_15":"15","01_ages_16":"16","01_ages_17":"17","02":"Yes","02_ages_10":"10","02_ages_11":"11","02_ages_12":"12","02_ages_13":"13","02_ages_14":"14","02_ages_15":"15","02_ages_16":"16","02_ages_17":"17","03":"Yes","03_ages_10":"10","03_ages_11":"11","03_ages_12":"12","03_ages_13":"13","03_ages_14":"14","03_ages_15":"15","03_ages_16":"16","03_ages_17":"17","04":"Yes","04_ages_10":"10","04_ages_11":"11","04_ages_12":"12","04_ages_13":"13","04_ages_14":"14","04_ages_15":"15","04_ages_16":"16","04_ages_17":"17","05":"Yes","05_ages_10":"10","05_ages_11":"11","05_ages_12":"12","05_ages_13":"13","05_ages_14":"14","05_ages_15":"15","05_ages_16":"16","05_ages_17":"17"},"rt":63108.10000038147,"item_order":[0,1,2,3,4],"radio_events":[6316.89999961853,33372.800000190735,42146.10000038147,49066.10000038147,56184.89999961853],"checkbox_events":[13149.199999809265,13620.300000190735,14171.699999809265,14714.89999961853,15326,20252.300000190735,23568.5,26245.39999961853,34379.5,34931.199999809265,35402.39999961853,35848.89999961853,36728.800000190735,37136.199999809265,37575.5,38023,42937.800000190735,43360.699999809265,43840.10000038147,44328.199999809265,45070.800000190735,45547.89999961853,45989.89999961853,46437.10000038147,50048.699999809265,50400.300000190735,50743.89999961853,51087.699999809265,51455.199999809265,51854.60000038147,52334,52845.699999809265,57360,57735.60000038147,58159.10000038147,58542.60000038147,58990.199999809265,59469.5,60692.199999809265,61004],"key_events":[],"mouse_events":[6316.89999961853,13149.199999809265,13620.300000190735,14171.699999809265,14714.89999961853,15326,20252.300000190735,23568.5,26245.39999961853,33372.800000190735,34379.5,34931.199999809265,35402.39999961853,35848.89999961853,36728.800000190735,37136.199999809265,37575.5,38023,42146.10000038147,42937.800000190735,43360.699999809265,43840.10000038147,44328.199999809265,45070.800000190735,45547.89999961853,45989.89999961853,46437.10000038147,49066.10000038147,50048.699999809265,50400.300000190735,50743.89999961853,51087.699999809265,51455.199999809265,51854.60000038147,52334,52845.699999809265,56184.89999961853,57360,57735.60000038147,58159.10000038147,58542.60000038147,58990.199999809265,59469.5,59852.39999961853,60692.199999809265,61004,63105.300000190735],"honeypot":0,"survey":"mace","page":6,"trial_type":"survey-mace","trial_index":14,"time_elapsed":377346,"internal_node_id":"0.0-14.0","task_version":"prescreen-v0.3","browser_interactions":2},{"responses":{"01":"Yes","01_ages_14":"14","01_ages_15":"15","02":"No","03":"Yes","03_ages_11":"11","03_ages_12":"12","04":"No","05":"No","06":"No","07":"No"},"rt":39185.800000190735,"item_order":[0,1,2,3,4,5,6],"radio_events":[3889.1000003814697,17184,23400.400000572205,32389.900000572205,35865.60000038147,37436.60000038147,38446.900000572205],"checkbox_events":[7234.800000190735,7819.5,25014.70000076294,25550],"key_events":[],"mouse_events":[3889.1000003814697,7234.800000190735,7819.5,17184,23400.400000572205,25014.70000076294,25550,32389.900000572205,35865.60000038147,37436.60000038147,38446.900000572205,39181.800000190735],"honeypot":0,"survey":"mace","page":7,"trial_type":"survey-mace","trial_index":15,"time_elapsed":416542,"internal_node_id":"0.0-15.0","task_version":"prescreen-v0.3","browser_interactions":0},{"responses":{"01":"No","02":"No","03":"No","04":"No"},"rt":11488.300000190735,"item_order":[0,1,2,3],"radio_events":[4606.10000038147,7242.89999961853,8841,10805.300000190735],"checkbox_events":[],"key_events":[],"mouse_events":[4606.10000038147,7242.89999961853,8841,10063.5,10805.300000190735,11485.89999961853],"honeypot":0,"survey":"mace","page":8,"trial_type":"survey-mace","trial_index":16,"time_elapsed":428038,"internal_node_id":"0.0-16.0","task_version":"prescreen-v0.3","browser_interactions":0},{"responses":{"01":"Yes","01_ages_1":"1","01_ages_2":"2","01_ages_3":"3","01_ages_4":"4","01_ages_5":"5","01_ages_6":"6","01_ages_7":"7","01_ages_8":"8","01_ages_9":"9","01_ages_10":"10","01_ages_11":"11","01_ages_12":"12","01_ages_13":"13","01_ages_14":"14","01_ages_15":"15","01_ages_16":"16","01_ages_17":"17","01_ages_18":"18","02":"Yes","02_ages_1":"1","02_ages_2":"2","02_ages_3":"3","02_ages_4":"4","02_ages_5":"5","02_ages_6":"6","02_ages_7":"7","02_ages_8":"8","02_ages_9":"9","02_ages_10":"10","02_ages_11":"11","02_ages_12":"12","02_ages_13":"13","02_ages_14":"14","02_ages_15":"15","02_ages_16":"16","02_ages_17":"17","02_ages_18":"18","03":"Yes","03_ages_1":"1","03_ages_2":"2","03_ages_3":"3","03_ages_4":"4","03_ages_5":"5","03_ages_6":"6","03_ages_7":"7","03_ages_8":"8","03_ages_9":"9","03_ages_10":"10","03_ages_11":"11","03_ages_12":"12","03_ages_13":"13","03_ages_14":"14","03_ages_15":"15","03_ages_16":"16","03_ages_17":"17","03_ages_18":"18","04":"Yes","04_ages_1":"1","04_ages_2":"2","04_ages_3":"3","04_ages_4":"4","04_ages_5":"5","04_ages_6":"6","04_ages_7":"7","04_ages_8":"8","04_ages_9":"9","04_ages_10":"10","04_ages_11":"11","04_ages_12":"12","04_ages_13":"13","04_ages_14":"14","04_ages_15":"15","04_ages_16":"16","04_ages_17":"17","04_ages_18":"18"},"rt":54703.099999427795,"item_order":[0,1,2,3],"radio_events":[2690.5,15763,28907.29999923706,41755.89999961853],"checkbox_events":[5671,6062.5,6605.89999961853,7013.39999961853,7420.699999809265,7876.39999961853,8291.79999923706,8651.5,9410.599999427795,10035.099999427795,10719,11208.599999427795,12606.599999427795,13501.599999427795,13845.199999809265,14165,14500.39999961853,14900.099999427795,17249.29999923706,17736.79999923706,18248.099999427795,18895.29999923706,19326.89999961853,19702.29999923706,20109.79999923706,20509.29999923706,20901.099999427795,21292.39999961853,21643.79999923706,22131.39999961853,22578.79999923706,23034.199999809265,24152,24720.199999809265,25263.599999427795,25623.099999427795,30457.599999427795,31248.699999809265,31734.29999923706,32279.39999961853,33390.099999427795,33789.39999961853,34369.699999809265,34836.29999923706,35313.89999961853,36042.699999809265,36458.29999923706,36841.79999923706,37201.39999961853,37703.29999923706,38503.79999923706,38911.5,39360.29999923706,39838.199999809265,43042.39999961853,43474,43969.29999923706,45016.099999427795,45415.699999809265,45807.199999809265,46294.5,46788.5,47316.199999809265,47996.5,48420,48787.599999427795,49578.699999809265,49938.199999809265,50601.39999961853,51048.79999923706,52743.099999427795,53198.39999961853],"key_events":[],"mouse_events":[2690.5,5167.599999427795,5671,6062.5,6605.89999961853,7013.39999961853,7420.699999809265,7876.39999961853,8291.79999923706,8651.5,9410.599999427795,10035.099999427795,10377.29999923706,10719,11208.599999427795,11576.39999961853,12606.599999427795,13501.599999427795,13845.199999809265,14165,14500.39999961853,14900.099999427795,15763,17249.29999923706,17736.79999923706,18248.099999427795,18895.29999923706,19326.89999961853,19702.29999923706,20109.79999923706,20509.29999923706,20901.099999427795,21292.39999961853,21643.79999923706,22131.39999961853,22578.79999923706,23034.199999809265,23521.699999809265,24152,24720.199999809265,25263.599999427795,25623.099999427795,28907.29999923706,30057.79999923706,30457.599999427795,30823.199999809265,31248.699999809265,31734.29999923706,32279.39999961853,32750.599999427795,33390.099999427795,33789.39999961853,34369.699999809265,34836.29999923706,35313.89999961853,36042.699999809265,36458.29999923706,36841.79999923706,37201.39999961853,37703.29999923706,38503.79999923706,38911.5,39360.29999923706,39838.199999809265,40916.89999961853,41755.89999961853,43042.39999961853,43474,43969.29999923706,44416.79999923706,45016.099999427795,45415.699999809265,45807.199999809265,46294.5,46788.5,47316.199999809265,47996.5,48420,48787.599999427795,49578.699999809265,49938.199999809265,50289.89999961853,50601.39999961853,51048.79999923706,51432.599999427795,51815.89999961853,52743.099999427795,53198.39999961853,54700.79999923706],"honeypot":0,"survey":"mace","page":9,"trial_type":"survey-mace","trial_index":17,"time_elapsed":482749,"internal_node_id":"0.0-17.0","task_version":"prescreen-v0.3","browser_interactions":0},{"responses":{"01":"No","02":"No","03":"No","04":"No","05":"No","06":"Yes","06_ages_17":"17","07":"Yes","07_ages_1":"1","07_ages_2":"2","07_ages_3":"3","07_ages_4":"4","07_ages_5":"5","07_ages_6":"6","07_ages_7":"7","07_ages_8":"8","07_ages_9":"9","07_ages_10":"10","07_ages_11":"11","07_ages_12":"12","07_ages_13":"13","07_ages_14":"14","07_ages_15":"15","07_ages_16":"16","07_ages_17":"17","07_ages_18":"18","08":"Yes","08_ages_1":"1","08_ages_2":"2","08_ages_3":"3","08_ages_4":"4","08_ages_5":"5","08_ages_6":"6","08_ages_7":"7","08_ages_8":"8","08_ages_9":"9","08_ages_10":"10","08_ages_11":"11","08_ages_12":"12","08_ages_13":"13","08_ages_14":"14","08_ages_15":"15","08_ages_16":"16","08_ages_17":"17","08_ages_18":"18"},"rt":40703.89999961853,"item_order":[0,1,2,3,4,5,6,7],"radio_events":[2985.5,4232,5150.699999809265,6301.39999961853,7396.89999961853,9393.599999427795,13724.5,17911.39999961853],"checkbox_events":[10880.800000190735,22586,22993.39999961853,23463.5,23768.599999427795,24160.199999809265,24975.199999809265,25334.800000190735,26109.800000190735,26693.5,27108.599999427795,27548,27987.39999961853,28339.099999427795,29194,29617.5,30065.199999809265,30392.89999961853,30799.699999809265,31751.099999427795,32789.800000190735,33444.300000190735,33884.5,34276,34683.5,35114.89999961853,35978,36409.5,36770.5,37153.699999809265,37560.099999427795,37943.5,38319.099999427795,38730.199999809265,39102.199999809265,39621.5,40029.099999427795],"key_events":[],"mouse_events":[2098.300000190735,2985.5,3480.8999996185303,4232,5150.699999809265,6301.39999961853,7396.89999961853,9393.599999427795,10880.800000190735,13724.5,17911.39999961853,22586,22993.39999961853,23463.5,23768.599999427795,24160.199999809265,24975.199999809265,25334.800000190735,25638.599999427795,26109.800000190735,26693.5,27108.599999427795,27548,27987.39999961853,28339.099999427795,29194,29617.5,30065.199999809265,30392.89999961853,30799.699999809265,31751.099999427795,32102.89999961853,32789.800000190735,33444.300000190735,33884.5,34276,34683.5,35114.89999961853,35978,36409.5,36770.5,37153.699999809265,37560.099999427795,37943.5,38319.099999427795,38730.199999809265,39102.199999809265,39621.5,40029.099999427795,40699.199999809265],"honeypot":0,"survey":"mace","page":10,"trial_type":"survey-mace","trial_index":18,"time_elapsed":523463,"internal_node_id":"0.0-18.0","task_version":"prescreen-v0.3","browser_interactions":2,"instructed":0},{"rt":3227.4000005722046,"trial_type":"mental-health-alert","trial_index":19,"time_elapsed":526697,"internal_node_id":"0.0-19.0","task_version":"prescreen-v0.3","interactions":"[{\"event\":\"blur\",\"trial\":5,\"time\":208934},{\"event\":\"focus\",\"trial\":5,\"time\":209810},{\"event\":\"blur\",\"trial\":14,\"time\":323614},{\"event\":\"focus\",\"trial\":14,\"time\":324298},{\"event\":\"blur\",\"trial\":18,\"time\":502861},{\"event\":\"focus\",\"trial\":18,\"time\":503848}]"}]