[{"view_history":[{"page_index":0,"viewing_time":3702.300000011921},{"page_index":1,"viewing_time":8311},{"page_index":2,"viewing_time":10239.800000011921},{"page_index":3,"viewing_time":1192.1000000238419}],"rt":23446.200000047684,"trial_type":"instructions","trial_index":0,"time_elapsed":23461,"internal_node_id":"0.0-0.0","task_version":"prescreen-v0.3"},{"rt":28826.200000047684,"responses":{"age":"49","gender-categorical":"Male","gender-free-response":"","ethnicity":"Not Hispanic or Latino","race":["White"],"education":"Bachelor degree","siblings":"1"},"trial_type":"survey-demo","trial_index":1,"time_elapsed":52291,"internal_node_id":"0.0-1.0","task_version":"prescreen-v0.3"},{"responses":{"Q20":"0","Q08":"2","Q13":"2","Q06":"1","Q02":"2","Q01":"2","Q15":"2","Q16":"0","Q09":"1","Q17":"2","Q12":"2","Q21":"3","Q10":"1","Q04":"2","Q03":"1","Q05":"2","Q14":"2","Q07":"2","Q11":"2","Q19":"2","Q18":"2"},"rt":110213.19999998808,"item_order":[19,7,12,5,1,0,14,15,8,16,11,20,9,3,2,4,13,6,10,18,17],"radio_events":[7629,9052.699999988079,13362.5,20330.69999998808,24386.299999952316,30194.399999976158,32826.299999952316,41002.799999952316,45424.299999952316,47600.19999998808,53856.59999996424,59200.5,61808.299999952316,65840.5,88388.59999996424,90214.59999996424,94342.39999997616,97572.09999996424,99534.09999996424,102756.19999998808,109500.59999996424],"key_events":[],"mouse_events":[7629,9052.699999988079,13362.5,20330.69999998808,24386.299999952316,30194.399999976158,32826.299999952316,41002.799999952316,45424.299999952316,47600.19999998808,53856.59999996424,59200.5,61808.299999952316,65840.5,88388.59999996424,90214.59999996424,94342.39999997616,97572.09999996424,99534.09999996424,102756.19999998808,104461.09999996424,105229.39999997616,109500.59999996424,110211.79999995232],"straightlining":0.6666666666666666,"zigzagging":0.4,"honeypot":0,"survey":"sns","trial_type":"survey-template","trial_index":2,"time_elapsed":162508,"internal_node_id":"0.0-2.0","task_version":"prescreen-v0.3","browser_interactions":0,"infrequency":0},{"responses":{"Q11":"1","Q01":"3","Q05":"3","Q13":"0","Q09":"2","Q10":"2","Q04":"2","Q08":"1","Q12":"1","Q02":"3","Q06":"2","Q07":"2","Q03":"3"},"rt":58114.19999998808,"item_order":[10,0,4,12,8,9,3,7,11,1,5,6,2],"radio_events":[11674.699999988079,12858.699999988079,15898.5,18354.599999964237,26170,27250,31434.69999998808,38570.5,40978.09999996424,44002,50128.799999952316,50936,57536.299999952316],"key_events":[],"mouse_events":[9860.699999988079,11674.699999988079,12858.699999988079,15898.5,18354.599999964237,26170,27250,31434.69999998808,38570.5,40978.09999996424,44002,50128.799999952316,50936,57536.299999952316,58113.39999997616],"straightlining":0.38461538461538464,"zigzagging":0.3333333333333333,"honeypot":0,"survey":"bisbas","trial_type":"survey-template","trial_index":3,"time_elapsed":220625,"internal_node_id":"0.0-3.0","task_version":"prescreen-v0.3","browser_interactions":0,"infrequency":0},{"responses":{"Q01":"2","Q02":"1","Q03":"1"},"rt":10572.600000023842,"radio_events":[5179.5,7092.400000035763,9515.900000035763],"key_events":[],"mouse_events":[5179.5,7092.400000035763,8659.100000023842,9515.900000035763,10572.100000023842],"survey":"map","page":1,"trial_type":"survey-map","trial_index":4,"time_elapsed":231199,"internal_node_id":"0.0-4.0","task_version":"prescreen-v0.3","browser_interactions":0},{"responses":{"Q04":"1","Q05":"1","Q06":"2"},"rt":9525.700000047684,"radio_events":[3181.2000000476837,5356.5,8658.800000011921],"key_events":[],"mouse_events":[3181.2000000476837,5356.5,8658.800000011921,9525.300000011921],"survey":"map","page":2,"trial_type":"survey-map","trial_index":5,"time_elapsed":240727,"internal_node_id":"0.0-5.0","task_version":"prescreen-v0.3","browser_interactions":0},{"responses":{"Q07":"2","Q08":"1","Q09":"2"},"rt":6620.700000047684,"radio_events":[2836.5,3958.400000035763,4876.400000035763],"key_events":[],"mouse_events":[2836.5,3958.400000035763,4876.400000035763,6620.400000035763],"survey":"map","page":3,"trial_type":"survey-map","trial_index":6,"time_elapsed":247349,"internal_node_id":"0.0-6.0","task_version":"prescreen-v0.3","browser_interactions":0},{"responses":{"Q10":"2","Q11":"1","Q12":"2","Q13":"2","Q16":"2","Q14":"1","Q15":"2"},"rt":19611.69999998808,"radio_events":[6429.400000035763,7886.100000023842,9901.600000023842,12165.900000035763,14030.300000011921,15509.900000035763,16971.80000001192],"key_events":[],"mouse_events":[6429.400000035763,7886.100000023842,9901.600000023842,12165.900000035763,14030.300000011921,15509.900000035763,16971.80000001192,19611],"survey":"map","page":4,"trial_type":"survey-map","trial_index":7,"time_elapsed":266962,"internal_node_id":"0.0-7.0","task_version":"prescreen-v0.3","browser_interactions":0,"infrequency":1},{"view_history":[{"page_index":0,"viewing_time":2526.899999976158},{"page_index":1,"viewing_time":3479.899999976158}],"rt":6007.599999964237,"trial_type":"instructions","trial_index":8,"time_elapsed":272970,"internal_node_id":"0.0-8.0","task_version":"prescreen-v0.3"},{"responses":{"01":"Yes","01_ages_8":"8","01_ages_10":"10","01_ages_11":"11","02":"Yes","02_ages_10":"10","02_ages_11":"11","02_ages_12":"12","02_ages_13":"13","02_ages_14":"14","02_ages_15":"15","02_ages_16":"16","03":"Yes","03_ages_15":"15","03_ages_16":"16","03_ages_17":"17","03_ages_18":"18","04":"No","05":"No","06":"No"},"rt":59108.30000001192,"item_order":[0,1,2,3,4,5],"radio_events":[4812.5,6451.399999976158,7995.599999964237,9420.199999988079,17404,33538.30000001192,45538,54905.59999996424,58352.19999998808],"checkbox_events":[25668.30000001192,29509,30065.80000001192,36210.19999998808,37074.39999997616,37690.80000001192,38490.69999998808,39074.09999996424,39882.59999996424,40714.39999997616,46714.39999997616,47537.59999996424,49042.5,49456.09999996424,49994.80000001192,50450.09999996424],"key_events":[],"mouse_events":[0.19999998807907104,4812.5,6451.399999976158,7995.599999964237,9420.199999988079,17404,25668.30000001192,29509,30065.80000001192,33538.30000001192,36210.19999998808,37074.39999997616,37690.80000001192,38490.69999998808,39074.09999996424,39882.59999996424,40714.39999997616,45538,46714.39999997616,47537.59999996424,49042.5,49456.09999996424,49994.80000001192,50450.09999996424,54905.59999996424,58352.19999998808,59106.5],"honeypot":0,"survey":"mace","page":1,"trial_type":"survey-mace","trial_index":9,"time_elapsed":332083,"internal_node_id":"0.0-9.0","task_version":"prescreen-v0.3","browser_interactions":0},{"responses":{"01":"No","02":"No","03":"No","04":"Yes","04_ages_16":"16","05":"No","06":"No","07":"No","08":"No"},"rt":23059.900000035763,"item_order":[0,1,2,3,4,5,6,7],"radio_events":[6585.400000035763,7673.300000011921,8545.800000011921,9785.5,12161,19047.400000035763,20529.30000001192,21833.69999998808,22593.400000035763],"checkbox_events":[14287.300000011921],"key_events":[],"mouse_events":[6585.400000035763,7673.300000011921,8545.800000011921,9785.5,12161,14287.300000011921,19047.400000035763,20529.30000001192,21833.69999998808,22593.400000035763,23057.69999998808],"honeypot":0,"survey":"mace","page":2,"trial_type":"survey-mace","trial_index":10,"time_elapsed":355147,"internal_node_id":"0.0-10.0","task_version":"prescreen-v0.3","browser_interactions":0},{"responses":{"01":"No","02":"No","03":"No","04":"No"},"rt":8932.300000011921,"item_order":[0,1,2,3],"radio_events":[4961.199999988079,6578.599999964237,7154.599999964237,8233],"checkbox_events":[],"key_events":[],"mouse_events":[4961.199999988079,6578.599999964237,7154.599999964237,8233,8930.699999988079],"honeypot":0,"survey":"mace","page":3,"trial_type":"survey-mace","trial_index":11,"time_elapsed":364081,"internal_node_id":"0.0-11.0","task_version":"prescreen-v0.3","browser_interactions":0},{"responses":{"01":"No","02":"No"},"rt":6091.700000047684,"item_order":[0,1],"radio_events":[3971.100000023842,5555.200000047684],"checkbox_events":[],"key_events":[],"mouse_events":[3971.100000023842,5555.200000047684,6090.700000047684],"honeypot":0,"survey":"mace","page":4,"trial_type":"survey-mace","trial_index":12,"time_elapsed":370174,"internal_node_id":"0.0-12.0","task_version":"prescreen-v0.3","browser_interactions":0},{"responses":{"01":"No","02":"No","03":"No","04":"No","05":"No"},"rt":13391.099999964237,"item_order":[0,1,2,3,4],"radio_events":[8181.899999976158,8870.599999964237,10277.5,11453.899999976158,12651.599999964237],"checkbox_events":[],"key_events":[],"mouse_events":[8181.899999976158,8870.599999964237,10277.5,11453.899999976158,12651.599999964237,13389.699999988079],"honeypot":0,"survey":"mace","page":5,"trial_type":"survey-mace","trial_index":13,"time_elapsed":383567,"internal_node_id":"0.0-13.0","task_version":"prescreen-v0.3","browser_interactions":0},{"responses":{"01":"Yes","01_ages_9":"9","01_ages_10":"10","01_ages_11":"11","01_ages_12":"12","01_ages_13":"13","01_ages_14":"14","01_ages_15":"15","02":"Yes","02_ages_10":"10","02_ages_11":"11","02_ages_12":"12","02_ages_13":"13","02_ages_14":"14","02_ages_15":"15","02_ages_16":"16","03":"Yes","03_ages_16":"16","03_ages_17":"17","03_ages_18":"18","04":"Yes","04_ages_14":"14","04_ages_15":"15","04_ages_16":"16","04_ages_17":"17","05":"Yes","05_ages_14":"14","05_ages_15":"15","05_ages_16":"16","05_ages_17":"17","05_ages_18":"18"},"rt":42082.30000001192,"item_order":[0,1,2,3,4],"radio_events":[6250.700000047684,12394.700000047684,25538.600000023842,31178.600000023842,37424.5],"checkbox_events":[7402.800000011921,7923.200000047684,8394.400000035763,8850.900000035763,9322.800000011921,9826.600000023842,10266.400000035763,14459.300000011921,14859.200000047684,15386.700000047684,16834.5,19259,19802.100000023842,20938.80000001192,27818.900000035763,28275,29155.30000001192,32474.5,33225,33690.80000001192,34056.30000001192,38424.60000002384,38896.10000002384,39359.60000002384,40160.80000001192,40617],"key_events":[],"mouse_events":[6250.700000047684,7402.800000011921,7923.200000047684,8394.400000035763,8850.900000035763,9322.800000011921,9826.600000023842,10266.400000035763,12394.700000047684,14459.300000011921,14859.200000047684,15386.700000047684,16834.5,19259,19802.100000023842,20938.80000001192,25538.600000023842,27818.900000035763,28275,29155.30000001192,31178.600000023842,32474.5,33225,33690.80000001192,34056.30000001192,34578.5,37424.5,38424.60000002384,38896.10000002384,39359.60000002384,40160.80000001192,40617,42080.80000001192],"honeypot":0,"survey":"mace","page":6,"trial_type":"survey-mace","trial_index":14,"time_elapsed":425651,"internal_node_id":"0.0-14.0","task_version":"prescreen-v0.3","browser_interactions":0},{"responses":{"01":"Yes","01_ages_14":"14","01_ages_15":"15","01_ages_16":"16","02":"No","03":"Yes","03_ages_15":"15","03_ages_16":"16","03_ages_17":"17","03_ages_18":"18","04":"Yes","04_ages_15":"15","04_ages_16":"16","05":"No","06":"No","07":"No"},"rt":29699.80000001192,"item_order":[0,1,2,3,4,5,6],"radio_events":[5579.399999976158,13443.599999964237,15011.699999988079,23209.19999998808,27048.80000001192,28345.30000001192,29194.69999998808],"checkbox_events":[7403.599999964237,8484.399999976158,10795.300000011921,16172,16715.099999964237,17204.099999964237,17747.899999976158,24530.5,25081.80000001192],"key_events":[],"mouse_events":[5579.399999976158,7403.599999964237,8484.399999976158,9483.399999976158,10795.300000011921,13443.599999964237,15011.699999988079,16172,16715.099999964237,17204.099999964237,17747.899999976158,23209.19999998808,24530.5,25081.80000001192,27048.80000001192,28345.30000001192,29194.69999998808,29697.899999976158],"honeypot":0,"survey":"mace","page":7,"trial_type":"survey-mace","trial_index":15,"time_elapsed":455354,"internal_node_id":"0.0-15.0","task_version":"prescreen-v0.3","browser_interactions":0},{"responses":{"01":"No","02":"No","03":"No","04":"No"},"rt":11547.700000047684,"item_order":[0,1,2,3],"radio_events":[7019.600000023842,8755.700000047684,10435.600000023842,11003.5],"checkbox_events":[],"key_events":[],"mouse_events":[7019.600000023842,8755.700000047684,10435.600000023842,11003.5,11546.600000023842],"honeypot":0,"survey":"mace","page":8,"trial_type":"survey-mace","trial_index":16,"time_elapsed":466903,"internal_node_id":"0.0-16.0","task_version":"prescreen-v0.3","browser_interactions":0},{"responses":{"01":"Yes","01_ages_1":"1","01_ages_2":"2","01_ages_3":"3","01_ages_4":"4","01_ages_5":"5","01_ages_6":"6","01_ages_7":"7","01_ages_8":"8","01_ages_9":"9","01_ages_10":"10","01_ages_11":"11","01_ages_12":"12","01_ages_13":"13","01_ages_14":"14","01_ages_15":"15","01_ages_16":"16","01_ages_17":"17","01_ages_18":"18","02":"Yes","02_ages_1":"1","02_ages_2":"2","02_ages_3":"3","02_ages_4":"4","02_ages_5":"5","02_ages_6":"6","02_ages_7":"7","02_ages_8":"8","02_ages_9":"9","02_ages_10":"10","02_ages_11":"11","02_ages_12":"12","02_ages_13":"13","02_ages_14":"14","02_ages_15":"15","02_ages_16":"16","02_ages_17":"17","02_ages_18":"18","03":"Yes","03_ages_1":"1","03_ages_2":"2","03_ages_3":"3","03_ages_4":"4","03_ages_5":"5","03_ages_6":"6","03_ages_7":"7","03_ages_8":"8","03_ages_9":"9","03_ages_10":"10","03_ages_11":"11","03_ages_12":"12","03_ages_13":"13","03_ages_14":"14","03_ages_15":"15","03_ages_16":"16","03_ages_17":"17","03_ages_18":"18","04":"Yes","04_ages_5":"5","04_ages_18":"18"},"rt":66019.5,"item_order":[0,1,2,3],"radio_events":[7877.699999988079,24075.80000001192,41913.30000001192,57873.69999998808],"checkbox_events":[9877.899999976158,10357.600000023842,10796.300000011921,11268,11676.100000023842,12774.199999988079,13412.600000023842,13876.5,14453.600000023842,15028.199999988079,15821.899999976158,16260.100000023842,16790.69999998808,18653.899999976158,19235.600000023842,20172.19999998808,20780.19999998808,21508.19999998808,25435.30000001192,26147.899999976158,26700.5,27228.19999998808,27779.600000023842,29011.80000001192,29482.399999976158,30347.69999998808,31243.600000023842,32179.899999976158,32692.5,33284.10000002384,34011.89999997616,34612,35155.89999997616,35851.19999998808,36427.60000002384,36972,43339.39999997616,44235.89999997616,44875,45514.30000001192,45938.10000002384,46385.80000001192,47017.69999998808,47561.69999998808,48178.19999998808,48682.5,49204.60000002384,49890.30000001192,50809.80000001192,51425.89999997616,51994.5,52578.39999997616,53433.19999998808,54097.80000001192,60690.10000002384,64689.69999998808],"key_events":[],"mouse_events":[7877.699999988079,9877.899999976158,10357.600000023842,10796.300000011921,11268,11676.100000023842,12774.199999988079,13412.600000023842,13876.5,14453.600000023842,15028.199999988079,15821.899999976158,16260.100000023842,16790.69999998808,17723.100000023842,18653.899999976158,19235.600000023842,20172.19999998808,20780.19999998808,21508.19999998808,24075.80000001192,25435.30000001192,26147.899999976158,26700.5,27228.19999998808,27779.600000023842,28515.69999998808,29011.80000001192,29482.399999976158,30347.69999998808,31243.600000023842,32179.899999976158,32692.5,33284.10000002384,34011.89999997616,34612,35155.89999997616,35851.19999998808,36427.60000002384,36972,41913.30000001192,43339.39999997616,44235.89999997616,44875,45514.30000001192,45938.10000002384,46385.80000001192,47017.69999998808,47561.69999998808,48178.19999998808,48682.5,49204.60000002384,49890.30000001192,50809.80000001192,51425.89999997616,51994.5,52578.39999997616,53433.19999998808,54097.80000001192,57873.69999998808,60690.10000002384,64689.69999998808,66017.80000001192],"honeypot":0,"survey":"mace","page":9,"trial_type":"survey-mace","trial_index":17,"time_elapsed":532925,"internal_node_id":"0.0-17.0","task_version":"prescreen-v0.3","browser_interactions":0},{"responses":{"01":"No","02":"No","03":"No","04":"No","05":"No","06":"Yes","06_ages_17":"17","07":"Yes","07_ages_1":"1","07_ages_2":"2","07_ages_3":"3","07_ages_4":"4","07_ages_5":"5","07_ages_6":"6","07_ages_7":"7","07_ages_8":"8","07_ages_9":"9","07_ages_10":"10","07_ages_11":"11","07_ages_12":"12","07_ages_13":"13","07_ages_14":"14","07_ages_15":"15","07_ages_16":"16","07_ages_17":"17","07_ages_18":"18","08":"Yes","08_ages_1":"1","08_ages_2":"2","08_ages_3":"3","08_ages_4":"4","08_ages_5":"5","08_ages_6":"6","08_ages_7":"7","08_ages_8":"8","08_ages_9":"9","08_ages_10":"10","08_ages_11":"11","08_ages_12":"12","08_ages_13":"13","08_ages_14":"14","08_ages_15":"15","08_ages_16":"16","08_ages_17":"17","08_ages_18":"18"},"rt":48130.39999997616,"item_order":[0,1,2,3,4,5,6,7],"radio_events":[2564.600000023842,3316.199999988079,4315.899999976158,5362,7948.100000023842,10865.100000023842,18274.100000023842,35521.39999997616],"checkbox_events":[14145.899999976158,20425.80000001192,21258.19999998808,22922.19999998808,23849.399999976158,24490.30000001192,25386.100000023842,26274.100000023842,26778.399999976158,27200.100000023842,27681.30000001192,28330.80000001192,28839.30000001192,29385.100000023842,29896.30000001192,30538.399999976158,31226.19999998808,31897.69999998808,32503.69999998808,36505,37121.69999998808,37624.10000002384,38064.60000002384,38543.30000001192,38928.60000002384,39456.39999997616,39975.60000002384,40416,40874,41297.30000001192,41776.5,42264.39999997616,44129.69999998808,44760,45519.80000001192,46016.5,46464.10000002384],"key_events":[],"mouse_events":[2564.600000023842,3316.199999988079,4315.899999976158,5362,7948.100000023842,10865.100000023842,12825.899999976158,14145.899999976158,18274.100000023842,20425.80000001192,21258.19999998808,22922.19999998808,23849.399999976158,24490.30000001192,25386.100000023842,26274.100000023842,26778.399999976158,27200.100000023842,27681.30000001192,28330.80000001192,28839.30000001192,29385.100000023842,29896.30000001192,30538.399999976158,31226.19999998808,31897.69999998808,32503.69999998808,35521.39999997616,36505,37121.69999998808,37624.10000002384,38064.60000002384,38543.30000001192,38928.60000002384,39456.39999997616,39975.60000002384,40416,40874,41297.30000001192,41776.5,42264.39999997616,42807.60000002384,44129.69999998808,44760,45519.80000001192,46016.5,46464.10000002384,48128.19999998808],"honeypot":0,"survey":"mace","page":10,"trial_type":"survey-mace","trial_index":18,"time_elapsed":581058,"internal_node_id":"0.0-18.0","task_version":"prescreen-v0.3","browser_interactions":0,"instructed":0},{"rt":7745.400000035763,"trial_type":"mental-health-alert","trial_index":19,"time_elapsed":588805,"internal_node_id":"0.0-19.0","task_version":"prescreen-v0.3","interactions":"[]"}]