[{"view_history":[{"page_index":0,"viewing_time":1849.8999998569489},{"page_index":1,"viewing_time":4034.5},{"page_index":2,"viewing_time":36614.800000190735},{"page_index":3,"viewing_time":9786.399999856949}],"rt":52286,"trial_type":"instructions","trial_index":0,"time_elapsed":52323,"internal_node_id":"0.0-0.0","task_version":"prescreen-v0.3"},{"rt":19947.89999985695,"responses":{"age":"31","gender-categorical":"Male","gender-free-response":"","ethnicity":"Not Hispanic or Latino","race":["White"],"education":"Bachelor degree","siblings":"1"},"trial_type":"survey-demo","trial_index":1,"time_elapsed":72276,"internal_node_id":"0.0-1.0","task_version":"prescreen-v0.3"},{"responses":{"Q08":"1","Q15":"2","Q06":"0","Q05":"0","Q11":"0","Q12":"1","Q03":"1","Q14":"2","Q17":"2","Q09":"1","Q16":"2","Q02":"0","Q04":"2","Q01":"0","Q19":"1","Q07":"2","Q20":"0","Q18":"1","Q10":"1","Q21":"3","Q13":"2"},"rt":113137.89999985695,"item_order":[7,14,5,4,10,11,2,13,16,8,15,1,3,0,18,6,19,17,9,20,12],"radio_events":[2944.2999999523163,12200.299999952316,18719,23105.299999952316,26808.39999985695,30825.89999985695,33790.59999990463,39873.699999809265,40893.699999809265,44115.299999952316,48461.5,51786.59999990463,54121.5,59374.699999809265,62359,84641,88527.79999995232,90996.89999985695,98905.89999985695,102873.59999990463,105879.89999985695,112360.39999985695],"key_events":[],"mouse_events":[2944.2999999523163,12200.299999952316,18719,23105.299999952316,26808.39999985695,30825.89999985695,33790.59999990463,37745.5,39873.699999809265,40893.699999809265,44115.299999952316,48461.5,51786.59999990463,54121.5,59374.699999809265,62359,84641,88527.79999995232,90996.89999985695,98905.89999985695,102873.59999990463,105879.89999985695,112360.39999985695,113136.29999995232],"straightlining":0.3333333333333333,"zigzagging":0.45,"honeypot":0,"survey":"sns","trial_type":"survey-template","trial_index":2,"time_elapsed":185426,"internal_node_id":"0.0-2.0","task_version":"prescreen-v0.3","browser_interactions":0,"infrequency":0},{"responses":{"Q07":"3","Q11":"2","Q02":"2","Q05":"2","Q06":"2","Q09":"2","Q13":"0","Q10":"2","Q12":"1","Q03":"3","Q01":"3","Q04":"3","Q08":"2"},"rt":46758.699999809265,"item_order":[6,10,1,4,5,8,12,9,11,2,0,3,7],"radio_events":[3825.5999999046326,6375.299999952316,8151.5,10130.599999904633,17989.39999985695,20712.199999809265,23491.799999952316,27912.39999985695,31020,35956,41032.699999809265,42561.799999952316,46010.59999990463],"key_events":[],"mouse_events":[3825.5999999046326,6375.299999952316,8151.5,10130.599999904633,13101.899999856949,17989.39999985695,19605.199999809265,20712.199999809265,23491.799999952316,27912.39999985695,31020,35956,41032.699999809265,42561.799999952316,46010.59999990463,46757.799999952316],"straightlining":0.5384615384615384,"zigzagging":0.25,"honeypot":0,"survey":"bisbas","trial_type":"survey-template","trial_index":3,"time_elapsed":232191,"internal_node_id":"0.0-3.0","task_version":"prescreen-v0.3","browser_interactions":0,"infrequency":0},{"responses":{"Q01":"4","Q02":"2","Q03":"3"},"rt":15540.100000143051,"radio_events":[5764.299999952316,9448.200000047684,14862.400000095367],"key_events":[],"mouse_events":[5764.299999952316,9448.200000047684,14862.400000095367,15539.700000047684],"survey":"map","page":1,"trial_type":"survey-map","trial_index":4,"time_elapsed":247738,"internal_node_id":"0.0-4.0","task_version":"prescreen-v0.3","browser_interactions":0},{"responses":{"Q04":"3","Q05":"3","Q06":"3"},"rt":11530.300000190735,"radio_events":[4076.4000000953674,8279.900000095367,10444.100000143051],"key_events":[],"mouse_events":[4076.4000000953674,8279.900000095367,10444.100000143051,11530],"survey":"map","page":2,"trial_type":"survey-map","trial_index":5,"time_elapsed":259274,"internal_node_id":"0.0-5.0","task_version":"prescreen-v0.3","browser_interactions":0},{"responses":{"Q07":"2","Q08":"3","Q09":"2"},"rt":49447.40000009537,"radio_events":[43332.300000190735,46620.60000014305,48554],"key_events":[],"mouse_events":[43332.300000190735,46620.60000014305,48554,49447],"survey":"map","page":3,"trial_type":"survey-map","trial_index":6,"time_elapsed":308724,"internal_node_id":"0.0-6.0","task_version":"prescreen-v0.3","browser_interactions":0},{"responses":{"Q10":"2","Q11":"1","Q12":"1","Q13":"1","Q16":"0","Q14":"1","Q15":"1"},"rt":25672.799999952316,"radio_events":[3132.2000000476837,8196.400000095367,10196.5,12547.200000047684,18301.400000095367,23405.700000047684,24613.599999904633],"key_events":[],"mouse_events":[3132.2000000476837,8196.400000095367,10196.5,12547.200000047684,18301.400000095367,23405.700000047684,24613.599999904633,25672.099999904633],"survey":"map","page":4,"trial_type":"survey-map","trial_index":7,"time_elapsed":334401,"internal_node_id":"0.0-7.0","task_version":"prescreen-v0.3","browser_interactions":0,"infrequency":0},{"view_history":[{"page_index":0,"viewing_time":2692.2999999523163},{"page_index":1,"viewing_time":2826.600000143051}],"rt":5519.400000095367,"trial_type":"instructions","trial_index":8,"time_elapsed":339924,"internal_node_id":"0.0-8.0","task_version":"prescreen-v0.3"},{"responses":{"01":"No","02":"Yes","02_ages_10":"10","02_ages_11":"11","02_ages_12":"12","02_ages_13":"13","02_ages_14":"14","02_ages_15":"15","02_ages_16":"16","02_ages_17":"17","02_ages_18":"18","03":"No","04":"No","05":"No","06":"No"},"rt":34588.5,"item_order":[0,1,2,3,4,5],"radio_events":[8805.300000190735,10723.900000095367,28033.700000047684,30643.700000047684,32529.10000014305,33754.90000009537],"checkbox_events":[16619.900000095367,17062.900000095367,17573.700000047684,18194.60000014305,18776,19619.800000190735,20954.10000014305,21557.300000190735,25119.200000047684],"key_events":[],"mouse_events":[0.10000014305114746,8805.300000190735,10723.900000095367,16619.900000095367,17062.900000095367,17573.700000047684,18194.60000014305,18776,19619.800000190735,20126,20954.10000014305,21557.300000190735,25119.200000047684,28033.700000047684,30643.700000047684,32529.10000014305,33754.90000009537,34586.90000009537],"honeypot":0,"survey":"mace","page":1,"trial_type":"survey-mace","trial_index":9,"time_elapsed":374526,"internal_node_id":"0.0-9.0","task_version":"prescreen-v0.3","browser_interactions":0},{"responses":{"01":"No","02":"No","03":"Yes","03_ages_10":"10","04":"No","05":"No","06":"No","07":"No","08":"No"},"rt":22830.799999952316,"item_order":[0,1,2,3,4,5,6,7],"radio_events":[3426.2999999523163,6997,9064.099999904633,11638.799999952316,15430.700000047684,17349.39999985695,19062.099999904633,20019.200000047684,20977.099999904633],"checkbox_events":[12895.299999952316],"key_events":[],"mouse_events":[3426.2999999523163,6997,9064.099999904633,11638.799999952316,12895.299999952316,15430.700000047684,17349.39999985695,19062.099999904633,20019.200000047684,20977.099999904633,22828.200000047684],"honeypot":0,"survey":"mace","page":2,"trial_type":"survey-mace","trial_index":10,"time_elapsed":397361,"internal_node_id":"0.0-10.0","task_version":"prescreen-v0.3","browser_interactions":0},{"responses":{"01":"No","02":"No","03":"No","04":"No"},"rt":11572.399999856949,"item_order":[0,1,2,3],"radio_events":[3387,4279.099999904633,8380.099999904633,9479.799999952316],"checkbox_events":[],"key_events":[],"mouse_events":[3387,4279.099999904633,5564.599999904633,6628.700000047684,7970.200000047684,8380.099999904633,9479.799999952316,11571],"honeypot":0,"survey":"mace","page":3,"trial_type":"survey-mace","trial_index":11,"time_elapsed":408937,"internal_node_id":"0.0-11.0","task_version":"prescreen-v0.3","browser_interactions":0},{"responses":{"01":"No","02":"No"},"rt":11954.700000047684,"item_order":[0,1],"radio_events":[9574.299999952316,10551.399999856949],"checkbox_events":[],"key_events":[],"mouse_events":[9574.299999952316,10551.399999856949,11953.899999856949],"honeypot":0,"survey":"mace","page":4,"trial_type":"survey-mace","trial_index":12,"time_elapsed":420896,"internal_node_id":"0.0-12.0","task_version":"prescreen-v0.3","browser_interactions":2},{"responses":{"01":"No","02":"No","03":"No","04":"No","05":"No"},"rt":73704.79999995232,"item_order":[0,1,2,3,4],"radio_events":[66496.40000009537,67540.79999995232,68723.09999990463,69993.09999990463,71249.40000009537],"checkbox_events":[],"key_events":[],"mouse_events":[66496.40000009537,67540.79999995232,68723.09999990463,69993.09999990463,71249.40000009537,73703.20000004768],"honeypot":0,"survey":"mace","page":5,"trial_type":"survey-mace","trial_index":13,"time_elapsed":494607,"internal_node_id":"0.0-13.0","task_version":"prescreen-v0.3","browser_interactions":0},{"responses":{"01":"Yes","01_ages_10":"10","01_ages_11":"11","01_ages_12":"12","01_ages_13":"13","01_ages_14":"14","01_ages_15":"15","01_ages_16":"16","02":"Yes","02_ages_10":"10","02_ages_11":"11","02_ages_12":"12","02_ages_13":"13","02_ages_14":"14","02_ages_15":"15","02_ages_16":"16","02_ages_17":"17","03":"Yes","03_ages_10":"10","03_ages_11":"11","03_ages_12":"12","03_ages_13":"13","03_ages_14":"14","03_ages_15":"15","03_ages_16":"16","03_ages_17":"17","04":"Yes","04_ages_10":"10","04_ages_11":"11","04_ages_12":"12","04_ages_13":"13","04_ages_14":"14","04_ages_15":"15","04_ages_16":"16","04_ages_17":"17","05":"No"},"rt":66497.59999990463,"item_order":[0,1,2,3,4],"radio_events":[5235.799999952316,12648,21770.599999904633,29916.599999904633,64821.200000047684],"checkbox_events":[6352.700000047684,6817.400000095367,7320.099999904633,7762.799999952316,8803.200000047684,9327.900000095367,9990.599999904633,13782.299999952316,14230.700000047684,15091.700000047684,15542,16619.900000095367,17098.900000095367,17876.900000095367,18558.400000095367,23369.400000095367,23948.700000047684,24571,25526.099999904633,25974,26470.5,27260.200000047684,28130.700000047684,31030.5,31711.900000095367,33202.200000047684,33846.5,34427.799999952316,35295.200000047684,35962.700000047684,36606.59999990463],"key_events":[],"mouse_events":[5235.799999952316,6352.700000047684,6817.400000095367,7320.099999904633,7762.799999952316,8803.200000047684,9327.900000095367,9990.599999904633,12648,13782.299999952316,14230.700000047684,15091.700000047684,15542,16046.5,16619.900000095367,17098.900000095367,17876.900000095367,18558.400000095367,20692.200000047684,21770.599999904633,22624.799999952316,23369.400000095367,23948.700000047684,24571,25526.099999904633,25974,26470.5,27260.200000047684,28130.700000047684,29916.599999904633,31030.5,31711.900000095367,33202.200000047684,33846.5,34427.799999952316,35295.200000047684,35962.700000047684,36606.59999990463,64821.200000047684,66495.90000009537],"honeypot":0,"survey":"mace","page":6,"trial_type":"survey-mace","trial_index":14,"time_elapsed":561109,"internal_node_id":"0.0-14.0","task_version":"prescreen-v0.3","browser_interactions":0},{"responses":{"01":"No","02":"No","03":"No","04":"No","05":"No","06":"No","07":"No"},"rt":23146.900000095367,"item_order":[0,1,2,3,4,5,6],"radio_events":[4212,15769.200000047684,17072.5,18531.200000047684,19802.800000190735,21442.10000014305,22036.10000014305],"checkbox_events":[],"key_events":[],"mouse_events":[4212,15769.200000047684,17072.5,18531.200000047684,19802.800000190735,21442.10000014305,22036.10000014305,23144.5],"honeypot":0,"survey":"mace","page":7,"trial_type":"survey-mace","trial_index":15,"time_elapsed":584262,"internal_node_id":"0.0-15.0","task_version":"prescreen-v0.3","browser_interactions":0},{"responses":{"01":"No","02":"No","03":"Yes","03_ages_11":"11","03_ages_12":"12","03_ages_13":"13","03_ages_14":"14","03_ages_15":"15","03_ages_16":"16","03_ages_17":"17","04":"No"},"rt":22881.599999904633,"item_order":[0,1,2,3],"radio_events":[5842,7923,11759,22221.39999985695],"checkbox_events":[14534.399999856949,15222.099999904633,15640.099999904633,16064.399999856949,16840.299999952316,17228.799999952316,17769.39999985695],"key_events":[],"mouse_events":[5842,7923,11759,14534.399999856949,15222.099999904633,15640.099999904633,16064.399999856949,16840.299999952316,17228.799999952316,17769.39999985695,22221.39999985695,22880.299999952316],"honeypot":0,"survey":"mace","page":8,"trial_type":"survey-mace","trial_index":16,"time_elapsed":607147,"internal_node_id":"0.0-16.0","task_version":"prescreen-v0.3","browser_interactions":0},{"responses":{"01":"Yes","01_ages_1":"1","01_ages_2":"2","01_ages_3":"3","01_ages_4":"4","01_ages_5":"5","01_ages_6":"6","01_ages_7":"7","01_ages_8":"8","01_ages_9":"9","01_ages_10":"10","01_ages_11":"11","01_ages_12":"12","01_ages_13":"13","01_ages_14":"14","01_ages_15":"15","01_ages_16":"16","01_ages_17":"17","01_ages_18":"18","02":"Yes","02_ages_1":"1","02_ages_2":"2","02_ages_3":"3","02_ages_4":"4","02_ages_5":"5","02_ages_6":"6","02_ages_7":"7","02_ages_8":"8","02_ages_9":"9","02_ages_10":"10","02_ages_11":"11","02_ages_12":"12","02_ages_13":"13","02_ages_14":"14","02_ages_15":"15","02_ages_16":"16","02_ages_17":"17","02_ages_18":"18","03":"Yes","03_ages_1":"1","03_ages_2":"2","03_ages_3":"3","03_ages_4":"4","03_ages_5":"5","03_ages_6":"6","03_ages_7":"7","03_ages_8":"8","03_ages_9":"9","03_ages_10":"10","03_ages_11":"11","03_ages_12":"12","03_ages_13":"13","03_ages_14":"14","03_ages_15":"15","03_ages_16":"16","03_ages_17":"17","03_ages_18":"18","04":"Yes","04_ages_1":"1","04_ages_2":"2","04_ages_3":"3","04_ages_4":"4","04_ages_5":"5","04_ages_6":"6","04_ages_7":"7","04_ages_8":"8","04_ages_9":"9","04_ages_10":"10","04_ages_11":"11","04_ages_12":"12","04_ages_13":"13","04_ages_14":"14","04_ages_15":"15","04_ages_16":"16","04_ages_17":"17","04_ages_18":"18"},"rt":67053.20000004768,"item_order":[0,1,2,3],"radio_events":[3172.800000190735,20539.700000047684,34831.800000190735,53078.10000014305],"checkbox_events":[6137.800000190735,7679.100000143051,8605.300000190735,9819.700000047684,10223.600000143051,10736.300000190735,11162.100000143051,11791.300000190735,12666.700000047684,13866,14177.300000190735,14782.100000143051,15097.800000190735,15709.900000095367,16832.900000095367,17282.700000047684,17956.300000190735,18433.800000190735,22014.300000190735,22553.60000014305,23322.200000047684,23835.60000014305,24587.10000014305,25035.900000095367,25664.300000190735,26348.5,27122.10000014305,28075.800000190735,28835.900000095367,29261.800000190735,29945.5,30377.10000014305,30816.10000014305,31200.900000095367,31822.60000014305,32511.900000095367,36071.10000014305,37041.800000190735,37617.300000190735,38087.90000009537,38882.200000047684,40219.40000009537,40662.90000009537,41737.700000047684,42246.700000047684,43826.300000190735,44372.300000190735,45196.40000009537,45987.200000047684,46726.200000047684,47420.90000009537,48047.60000014305,48776.10000014305,49658.10000014305,54521.10000014305,55163.90000009537,55607.800000190735,56249.90000009537,56869,57461.40000009537,58755,59273.40000009537,59940.40000009537,60550.200000047684,61286.300000190735,62049,62491.10000014305,62965.60000014305,63340,64347,64981.300000190735,65531.90000009537],"key_events":[],"mouse_events":[3172.800000190735,6137.800000190735,7679.100000143051,8605.300000190735,9819.700000047684,10223.600000143051,10736.300000190735,11162.100000143051,11791.300000190735,12666.700000047684,13866,14177.300000190735,14782.100000143051,15097.800000190735,15709.900000095367,16832.900000095367,17282.700000047684,17956.300000190735,18433.800000190735,20539.700000047684,22014.300000190735,22553.60000014305,23001.5,23322.200000047684,23835.60000014305,24587.10000014305,25035.900000095367,25664.300000190735,26348.5,27122.10000014305,28075.800000190735,28835.900000095367,29261.800000190735,29945.5,30377.10000014305,30816.10000014305,31200.900000095367,31822.60000014305,32511.900000095367,34831.800000190735,36071.10000014305,37041.800000190735,37617.300000190735,38087.90000009537,38882.200000047684,39475.200000047684,40219.40000009537,40662.90000009537,41322.10000014305,41737.700000047684,42246.700000047684,43128.10000014305,43826.300000190735,44372.300000190735,45196.40000009537,45987.200000047684,46726.200000047684,47420.90000009537,48047.60000014305,48776.10000014305,49658.10000014305,53078.10000014305,54521.10000014305,55163.90000009537,55607.800000190735,56249.90000009537,56869,57461.40000009537,58755,59273.40000009537,59940.40000009537,60550.200000047684,61286.300000190735,62049,62491.10000014305,62965.60000014305,63340,63733.5,64347,64981.300000190735,65531.90000009537,67051.80000019073],"honeypot":0,"survey":"mace","page":9,"trial_type":"survey-mace","trial_index":17,"time_elapsed":674205,"internal_node_id":"0.0-17.0","task_version":"prescreen-v0.3","browser_interactions":0},{"responses":{"01":"No","02":"No","03":"No","04":"No","05":"No","06":"Yes","06_ages_17":"17","07":"Yes","07_ages_1":"1","07_ages_2":"2","07_ages_3":"3","07_ages_4":"4","07_ages_5":"5","07_ages_6":"6","07_ages_7":"7","07_ages_8":"8","07_ages_9":"9","07_ages_10":"10","07_ages_11":"11","07_ages_12":"12","07_ages_13":"13","07_ages_14":"14","07_ages_15":"15","07_ages_16":"16","07_ages_17":"17","07_ages_18":"18","08":"Yes","08_ages_1":"1","08_ages_2":"2","08_ages_3":"3","08_ages_4":"4","08_ages_5":"5","08_ages_6":"6","08_ages_7":"7","08_ages_8":"8","08_ages_9":"9","08_ages_10":"10","08_ages_11":"11","08_ages_12":"12","08_ages_13":"13","08_ages_14":"14","08_ages_15":"15","08_ages_16":"16","08_ages_17":"17","08_ages_18":"18"},"rt":49976.700000047684,"item_order":[0,1,2,3,4,5,6,7],"radio_events":[3321.7999999523163,5685.700000047684,7295.200000047684,8819.299999952316,10904.900000095367,13363.799999952316,20638,36339.200000047684],"checkbox_events":[15008.299999952316,25863.5,26337.5,26801.700000047684,27208.10000014305,27609.5,28067.799999952316,28438.700000047684,28819,29270.400000095367,29861.700000047684,30362.10000014305,30904.10000014305,31657.299999952316,32076.5,32657.5,33224.200000047684,33844.40000009537,34588.299999952316,37937.5,38351.90000009537,38865.10000014305,39402.60000014305,40109.200000047684,40551.799999952316,41023.799999952316,41519.40000009537,42133.700000047684,42667.5,43893.299999952316,44582.799999952316,45327.200000047684,46095.10000014305,46645.5,47546.299999952316,48562.10000014305,49205.40000009537],"key_events":[],"mouse_events":[3321.7999999523163,5685.700000047684,7295.200000047684,8819.299999952316,10904.900000095367,13363.799999952316,15008.299999952316,20638,25863.5,26337.5,26801.700000047684,27208.10000014305,27609.5,28067.799999952316,28438.700000047684,28819,29270.400000095367,29861.700000047684,30362.10000014305,30904.10000014305,31657.299999952316,32076.5,32657.5,33224.200000047684,33844.40000009537,34588.299999952316,36339.200000047684,37937.5,38351.90000009537,38865.10000014305,39402.60000014305,40109.200000047684,40551.799999952316,41023.799999952316,41519.40000009537,42133.700000047684,42667.5,43535,43893.299999952316,44582.799999952316,45327.200000047684,46095.10000014305,46645.5,47546.299999952316,48562.10000014305,49205.40000009537,49974.5],"honeypot":0,"survey":"mace","page":10,"trial_type":"survey-mace","trial_index":18,"time_elapsed":724187,"internal_node_id":"0.0-18.0","task_version":"prescreen-v0.3","browser_interactions":0,"instructed":0},{"rt":15307.900000095367,"trial_type":"mental-health-alert","trial_index":19,"time_elapsed":739498,"internal_node_id":"0.0-19.0","task_version":"prescreen-v0.3","interactions":"[{\"event\":\"blur\",\"trial\":0,\"time\":13037},{\"event\":\"focus\",\"trial\":0,\"time\":42463},{\"event\":\"blur\",\"trial\":0,\"time\":45318},{\"event\":\"focus\",\"trial\":0,\"time\":52223},{\"event\":\"blur\",\"trial\":12,\"time\":410846},{\"event\":\"focus\",\"trial\":12,\"time\":415878},{\"event\":\"blur\",\"trial\":19,\"time\":729817},{\"event\":\"focus\",\"trial\":19,\"time\":737398}]"}]