[{"view_history":[{"page_index":0,"viewing_time":4383.5},{"page_index":1,"viewing_time":4271.700000017881},{"page_index":2,"viewing_time":1871.9000000059605},{"page_index":3,"viewing_time":744.0999999940395}],"rt":11272,"trial_type":"instructions","trial_index":0,"time_elapsed":11286,"internal_node_id":"0.0-0.0","task_version":"prescreen-v0.3"},{"rt":20148.59999999404,"responses":{"age":"24","gender-categorical":"Male","gender-free-response":"","ethnicity":"Not Hispanic or Latino","race":["White"],"education":"Bachelor degree","siblings":"2"},"trial_type":"survey-demo","trial_index":1,"time_elapsed":31438,"internal_node_id":"0.0-1.0","task_version":"prescreen-v0.3"},{"responses":{"Q10":"2","Q15":"2","Q19":"0","Q18":"0","Q03":"1","Q09":"2","Q02":"2","Q04":"2","Q12":"1","Q11":"2","Q06":"2","Q01":"2","Q16":"0","Q08":"2","Q21":"3","Q20":"0","Q05":"1","Q14":"1","Q17":"1","Q07":"0","Q13":"1"},"rt":85533.40000000596,"item_order":[9,14,18,17,2,8,1,3,11,10,5,0,15,7,20,19,4,13,16,6,12],"radio_events":[3412.600000023842,12316.200000017881,18980.5,21324.30000001192,24396.30000001192,27556.30000001192,32204.30000001192,39212.30000001192,42484.30000001192,43244.20000001788,46476.30000001192,48324.10000002384,51764.30000001192,53844.20000001788,56468.10000002384,58660.30000001192,64076.20000001788,66764.10000002384,70572.20000001788,79428.20000001788,83124.20000001788,84916.20000001788],"key_events":[],"mouse_events":[3412.600000023842,11476.300000011921,12316.200000017881,18308.70000001788,18980.5,20292.40000000596,21324.30000001192,24396.30000001192,26132.30000001192,26788.100000023842,27131.90000000596,27556.30000001192,32204.30000001192,39212.30000001192,42139.90000000596,42484.30000001192,43244.20000001788,46476.30000001192,47916.30000001192,48324.10000002384,51764.30000001192,53844.20000001788,56468.10000002384,58660.30000001192,64076.20000001788,66452.30000001192,66764.10000002384,70252.30000001192,70572.20000001788,79124.30000001192,79428.20000001788,83124.20000001788,84916.20000001788,85531.90000000596],"straightlining":0.42857142857142855,"zigzagging":0.45,"honeypot":0,"survey":"sns","trial_type":"survey-template","trial_index":2,"time_elapsed":116976,"internal_node_id":"0.0-2.0","task_version":"prescreen-v0.3","browser_interactions":0,"infrequency":0},{"responses":{"Q09":"2","Q11":"2","Q02":"2","Q12":"1","Q13":"0","Q01":"2","Q10":"2","Q06":"3","Q03":"3","Q05":"3","Q07":"3","Q04":"3","Q08":"2"},"rt":39509.40000000596,"item_order":[8,10,1,11,12,0,9,5,2,4,6,3,7],"radio_events":[5548.4000000059605,6812.100000023842,9908.100000023842,13532.200000017881,17780.40000000596,19564.100000023842,22052.20000001788,23236.20000001788,27756.30000001192,29860.20000001788,34148.10000002384,35020.30000001192,37644.10000002384],"key_events":[],"mouse_events":[5548.4000000059605,6812.100000023842,9908.100000023842,13532.200000017881,16388.30000001192,17444.100000023842,17780.40000000596,19564.100000023842,22052.20000001788,22676.40000000596,23236.20000001788,27756.30000001192,29860.20000001788,32028.40000000596,33860,34148.10000002384,34508.30000001192,35020.30000001192,36828.30000001192,37644.10000002384,39508.5],"straightlining":0.46153846153846156,"zigzagging":0.3333333333333333,"honeypot":0,"survey":"bisbas","trial_type":"survey-template","trial_index":3,"time_elapsed":156488,"internal_node_id":"0.0-3.0","task_version":"prescreen-v0.3","browser_interactions":0,"infrequency":0},{"responses":{"Q01":"3","Q02":"3","Q03":"3"},"rt":24100.69999998808,"radio_events":[17412.40000000596,21188.40000000596,22972.40000000596],"key_events":[],"mouse_events":[14916.40000000596,15252.199999988079,15644.300000011921,17412.40000000596,20028.5,20956.5,21188.40000000596,22972.40000000596,23612.40000000596,24100.19999998808],"survey":"map","page":1,"trial_type":"survey-map","trial_index":4,"time_elapsed":180591,"internal_node_id":"0.0-4.0","task_version":"prescreen-v0.3","browser_interactions":0},{"responses":{"Q04":"3","Q05":"3","Q06":"4"},"rt":13326.300000011921,"radio_events":[7317.9000000059605,10669.800000011921,12885.800000011921],"key_events":[],"mouse_events":[3301.9000000059605,4173.699999988079,7317.9000000059605,10669.800000011921,12622,12885.800000011921,13325.90000000596],"survey":"map","page":2,"trial_type":"survey-map","trial_index":5,"time_elapsed":193919,"internal_node_id":"0.0-5.0","task_version":"prescreen-v0.3","browser_interactions":0},{"responses":{"Q07":"1","Q08":"4","Q09":"2"},"rt":12238.90000000596,"radio_events":[4526.300000011921,8990.09999999404,11646.40000000596],"key_events":[],"mouse_events":[4526.300000011921,5406.4000000059605,8990.09999999404,11646.40000000596,12238.40000000596],"survey":"map","page":3,"trial_type":"survey-map","trial_index":6,"time_elapsed":206159,"internal_node_id":"0.0-6.0","task_version":"prescreen-v0.3","browser_interactions":0},{"responses":{"Q10":"2","Q11":"2","Q12":"3","Q13":"2","Q16":"0","Q14":"3","Q15":"2"},"rt":35758.70000001788,"radio_events":[4333.9000000059605,12229.800000011921,12909.800000011921,20941.90000000596,25293.80000001192,28381.80000001192,34181.80000001192],"key_events":[],"mouse_events":[2717.7000000178814,4333.9000000059605,12229.800000011921,12909.800000011921,20941.90000000596,25293.80000001192,28381.80000001192,34181.80000001192,35757.80000001192],"survey":"map","page":4,"trial_type":"survey-map","trial_index":7,"time_elapsed":241919,"internal_node_id":"0.0-7.0","task_version":"prescreen-v0.3","browser_interactions":0,"infrequency":0},{"view_history":[{"page_index":0,"viewing_time":2381.699999988079},{"page_index":1,"viewing_time":2352}],"rt":4734.399999976158,"trial_type":"instructions","trial_index":8,"time_elapsed":246654,"internal_node_id":"0.0-8.0","task_version":"prescreen-v0.3"},{"responses":{"01":"No","02":"No","03":"Yes","03_ages_5":"5","03_ages_6":"6","03_ages_7":"7","03_ages_8":"8","03_ages_9":"9","03_ages_10":"10","04":"No","05":"No","06":"Yes","06_ages_5":"5","06_ages_6":"6","06_ages_7":"7","06_ages_8":"8","06_ages_9":"9","06_ages_10":"10"},"rt":40326,"item_order":[0,1,2,3,4,5],"radio_events":[8627.800000011921,13067.300000011921,15331.5,29667.5,31875.30000001192,34859.30000001192],"checkbox_events":[23171.59999999404,23843.40000000596,24147.40000000596,24691.30000001192,25059.5,25971.5,26299.30000001192,27795.30000001192,36275.59999999404,37379.30000001192,37683.20000001788,37995.40000000596,38923.30000001192,39539.30000001192],"key_events":[],"mouse_events":[0.09999999403953552,8627.800000011921,13067.300000011921,15331.5,23171.59999999404,23475.40000000596,23843.40000000596,24147.40000000596,24691.30000001192,25059.5,25971.5,26299.30000001192,27795.30000001192,29667.5,31875.30000001192,34859.30000001192,35891.40000000596,36275.59999999404,36555.20000001788,37091.20000001788,37379.30000001192,37683.20000001788,37995.40000000596,38923.30000001192,39539.30000001192,40324],"honeypot":0,"survey":"mace","page":1,"trial_type":"survey-mace","trial_index":9,"time_elapsed":286985,"internal_node_id":"0.0-9.0","task_version":"prescreen-v0.3","browser_interactions":0},{"responses":{"01":"No","02":"No","03":"Yes","03_ages_6":"6","04":"Yes","04_ages_6":"6","05":"No","06":"No","07":"Yes","07_ages_8":"8","07_ages_9":"9","07_ages_10":"10","08":"Yes","08_ages_8":"8","08_ages_9":"9","08_ages_10":"10"},"rt":45061.10000002384,"item_order":[0,1,2,3,4,5,6,7],"radio_events":[3002.2000000178814,7842.200000017881,9842.300000011921,17250.40000000596,22810.30000001192,24498.100000023842,26994.20000001788,35226.30000001192],"checkbox_events":[12882.600000023842,18114.40000000596,30178.30000001192,30522.40000000596,30954.30000001192,35938.20000001788,36306.30000001192,36594.30000001192,38082.40000000596,38650.30000001192,39650.30000001192,40682.40000000596,41106.20000001788,42138.30000001192,42962.20000001788,43698.20000001788],"key_events":[],"mouse_events":[3002.2000000178814,7842.200000017881,9842.300000011921,12882.600000023842,17250.40000000596,18114.40000000596,22810.30000001192,24498.100000023842,26994.20000001788,29610.40000000596,29858.600000023842,30178.30000001192,30522.40000000596,30954.30000001192,34474.40000000596,35226.30000001192,35938.20000001788,36306.30000001192,36594.30000001192,38082.40000000596,38650.30000001192,39650.30000001192,40258.30000001192,40682.40000000596,41106.20000001788,42138.30000001192,42962.20000001788,43698.20000001788,45058.40000000596],"honeypot":0,"survey":"mace","page":2,"trial_type":"survey-mace","trial_index":10,"time_elapsed":332049,"internal_node_id":"0.0-10.0","task_version":"prescreen-v0.3","browser_interactions":0},{"responses":{"01":"No","02":"No","03":"Yes","03_ages_15":"15","03_ages_16":"16","03_ages_17":"17","04":"No"},"rt":38772.29999998212,"item_order":[0,1,2,3],"radio_events":[7938.699999988079,8786.699999988079,18714.59999999404,20050.69999998808,24042.79999998212,28722.899999976158,30490.59999999404],"checkbox_events":[32994.59999999404,33458.79999998212,34394.89999997616],"key_events":[],"mouse_events":[7938.699999988079,8786.699999988079,18714.59999999404,20050.69999998808,24042.79999998212,28722.899999976158,29698.69999998808,30186.5,30490.59999999404,32994.59999999404,33458.79999998212,34394.89999997616,38771],"honeypot":0,"survey":"mace","page":3,"trial_type":"survey-mace","trial_index":11,"time_elapsed":370824,"internal_node_id":"0.0-11.0","task_version":"prescreen-v0.3","browser_interactions":0},{"responses":{"01":"Yes","01_ages_9":"9","01_ages_10":"10","01_ages_11":"11","02":"No"},"rt":17381.40000000596,"item_order":[0,1],"radio_events":[3364.5,11484.59999999404,16788.59999999404],"checkbox_events":[14100.59999999404,14428.5,15068.59999999404],"key_events":[],"mouse_events":[3364.5,11484.59999999404,14100.59999999404,14428.5,14748.59999999404,15068.59999999404,16788.59999999404,17380.69999998808],"honeypot":0,"survey":"mace","page":4,"trial_type":"survey-mace","trial_index":12,"time_elapsed":388207,"internal_node_id":"0.0-12.0","task_version":"prescreen-v0.3","browser_interactions":0},{"responses":{"01":"No","02":"No","03":"No","04":"No","05":"No"},"rt":16727.30000001192,"item_order":[0,1,2,3,4],"radio_events":[8485.5,10469.5,13125.200000017881,14181.300000011921,15845.300000011921],"checkbox_events":[],"key_events":[],"mouse_events":[8485.5,9805.5,10469.5,13125.200000017881,14181.300000011921,15845.300000011921,16725.40000000596],"honeypot":0,"survey":"mace","page":5,"trial_type":"survey-mace","trial_index":13,"time_elapsed":404936,"internal_node_id":"0.0-13.0","task_version":"prescreen-v0.3","browser_interactions":0},{"responses":{"01":"Yes","01_ages_5":"5","01_ages_6":"6","01_ages_7":"7","01_ages_8":"8","01_ages_9":"9","01_ages_10":"10","02":"Yes","02_ages_5":"5","02_ages_6":"6","02_ages_7":"7","02_ages_8":"8","02_ages_9":"9","02_ages_10":"10","03":"No","04":"No","05":"No"},"rt":27293.70000001788,"item_order":[0,1,2,3,4],"radio_events":[6204,18284,24291.90000000596,25676,26860],"checkbox_events":[9659.800000011921,10395.800000011921,10691.90000000596,12235.800000011921,12508,13420,19011.80000001192,19388.20000001788,19699.90000000596,20059.90000000596,20460,21116],"key_events":[],"mouse_events":[4315.9000000059605,5187.9000000059605,6204,8788.09999999404,9659.800000011921,9996.09999999404,10395.800000011921,10691.90000000596,11555.800000011921,11947.700000017881,12235.800000011921,12508,12844,13420,18284,19011.80000001192,19388.20000001788,19699.90000000596,20059.90000000596,20460,20836,21116,24291.90000000596,25676,26860,27292.09999999404],"honeypot":0,"survey":"mace","page":6,"trial_type":"survey-mace","trial_index":14,"time_elapsed":432232,"internal_node_id":"0.0-14.0","task_version":"prescreen-v0.3","browser_interactions":0},{"responses":{"01":"No","02":"No","03":"No","04":"No","05":"No","06":"No","07":"No"},"rt":17854.20000001788,"item_order":[0,1,2,3,4,5,6],"radio_events":[2491.9000000059605,4491.9000000059605,5323.9000000059605,7315.800000011921,9299.90000000596,11875.800000011921,12635.800000011921],"checkbox_events":[],"key_events":[],"mouse_events":[2491.9000000059605,4491.9000000059605,5323.9000000059605,6075.9000000059605,7315.800000011921,9299.90000000596,11875.800000011921,12635.800000011921,17852],"honeypot":0,"survey":"mace","page":7,"trial_type":"survey-mace","trial_index":15,"time_elapsed":450089,"internal_node_id":"0.0-15.0","task_version":"prescreen-v0.3","browser_interactions":0},{"responses":{"01":"Yes","01_ages_1":"1","01_ages_2":"2","01_ages_3":"3","01_ages_4":"4","01_ages_5":"5","01_ages_6":"6","01_ages_7":"7","01_ages_8":"8","01_ages_9":"9","01_ages_10":"10","02":"No","03":"Yes","03_ages_1":"1","03_ages_2":"2","03_ages_3":"3","03_ages_4":"4","03_ages_5":"5","03_ages_6":"6","03_ages_7":"7","03_ages_8":"8","03_ages_9":"9","03_ages_10":"10","04":"Yes","04_ages_1":"1","04_ages_2":"2","04_ages_3":"3","04_ages_4":"4","04_ages_5":"5","04_ages_6":"6","04_ages_7":"7","04_ages_8":"8","04_ages_9":"9","04_ages_10":"10"},"rt":38084.90000000596,"item_order":[0,1,2,3],"radio_events":[7987.5,18419.40000000596,23907.40000000596,32531.40000000596],"checkbox_events":[9243.59999999404,9723.90000000596,10019.300000011921,10595.40000000596,10835.40000000596,11283.40000000596,11627.5,12083.800000011921,12427.5,13283.5,13699.40000000596,14275.40000000596,14691.59999999404,15467.5,24683.30000001192,24987.30000001192,25267.5,25771.40000000596,26083.40000000596,26555.5,27091.5,27563.40000000596,28203.5,28619.40000000596,33547.30000001192,33891.30000001192,34211.40000000596,34539.40000000596,35019.40000000596,35659.5,35979.59999999404,36635.5,36963.5,37411.40000000596],"key_events":[],"mouse_events":[7579.300000011921,7987.5,9243.59999999404,9723.90000000596,10019.300000011921,10291.59999999404,10595.40000000596,10835.40000000596,11283.40000000596,11627.5,12083.800000011921,12427.5,12851.300000011921,13283.5,13699.40000000596,14275.40000000596,14691.59999999404,15467.5,18419.40000000596,23459.40000000596,23907.40000000596,24683.30000001192,24987.30000001192,25267.5,25771.40000000596,26083.40000000596,26555.5,27091.5,27563.40000000596,28203.5,28619.40000000596,32531.40000000596,33547.30000001192,33891.30000001192,34211.40000000596,34539.40000000596,35019.40000000596,35339.59999999404,35659.5,35979.59999999404,36347.40000000596,36635.5,36963.5,37411.40000000596,38083.40000000596],"honeypot":0,"survey":"mace","page":8,"trial_type":"survey-mace","trial_index":16,"time_elapsed":488176,"internal_node_id":"0.0-16.0","task_version":"prescreen-v0.3","browser_interactions":0},{"responses":{"01":"Yes","01_ages_1":"1","01_ages_2":"2","01_ages_3":"3","01_ages_4":"4","01_ages_5":"5","01_ages_6":"6","01_ages_7":"7","01_ages_8":"8","01_ages_9":"9","01_ages_10":"10","01_ages_11":"11","01_ages_12":"12","01_ages_13":"13","01_ages_14":"14","01_ages_15":"15","01_ages_16":"16","01_ages_17":"17","01_ages_18":"18","02":"Yes","02_ages_1":"1","02_ages_2":"2","02_ages_3":"3","02_ages_4":"4","02_ages_5":"5","02_ages_6":"6","02_ages_7":"7","02_ages_8":"8","02_ages_9":"9","02_ages_10":"10","02_ages_11":"11","02_ages_12":"12","02_ages_13":"13","02_ages_14":"14","02_ages_15":"15","02_ages_16":"16","02_ages_17":"17","02_ages_18":"18","03":"Yes","03_ages_1":"1","03_ages_2":"2","03_ages_3":"3","03_ages_4":"4","03_ages_5":"5","03_ages_6":"6","03_ages_7":"7","03_ages_8":"8","03_ages_9":"9","03_ages_10":"10","03_ages_11":"11","03_ages_12":"12","03_ages_13":"13","03_ages_14":"14","03_ages_15":"15","03_ages_16":"16","03_ages_17":"17","03_ages_18":"18","04":"Yes","04_ages_1":"1","04_ages_2":"2","04_ages_3":"3","04_ages_4":"4","04_ages_5":"5","04_ages_6":"6","04_ages_7":"7","04_ages_8":"8","04_ages_9":"9","04_ages_10":"10","04_ages_11":"11","04_ages_12":"12","04_ages_13":"13","04_ages_14":"14","04_ages_15":"15","04_ages_16":"16","04_ages_17":"17","04_ages_18":"18"},"rt":50406.09999999404,"item_order":[0,1,2,3],"radio_events":[3724.5,14908.5,26900.5,40188.59999999404],"checkbox_events":[4756.9000000059605,5212.5999999940395,5988.4000000059605,6284.5999999940395,7244.5,7500.300000011921,7988.700000017881,8492.59999999404,8796.40000000596,9556.59999999404,9876.59999999404,10436.59999999404,10780.5,11220.40000000596,11708.40000000596,12356.40000000596,12668.5,13428.59999999404,15796.59999999404,16148.59999999404,16620.5,17028.5,17356.20000001788,17724.59999999404,18084.40000000596,19716.40000000596,20100.40000000596,20668.5,20964.30000001192,21428.80000001192,21780.40000000596,22380.80000001192,23116.59999999404,23516.59999999404,24108.59999999404,24652.30000001192,27980.40000000596,29212.40000000596,29524.5,29876.5,30220.40000000596,30612.40000000596,30964.5,31332.5,31980.30000001192,32452.5,32884.5,33228.59999999404,33676.40000000596,34740.5,35116.5,35564.90000000596,36068.5,36740.5,41604.5,41900.5,42372.40000000596,43076.5,43420.59999999404,44004.40000000596,44484.59999999404,44812.5,45228.5,45676.30000001192,46012.40000000596,46412.30000001192,46740.30000001192,47908.40000000596,48276.80000001192,48780.59999999404,49284.5,49844.5],"key_events":[],"mouse_events":[3468.4000000059605,3724.5,4756.9000000059605,5212.5999999940395,5620.300000011921,5988.4000000059605,6284.5999999940395,6636.5,6940.200000017881,7244.5,7500.300000011921,7988.700000017881,8492.59999999404,8796.40000000596,9164.800000011921,9556.59999999404,9876.59999999404,10436.59999999404,10780.5,11220.40000000596,11708.40000000596,12004.59999999404,12356.40000000596,12668.5,13428.59999999404,14908.5,15796.59999999404,16148.59999999404,16620.5,17028.5,17356.20000001788,17724.59999999404,18084.40000000596,18628.5,18900.80000001192,19332.5,19716.40000000596,20100.40000000596,20668.5,20964.30000001192,21428.80000001192,21780.40000000596,22380.80000001192,22788.5,23116.59999999404,23516.59999999404,24108.59999999404,24652.30000001192,25964.59999999404,26420.40000000596,26900.5,27980.40000000596,28740.30000001192,29212.40000000596,29524.5,29876.5,30220.40000000596,30612.40000000596,30964.5,31332.5,31980.30000001192,32452.5,32884.5,33228.59999999404,33676.40000000596,34100.59999999404,34452.30000001192,34740.5,35116.5,35564.90000000596,36068.5,36428.30000001192,36740.5,39668.30000001192,40188.59999999404,41036.40000000596,41348.5,41604.5,41900.5,42372.40000000596,43076.5,43420.59999999404,43724.80000001192,44004.40000000596,44484.59999999404,44812.5,45228.5,45676.30000001192,46012.40000000596,46412.30000001192,46740.30000001192,47260.5,47612.30000001192,47908.40000000596,48276.80000001192,48780.59999999404,49284.5,49844.5,50404.59999999404],"honeypot":0,"survey":"mace","page":9,"trial_type":"survey-mace","trial_index":17,"time_elapsed":538584,"internal_node_id":"0.0-17.0","task_version":"prescreen-v0.3","browser_interactions":0},{"responses":{"01":"No","02":"No","03":"No","04":"Yes","04_ages_10":"10","04_ages_11":"11","04_ages_12":"12","04_ages_13":"13","04_ages_14":"14","05":"No","06":"Yes","06_ages_17":"17","07":"Yes","07_ages_8":"8","07_ages_9":"9","07_ages_10":"10","07_ages_11":"11","07_ages_12":"12","07_ages_13":"13","07_ages_14":"14","07_ages_15":"15","07_ages_16":"16","07_ages_17":"17","07_ages_18":"18","08":"Yes","08_ages_1":"1","08_ages_2":"2","08_ages_3":"3","08_ages_4":"4","08_ages_5":"5","08_ages_6":"6","08_ages_7":"7","08_ages_8":"8","08_ages_9":"9","08_ages_10":"10","08_ages_11":"11","08_ages_12":"12","08_ages_13":"13","08_ages_14":"14","08_ages_15":"15","08_ages_16":"16","08_ages_17":"17","08_ages_18":"18"},"rt":48686.89999997616,"item_order":[0,1,2,3,4,5,6,7],"radio_events":[3804.2999999821186,5675.799999982119,7515.899999976158,14123.899999976158,22547.899999976158,23387.79999998212,28987.79999998212,37875.79999998212],"checkbox_events":[15539.799999982119,16331.59999999404,16788,17267.59999999404,19155.899999976158,24659.79999998212,30139.79999998212,30771.79999998212,31195.79999998212,31707.899999976158,32043.79999998212,32411.899999976158,32835.79999998212,33155.89999997616,33491.69999998808,33811.79999998212,36339.89999997616,39891.79999998212,40227.89999997616,40675.59999999404,41107.79999998212,41427.59999999404,41771.69999998808,42067.89999997616,42411.89999997616,42771.89999997616,43099.89999997616,43411.89999997616,43859.69999998808,44819.69999998808,45107.79999998212,45811.69999998808,46131.69999998808,46475.69999998808,47907.79999998212],"key_events":[],"mouse_events":[2963.699999988079,3804.2999999821186,5675.799999982119,6467.899999976158,7515.899999976158,13716,14123.899999976158,15539.799999982119,15819.699999988079,16331.59999999404,16788,17267.59999999404,19155.899999976158,22547.899999976158,23387.79999998212,24659.79999998212,28987.79999998212,30139.79999998212,30484.09999999404,30771.79999998212,31195.79999998212,31707.899999976158,32043.79999998212,32411.899999976158,32835.79999998212,33155.89999997616,33491.69999998808,33811.79999998212,36339.89999997616,37875.79999998212,39891.79999998212,40227.89999997616,40675.59999999404,41107.79999998212,41427.59999999404,41771.69999998808,42067.89999997616,42411.89999997616,42771.89999997616,43099.89999997616,43411.89999997616,43859.69999998808,44331.89999997616,44819.69999998808,45107.79999998212,45451.89999997616,45811.69999998808,46131.69999998808,46475.69999998808,47907.79999998212,48684.29999998212],"honeypot":0,"survey":"mace","page":10,"trial_type":"survey-mace","trial_index":18,"time_elapsed":587274,"internal_node_id":"0.0-18.0","task_version":"prescreen-v0.3","browser_interactions":0,"instructed":0},{"rt":4427,"trial_type":"mental-health-alert","trial_index":19,"time_elapsed":591702,"internal_node_id":"0.0-19.0","task_version":"prescreen-v0.3","interactions":"[]"}]