[{"view_history":[{"page_index":0,"viewing_time":3449.4000000003725},{"page_index":1,"viewing_time":4638.799999998882},{"page_index":2,"viewing_time":4727.800000000745},{"page_index":3,"viewing_time":1366.9000000003725}],"rt":14183.400000000373,"trial_type":"instructions","trial_index":0,"time_elapsed":14186,"internal_node_id":"0.0-0.0","task_version":"prescreen-v0.3"},{"rt":13605.400000000373,"responses":{"age":"36","gender-categorical":"Male","gender-free-response":"","ethnicity":"Not Hispanic or Latino","race":["White"],"education":"Bachelor degree"},"trial_type":"survey-demo","trial_index":1,"time_elapsed":27796,"internal_node_id":"0.0-1.0","task_version":"prescreen-v0.3"},{"responses":{"Q06":"3","Q13":"0","Q05":"2","Q10":"0","Q07":"1","Q20":"1","Q16":"0","Q21":"3","Q08":"1","Q01":"2","Q18":"1","Q12":"0","Q15":"2","Q19":"2","Q17":"2","Q04":"1","Q11":"1","Q02":"1","Q14":"1","Q03":"1","Q09":"1"},"rt":110229.40000000037,"item_order":[5,12,4,9,6,19,15,20,7,0,17,11,14,18,16,3,10,1,13,2,8],"radio_events":[8690,21473.199999999255,24177.099999999627,24857.099999999627,31082.699999999255,36626.800000000745,39019.09999999963,43771.09999999963,49162.300000000745,55242.09999999963,58282.59999999963,63538.59999999963,66899,74211,80579,86346.90000000037,89761.90000000037,92506.69999999925,98107,101849.19999999925,104506.59999999963,107809.90000000037],"key_events":[],"mouse_events":[8690,11674.5,12162.300000000745,21473.199999999255,24177.099999999627,24857.099999999627,29553.699999999255,30256.900000000373,31082.699999999255,36626.800000000745,39019.09999999963,43771.09999999963,47514.09999999963,49162.300000000745,55242.09999999963,58282.59999999963,63538.59999999963,66899,74211,80579,86346.90000000037,89761.90000000037,92506.69999999925,95979,97465.5,98107,101274.80000000075,101849.19999999925,104506.59999999963,107809.90000000037,110226.69999999925],"straightlining":0.47619047619047616,"zigzagging":0.4,"honeypot":0,"survey":"sns","trial_type":"survey-template","trial_index":2,"time_elapsed":138044,"internal_node_id":"0.0-2.0","task_version":"prescreen-v0.3","browser_interactions":0,"infrequency":0},{"responses":{"Q01":"2","Q04":"2","Q10":"2","Q06":"3","Q02":"2","Q09":"1","Q12":"0","Q13":"0","Q03":"2","Q08":"2","Q07":"2","Q05":"3","Q11":"1"},"rt":83258,"item_order":[0,3,9,5,1,8,11,12,2,7,6,4,10],"radio_events":[2065.2000000011176,16504.900000000373,20089.200000001118,44665,45439.5,49777,53408,56328.5,62288.300000000745,66521,69505.10000000149,71736.80000000075,82368.80000000075],"key_events":[],"mouse_events":[2065.2000000011176,16504.900000000373,20089.200000001118,40016.90000000037,44665,45439.5,49777,53408,56328.5,62288.300000000745,66521,69505.10000000149,71736.80000000075,81816.90000000037,82368.80000000075,83256.40000000037],"straightlining":0.5384615384615384,"zigzagging":0.4166666666666667,"honeypot":0,"survey":"bisbas","trial_type":"survey-template","trial_index":3,"time_elapsed":221323,"internal_node_id":"0.0-3.0","task_version":"prescreen-v0.3","browser_interactions":0,"infrequency":0},{"responses":{"Q01":"3","Q02":"3","Q03":"3"},"rt":16524.200000001118,"radio_events":[6434,11994.800000000745,15764.099999999627],"key_events":[],"mouse_events":[6434,11994.800000000745,15764.099999999627,16523.300000000745],"survey":"map","page":1,"trial_type":"survey-map","trial_index":4,"time_elapsed":237851,"internal_node_id":"0.0-4.0","task_version":"prescreen-v0.3","browser_interactions":0},{"responses":{"Q04":"2","Q05":"3","Q06":"2"},"rt":20596.89999999851,"radio_events":[8164.5999999996275,12865.89999999851,19595.099999999627],"key_events":[],"mouse_events":[8164.5999999996275,12865.89999999851,17844.699999999255,19595.099999999627,20596],"survey":"map","page":2,"trial_type":"survey-map","trial_index":5,"time_elapsed":258450,"internal_node_id":"0.0-5.0","task_version":"prescreen-v0.3","browser_interactions":0},{"responses":{"Q07":"4","Q08":"2","Q09":"2"},"rt":17534.299999998882,"radio_events":[5404.699999999255,7373.699999999255,11957.599999999627,16742.099999999627],"key_events":[],"mouse_events":[5404.699999999255,7373.699999999255,11285.599999999627,11957.599999999627,15469.799999998882,16742.099999999627,17533.39999999851],"survey":"map","page":3,"trial_type":"survey-map","trial_index":6,"time_elapsed":275987,"internal_node_id":"0.0-6.0","task_version":"prescreen-v0.3","browser_interactions":0},{"responses":{"Q10":"3","Q11":"1","Q12":"3","Q13":"1","Q16":"0","Q14":"3","Q15":"4"},"rt":48510.59999999963,"radio_events":[8156.5999999996275,11301,19844.099999999627,21788.699999999255,26996.799999998882,42836.09999999963,44452.59999999963],"key_events":[],"mouse_events":[8156.5999999996275,11301,18635.299999998882,19844.099999999627,21788.699999999255,26436.400000000373,26996.799999998882,42836.09999999963,44452.59999999963,48508.90000000037],"survey":"map","page":4,"trial_type":"survey-map","trial_index":7,"time_elapsed":324501,"internal_node_id":"0.0-7.0","task_version":"prescreen-v0.3","browser_interactions":0,"infrequency":0},{"view_history":[{"page_index":0,"viewing_time":3451.9000000003725},{"page_index":1,"viewing_time":4664.199999999255}],"rt":8116.5999999996275,"trial_type":"instructions","trial_index":8,"time_elapsed":332619,"internal_node_id":"0.0-8.0","task_version":"prescreen-v0.3"},{"responses":{"01":"No","02":"Yes","02_ages_6":"6","02_ages_7":"7","02_ages_8":"8","02_ages_9":"9","02_ages_10":"10","02_ages_11":"11","02_ages_12":"12","02_ages_13":"13","03":"No","04":"No","05":"No","06":"No"},"rt":51366.199999999255,"item_order":[0,1,2,3,4,5],"radio_events":[11700.199999999255,13843.800000000745,37316.199999999255,38162.199999999255,39755,41859.40000000037],"checkbox_events":[24691.900000000373,25388.099999999627,26555.800000000745,27571.5,28019,28611.900000000373,29491.699999999255,30187],"key_events":[],"mouse_events":[1.5,11700.199999999255,13843.800000000745,24691.900000000373,25388.099999999627,26555.800000000745,27012,27571.5,28019,28611.900000000373,29083.800000000745,29491.699999999255,30187,37316.199999999255,38162.199999999255,39755,41859.40000000037,51362.5],"honeypot":0,"survey":"mace","page":1,"trial_type":"survey-mace","trial_index":9,"time_elapsed":383991,"internal_node_id":"0.0-9.0","task_version":"prescreen-v0.3","browser_interactions":0},{"responses":{"01":"No","02":"No","03":"Yes","03_ages_4":"4","04":"Yes","04_ages_4":"4","05":"No","06":"No","07":"No","08":"No"},"rt":31758.699999999255,"item_order":[0,1,2,3,4,5,6,7],"radio_events":[2545.4000000003725,5840.5,7929.299999998882,18873.5,22272.699999999255,24289.5,26032.900000000373,28361.299999998882],"checkbox_events":[11591.599999999627,20001.099999999627],"key_events":[],"mouse_events":[2545.4000000003725,5840.5,7929.299999998882,11201.799999998882,11591.599999999627,18873.5,20001.099999999627,22272.699999999255,24289.5,26032.900000000373,28361.299999998882,31753.799999998882],"honeypot":0,"survey":"mace","page":2,"trial_type":"survey-mace","trial_index":10,"time_elapsed":415755,"internal_node_id":"0.0-10.0","task_version":"prescreen-v0.3","browser_interactions":0},{"responses":{"01":"No","02":"No","03":"No","04":"No"},"rt":14912.099999999627,"item_order":[0,1,2,3],"radio_events":[10878.599999999627,12350.599999999627,13727,14326.400000000373],"checkbox_events":[],"key_events":[],"mouse_events":[10878.599999999627,12350.599999999627,13374.900000000373,13727,14326.400000000373,14909.799999998882],"honeypot":0,"survey":"mace","page":3,"trial_type":"survey-mace","trial_index":11,"time_elapsed":430670,"internal_node_id":"0.0-11.0","task_version":"prescreen-v0.3","browser_interactions":0},{"responses":{"01":"No","02":"No"},"rt":8445.400000000373,"item_order":[0,1],"radio_events":[2940.10000000149,3531.7000000011176],"checkbox_events":[],"key_events":[],"mouse_events":[2940.10000000149,3531.7000000011176,8443.900000000373],"honeypot":0,"survey":"mace","page":4,"trial_type":"survey-mace","trial_index":12,"time_elapsed":439118,"internal_node_id":"0.0-12.0","task_version":"prescreen-v0.3","browser_interactions":0},{"responses":{"01":"No","02":"No","03":"No","04":"No","05":"No"},"rt":21395.900000000373,"item_order":[0,1,2,3,4],"radio_events":[4251.9000000003725,10850.700000001118,17683.700000001118,18307.700000001118,19963.400000000373],"checkbox_events":[],"key_events":[],"mouse_events":[4251.9000000003725,8724,10850.700000001118,17683.700000001118,18307.700000001118,19322.800000000745,19963.400000000373,21393.900000000373],"honeypot":0,"survey":"mace","page":5,"trial_type":"survey-mace","trial_index":13,"time_elapsed":460518,"internal_node_id":"0.0-13.0","task_version":"prescreen-v0.3","browser_interactions":0},{"responses":{"01":"No","02":"No","03":"No","04":"Yes","04_ages_11":"11","04_ages_12":"12","04_ages_13":"13","04_ages_14":"14","05":"Yes","05_ages_14":"14"},"rt":51391.199999999255,"item_order":[0,1,2,3,4],"radio_events":[9003.900000000373,9548.900000000373,11971.900000000373,13716.5,24268.699999999255,28420.400000000373],"checkbox_events":[26276.599999999627,31611.900000000373,32124,35996.59999999963,36580.59999999963],"key_events":[],"mouse_events":[7380.5,8675.799999998882,9003.900000000373,9548.900000000373,11971.900000000373,13716.5,23964.900000000373,24268.699999999255,25756.699999999255,26276.599999999627,28420.400000000373,31611.900000000373,32124,35996.59999999963,36580.59999999963,51388.29999999888],"honeypot":0,"survey":"mace","page":6,"trial_type":"survey-mace","trial_index":14,"time_elapsed":511913,"internal_node_id":"0.0-14.0","task_version":"prescreen-v0.3","browser_interactions":0},{"responses":{"01":"No","02":"No","03":"Yes","03_ages_14":"14","04":"No","05":"No","06":"No","07":"No"},"rt":22869.800000000745,"item_order":[0,1,2,3,4,5,6],"radio_events":[5857.4000000003725,8281.900000000373,13338,16001.300000000745,19225.900000000373,20377.300000000745,21985.699999999255],"checkbox_events":[14432.5],"key_events":[],"mouse_events":[5857.4000000003725,8281.900000000373,11536.300000000745,13338,14432.5,16001.300000000745,19225.900000000373,20377.300000000745,21009.900000000373,21985.699999999255,22865.5],"honeypot":0,"survey":"mace","page":7,"trial_type":"survey-mace","trial_index":15,"time_elapsed":534787,"internal_node_id":"0.0-15.0","task_version":"prescreen-v0.3","browser_interactions":0},{"responses":{"01":"No","01_ages_3":"3","01_ages_4":"4","01_ages_5":"5","01_ages_6":"6","01_ages_7":"7","01_ages_8":"8","01_ages_9":"9","01_ages_10":"10","01_ages_11":"11","01_ages_12":"12","01_ages_13":"13","01_ages_14":"14","01_ages_15":"15","01_ages_16":"16","01_ages_17":"17","01_ages_18":"18","02":"No","03":"Yes","03_ages_3":"3","03_ages_4":"4","03_ages_5":"5","03_ages_6":"6","03_ages_7":"7","03_ages_8":"8","03_ages_9":"9","03_ages_10":"10","03_ages_11":"11","03_ages_12":"12","03_ages_13":"13","03_ages_14":"14","03_ages_15":"15","03_ages_16":"16","03_ages_17":"17","03_ages_18":"18","04":"No"},"rt":75266.29999999888,"item_order":[0,1,2,3],"radio_events":[14696.099999999627,16927.099999999627,32376.199999999255,43240.40000000037,62158.699999999255],"checkbox_events":[20016.400000000373,20584.199999999255,21008.400000000373,21624.5,22046.599999999627,22455.5,22856.400000000373,23296.699999999255,23775.699999999255,24215.799999998882,24671.699999999255,25112,26240,26743.799999998882,27302.599999999627,29047.5,46504.40000000037,47007.79999999888,48710.79999999888,49160.29999999888,49896.40000000037,50360.199999999255,50816.199999999255,51176.199999999255,51614.699999999255,52008.199999999255,52376.699999999255,52726.5,53104.199999999255,53736.09999999963,54128.199999999255,58568.5],"key_events":[],"mouse_events":[14696.099999999627,16927.099999999627,20016.400000000373,20584.199999999255,21008.400000000373,21624.5,22046.599999999627,22455.5,22856.400000000373,23296.699999999255,23775.699999999255,24215.799999998882,24671.699999999255,25112,26240,26743.799999998882,27302.599999999627,29047.5,32376.199999999255,43240.40000000037,46504.40000000037,47007.79999999888,47464.29999999888,48710.79999999888,49160.29999999888,49896.40000000037,50360.199999999255,50816.199999999255,51176.199999999255,51614.699999999255,52008.199999999255,52376.699999999255,52726.5,53104.199999999255,53736.09999999963,54128.199999999255,54488.199999999255,58568.5,62158.699999999255,75263.69999999925],"honeypot":0,"survey":"mace","page":8,"trial_type":"survey-mace","trial_index":16,"time_elapsed":610058,"internal_node_id":"0.0-16.0","task_version":"prescreen-v0.3","browser_interactions":0},{"responses":{"01":"Yes","01_ages_1":"1","01_ages_2":"2","01_ages_3":"3","01_ages_4":"4","01_ages_5":"5","01_ages_6":"6","01_ages_7":"7","01_ages_8":"8","01_ages_9":"9","01_ages_10":"10","01_ages_11":"11","01_ages_12":"12","01_ages_13":"13","01_ages_14":"14","01_ages_15":"15","01_ages_16":"16","01_ages_17":"17","01_ages_18":"18","02":"Yes","02_ages_1":"1","02_ages_2":"2","02_ages_3":"3","02_ages_4":"4","02_ages_5":"5","02_ages_6":"6","02_ages_7":"7","02_ages_8":"8","02_ages_9":"9","02_ages_10":"10","02_ages_11":"11","02_ages_12":"12","02_ages_13":"13","02_ages_14":"14","02_ages_15":"15","02_ages_16":"16","02_ages_17":"17","02_ages_18":"18","03":"Yes","03_ages_1":"1","03_ages_2":"2","03_ages_3":"3","03_ages_4":"4","03_ages_5":"5","03_ages_6":"6","03_ages_7":"7","03_ages_8":"8","03_ages_9":"9","03_ages_10":"10","03_ages_11":"11","03_ages_12":"12","03_ages_13":"13","03_ages_14":"14","03_ages_15":"15","03_ages_16":"16","03_ages_17":"17","03_ages_18":"18","04":"Yes","04_ages_1":"1","04_ages_2":"2","04_ages_3":"3","04_ages_4":"4","04_ages_5":"5","04_ages_6":"6","04_ages_7":"7","04_ages_8":"8","04_ages_9":"9","04_ages_10":"10","04_ages_11":"11","04_ages_12":"12","04_ages_13":"13","04_ages_14":"14","04_ages_15":"15","04_ages_16":"16","04_ages_17":"17","04_ages_18":"18"},"rt":71196.69999999925,"item_order":[0,1,2,3],"radio_events":[3867.0999999996275,22074.400000000373,43697.09999999963,55649.699999999255],"checkbox_events":[7105,7618.800000000745,8474,8818.599999999627,9330,9938.400000000373,11490.800000000745,12833.699999999255,13274.900000000373,14298.599999999627,15266.699999999255,16458.5,16914.900000000373,17698.699999999255,18842.699999999255,19298.699999999255,19810.199999999255,20226.5,23066.900000000373,23891,24338.5,25186.599999999627,25818.699999999255,27545.099999999627,27986.699999999255,28674.699999999255,29122.800000000745,29602.699999999255,30706.300000000745,31202.199999999255,31786.900000000373,32448.900000000373,32938.40000000037,33761.199999999255,40729.09999999963,41416.800000000745,44473.09999999963,44872.90000000037,45585.199999999255,46760.800000000745,47240.800000000745,48216.800000000745,48656.90000000037,49338.59999999963,49722.699999999255,50106.699999999255,50489.90000000037,50889.800000000745,51346.90000000037,52506.5,53314.59999999963,53832.90000000037,54336.800000000745,54754.800000000745,57729.90000000037,58361.09999999963,59002.90000000037,60081.199999999255,61026.199999999255,61802.699999999255,62266.800000000745,62922.300000000745,63457.199999999255,64602.40000000037,65211,65945.69999999925,66385.40000000037,66842.90000000037,67699.30000000075,68145.80000000075,68713.09999999963,70418.40000000037],"key_events":[],"mouse_events":[3867.0999999996275,7105,7618.800000000745,8122.300000000745,8474,8818.599999999627,9330,9938.400000000373,10434.5,11034.699999999255,11490.800000000745,11970.599999999627,12481.599999999627,12833.699999999255,13274.900000000373,14298.599999999627,14738.300000000745,15266.699999999255,15826.400000000373,16458.5,16914.900000000373,17698.699999999255,18386.400000000373,18842.699999999255,19298.699999999255,19810.199999999255,20226.5,22074.400000000373,23066.900000000373,23513.900000000373,23891,24338.5,24786.5,25186.599999999627,25818.699999999255,27545.099999999627,27986.699999999255,28674.699999999255,29122.800000000745,29602.699999999255,30250.699999999255,30706.300000000745,31202.199999999255,31786.900000000373,32448.900000000373,32938.40000000037,33761.199999999255,40729.09999999963,41416.800000000745,43697.09999999963,44473.09999999963,44872.90000000037,45585.199999999255,46192.90000000037,46760.800000000745,47240.800000000745,48216.800000000745,48656.90000000037,49338.59999999963,49722.699999999255,50106.699999999255,50489.90000000037,50889.800000000745,51346.90000000037,52506.5,53314.59999999963,53832.90000000037,54336.800000000745,54754.800000000745,55649.699999999255,57729.90000000037,58361.09999999963,59002.90000000037,59618.40000000037,60081.199999999255,60498.300000000745,61026.199999999255,61433.699999999255,61802.699999999255,62266.800000000745,62922.300000000745,63457.199999999255,64186.5,64602.40000000037,65211,65945.69999999925,66385.40000000037,66842.90000000037,67338.69999999925,67699.30000000075,68145.80000000075,68713.09999999963,69954.19999999925,70418.40000000037,71194.69999999925],"honeypot":0,"survey":"mace","page":9,"trial_type":"survey-mace","trial_index":17,"time_elapsed":681258,"internal_node_id":"0.0-17.0","task_version":"prescreen-v0.3","browser_interactions":4},{"responses":{"01":"No","02":"No","03":"No","04":"No","05":"Yes","05_ages_13":"13","05_ages_14":"14","05_ages_15":"15","05_ages_16":"16","05_ages_17":"17","05_ages_18":"18","06":"Yes","06_ages_17":"17","07":"Yes","07_ages_1":"1","07_ages_2":"2","07_ages_3":"3","07_ages_4":"4","07_ages_5":"5","07_ages_6":"6","07_ages_7":"7","07_ages_8":"8","07_ages_9":"9","07_ages_10":"10","07_ages_11":"11","07_ages_12":"12","07_ages_13":"13","07_ages_14":"14","07_ages_15":"15","07_ages_16":"16","07_ages_17":"17","07_ages_18":"18","08":"No"},"rt":53071.20000000112,"item_order":[0,1,2,3,4,5,6,7],"radio_events":[2266.5,3514,9048.5,10138,11954.200000001118,16873.200000001118,36370.09999999963,43242.300000000745],"checkbox_events":[13370.200000001118,18913.900000000373,19338.099999999627,19914.400000000373,21058.200000001118,21866,22288.5,23593.900000000373,32657.700000001118,39378.09999999963,39810.20000000112,40288.5,44217.90000000037,44633,45050.09999999963,45466.09999999963,45857.40000000037,46954.5,47322.09999999963,47962.09999999963,48400.70000000112,49042.09999999963,49530.20000000112,49994.09999999963,51136.20000000112,51826.20000000112,52201.800000000745],"key_events":[],"mouse_events":[2266.5,3514,9048.5,10138,11954.200000001118,13370.200000001118,16536.599999999627,16873.200000001118,18913.900000000373,19338.099999999627,19914.400000000373,20474.200000001118,21058.200000001118,21866,22288.5,23593.900000000373,32657.700000001118,36370.09999999963,38552.40000000037,39042.09999999963,39378.09999999963,39810.20000000112,40288.5,41922,42810.20000000112,43242.300000000745,44217.90000000037,44633,45050.09999999963,45466.09999999963,45857.40000000037,46441.90000000037,46954.5,47322.09999999963,47962.09999999963,48400.70000000112,49042.09999999963,49530.20000000112,49994.09999999963,50497.09999999963,50834.300000000745,51136.20000000112,51826.20000000112,52201.800000000745,53066.40000000037],"honeypot":0,"survey":"mace","page":10,"trial_type":"survey-mace","trial_index":18,"time_elapsed":734335,"internal_node_id":"0.0-18.0","task_version":"prescreen-v0.3","browser_interactions":0,"instructed":0},{"rt":7070.700000001118,"trial_type":"mental-health-alert","trial_index":19,"time_elapsed":741408,"internal_node_id":"0.0-19.0","task_version":"prescreen-v0.3","interactions":"[{\"event\":\"blur\",\"trial\":17,\"time\":644098},{\"event\":\"focus\",\"trial\":17,\"time\":644225},{\"event\":\"blur\",\"trial\":17,\"time\":644502},{\"event\":\"focus\",\"trial\":17,\"time\":648673}]"}]