[{"view_history":[{"page_index":0,"viewing_time":2340},{"page_index":1,"viewing_time":1762},{"page_index":2,"viewing_time":3389},{"page_index":3,"viewing_time":1367.0000000000018}],"rt":8859,"trial_type":"instructions","trial_index":0,"time_elapsed":8865,"internal_node_id":"0.0-0.0","task_version":"prescreen-v0.3"},{"rt":21795,"responses":{"age":"26","gender-categorical":"Female","gender-free-response":"","ethnicity":"Not Hispanic or Latino","race":["White"],"education":"Bachelor degree"},"trial_type":"survey-demo","trial_index":1,"time_elapsed":30668,"internal_node_id":"0.0-1.0","task_version":"prescreen-v0.3"},{"responses":{"Q08":"1","Q02":"1","Q12":"0","Q19":"1","Q07":"0","Q21":"3","Q05":"0","Q17":"0","Q14":"0","Q20":"2","Q11":"1","Q10":"1","Q18":"0","Q01":"1","Q13":"1","Q16":"0","Q06":"1","Q04":"2","Q15":"1","Q09":"1","Q03":"0"},"rt":160853,"item_order":[7,1,11,18,6,20,4,16,13,19,10,9,17,0,12,15,5,3,14,8,2],"radio_events":[8519.999999999996,12574.999999999996,19478.999999999996,28095.999999999996,37477,41628,51314,57296.000000000015,61632,64536,71146,77296.00000000001,82905,87289,91584,96055.00000000001,134608,138410,140312,146003.00000000003,153018,157437,160047],"key_events":[],"mouse_events":[8519.999999999996,12574.999999999996,19478.999999999996,28095.999999999996,37477,41628,51314,57296.000000000015,61632,64536,71146,77296.00000000001,82905,87289,91584,96055.00000000001,134608,138410,140312,146003.00000000003,153018,157437,160047,160843],"straightlining":0.47619047619047616,"zigzagging":0.65,"honeypot":0,"survey":"sns","trial_type":"survey-template","trial_index":2,"time_elapsed":191525,"internal_node_id":"0.0-2.0","task_version":"prescreen-v0.3","browser_interactions":0,"infrequency":0},{"responses":{"Q06":"3","Q07":"3","Q11":"2","Q02":"1","Q10":"2","Q01":"2","Q12":"2","Q03":"2","Q09":"2","Q04":"3","Q08":"3","Q13":"0","Q05":"3"},"rt":112015,"item_order":[5,6,10,1,9,0,11,2,8,3,7,12,4],"radio_events":[8490,10646.00000000003,17176.00000000003,27445,32099,34645,38400,50563.00000000003,54982,60882,63517,76601,83067,111305],"key_events":[],"mouse_events":[8490,10646.00000000003,17176.00000000003,27445,32099,34645,38400,50563.00000000003,54982,60882,63517,76601,83067,84506.00000000006,111305,112006.00000000006],"straightlining":0.46153846153846156,"zigzagging":0.5,"honeypot":0,"survey":"bisbas","trial_type":"survey-template","trial_index":3,"time_elapsed":303542,"internal_node_id":"0.0-3.0","task_version":"prescreen-v0.3","browser_interactions":0,"infrequency":0},{"responses":{"Q01":"2","Q02":"2","Q03":"3"},"rt":29266,"radio_events":[15506,21838,28474],"key_events":[],"mouse_events":[15506,21369.00000000006,21838,28474,29261.00000000006],"survey":"map","page":1,"trial_type":"survey-map","trial_index":4,"time_elapsed":332812,"internal_node_id":"0.0-4.0","task_version":"prescreen-v0.3","browser_interactions":0},{"responses":{"Q04":"4","Q05":"4","Q06":"4"},"rt":17776,"radio_events":[9624,14789,17112.00000000006],"key_events":[],"mouse_events":[9624,14789,17112.00000000006,17772],"survey":"map","page":2,"trial_type":"survey-map","trial_index":5,"time_elapsed":350590,"internal_node_id":"0.0-5.0","task_version":"prescreen-v0.3","browser_interactions":0},{"responses":{"Q07":"4","Q08":"0","Q09":"3"},"rt":17854.99999999994,"radio_events":[7570.999999999942,11659.999999999942,17004.99999999994],"key_events":[],"mouse_events":[7570.999999999942,11659.999999999942,17004.99999999994,17848.99999999994],"survey":"map","page":3,"trial_type":"survey-map","trial_index":6,"time_elapsed":368447,"internal_node_id":"0.0-6.0","task_version":"prescreen-v0.3","browser_interactions":0},{"responses":{"Q10":"2","Q11":"2","Q12":"4","Q13":"4","Q16":"0","Q14":"2","Q15":"2"},"rt":66589.00000000006,"radio_events":[6268,10581,17759,36058,40379,58803.00000000006,61205,65660],"key_events":[],"mouse_events":[6268,10581,17759,35509,36058,40379,58803.00000000006,61205,65660,66583],"survey":"map","page":4,"trial_type":"survey-map","trial_index":7,"time_elapsed":435039,"internal_node_id":"0.0-7.0","task_version":"prescreen-v0.3","browser_interactions":0,"infrequency":0},{"view_history":[{"page_index":0,"viewing_time":1551},{"page_index":1,"viewing_time":3063}],"rt":4615.000000000058,"trial_type":"instructions","trial_index":8,"time_elapsed":439656,"internal_node_id":"0.0-8.0","task_version":"prescreen-v0.3"},{"responses":{"01":"No","02":"No","03":"No","04":"No","05":"No","06":"No"},"rt":51193.99999999994,"item_order":[0,1,2,3,4,5],"radio_events":[35593.99999999994,39524.99999999994,42572,45706.99999999994,48222.99999999994,50424.99999999994],"checkbox_events":[],"key_events":[],"mouse_events":[0,35593.99999999994,39524.99999999994,42572,45199.99999999994,45706.99999999994,48222.99999999994,50424.99999999994,51182.99999999994],"honeypot":0,"survey":"mace","page":1,"trial_type":"survey-mace","trial_index":9,"time_elapsed":490858,"internal_node_id":"0.0-9.0","task_version":"prescreen-v0.3","browser_interactions":0},{"responses":{"01":"No","02":"No","03":"Yes","03_ages_4":"4","03_ages_5":"5","03_ages_6":"6","04":"No","05":"No","06":"No","07":"No","08":"No"},"rt":34817,"item_order":[0,1,2,3,4,5,6,7],"radio_events":[2687,6221,21291,23575,26995.00000000006,30950.99999999994,32535,33886],"checkbox_events":[14838,15777.000000000058,16294.000000000058],"key_events":[],"mouse_events":[2687,6221,14838,15777.000000000058,16294.000000000058,21291,23575,26995.00000000006,30950.99999999994,32535,33886,34810],"honeypot":0,"survey":"mace","page":2,"trial_type":"survey-mace","trial_index":10,"time_elapsed":525680,"internal_node_id":"0.0-10.0","task_version":"prescreen-v0.3","browser_interactions":0},{"responses":{"01":"No","02":"No","03":"No","04":"No"},"rt":11414,"item_order":[0,1,2,3],"radio_events":[6625,8613,9973,10729],"checkbox_events":[],"key_events":[],"mouse_events":[6625,8613,9973,10729,11406],"honeypot":0,"survey":"mace","page":3,"trial_type":"survey-mace","trial_index":11,"time_elapsed":537098,"internal_node_id":"0.0-11.0","task_version":"prescreen-v0.3","browser_interactions":0},{"responses":{"01":"No","02":"No"},"rt":12469,"item_order":[0,1],"radio_events":[1993,4348],"checkbox_events":[],"key_events":[],"mouse_events":[1993,4348,12463],"honeypot":0,"survey":"mace","page":4,"trial_type":"survey-mace","trial_index":12,"time_elapsed":549571,"internal_node_id":"0.0-12.0","task_version":"prescreen-v0.3","browser_interactions":0},{"responses":{"01":"No","02":"No","03":"No","04":"No","05":"No"},"rt":22150,"item_order":[0,1,2,3,4],"radio_events":[9231,12525,15469,18985,21317],"checkbox_events":[],"key_events":[],"mouse_events":[9231,12525,15469,18477,18985,21317,22145],"honeypot":0,"survey":"mace","page":5,"trial_type":"survey-mace","trial_index":13,"time_elapsed":571726,"internal_node_id":"0.0-13.0","task_version":"prescreen-v0.3","browser_interactions":0},{"responses":{"01":"Yes","01_ages_8":"8","01_ages_9":"9","01_ages_10":"10","01_ages_11":"11","01_ages_12":"12","01_ages_13":"13","01_ages_14":"14","02":"Yes","02_ages_8":"8","02_ages_9":"9","02_ages_10":"10","02_ages_11":"11","03":"Yes","03_ages_12":"12","03_ages_13":"13","03_ages_14":"14","04":"No","05":"No"},"rt":43848,"item_order":[0,1,2,3,4],"radio_events":[6834,22567,30986.000000000116,39994,42885.00000000012],"checkbox_events":[10549,11027,11441,12372,12920,13415,14050,24365,24875,25479,26115,33197,33691,34584],"key_events":[],"mouse_events":[6834,10549,11027,11441,12372,12920,13415,14050,22567,24365,24875,25479,26115,30986.000000000116,33197,33691,34584,39994,42885.00000000012,43837.00000000012],"honeypot":0,"survey":"mace","page":6,"trial_type":"survey-mace","trial_index":14,"time_elapsed":615579,"internal_node_id":"0.0-14.0","task_version":"prescreen-v0.3","browser_interactions":0},{"responses":{"01":"No","02":"No","03":"Yes","03_ages_10":"10","03_ages_11":"11","03_ages_12":"12","04":"No","05":"No","06":"No","07":"No"},"rt":26349,"item_order":[0,1,2,3,4,5,6],"radio_events":[6442,9066,13100,19394,22362,24304,25418],"checkbox_events":[15343,16021,16483.000000000116],"key_events":[],"mouse_events":[6442,9066,13100,15343,16021,16483.000000000116,19394,22362,24304,25418,26341],"honeypot":0,"survey":"mace","page":7,"trial_type":"survey-mace","trial_index":15,"time_elapsed":641933,"internal_node_id":"0.0-15.0","task_version":"prescreen-v0.3","browser_interactions":0},{"responses":{"01":"No","02":"No","03":"No","04":"No"},"rt":14878,"item_order":[0,1,2,3],"radio_events":[6422,8340,12510,13999.000000000116],"checkbox_events":[],"key_events":[],"mouse_events":[6422,8340,11689,12510,13999.000000000116,14873],"honeypot":0,"survey":"mace","page":8,"trial_type":"survey-mace","trial_index":16,"time_elapsed":656815,"internal_node_id":"0.0-16.0","task_version":"prescreen-v0.3","browser_interactions":0},{"responses":{"01":"Yes","01_ages_1":"1","01_ages_2":"2","01_ages_3":"3","01_ages_4":"4","01_ages_5":"5","01_ages_6":"6","01_ages_7":"7","01_ages_8":"8","01_ages_9":"9","01_ages_10":"10","01_ages_11":"11","01_ages_12":"12","01_ages_13":"13","01_ages_14":"14","01_ages_15":"15","01_ages_16":"16","01_ages_17":"17","01_ages_18":"18","02":"Yes","02_ages_1":"1","02_ages_2":"2","02_ages_3":"3","02_ages_4":"4","02_ages_5":"5","02_ages_6":"6","02_ages_7":"7","02_ages_8":"8","02_ages_9":"9","02_ages_10":"10","02_ages_11":"11","02_ages_12":"12","02_ages_13":"13","02_ages_14":"14","02_ages_15":"15","02_ages_16":"16","02_ages_17":"17","02_ages_18":"18","03":"Yes","03_ages_1":"1","03_ages_2":"2","03_ages_3":"3","03_ages_4":"4","03_ages_5":"5","03_ages_6":"6","03_ages_7":"7","03_ages_8":"8","03_ages_9":"9","03_ages_10":"10","03_ages_11":"11","03_ages_12":"12","03_ages_13":"13","03_ages_14":"14","03_ages_15":"15","03_ages_16":"16","03_ages_17":"17","03_ages_18":"18","04":"Yes","04_ages_16":"16","04_ages_17":"17","04_ages_18":"18"},"rt":55457,"item_order":[0,1,2,3],"radio_events":[3826,16327,27921,43234],"checkbox_events":[5927,6476,6922,7320,7800.000000000116,8243,8712,9135,9699.000000000116,10120,10567,11085,11617.000000000116,12087,12531,13011,13447,13980,17291,17823,18318,18754,19234,19662,20196,20704,21174,21667,22137,22653,23123,23585,24102,24587,25105,25566,29983,30922,31320,31774,32211,32688,33118,33564,34049,34512,34972,35451,35887,36349,36812,37248,37741,38318,52367.00000000012,52811,53314],"key_events":[],"mouse_events":[3826,5927,6476,6922,7320,7800.000000000116,8243,8712,9135,9699.000000000116,10120,10567,11085,11617.000000000116,12087,12531,13011,13447,13980,16327,17291,17823,18318,18754,19234,19662,20196,20704,21174,21667,22137,22653,23123,23585,24102,24587,25105,25566,27921,29983,30404,30922,31320,31774,32211,32688,33118,33564,34049,34512,34972,35451,35887,36349,36812,37248,37741,38318,43234,52367.00000000012,52811,53314,55447],"honeypot":0,"survey":"mace","page":9,"trial_type":"survey-mace","trial_index":17,"time_elapsed":712276,"internal_node_id":"0.0-17.0","task_version":"prescreen-v0.3","browser_interactions":0},{"responses":{"01":"No","02":"No","03":"No","04":"No","05":"No","06":"Yes","06_ages_17":"17","07":"Yes","07_ages_1":"1","07_ages_2":"2","07_ages_3":"3","07_ages_4":"4","07_ages_5":"5","07_ages_6":"6","07_ages_7":"7","07_ages_8":"8","07_ages_9":"9","07_ages_10":"10","07_ages_11":"11","07_ages_12":"12","07_ages_13":"13","07_ages_14":"14","07_ages_15":"15","07_ages_16":"16","07_ages_17":"17","07_ages_18":"18","08":"Yes","08_ages_1":"1","08_ages_2":"2","08_ages_3":"3","08_ages_4":"4","08_ages_5":"5","08_ages_6":"6","08_ages_7":"7","08_ages_8":"8","08_ages_9":"9","08_ages_10":"10","08_ages_11":"11","08_ages_12":"12","08_ages_13":"13","08_ages_14":"14","08_ages_15":"15","08_ages_16":"16","08_ages_17":"17","08_ages_18":"18"},"rt":46783,"item_order":[0,1,2,3,4,5,6,7],"radio_events":[2635,4075,6733,8674,12813,16545,21964,35523],"checkbox_events":[17810,24176,24606,25019,25512,25951,26371,26929.000000000116,27407,28090,28672,29149,30104,30725,31202,31864,32340,32818,33328.00000000012,36789,37282,37751,38205,39096,39510,39948,40403,40991,41531,42042,42568,43108,43760,44271,45224,45678,46218],"key_events":[],"mouse_events":[2635,4075,6733,8674,12813,16545,17810,21964,23787,24176,24606,25019,25512,25951,26371,26929.000000000116,27407,28090,28672,29149,29643,30104,30725,31202,31864,32340,32818,33328.00000000012,35523,36789,37282,37751,38205,38652,39096,39510,39948,40403,40991,41531,42042,42568,43108,43760,44271,44803,45224,45678,46218,46776],"honeypot":0,"survey":"mace","page":10,"trial_type":"survey-mace","trial_index":18,"time_elapsed":759065,"internal_node_id":"0.0-18.0","task_version":"prescreen-v0.3","browser_interactions":0,"instructed":0},{"rt":2300,"trial_type":"mental-health-alert","trial_index":19,"time_elapsed":761367,"internal_node_id":"0.0-19.0","task_version":"prescreen-v0.3","interactions":"[]"}]