[{"view_history":[{"page_index":0,"viewing_time":5591.699999928474},{"page_index":1,"viewing_time":68858.60000002384},{"page_index":2,"viewing_time":3633.600000023842},{"page_index":3,"viewing_time":1243.7999999523163}],"rt":79328.29999995232,"trial_type":"instructions","trial_index":0,"time_elapsed":79342,"internal_node_id":"0.0-0.0","task_version":"prescreen-v0.3"},{"rt":16918.900000095367,"responses":{"age":"48","gender-categorical":"Male","gender-free-response":"","ethnicity":"Not Hispanic or Latino","race":["White"],"education":"Associate degree","siblings":"3"},"trial_type":"survey-demo","trial_index":1,"time_elapsed":96265,"internal_node_id":"0.0-1.0","task_version":"prescreen-v0.3"},{"responses":{"Q15":"3","Q19":"3","Q01":"3","Q11":"3","Q09":"3","Q10":"3","Q02":"3","Q03":"3","Q04":"3","Q17":"3","Q06":"3","Q20":"0","Q07":"3","Q21":"3","Q14":"3","Q12":"1","Q13":"1","Q18":"1","Q05":"2","Q16":"2","Q08":"2"},"rt":1286637.1999999285,"item_order":[14,18,0,10,8,9,1,2,3,16,5,19,6,20,13,11,12,17,4,15,7],"radio_events":[5314.599999904633,9767.5,11646.199999928474,18974.699999928474,19369.099999904633,20763.599999904633,24170,29402.399999976158,31474.299999952316,33624.299999952316,38811.799999952316,41524.199999928474,47400.299999952316,50400.5,54236.299999952316,61162.199999928474,66382.19999992847,70841.89999997616,76794.09999990463,1284719.2999999523,1285160],"key_events":[],"mouse_events":[5314.599999904633,9767.5,11646.199999928474,13626.299999952316,15811.899999976158,17814.399999976158,18974.699999928474,19369.099999904633,19934.5,20763.599999904633,24170,29402.399999976158,31474.299999952316,33624.299999952316,36098.5,38811.799999952316,41524.199999928474,47400.299999952316,50400.5,54236.299999952316,61162.199999928474,66382.19999992847,70841.89999997616,76794.09999990463,1282888,1284719.2999999523,1285160,1286635.7999999523],"straightlining":0.6666666666666666,"zigzagging":0.15,"honeypot":0,"survey":"sns","trial_type":"survey-template","trial_index":2,"time_elapsed":1382905,"internal_node_id":"0.0-2.0","task_version":"prescreen-v0.3","browser_interactions":2,"infrequency":0},{"responses":{"Q11":"3","Q07":"3","Q13":"0","Q04":"3","Q12":"2","Q01":"2","Q03":"0","Q10":"3","Q05":"3","Q06":"3","Q08":"3","Q09":"2","Q02":"2"},"rt":830409.8000000715,"item_order":[10,6,12,3,11,0,2,9,4,5,7,8,1],"radio_events":[792819.2000000477,794117,798325.2000000477,801271.2000000477,807341.1000000238,809188.8000000715,813180.8000000715,815709,818525.3999999762,822839,823952.8999999762,827115,829642.8000000715],"key_events":[],"mouse_events":[790205.1000000238,792819.2000000477,794117,798325.2000000477,801271.2000000477,807341.1000000238,809188.8000000715,813180.8000000715,815709,817565.1000000238,818525.3999999762,822839,823952.8999999762,824997.2000000477,825979.2000000477,827115,829642.8000000715,830408.8000000715],"straightlining":0.5384615384615384,"zigzagging":0.4166666666666667,"honeypot":0,"survey":"bisbas","trial_type":"survey-template","trial_index":3,"time_elapsed":2213316,"internal_node_id":"0.0-3.0","task_version":"prescreen-v0.3","browser_interactions":2,"infrequency":0},{"responses":{"Q01":"1","Q02":"1","Q03":"1"},"rt":16984.699999928474,"radio_events":[9182.099999904633,12816.199999928474,15940.099999904633],"key_events":[],"mouse_events":[554.3999999761581,9182.099999904633,12816.199999928474,15940.099999904633,16984.199999928474],"survey":"map","page":1,"trial_type":"survey-map","trial_index":4,"time_elapsed":2230303,"internal_node_id":"0.0-4.0","task_version":"prescreen-v0.3","browser_interactions":0},{"responses":{"Q04":"3","Q05":"3","Q06":"3"},"rt":8334.600000023842,"radio_events":[4282,5326,6755.899999976158],"key_events":[],"mouse_events":[4282,5326,6755.899999976158,8334.100000023842],"survey":"map","page":2,"trial_type":"survey-map","trial_index":5,"time_elapsed":2238639,"internal_node_id":"0.0-5.0","task_version":"prescreen-v0.3","browser_interactions":0},{"responses":{"Q07":"4","Q08":"4","Q09":"4"},"rt":10274.600000023842,"radio_events":[4792.200000047684,6143.900000095367,9392.200000047684],"key_events":[],"mouse_events":[4792.200000047684,6143.900000095367,7697.900000095367,8380.400000095367,9392.200000047684,10274.100000023842],"survey":"map","page":3,"trial_type":"survey-map","trial_index":6,"time_elapsed":2248915,"internal_node_id":"0.0-6.0","task_version":"prescreen-v0.3","browser_interactions":0},{"responses":{"Q10":"0","Q11":"0","Q12":"3","Q13":"3","Q16":"0","Q14":"3","Q15":"3"},"rt":30360.800000071526,"radio_events":[6006,8787.600000023842,11024.100000023842,12004.600000023842,16873.399999976158,18190.100000023842,21414,26178.399999976158,28735.700000047684],"key_events":[],"mouse_events":[6006,8787.600000023842,11024.100000023842,12004.600000023842,16873.399999976158,18190.100000023842,21414,26178.399999976158,27870,28735.700000047684,30360.100000023842],"survey":"map","page":4,"trial_type":"survey-map","trial_index":7,"time_elapsed":2279277,"internal_node_id":"0.0-7.0","task_version":"prescreen-v0.3","browser_interactions":0,"infrequency":0},{"view_history":[{"page_index":0,"viewing_time":2905.399999976158},{"page_index":1,"viewing_time":2334.399999976158}],"rt":5240.5,"trial_type":"instructions","trial_index":8,"time_elapsed":2284518,"internal_node_id":"0.0-8.0","task_version":"prescreen-v0.3"},{"responses":{"01":"Yes","01_ages_4":"4","01_ages_5":"5","01_ages_6":"6","01_ages_7":"7","01_ages_8":"8","01_ages_9":"9","01_ages_10":"10","01_ages_11":"11","01_ages_12":"12","01_ages_13":"13","01_ages_14":"14","01_ages_15":"15","01_ages_16":"16","01_ages_17":"17","01_ages_18":"18","02":"Yes","02_ages_4":"4","02_ages_5":"5","02_ages_6":"6","02_ages_7":"7","02_ages_8":"8","02_ages_9":"9","02_ages_10":"10","02_ages_11":"11","02_ages_12":"12","02_ages_13":"13","02_ages_14":"14","02_ages_15":"15","02_ages_16":"16","02_ages_17":"17","02_ages_18":"18","03":"No","04":"No","05":"No","06":"Yes","06_ages_4":"4","06_ages_5":"5","06_ages_6":"6","06_ages_7":"7","06_ages_8":"8","06_ages_9":"9","06_ages_10":"10","06_ages_11":"11","06_ages_12":"12","06_ages_13":"13","06_ages_14":"14","06_ages_15":"15","06_ages_16":"16","06_ages_17":"17","06_ages_18":"18"},"rt":81105.70000004768,"item_order":[0,1,2,3,4,5],"radio_events":[11797.299999952316,38111.39999997616,55061.60000002384,57845.299999952316,59777.60000002384,66597.5],"checkbox_events":[25885.799999952316,26629.5,27510.100000023842,27935.5,28616.100000023842,29125.600000023842,29667.600000023842,30231.299999952316,30673.700000047684,32049.700000047684,32459.5,33239.5,33972.89999997616,34454,35103.39999997616,39804.799999952316,40283.299999952316,41397.299999952316,41831.5,42271.5,42852,43331.5,44268.10000002384,44723.60000002384,46385.299999952316,47375.5,47839.799999952316,48342,48883.5,49455.5,68407.70000004768,68887.89999997616,70781.89999997616,72033.5,72489.39999997616,73147.5,73650.10000002384,74043.39999997616,74507.20000004768,75883.20000004768,76533.10000002384,77491.29999995232,78103.20000004768,78713.5,79309.60000002384],"key_events":[],"mouse_events":[0.10000002384185791,10699.799999952316,11797.299999952316,25885.799999952316,26629.5,27510.100000023842,27935.5,28616.100000023842,29125.600000023842,29667.600000023842,30231.299999952316,30673.700000047684,31276.100000023842,32049.700000047684,32459.5,33239.5,33972.89999997616,34454,35103.39999997616,38111.39999997616,39804.799999952316,40283.299999952316,40693.299999952316,41397.299999952316,41831.5,42271.5,42852,43331.5,43763.5,44268.10000002384,44723.60000002384,46385.299999952316,46841.60000002384,47375.5,47839.799999952316,48342,48883.5,49455.5,55061.60000002384,57845.299999952316,59777.60000002384,66597.5,68407.70000004768,68887.89999997616,70781.89999997616,72033.5,72489.39999997616,73147.5,73650.10000002384,74043.39999997616,74507.20000004768,75025.5,75883.20000004768,76533.10000002384,77491.29999995232,78103.20000004768,78713.5,79309.60000002384,81103.79999995232],"honeypot":0,"survey":"mace","page":1,"trial_type":"survey-mace","trial_index":9,"time_elapsed":2365629,"internal_node_id":"0.0-9.0","task_version":"prescreen-v0.3","browser_interactions":0},{"responses":{"01":"Yes","01_ages_4":"4","01_ages_5":"5","01_ages_6":"6","01_ages_7":"7","01_ages_8":"8","01_ages_9":"9","01_ages_10":"10","01_ages_11":"11","01_ages_12":"12","01_ages_13":"13","01_ages_14":"14","01_ages_15":"15","01_ages_16":"16","01_ages_17":"17","01_ages_18":"18","02":"No","03":"Yes","03_ages_4":"4","03_ages_5":"5","03_ages_6":"6","03_ages_7":"7","03_ages_8":"8","03_ages_9":"9","03_ages_10":"10","03_ages_11":"11","03_ages_12":"12","04":"Yes","04_ages_4":"4","04_ages_5":"5","04_ages_6":"6","04_ages_7":"7","04_ages_8":"8","04_ages_9":"9","04_ages_10":"10","04_ages_11":"11","04_ages_12":"12","05":"Yes","05_ages_4":"4","05_ages_5":"5","05_ages_6":"6","05_ages_7":"7","05_ages_8":"8","05_ages_9":"9","05_ages_10":"10","05_ages_11":"11","05_ages_12":"12","06":"No","07":"No","08":"No"},"rt":62688.40000009537,"item_order":[0,1,2,3,4,5,6,7],"radio_events":[5809.300000071526,22085.100000023842,24575.300000071526,35933.200000047684,48357.10000002384,58549.200000047684,59607.10000002384,61101],"checkbox_events":[7217.600000023842,7741,8553.200000047684,9041.200000047684,9605.800000071526,9983.300000071526,10447.200000047684,11445.600000023842,12969.300000071526,13317.300000071526,13727.800000071526,14113.200000047684,15520.900000095367,16030.800000071526,17105.300000071526,25865.300000071526,26460.900000095367,27111.5,27543.200000047684,28363.800000071526,28827.100000023842,30861.100000023842,31309.100000023842,32029.200000047684,37293.5,37765.60000002384,38291.300000071526,38722.60000002384,39195.200000047684,39605.40000009537,41415.300000071526,42575.300000071526,43115.200000047684,49533.5,49919.200000047684,50345.700000047684,50747.10000002384,51241.300000071526,52160.90000009537,52711.60000002384,53607,54319.200000047684],"key_events":[],"mouse_events":[5809.300000071526,7217.600000023842,7741,8167.400000095367,8553.200000047684,9041.200000047684,9605.800000071526,9983.300000071526,10447.200000047684,11073.100000023842,11445.600000023842,11785.800000071526,12357.900000095367,12969.300000071526,13317.300000071526,13727.800000071526,14113.200000047684,14669,15140.900000095367,15520.900000095367,16030.800000071526,16633.5,17105.300000071526,22085.100000023842,24575.300000071526,25865.300000071526,26460.900000095367,27111.5,27543.200000047684,28363.800000071526,28827.100000023842,30861.100000023842,31309.100000023842,32029.200000047684,35933.200000047684,37293.5,37765.60000002384,38291.300000071526,38722.60000002384,39195.200000047684,39605.40000009537,40246.800000071526,40719.10000002384,41415.300000071526,41855.300000071526,42575.300000071526,43115.200000047684,48357.10000002384,49533.5,49919.200000047684,50345.700000047684,50747.10000002384,51241.300000071526,51759.300000071526,52160.90000009537,52711.60000002384,53607,54319.200000047684,58549.200000047684,59607.10000002384,61101,62685.90000009537],"honeypot":0,"survey":"mace","page":2,"trial_type":"survey-mace","trial_index":10,"time_elapsed":2428321,"internal_node_id":"0.0-10.0","task_version":"prescreen-v0.3","browser_interactions":0},{"responses":{"01":"No","02":"No","03":"No","04":"No"},"rt":9181.700000047684,"item_order":[0,1,2,3],"radio_events":[4788.5,5670.5,6466.399999976158,8058.799999952316],"checkbox_events":[],"key_events":[],"mouse_events":[4788.5,5670.5,6466.399999976158,7122.399999976158,8058.799999952316,9180.299999952316],"honeypot":0,"survey":"mace","page":3,"trial_type":"survey-mace","trial_index":11,"time_elapsed":2437504,"internal_node_id":"0.0-11.0","task_version":"prescreen-v0.3","browser_interactions":0},{"responses":{"01":"No","02":"No"},"rt":5517.699999928474,"item_order":[0,1],"radio_events":[3987.1999999284744,4505.099999904633],"checkbox_events":[],"key_events":[],"mouse_events":[3987.1999999284744,4505.099999904633,5516.899999976158],"honeypot":0,"survey":"mace","page":4,"trial_type":"survey-mace","trial_index":12,"time_elapsed":2443023,"internal_node_id":"0.0-12.0","task_version":"prescreen-v0.3","browser_interactions":0},{"responses":{"01":"No","02":"No","03":"No","04":"No","05":"No"},"rt":10857.700000047684,"item_order":[0,1,2,3,4],"radio_events":[4839.799999952316,6005.5,7327.600000023842,8976.299999952316,9880.100000023842],"checkbox_events":[],"key_events":[],"mouse_events":[4839.799999952316,6005.5,7327.600000023842,8976.299999952316,9880.100000023842,10856],"honeypot":0,"survey":"mace","page":5,"trial_type":"survey-mace","trial_index":13,"time_elapsed":2453883,"internal_node_id":"0.0-13.0","task_version":"prescreen-v0.3","browser_interactions":0},{"responses":{"01":"No","02":"No","03":"No","04":"No","05":"No"},"rt":23589.700000047684,"item_order":[0,1,2,3,4],"radio_events":[12994.100000023842,14424.600000023842,15438.5,18740.600000023842,20123.900000095367],"checkbox_events":[],"key_events":[],"mouse_events":[12994.100000023842,14424.600000023842,15438.5,15994.400000095367,16752.200000047684,17539.300000071526,18114.100000023842,18740.600000023842,19450.400000095367,20123.900000095367,23588.100000023842],"honeypot":0,"survey":"mace","page":6,"trial_type":"survey-mace","trial_index":14,"time_elapsed":2477475,"internal_node_id":"0.0-14.0","task_version":"prescreen-v0.3","browser_interactions":0},{"responses":{"01":"No","02":"No","03":"No","04":"No","05":"No","06":"No","07":"No"},"rt":11156.799999952316,"item_order":[0,1,2,3,4,5,6],"radio_events":[2893.399999976158,4588.099999904633,5624.299999952316,6746.199999928474,8146.199999928474,9157.599999904633,10326.899999976158],"checkbox_events":[],"key_events":[],"mouse_events":[2893.399999976158,3762.2999999523163,4588.099999904633,5624.299999952316,6746.199999928474,8146.199999928474,9157.599999904633,10326.899999976158,11154.399999976158],"honeypot":0,"survey":"mace","page":7,"trial_type":"survey-mace","trial_index":15,"time_elapsed":2488634,"internal_node_id":"0.0-15.0","task_version":"prescreen-v0.3","browser_interactions":0},{"responses":{"01":"No","02":"No","03":"No","04":"No"},"rt":21484.699999928474,"item_order":[0,1,2,3],"radio_events":[11121.299999952316,14377.199999928474,19386.799999952316,20152.899999976158],"checkbox_events":[],"key_events":[],"mouse_events":[11121.299999952316,14377.199999928474,19386.799999952316,20152.899999976158,21483.299999952316],"honeypot":0,"survey":"mace","page":8,"trial_type":"survey-mace","trial_index":16,"time_elapsed":2510120,"internal_node_id":"0.0-16.0","task_version":"prescreen-v0.3","browser_interactions":0},{"responses":{"01":"No","02":"No","03":"No","04":"No"},"rt":9596.099999904633,"item_order":[0,1,2,3],"radio_events":[4784.699999928474,5950.699999928474,7498.299999952316,8464.799999952316],"checkbox_events":[],"key_events":[],"mouse_events":[4784.699999928474,5950.699999928474,6848.599999904633,7498.299999952316,8464.799999952316,9594.599999904633],"honeypot":0,"survey":"mace","page":9,"trial_type":"survey-mace","trial_index":17,"time_elapsed":2519718,"internal_node_id":"0.0-17.0","task_version":"prescreen-v0.3","browser_interactions":0},{"responses":{"01":"Yes","01_ages_4":"4","01_ages_5":"5","01_ages_6":"6","01_ages_7":"7","01_ages_8":"8","01_ages_9":"9","01_ages_10":"10","01_ages_11":"11","01_ages_12":"12","01_ages_13":"13","01_ages_14":"14","01_ages_15":"15","01_ages_16":"16","01_ages_17":"17","01_ages_18":"18","02":"Yes","02_ages_4":"4","02_ages_5":"5","02_ages_6":"6","02_ages_7":"7","02_ages_8":"8","02_ages_9":"9","02_ages_10":"10","02_ages_11":"11","02_ages_12":"12","02_ages_13":"13","02_ages_14":"14","02_ages_15":"15","02_ages_16":"16","02_ages_17":"17","02_ages_18":"18","03":"No","04":"Yes","04_ages_4":"4","04_ages_5":"5","04_ages_6":"6","04_ages_7":"7","04_ages_8":"8","04_ages_9":"9","04_ages_10":"10","04_ages_11":"11","04_ages_12":"12","04_ages_13":"13","04_ages_14":"14","04_ages_15":"15","04_ages_16":"16","04_ages_17":"17","04_ages_18":"18","05":"No","06":"Yes","06_ages_17":"17","07":"No","08":"No"},"rt":58941,"item_order":[0,1,2,3,4,5,6,7],"radio_events":[4455.699999928474,16285.899999976158,31164.399999976158,34410.299999952316,47309.5,50084.299999952316,56720.199999928474,58212.799999952316],"checkbox_events":[6212.199999928474,6684.199999928474,7148.399999976158,7665.899999976158,8106.299999952316,8594.699999928474,9004.199999928474,9420.299999952316,9846.799999952316,10318.399999976158,10728.299999952316,11624.600000023842,12344.399999976158,12954.299999952316,13372,17254.299999952316,17648.399999976158,18522.699999928474,18923.799999952316,19898.199999928474,20608.899999976158,20972.399999976158,21411.699999928474,21986.100000023842,22512.5,22973.799999952316,23400.199999928474,23918.100000023842,25210.799999952316,25650.399999976158,36460.39999997616,37164.39999997616,37744.799999952316,38160.299999952316,38578.199999928474,39004.299999952316,39422.699999928474,39800.5,40311.10000002384,40866.299999952316,41346.10000002384,41988.5,42422.60000002384,42846.299999952316,43334,52218.60000002384],"key_events":[],"mouse_events":[4455.699999928474,6212.199999928474,6684.199999928474,7148.399999976158,7665.899999976158,8106.299999952316,8594.699999928474,9004.199999928474,9420.299999952316,9846.799999952316,10318.399999976158,10728.299999952316,11230.299999952316,11624.600000023842,12344.399999976158,12954.299999952316,13372,16285.899999976158,17254.299999952316,17648.399999976158,18042.5,18522.699999928474,18923.799999952316,19898.199999928474,20608.899999976158,20972.399999976158,21411.699999928474,21986.100000023842,22512.5,22973.799999952316,23400.199999928474,23918.100000023842,24460.5,25210.799999952316,25650.399999976158,31164.399999976158,34410.299999952316,35794.5,36460.39999997616,37164.39999997616,37744.799999952316,38160.299999952316,38578.199999928474,39004.299999952316,39422.699999928474,39800.5,40311.10000002384,40866.299999952316,41346.10000002384,41988.5,42422.60000002384,42846.299999952316,43334,47309.5,50084.299999952316,52218.60000002384,56720.199999928474,58212.799999952316,58938.299999952316],"honeypot":0,"survey":"mace","page":10,"trial_type":"survey-mace","trial_index":18,"time_elapsed":2578662,"internal_node_id":"0.0-18.0","task_version":"prescreen-v0.3","browser_interactions":0,"instructed":0},{"rt":4581.399999976158,"trial_type":"mental-health-alert","trial_index":19,"time_elapsed":2583244,"internal_node_id":"0.0-19.0","task_version":"prescreen-v0.3","interactions":"[{\"event\":\"blur\",\"trial\":2,\"time\":1369266},{\"event\":\"focus\",\"trial\":2,\"time\":1372165},{\"event\":\"blur\",\"trial\":3,\"time\":2166370},{\"event\":\"focus\",\"trial\":3,\"time\":2169066}]"}]