[{"view_history":[{"page_index":0,"viewing_time":5210},{"page_index":1,"viewing_time":3801.5},{"page_index":2,"viewing_time":8528.699999809265},{"page_index":3,"viewing_time":2356.600000143051}],"rt":19898,"trial_type":"instructions","trial_index":0,"time_elapsed":19955,"internal_node_id":"0.0-0.0","task_version":"prescreen-v0.3"},{"rt":28346.199999809265,"responses":{"age":"44","gender-categorical":"Male","gender-free-response":"","ethnicity":"Not Hispanic or Latino","race":["White"],"education":"Associate degree"},"trial_type":"survey-demo","trial_index":1,"time_elapsed":48309,"internal_node_id":"0.0-1.0","task_version":"prescreen-v0.3"},{"responses":{"Q08":"2","Q11":"1","Q01":"2","Q03":"1","Q21":"3","Q07":"2","Q05":"2","Q04":"1","Q06":"2","Q20":"0","Q10":"1","Q14":"1","Q02":"1","Q13":"1","Q18":"1","Q15":"2","Q17":"1","Q16":"1","Q12":"1","Q09":"1","Q19":"1"},"rt":111393.80000019073,"item_order":[7,10,0,2,20,6,4,3,5,19,9,13,1,12,17,14,16,15,11,8,18],"radio_events":[5642.800000190735,9420.200000047684,12133,16180.700000047684,19879.800000190735,23542.5,32466,39256.200000047684,49117.60000014305,53556,58010.90000009537,63562.200000047684,69125.20000004768,74652.5,77439,84340.5,87626.70000004768,91848.20000004768,97316.20000004768,100248.70000004768,103194.5,108039.30000019073],"key_events":[],"mouse_events":[5642.800000190735,9420.200000047684,12133,16180.700000047684,19879.800000190735,22343.60000014305,23542.5,32466,39256.200000047684,49117.60000014305,53556,58010.90000009537,63562.200000047684,67997,69125.20000004768,73678.10000014305,74652.5,77439,84340.5,87626.70000004768,91848.20000004768,97316.20000004768,100248.70000004768,103194.5,108039.30000019073,111390.60000014305],"straightlining":0.6190476190476191,"zigzagging":0.45,"honeypot":0,"survey":"sns","trial_type":"survey-template","trial_index":2,"time_elapsed":159704,"internal_node_id":"0.0-2.0","task_version":"prescreen-v0.3","browser_interactions":0,"infrequency":0},{"responses":{"Q07":"3","Q04":"2","Q11":"2","Q05":"3","Q01":"2","Q08":"2","Q02":"2","Q03":"2","Q13":"0","Q09":"1","Q12":"0","Q06":"3","Q10":"1"},"rt":73580.10000014305,"item_order":[6,3,10,4,0,7,1,2,12,8,11,5,9],"radio_events":[5313.600000143051,11480.600000143051,16532.5,21553.200000047684,23955.799999952316,29192.5,32293.200000047684,44814.799999952316,49369.90000009537,54993.10000014305,61393.90000009537,65889.10000014305,72315.10000014305],"key_events":[],"mouse_events":[5313.600000143051,11480.600000143051,16532.5,21553.200000047684,23955.799999952316,27772.299999952316,29192.5,32293.200000047684,44814.799999952316,49369.90000009537,54993.10000014305,60349,61393.90000009537,65889.10000014305,71389.79999995232,72315.10000014305,73577.79999995232],"straightlining":0.46153846153846156,"zigzagging":0.5,"honeypot":0,"survey":"bisbas","trial_type":"survey-template","trial_index":3,"time_elapsed":233296,"internal_node_id":"0.0-3.0","task_version":"prescreen-v0.3","browser_interactions":0,"infrequency":0},{"responses":{"Q01":"3","Q02":"3","Q03":"2"},"rt":17669.39999985695,"radio_events":[7154.200000047684,11639.099999904633,16481.5],"key_events":[],"mouse_events":[6071.399999856949,7154.200000047684,11639.099999904633,16481.5,17668.5],"survey":"map","page":1,"trial_type":"survey-map","trial_index":4,"time_elapsed":250966,"internal_node_id":"0.0-4.0","task_version":"prescreen-v0.3","browser_interactions":0},{"responses":{"Q04":"2","Q05":"1","Q06":"1"},"rt":17439.099999904633,"radio_events":[6526.400000095367,11967.599999904633,16037.799999952316],"key_events":[],"mouse_events":[6526.400000095367,11967.599999904633,16037.799999952316,17438.299999952316],"survey":"map","page":2,"trial_type":"survey-map","trial_index":5,"time_elapsed":268408,"internal_node_id":"0.0-5.0","task_version":"prescreen-v0.3","browser_interactions":0},{"responses":{"Q07":"4","Q08":"4","Q09":"1"},"rt":23822.200000047684,"radio_events":[12547.400000095367,18052.5,21638.299999952316],"key_events":[],"mouse_events":[12547.400000095367,17086.700000047684,18052.5,21638.299999952316,23821.400000095367],"survey":"map","page":3,"trial_type":"survey-map","trial_index":6,"time_elapsed":292233,"internal_node_id":"0.0-6.0","task_version":"prescreen-v0.3","browser_interactions":0},{"responses":{"Q10":"2","Q11":"1","Q12":"1","Q13":"1","Q16":"0","Q14":"2","Q15":"2"},"rt":47253.40000009537,"radio_events":[12322.900000095367,16332.5,19983.099999904633,24341.099999904633,30814.799999952316,40726,45483.799999952316],"key_events":[],"mouse_events":[12322.900000095367,16332.5,19983.099999904633,24341.099999904633,30814.799999952316,40726,45483.799999952316,47251.700000047684],"survey":"map","page":4,"trial_type":"survey-map","trial_index":7,"time_elapsed":339494,"internal_node_id":"0.0-7.0","task_version":"prescreen-v0.3","browser_interactions":0,"infrequency":0},{"view_history":[{"page_index":0,"viewing_time":4151.799999952316},{"page_index":1,"viewing_time":6053.200000047684}],"rt":10206,"trial_type":"instructions","trial_index":8,"time_elapsed":349702,"internal_node_id":"0.0-8.0","task_version":"prescreen-v0.3"},{"responses":{"01":"Yes","01_ages_8":"8","01_ages_9":"9","01_ages_10":"10","01_ages_11":"11","01_ages_12":"12","01_ages_13":"13","01_ages_14":"14","01_ages_15":"15","01_ages_16":"16","01_ages_17":"17","01_ages_18":"18","02":"Yes","02_ages_8":"8","02_ages_9":"9","02_ages_10":"10","02_ages_11":"11","02_ages_12":"12","02_ages_13":"13","02_ages_14":"14","02_ages_15":"15","02_ages_16":"16","02_ages_17":"17","02_ages_18":"18","03":"No","04":"No","05":"No","06":"No"},"rt":75662.79999995232,"item_order":[0,1,2,3,4,5],"radio_events":[11195.299999952316,32863.89999985695,52446.09999990463,64003,70750,74179.79999995232],"checkbox_events":[16037.200000047684,16915.299999952316,18484.39999985695,19884.299999952316,21288.700000047684,22283.099999904633,23225.89999985695,24377,25489.700000047684,26381.5,27246,35520.09999990463,37130.59999990463,37924.799999952316,38790.09999990463,39941.200000047684,40712,41773.700000047684,43135.5,44183,45192,46094.89999985695],"key_events":[],"mouse_events":[0,11195.299999952316,16037.200000047684,16915.299999952316,18484.39999985695,19884.299999952316,21288.700000047684,22283.099999904633,23225.89999985695,24377,25489.700000047684,26381.5,27246,32863.89999985695,35520.09999990463,37130.59999990463,37924.799999952316,38790.09999990463,39941.200000047684,40712,41773.700000047684,43135.5,44183,45192,46094.89999985695,51672.799999952316,52446.09999990463,64003,70750,74179.79999995232,75658.39999985695],"honeypot":0,"survey":"mace","page":1,"trial_type":"survey-mace","trial_index":9,"time_elapsed":425375,"internal_node_id":"0.0-9.0","task_version":"prescreen-v0.3","browser_interactions":0},{"responses":{"01":"No","02":"No","03":"Yes","03_ages_2":"2","03_ages_3":"3","03_ages_4":"4","03_ages_5":"5","03_ages_6":"6","03_ages_7":"7","04":"Yes","04_ages_2":"2","04_ages_3":"3","04_ages_4":"4","04_ages_5":"5","04_ages_6":"6","04_ages_7":"7","05":"Yes","05_ages_6":"6","05_ages_7":"7","06":"No","07":"No","08":"No"},"rt":63266.800000190735,"item_order":[0,1,2,3,4,5,6,7],"radio_events":[4360.300000190735,11493.100000143051,13830.600000143051,31344.700000047684,42964.10000014305,58292.5,60111.200000047684,62064.200000047684],"checkbox_events":[17218.200000047684,18197.10000014305,19293.900000095367,20612.700000047684,21845.200000047684,22843.60000014305,33734.700000047684,35330.40000009537,36390.90000009537,37295.60000014305,38065.800000190735,39048,44483.700000047684,45308,46809.200000047684,47997.60000014305,50096.300000190735,51740],"key_events":[],"mouse_events":[4360.300000190735,11493.100000143051,13830.600000143051,17218.200000047684,18197.10000014305,19293.900000095367,20612.700000047684,21845.200000047684,22843.60000014305,31344.700000047684,33734.700000047684,34659.700000047684,35330.40000009537,36390.90000009537,37295.60000014305,38065.800000190735,39048,42964.10000014305,44483.700000047684,45308,46809.200000047684,47997.60000014305,48980.5,50096.300000190735,51740,52827.700000047684,58292.5,60111.200000047684,61488.200000047684,62064.200000047684,63260.700000047684],"honeypot":0,"survey":"mace","page":2,"trial_type":"survey-mace","trial_index":10,"time_elapsed":488655,"internal_node_id":"0.0-10.0","task_version":"prescreen-v0.3","browser_interactions":0},{"responses":{"01":"No","02":"No","03":"No","04":"No"},"rt":17387.299999952316,"item_order":[0,1,2,3],"radio_events":[7249.200000047684,11929.100000143051,13436.700000047684,15415.600000143051],"checkbox_events":[],"key_events":[],"mouse_events":[7249.200000047684,9931.900000095367,11929.100000143051,13436.700000047684,15415.600000143051,17384.299999952316],"honeypot":0,"survey":"mace","page":3,"trial_type":"survey-mace","trial_index":11,"time_elapsed":506048,"internal_node_id":"0.0-11.0","task_version":"prescreen-v0.3","browser_interactions":0},{"responses":{"01":"No","02":"No"},"rt":6998,"item_order":[0,1],"radio_events":[3107,5332.700000047684],"checkbox_events":[],"key_events":[],"mouse_events":[3107,5332.700000047684,6996.400000095367],"honeypot":0,"survey":"mace","page":4,"trial_type":"survey-mace","trial_index":12,"time_elapsed":513049,"internal_node_id":"0.0-12.0","task_version":"prescreen-v0.3","browser_interactions":0},{"responses":{"01":"No","02":"No","03":"No","04":"No","05":"No"},"rt":28943,"item_order":[0,1,2,3,4],"radio_events":[13851.200000047684,15292.900000095367,17327.200000047684,19579.400000095367,25247],"checkbox_events":[],"key_events":[],"mouse_events":[12159.5,13851.200000047684,15292.900000095367,17327.200000047684,19579.400000095367,25247,28939.299999952316],"honeypot":0,"survey":"mace","page":5,"trial_type":"survey-mace","trial_index":13,"time_elapsed":541994,"internal_node_id":"0.0-13.0","task_version":"prescreen-v0.3","browser_interactions":0},{"responses":{"01":"Yes","01_ages_9":"9","01_ages_10":"10","01_ages_11":"11","01_ages_12":"12","01_ages_13":"13","02":"Yes","02_ages_9":"9","02_ages_10":"10","02_ages_11":"11","02_ages_12":"12","02_ages_13":"13","03":"Yes","03_ages_9":"9","03_ages_10":"10","03_ages_11":"11","03_ages_12":"12","03_ages_13":"13","04":"Yes","04_ages_9":"9","04_ages_10":"10","04_ages_11":"11","04_ages_12":"12","04_ages_13":"13","05":"Yes","05_ages_9":"9","05_ages_10":"10","05_ages_11":"11","05_ages_12":"12","05_ages_13":"13"},"rt":69701.09999990463,"item_order":[0,1,2,3,4],"radio_events":[6593.900000095367,18886.700000047684,31481,46904,59951.200000047684],"checkbox_events":[10695.799999952316,11795.400000095367,13316.799999952316,14288.599999904633,15207.099999904633,20812.700000047684,21628.200000047684,22429.700000047684,23385.700000047684,24235.099999904633,36305.5,37156.09999990463,38743.799999952316,39764.59999990463,41230.5,48912.5,50093,51259.09999990463,52702.700000047684,53503.40000009537,62271.90000009537,63125.59999990463,63965,65275.09999990463,66507.70000004768],"key_events":[],"mouse_events":[6593.900000095367,10695.799999952316,11795.400000095367,12674.299999952316,13316.799999952316,14288.599999904633,15207.099999904633,18886.700000047684,20812.700000047684,21628.200000047684,22429.700000047684,23385.700000047684,24235.099999904633,31481,36305.5,37156.09999990463,38007.40000009537,38743.799999952316,39764.59999990463,41230.5,46904,48912.5,50093,51259.09999990463,52702.700000047684,53503.40000009537,59951.200000047684,62271.90000009537,63125.59999990463,63965,65275.09999990463,66507.70000004768,69697.5],"honeypot":0,"survey":"mace","page":6,"trial_type":"survey-mace","trial_index":14,"time_elapsed":611700,"internal_node_id":"0.0-14.0","task_version":"prescreen-v0.3","browser_interactions":0},{"responses":{"01":"No","02":"Yes","02_ages_9":"9","02_ages_10":"10","02_ages_11":"11","02_ages_12":"12","02_ages_13":"13","03":"Yes","03_ages_9":"9","03_ages_10":"10","03_ages_11":"11","03_ages_12":"12","03_ages_13":"13","04":"No","05":"No","06":"No","07":"No"},"rt":58722.299999952316,"item_order":[0,1,2,3,4,5,6],"radio_events":[8518.099999904633,12294.899999856949,23281.099999904633,32118.599999904633,45671.89999985695,53508.200000047684,55975.09999990463,57062.59999990463],"checkbox_events":[24774.599999904633,25549.5,26347.299999952316,27264.599999904633,28682.099999904633,34234.299999952316,35322.700000047684,36302.09999990463,37691,39001.799999952316],"key_events":[],"mouse_events":[8518.099999904633,12294.899999856949,23281.099999904633,24774.599999904633,25549.5,26347.299999952316,27264.599999904633,28682.099999904633,31305.200000047684,32118.599999904633,34234.299999952316,35322.700000047684,36302.09999990463,37691,39001.799999952316,45671.89999985695,53508.200000047684,55975.09999990463,57062.59999990463,58717.299999952316],"honeypot":0,"survey":"mace","page":7,"trial_type":"survey-mace","trial_index":15,"time_elapsed":670426,"internal_node_id":"0.0-15.0","task_version":"prescreen-v0.3","browser_interactions":0},{"responses":{"01":"No","02":"Yes","02_ages_7":"7","02_ages_8":"8","02_ages_9":"9","02_ages_10":"10","02_ages_11":"11","02_ages_12":"12","02_ages_13":"13","02_ages_14":"14","02_ages_15":"15","02_ages_16":"16","03":"Yes","03_ages_7":"7","03_ages_8":"8","03_ages_9":"9","03_ages_10":"10","03_ages_11":"11","03_ages_12":"12","03_ages_13":"13","03_ages_14":"14","03_ages_15":"15","03_ages_16":"16","04":"Yes","04_ages_7":"7","04_ages_8":"8","04_ages_9":"9","04_ages_10":"10","04_ages_11":"11","04_ages_12":"12","04_ages_13":"13","04_ages_14":"14","04_ages_15":"15","04_ages_16":"16"},"rt":78350.79999995232,"item_order":[0,1,2,3],"radio_events":[8751.799999952316,19972.299999952316,38392,60554.10000014305],"checkbox_events":[23971.5,25177.400000095367,26040.700000047684,27314.200000047684,29268.200000047684,30253.200000047684,31094.60000014305,32195.400000095367,33364.700000047684,34259.700000047684,42641.90000009537,43534.10000014305,44768.90000009537,46223,47349.90000009537,48216.40000009537,49043.299999952316,50041.60000014305,50944.60000014305,52190.700000047684,62260.10000014305,63149.200000047684,64683.799999952316,65563.79999995232,66823,67625,68833,69947.5,70804.10000014305,71974],"key_events":[],"mouse_events":[8751.799999952316,19972.299999952316,23971.5,25177.400000095367,26040.700000047684,27314.200000047684,28180.400000095367,29268.200000047684,30253.200000047684,31094.60000014305,32195.400000095367,33364.700000047684,34259.700000047684,38392,42641.90000009537,43534.10000014305,44768.90000009537,46223,47349.90000009537,48216.40000009537,49043.299999952316,50041.60000014305,50944.60000014305,52190.700000047684,60554.10000014305,62260.10000014305,63149.200000047684,64683.799999952316,65563.79999995232,66823,67625,68833,69947.5,70804.10000014305,71974,78347.29999995232],"honeypot":0,"survey":"mace","page":8,"trial_type":"survey-mace","trial_index":16,"time_elapsed":748784,"internal_node_id":"0.0-16.0","task_version":"prescreen-v0.3","browser_interactions":0},{"responses":{"01":"Yes","01_ages_3":"3","01_ages_4":"4","01_ages_5":"5","01_ages_6":"6","01_ages_7":"7","01_ages_8":"8","01_ages_9":"9","01_ages_10":"10","01_ages_11":"11","01_ages_12":"12","01_ages_13":"13","01_ages_14":"14","01_ages_15":"15","01_ages_16":"16","01_ages_17":"17","01_ages_18":"18","02":"Yes","02_ages_3":"3","02_ages_4":"4","02_ages_5":"5","02_ages_6":"6","02_ages_7":"7","02_ages_8":"8","02_ages_9":"9","02_ages_10":"10","02_ages_11":"11","02_ages_12":"12","02_ages_13":"13","02_ages_14":"14","02_ages_15":"15","02_ages_16":"16","02_ages_17":"17","02_ages_18":"18","03":"Yes","03_ages_3":"3","03_ages_4":"4","03_ages_5":"5","03_ages_6":"6","03_ages_7":"7","03_ages_8":"8","03_ages_9":"9","03_ages_10":"10","03_ages_11":"11","03_ages_12":"12","03_ages_13":"13","03_ages_14":"14","03_ages_15":"15","03_ages_16":"16","03_ages_17":"17","03_ages_18":"18","04":"Yes","04_ages_1":"1","04_ages_2":"2","04_ages_3":"3","04_ages_4":"4","04_ages_5":"5","04_ages_6":"6","04_ages_7":"7","04_ages_8":"8","04_ages_9":"9","04_ages_10":"10","04_ages_11":"11","04_ages_12":"12","04_ages_13":"13","04_ages_14":"14","04_ages_15":"15","04_ages_16":"16","04_ages_17":"17","04_ages_18":"18"},"rt":106366.5,"item_order":[0,1,2,3],"radio_events":[9207.100000143051,36337.60000014305,61174.299999952316,84164.5],"checkbox_events":[13133,14666,15338.100000143051,16346.900000095367,18113.700000047684,18809.5,19849.200000047684,20821.400000095367,21554.900000095367,23023.60000014305,24047.799999952316,25239.299999952316,26067.60000014305,26924.299999952316,28093.200000047684,30207.700000047684,37715.700000047684,38973.5,39800.799999952316,41165.90000009537,41954.40000009537,42779.5,43633.200000047684,44973.799999952316,45892.700000047684,46811.90000009537,47757.700000047684,48556.40000009537,49358.40000009537,50200.10000014305,51380.299999952316,53298.299999952316,62806.700000047684,63751.5,64840.90000009537,65720.5,66788.10000014305,68730.40000009537,69492.5,70392.10000014305,71107.10000014305,71949.20000004768,73226.10000014305,73952.79999995232,74950.10000014305,75706.5,76551.60000014305,77400.79999995232,85898.10000014305,87609.20000004768,88626.70000004768,89519.20000004768,90845.40000009537,91614,92899,93741.10000014305,94480.29999995232,95859.20000004768,96696.29999995232,97479.90000009537,98274.79999995232,99014,99901.60000014305,101102.79999995232,101986.20000004768,102795.10000014305],"key_events":[],"mouse_events":[9207.100000143051,13133,14037.600000143051,14666,15338.100000143051,16346.900000095367,18113.700000047684,18809.5,19849.200000047684,20821.400000095367,21554.900000095367,22368.400000095367,23023.60000014305,24047.799999952316,25239.299999952316,26067.60000014305,26924.299999952316,28093.200000047684,30207.700000047684,36337.60000014305,37715.700000047684,38973.5,39800.799999952316,40509.60000014305,41165.90000009537,41954.40000009537,42779.5,43633.200000047684,44973.799999952316,45892.700000047684,46811.90000009537,47757.700000047684,48556.40000009537,49358.40000009537,50200.10000014305,51380.299999952316,53298.299999952316,61174.299999952316,62806.700000047684,63751.5,64840.90000009537,65720.5,66788.10000014305,68015.20000004768,68730.40000009537,69492.5,70392.10000014305,71107.10000014305,71949.20000004768,73226.10000014305,73952.79999995232,74950.10000014305,75706.5,76551.60000014305,77400.79999995232,84164.5,85898.10000014305,86922.5,87609.20000004768,88626.70000004768,89519.20000004768,90845.40000009537,91614,92305.70000004768,92899,93741.10000014305,94480.29999995232,95231.79999995232,95859.20000004768,96696.29999995232,97479.90000009537,98274.79999995232,99014,99901.60000014305,101102.79999995232,101986.20000004768,102795.10000014305,106363.60000014305],"honeypot":0,"survey":"mace","page":9,"trial_type":"survey-mace","trial_index":17,"time_elapsed":855159,"internal_node_id":"0.0-17.0","task_version":"prescreen-v0.3","browser_interactions":0},{"responses":{"01":"No","02":"No","03":"No","04":"No","05":"No","06":"Yes","06_ages_17":"17","07":"Yes","07_ages_13":"13","07_ages_14":"14","07_ages_15":"15","07_ages_16":"16","07_ages_17":"17","07_ages_18":"18","08":"No"},"rt":51986.39999985695,"item_order":[0,1,2,3,4,5,6,7],"radio_events":[8050.699999809265,9961.199999809265,13646.5,15908,18336.199999809265,24327.199999809265,33329.5,48845.09999990463],"checkbox_events":[26478.799999952316,37601.199999809265,38415.09999990463,39389.5,39552.89999985695,40401.299999952316,41838.59999990463,43304.299999952316,44595.5],"key_events":[],"mouse_events":[6704.599999904633,8050.699999809265,9065.299999952316,9961.199999809265,13354.599999904633,13646.5,15908,18336.199999809265,24327.199999809265,26478.799999952316,33329.5,37601.199999809265,38415.09999990463,39389.5,39552.89999985695,40401.299999952316,41838.59999990463,43304.299999952316,44595.5,48845.09999990463,51980.699999809265],"honeypot":0,"survey":"mace","page":10,"trial_type":"survey-mace","trial_index":18,"time_elapsed":907148,"internal_node_id":"0.0-18.0","task_version":"prescreen-v0.3","browser_interactions":0,"instructed":0},{"rt":8493.799999952316,"trial_type":"mental-health-alert","trial_index":19,"time_elapsed":915645,"internal_node_id":"0.0-19.0","task_version":"prescreen-v0.3","interactions":"[]"}]