[{"view_history":[{"page_index":0,"viewing_time":2753.2999999821186},{"page_index":1,"viewing_time":3155.2000000178814},{"page_index":2,"viewing_time":4330.5},{"page_index":3,"viewing_time":1390.8999999761581}],"rt":11630.699999988079,"trial_type":"instructions","trial_index":0,"time_elapsed":11639,"internal_node_id":"0.0-0.0","task_version":"prescreen-v0.3"},{"rt":13139.299999982119,"responses":{"age":"22","gender-categorical":"Female","gender-free-response":"","ethnicity":"Not Hispanic or Latino","race":["White"],"education":"Master degree or higher"},"trial_type":"survey-demo","trial_index":1,"time_elapsed":24784,"internal_node_id":"0.0-1.0","task_version":"prescreen-v0.3"},{"responses":{"Q19":"1","Q15":"2","Q11":"2","Q05":"1","Q17":"0","Q16":"1","Q12":"2","Q21":"3","Q14":"1","Q07":"1","Q20":"0","Q09":"3","Q08":"3","Q10":"2","Q01":"0","Q18":"1","Q03":"0","Q06":"1","Q13":"2","Q02":"0","Q04":"0"},"rt":92456,"item_order":[18,14,10,4,16,15,11,20,13,6,19,8,7,9,0,17,2,5,12,1,3],"radio_events":[8240.40000000596,13965.5,15726.100000023842,22164.80000001192,24703.80000001192,28320,32138.100000023842,35975.5,40633.5,48276.60000002384,51149.90000000596,57796.60000002384,59741.30000001192,66519.40000000596,69697.30000001192,72558.5,74635.80000001192,82704.5,84937.70000001788,88475.40000000596,91142.70000001788],"key_events":[],"mouse_events":[8240.40000000596,13965.5,15726.100000023842,22164.80000001192,24703.80000001192,28320,32138.100000023842,35975.5,40633.5,48276.60000002384,51149.90000000596,57796.60000002384,59741.30000001192,66519.40000000596,69697.30000001192,72558.5,74635.80000001192,82704.5,84937.70000001788,88475.40000000596,91142.70000001788,92452.20000001788],"straightlining":0.3333333333333333,"zigzagging":0.65,"honeypot":0,"survey":"sns","trial_type":"survey-template","trial_index":2,"time_elapsed":117246,"internal_node_id":"0.0-2.0","task_version":"prescreen-v0.3","browser_interactions":0,"infrequency":0},{"responses":{"Q11":"2","Q10":"2","Q07":"3","Q04":"3","Q08":"2","Q06":"3","Q03":"3","Q01":"3","Q02":"2","Q12":"2","Q09":"2","Q05":"3","Q13":"0"},"rt":53258.59999999404,"item_order":[10,9,6,3,7,5,2,0,1,11,8,4,12],"radio_events":[12925.799999982119,15642,17852,20792.29999998212,24079.40000000596,26076,28543.19999998808,31697.19999998808,38449,41743.90000000596,44331.5,48374.59999999404,50576.09999999404],"key_events":[],"mouse_events":[12925.799999982119,15642,17852,20792.29999998212,24079.40000000596,26076,28543.19999998808,31697.19999998808,38449,41743.90000000596,44331.5,48374.59999999404,50576.09999999404,53256.29999998212],"straightlining":0.46153846153846156,"zigzagging":0.5,"honeypot":0,"survey":"bisbas","trial_type":"survey-template","trial_index":3,"time_elapsed":170508,"internal_node_id":"0.0-3.0","task_version":"prescreen-v0.3","browser_interactions":0,"infrequency":0},{"responses":{"Q01":"4","Q02":"4","Q03":"4"},"rt":16405.59999999404,"radio_events":[5527.0999999940395,10408,15014.200000017881],"key_events":[],"mouse_events":[5527.0999999940395,10408,15014.200000017881,16404.5],"survey":"map","page":1,"trial_type":"survey-map","trial_index":4,"time_elapsed":186917,"internal_node_id":"0.0-4.0","task_version":"prescreen-v0.3","browser_interactions":0},{"responses":{"Q04":"4","Q05":"3","Q06":"4"},"rt":20531.30000001192,"radio_events":[13081.300000011921,16138.90000000596,19220.5],"key_events":[],"mouse_events":[2189.7000000178814,5231.0999999940395,13081.300000011921,16138.90000000596,19220.5,20530.30000001192],"survey":"map","page":2,"trial_type":"survey-map","trial_index":5,"time_elapsed":207451,"internal_node_id":"0.0-5.0","task_version":"prescreen-v0.3","browser_interactions":0},{"responses":{"Q07":"4","Q08":"4","Q09":"4"},"rt":13711.800000011921,"radio_events":[6059.200000017881,9602.700000017881,12698],"key_events":[],"mouse_events":[6059.200000017881,9602.700000017881,12698,13710.5],"survey":"map","page":3,"trial_type":"survey-map","trial_index":6,"time_elapsed":221165,"internal_node_id":"0.0-6.0","task_version":"prescreen-v0.3","browser_interactions":0},{"responses":{"Q10":"4","Q11":"4","Q12":"4","Q13":"3","Q16":"0","Q14":"4","Q15":"4"},"rt":31378.40000000596,"radio_events":[3745.199999988079,6765.5999999940395,9830.799999982119,17321.5,22034.29999998212,28403.59999999404,30613.59999999404],"key_events":[],"mouse_events":[3745.199999988079,6765.5999999940395,9830.799999982119,17321.5,22034.29999998212,28403.59999999404,30613.59999999404,31376.40000000596],"survey":"map","page":4,"trial_type":"survey-map","trial_index":7,"time_elapsed":252546,"internal_node_id":"0.0-7.0","task_version":"prescreen-v0.3","browser_interactions":0,"infrequency":0},{"view_history":[{"page_index":0,"viewing_time":3226.5},{"page_index":1,"viewing_time":4022}],"rt":7249.199999988079,"trial_type":"instructions","trial_index":8,"time_elapsed":259797,"internal_node_id":"0.0-8.0","task_version":"prescreen-v0.3"},{"responses":{"01":"No","02":"No","03":"No","04":"No","05":"No","06":"No"},"rt":24222.69999998808,"item_order":[0,1,2,3,4,5],"radio_events":[10640.799999982119,17892.59999999404,18889.09999999404,20295.09999999404,21797.90000000596,23405.5],"checkbox_events":[],"key_events":[],"mouse_events":[0.29999998211860657,10640.799999982119,17892.59999999404,18889.09999999404,20295.09999999404,21797.90000000596,23405.5,24216.69999998808],"honeypot":0,"survey":"mace","page":1,"trial_type":"survey-mace","trial_index":9,"time_elapsed":284025,"internal_node_id":"0.0-9.0","task_version":"prescreen-v0.3","browser_interactions":0},{"responses":{"01":"No","02":"No","03":"Yes","03_ages_4":"4","03_ages_5":"5","03_ages_6":"6","03_ages_7":"7","03_ages_8":"8","03_ages_9":"9","03_ages_10":"10","03_ages_11":"11","04":"Yes","04_ages_6":"6","04_ages_7":"7","04_ages_8":"8","04_ages_9":"9","04_ages_10":"10","04_ages_11":"11","05":"No","06":"No","07":"No","08":"No"},"rt":37366.59999999404,"item_order":[0,1,2,3,4,5,6,7],"radio_events":[2703.2999999821186,6955.699999988079,8386.199999988079,22568.19999998808,30298.90000000596,32485.19999998808,33963.29999998212,35759.90000000596],"checkbox_events":[14248.09999999404,14697.90000000596,17317.5,17855.90000000596,18603.5,19089.09999999404,19981.19999998808,20527.09999999404,23749.59999999404,24452.29999998212,25618.29999998212,26083.79999998212,26574.40000000596,29335.09999999404],"key_events":[],"mouse_events":[2703.2999999821186,6955.699999988079,8386.199999988079,14248.09999999404,14697.90000000596,17317.5,17855.90000000596,18603.5,19089.09999999404,19530.90000000596,19981.19999998808,20527.09999999404,22568.19999998808,23749.59999999404,24452.29999998212,24991.09999999404,25618.29999998212,26083.79999998212,26574.40000000596,29335.09999999404,30298.90000000596,32485.19999998808,33963.29999998212,35759.90000000596,37359],"honeypot":0,"survey":"mace","page":2,"trial_type":"survey-mace","trial_index":10,"time_elapsed":321396,"internal_node_id":"0.0-10.0","task_version":"prescreen-v0.3","browser_interactions":0},{"responses":{"01":"No","02":"No","03":"No","04":"No"},"rt":15421.90000000596,"item_order":[0,1,2,3],"radio_events":[9165.59999999404,11295.40000000596,13521.59999999404,14485.700000017881],"checkbox_events":[],"key_events":[],"mouse_events":[9165.59999999404,11295.40000000596,13521.59999999404,14485.700000017881,15417.90000000596],"honeypot":0,"survey":"mace","page":3,"trial_type":"survey-mace","trial_index":11,"time_elapsed":336821,"internal_node_id":"0.0-11.0","task_version":"prescreen-v0.3","browser_interactions":0},{"responses":{"01":"No","02":"No"},"rt":10430.200000017881,"item_order":[0,1],"radio_events":[7929,9302.5],"checkbox_events":[],"key_events":[],"mouse_events":[7929,9302.5,10428.09999999404],"honeypot":0,"survey":"mace","page":4,"trial_type":"survey-mace","trial_index":12,"time_elapsed":347254,"internal_node_id":"0.0-12.0","task_version":"prescreen-v0.3","browser_interactions":0},{"responses":{"01":"No","02":"No","03":"No","04":"No","05":"No"},"rt":25473.70000001788,"item_order":[0,1,2,3,4],"radio_events":[12117,17019.100000023842,20189.20000001788,22656.40000000596,24746.100000023842],"checkbox_events":[],"key_events":[],"mouse_events":[12117,17019.100000023842,20189.20000001788,22656.40000000596,24746.100000023842,25468.600000023842],"honeypot":0,"survey":"mace","page":5,"trial_type":"survey-mace","trial_index":13,"time_elapsed":372732,"internal_node_id":"0.0-13.0","task_version":"prescreen-v0.3","browser_interactions":0},{"responses":{"01":"Yes","01_ages_10":"10","01_ages_11":"11","01_ages_12":"12","01_ages_13":"13","01_ages_14":"14","01_ages_15":"15","01_ages_16":"16","01_ages_17":"17","01_ages_18":"18","02":"Yes","02_ages_10":"10","02_ages_11":"11","02_ages_12":"12","02_ages_13":"13","02_ages_14":"14","02_ages_15":"15","02_ages_16":"16","02_ages_17":"17","02_ages_18":"18","03":"Yes","03_ages_16":"16","03_ages_17":"17","04":"No","05":"No"},"rt":40192.19999998808,"item_order":[0,1,2,3,4],"radio_events":[7280.0999999940395,23727.09999999404,33116.69999998808,36611.40000000596,39174.69999998808],"checkbox_events":[9924.5,10800.199999988079,11265.90000000596,12230.299999982119,12704.199999988079,13146.5,13633,14412.59999999404,14910.59999999404,15393.09999999404,15843,16751.09999999404,17217.40000000596,18061.29999998212,18510.79999998212,19089.5,19619.90000000596,20399.69999998808,21492.09999999404,25293.40000000596,25952.09999999404,26973.29999998212,27374.79999998212,27905,28379,28909.29999998212,29423.90000000596,30006,33975.29999998212,34988.5],"key_events":[],"mouse_events":[7280.0999999940395,9924.5,10800.199999988079,11265.90000000596,11837,12230.299999982119,12704.199999988079,13146.5,13633,14412.59999999404,14910.59999999404,15393.09999999404,15843,16293.5,16751.09999999404,17217.40000000596,17610.90000000596,18061.29999998212,18510.79999998212,19089.5,19619.90000000596,20399.69999998808,20793,21492.09999999404,23180.40000000596,23727.09999999404,24386,24682.59999999404,25293.40000000596,25952.09999999404,26474.40000000596,26973.29999998212,27374.79999998212,27905,28379,28909.29999998212,29423.90000000596,30006,33116.69999998808,33975.29999998212,34988.5,36611.40000000596,38587.5,39174.69999998808,40187.29999998212],"honeypot":0,"survey":"mace","page":6,"trial_type":"survey-mace","trial_index":14,"time_elapsed":412928,"internal_node_id":"0.0-14.0","task_version":"prescreen-v0.3","browser_interactions":0},{"responses":{"01":"No","02":"No","03":"No","04":"No","05":"No","06":"No","07":"No"},"rt":78548.60000002384,"item_order":[0,1,2,3,4,5,6],"radio_events":[5795.9000000059605,12988.700000017881,15126.40000000596,15977.300000011921,75832.70000001788,76966.20000001788,77978.90000000596],"checkbox_events":[],"key_events":[],"mouse_events":[5795.9000000059605,12988.700000017881,15126.40000000596,15977.300000011921,75832.70000001788,76966.20000001788,77978.90000000596,78541.70000001788],"honeypot":0,"survey":"mace","page":7,"trial_type":"survey-mace","trial_index":15,"time_elapsed":491480,"internal_node_id":"0.0-15.0","task_version":"prescreen-v0.3","browser_interactions":0},{"responses":{"01":"No","02":"No","03":"Yes","03_ages_14":"14","03_ages_15":"15","03_ages_16":"16","03_ages_17":"17","03_ages_18":"18","04":"Yes","04_ages_16":"16","04_ages_17":"17","04_ages_18":"18"},"rt":28685,"item_order":[0,1,2,3],"radio_events":[9767.5,13412.09999999404,15911.09999999404,23999.90000000596,26102.30000001192],"checkbox_events":[17349.80000001192,18221.40000000596,18961.19999998808,19764.59999999404,23308.59999999404,27009.59999999404,27532.09999999404,28038.19999998808],"key_events":[],"mouse_events":[9767.5,13412.09999999404,15911.09999999404,17349.80000001192,17779.80000001192,18221.40000000596,18961.19999998808,19764.59999999404,20487.5,21283.19999998808,23308.59999999404,23999.90000000596,25600.40000000596,26102.30000001192,27009.59999999404,27532.09999999404,28038.19999998808,28681],"honeypot":0,"survey":"mace","page":8,"trial_type":"survey-mace","trial_index":16,"time_elapsed":520169,"internal_node_id":"0.0-16.0","task_version":"prescreen-v0.3","browser_interactions":0},{"responses":{"01":"Yes","01_ages_1":"1","01_ages_2":"2","01_ages_3":"3","01_ages_4":"4","01_ages_5":"5","01_ages_6":"6","01_ages_7":"7","01_ages_8":"8","01_ages_9":"9","01_ages_10":"10","01_ages_11":"11","01_ages_12":"12","01_ages_13":"13","01_ages_14":"14","01_ages_15":"15","01_ages_16":"16","01_ages_17":"17","01_ages_18":"18","02":"Yes","02_ages_1":"1","02_ages_2":"2","02_ages_3":"3","02_ages_4":"4","02_ages_5":"5","02_ages_6":"6","02_ages_7":"7","02_ages_8":"8","02_ages_9":"9","02_ages_10":"10","02_ages_11":"11","02_ages_12":"12","02_ages_13":"13","02_ages_14":"14","02_ages_15":"15","02_ages_16":"16","02_ages_17":"17","02_ages_18":"18","03":"Yes","03_ages_1":"1","03_ages_2":"2","03_ages_3":"3","03_ages_4":"4","03_ages_5":"5","03_ages_6":"6","03_ages_7":"7","03_ages_8":"8","03_ages_9":"9","03_ages_10":"10","03_ages_11":"11","03_ages_12":"12","03_ages_13":"13","03_ages_14":"14","03_ages_15":"15","03_ages_16":"16","03_ages_17":"17","03_ages_18":"18","04":"Yes","04_ages_1":"1","04_ages_2":"2","04_ages_3":"3","04_ages_4":"4","04_ages_5":"5","04_ages_6":"6","04_ages_7":"7","04_ages_8":"8","04_ages_9":"9","04_ages_10":"10","04_ages_11":"11","04_ages_12":"12","04_ages_13":"13","04_ages_14":"14","04_ages_15":"15","04_ages_16":"16","04_ages_17":"17","04_ages_18":"18"},"rt":64969.79999998212,"item_order":[0,1,2,3],"radio_events":[3934.2999999821186,22425.19999998808,39458.69999998808,53803.79999998212],"checkbox_events":[6035.5,7602.5,8141.199999988079,8615.299999982119,9113.299999982119,9547.299999982119,10531.799999982119,11689.299999982119,12340,12845.799999982119,13810.199999988079,15052.299999982119,15646.699999988079,16128.799999982119,16635.29999998212,17189.69999998808,17671.79999998212,18129.79999998212,23682.79999998212,24519.19999998808,25024.899999976158,25555.29999998212,26013.19999998808,26423.29999998212,26837.29999998212,27713.399999976158,28267.69999998808,28798,29376.5,29903.09999999404,30851.29999998212,31429.899999976158,32289.899999976158,33386.69999998808,33836.59999999404,34326.79999998212,40520,41066.09999999404,41612.59999999404,42154.89999997616,43071.09999999404,43545.19999998808,44011.19999998808,44517.59999999404,45566.29999998212,46008.39999997616,46619,47262,47792.39999997616,48270.5,48752.29999998212,49235.09999999404,49789.69999998808,50384.19999998808,54651.29999998212,55061.29999998212,55471.29999998212,56001.5,56532.19999998808,57002,57452.19999998808,58030.89999997616,58938.59999999404,59356.89999997616,60349.69999998808,60855.5,61370.09999999404,61819.19999998808,62406.29999998212,62872.39999997616,63302.39999997616,64009.59999999404],"key_events":[],"mouse_events":[3934.2999999821186,6035.5,6694.5,7128.299999982119,7602.5,8141.199999988079,8615.299999982119,9113.299999982119,9547.299999982119,10065.699999988079,10531.799999982119,11174.59999999404,11689.299999982119,12340,12845.799999982119,13320.5,13810.199999988079,14312.59999999404,14641.899999976158,15052.299999982119,15646.699999988079,16128.799999982119,16635.29999998212,17189.69999998808,17671.79999998212,18129.79999998212,22425.19999998808,23682.79999998212,24149.19999998808,24519.19999998808,25024.899999976158,25555.29999998212,26013.19999998808,26423.29999998212,26837.29999998212,27713.399999976158,28267.69999998808,28798,29376.5,29903.09999999404,30368.899999976158,30851.29999998212,31429.899999976158,32289.899999976158,32804,33386.69999998808,33836.59999999404,34326.79999998212,39458.69999998808,40520,41066.09999999404,41612.59999999404,42154.89999997616,42629,43071.09999999404,43545.19999998808,44011.19999998808,44517.59999999404,45132.29999998212,45566.29999998212,46008.39999997616,46619,47262,47792.39999997616,48270.5,48752.29999998212,49235.09999999404,49789.69999998808,50384.19999998808,53803.79999998212,54651.29999998212,55061.29999998212,55471.29999998212,56001.5,56532.19999998808,57002,57452.19999998808,58030.89999997616,58489,58938.59999999404,59356.89999997616,59807,60349.69999998808,60855.5,61370.09999999404,61819.19999998808,62406.29999998212,62872.39999997616,63302.39999997616,64009.59999999404,64966.09999999404],"honeypot":0,"survey":"mace","page":9,"trial_type":"survey-mace","trial_index":17,"time_elapsed":585142,"internal_node_id":"0.0-17.0","task_version":"prescreen-v0.3","browser_interactions":0},{"responses":{"01":"No","02":"No","03":"No","04":"Yes","04_ages_6":"6","04_ages_7":"7","04_ages_8":"8","04_ages_9":"9","04_ages_10":"10","04_ages_11":"11","04_ages_12":"12","05":"No","06":"Yes","06_ages_17":"17","07":"Yes","07_ages_1":"1","07_ages_2":"2","07_ages_3":"3","07_ages_4":"4","07_ages_5":"5","07_ages_6":"6","07_ages_7":"7","07_ages_8":"8","07_ages_9":"9","07_ages_10":"10","07_ages_11":"11","07_ages_12":"12","07_ages_13":"13","07_ages_14":"14","07_ages_15":"15","07_ages_16":"16","07_ages_17":"17","07_ages_18":"18","08":"Yes","08_ages_1":"1","08_ages_2":"2","08_ages_3":"3","08_ages_4":"4","08_ages_5":"5","08_ages_6":"6","08_ages_7":"7","08_ages_8":"8","08_ages_9":"9","08_ages_10":"10","08_ages_11":"11","08_ages_12":"12","08_ages_13":"13","08_ages_14":"14","08_ages_15":"15","08_ages_16":"16","08_ages_17":"17","08_ages_18":"18"},"rt":63939.80000001192,"item_order":[0,1,2,3,4,5,6,7],"radio_events":[3603.4000000059605,5222.800000011921,6492.200000017881,8794.700000017881,12751.800000011921,13832.90000000596,17654,19132.59999999404,40966.5,51207.80000001192],"checkbox_events":[14949.90000000596,23801.70000001788,24316,25292.59999999404,25662.09999999404,26072,26513.80000001192,26979.90000000596,27430,27815.80000001192,28253.5,29072.80000001192,29515.40000000596,30447.5,32062.70000001788,33545.40000000596,34083.5,34669.70000001788,35216.70000001788,42963.5,44892,45389.80000001192,46217.5,47338.5,47780.90000000596,48881.70000001788,52292.90000000596,53297.40000000596,53763.90000000596,54302,54856.30000001192,55326.59999999404,55832.80000001192,56829.40000000596,57432.5,58082.80000001192,58629.59999999404,59143.20000001788,60417.20000001788,60923.90000000596,61421.5,62008.59999999404,62514.80000001192,63020.90000000596],"key_events":[],"mouse_events":[3603.4000000059605,5222.800000011921,6492.200000017881,8794.700000017881,12751.800000011921,13832.90000000596,14949.90000000596,17654,19132.59999999404,23801.70000001788,24316,24886.20000001788,25292.59999999404,25662.09999999404,26072,26513.80000001192,26979.90000000596,27430,27815.80000001192,28253.5,28631.40000000596,29072.80000001192,29515.40000000596,30021.20000001788,30447.5,31057.90000000596,32062.70000001788,32464.09999999404,32982.80000001192,33545.40000000596,34083.5,34669.70000001788,35216.70000001788,39658.30000001192,40147.30000001192,40484.40000000596,40966.5,42963.5,43437.5,44401.20000001788,44892,45389.80000001192,46217.5,47338.5,47780.90000000596,48335.30000001192,48881.70000001788,50569.09999999404,51207.80000001192,52292.90000000596,52686.80000001192,53297.40000000596,53763.90000000596,54302,54856.30000001192,55326.59999999404,55832.80000001192,56387.20000001788,56829.40000000596,57432.5,58082.80000001192,58629.59999999404,59143.20000001788,59750.40000000596,60417.20000001788,60923.90000000596,61421.5,62008.59999999404,62514.80000001192,63020.90000000596,63932.59999999404],"honeypot":0,"survey":"mace","page":10,"trial_type":"survey-mace","trial_index":18,"time_elapsed":649087,"internal_node_id":"0.0-18.0","task_version":"prescreen-v0.3","browser_interactions":0,"instructed":0},{"rt":6775.9000000059605,"trial_type":"mental-health-alert","trial_index":19,"time_elapsed":655865,"internal_node_id":"0.0-19.0","task_version":"prescreen-v0.3","interactions":"[]"}]