[{"view_history":[{"page_index":0,"viewing_time":2796.7000000476837},{"page_index":1,"viewing_time":2029.2999999523163},{"page_index":2,"viewing_time":1758.7000000476837},{"page_index":3,"viewing_time":1981.1000001430511}],"rt":8566.700000047684,"trial_type":"instructions","trial_index":0,"time_elapsed":8580,"internal_node_id":"0.0-0.0","task_version":"prescreen-v0.3"},{"rt":23139.799999952316,"responses":{"age":"31","gender-categorical":"Female","gender-free-response":"","ethnicity":"Not Hispanic or Latino","race":["Black or African American","White"],"education":"Some college"},"trial_type":"survey-demo","trial_index":1,"time_elapsed":31727,"internal_node_id":"0.0-1.0","task_version":"prescreen-v0.3"},{"responses":{"Q05":"1","Q12":"1","Q21":"3","Q10":"0","Q04":"2","Q01":"3","Q19":"1","Q18":"1","Q06":"0","Q03":"3","Q11":"1","Q16":"3","Q02":"3","Q07":"0","Q14":"3","Q13":"3","Q08":"2","Q09":"0","Q15":"3","Q20":"3","Q17":"2"},"rt":118856.70000004768,"item_order":[4,11,20,9,3,0,18,17,5,2,10,15,1,6,13,12,7,8,14,19,16],"radio_events":[17044.400000095367,21208.200000047684,23561,26422.10000014305,30749.60000014305,32536.10000014305,55972.200000047684,60961.799999952316,65185.700000047684,68190.79999995232,71782.5,75934.20000004768,83086.40000009537,87867.20000004768,92946.29999995232,99018.60000014305,103836,108563.29999995232,111983.5,114772.40000009537,117740.29999995232],"key_events":[],"mouse_events":[17044.400000095367,21208.200000047684,23561,26422.10000014305,30749.60000014305,32536.10000014305,55972.200000047684,60961.799999952316,65185.700000047684,68190.79999995232,71782.5,75230.5,75934.20000004768,80405.70000004768,83086.40000009537,87867.20000004768,92946.29999995232,99018.60000014305,103836,108563.29999995232,111983.5,114772.40000009537,117740.29999995232,118851.20000004768],"straightlining":0.42857142857142855,"zigzagging":0.45,"honeypot":0,"survey":"sns","trial_type":"survey-template","trial_index":2,"time_elapsed":150595,"internal_node_id":"0.0-2.0","task_version":"prescreen-v0.3","browser_interactions":0,"infrequency":0},{"responses":{"Q10":"1","Q04":"3","Q06":"1","Q09":"3","Q08":"3","Q12":"3","Q11":"3","Q07":"3","Q03":"3","Q01":"2","Q02":"3","Q13":"0","Q05":"3"},"rt":61963.5,"item_order":[9,3,5,8,7,11,10,6,2,0,1,12,4],"radio_events":[16086.099999904633,21695.5,24584.599999904633,28144.89999985695,29535.39999985695,34660.799999952316,37142.299999952316,41884.799999952316,44789.89999985695,49770.299999952316,51561.09999990463,53834.299999952316,56695.199999809265,61190.39999985695],"key_events":[],"mouse_events":[16086.099999904633,21695.5,24584.599999904633,28144.89999985695,29535.39999985695,34660.799999952316,37142.299999952316,41884.799999952316,44789.89999985695,49770.299999952316,51561.09999990463,53834.299999952316,56695.199999809265,61190.39999985695,61961.299999952316],"straightlining":0.6923076923076923,"zigzagging":0.3333333333333333,"honeypot":0,"survey":"bisbas","trial_type":"survey-template","trial_index":3,"time_elapsed":212564,"internal_node_id":"0.0-3.0","task_version":"prescreen-v0.3","browser_interactions":0,"infrequency":0},{"responses":{"Q01":"3","Q02":"3","Q03":"0"},"rt":13920.900000095367,"radio_events":[5705,8634.299999952316,12577.400000095367],"key_events":[],"mouse_events":[5705,8634.299999952316,12577.400000095367,13919.900000095367],"survey":"map","page":1,"trial_type":"survey-map","trial_index":4,"time_elapsed":226490,"internal_node_id":"0.0-4.0","task_version":"prescreen-v0.3","browser_interactions":0},{"responses":{"Q04":"3","Q05":"2","Q06":"1"},"rt":10792.799999952316,"radio_events":[4119.799999952316,7200.699999809265,9326.299999952316,10073.699999809265],"key_events":[],"mouse_events":[4119.799999952316,7200.699999809265,9326.299999952316,10073.699999809265,10791.899999856949],"survey":"map","page":2,"trial_type":"survey-map","trial_index":5,"time_elapsed":237286,"internal_node_id":"0.0-5.0","task_version":"prescreen-v0.3","browser_interactions":0},{"responses":{"Q07":"3","Q08":"2","Q09":"0"},"rt":13680.5,"radio_events":[6802.700000047684,10526.5,12939.5],"key_events":[],"mouse_events":[6230.200000047684,6802.700000047684,10526.5,12939.5,13679.5],"survey":"map","page":3,"trial_type":"survey-map","trial_index":6,"time_elapsed":250969,"internal_node_id":"0.0-6.0","task_version":"prescreen-v0.3","browser_interactions":0},{"responses":{"Q10":"0","Q11":"0","Q12":"2","Q13":"1","Q16":"0","Q14":"3","Q15":"2"},"rt":37841.299999952316,"radio_events":[3101.7999999523163,5514.299999952316,8180.200000047684,9514.600000143051,15440.799999952316,20071.400000095367,32881.90000009537,37071.90000009537],"key_events":[],"mouse_events":[3101.7999999523163,5514.299999952316,8180.200000047684,9514.600000143051,15440.799999952316,18737.400000095367,20071.400000095367,32881.90000009537,37071.90000009537,37839.299999952316],"survey":"map","page":4,"trial_type":"survey-map","trial_index":7,"time_elapsed":288814,"internal_node_id":"0.0-7.0","task_version":"prescreen-v0.3","browser_interactions":0,"infrequency":0},{"view_history":[{"page_index":0,"viewing_time":2365},{"page_index":1,"viewing_time":3854.9000000953674}],"rt":6220.900000095367,"trial_type":"instructions","trial_index":8,"time_elapsed":295037,"internal_node_id":"0.0-8.0","task_version":"prescreen-v0.3"},{"responses":{"01":"Yes","01_ages_9":"9","01_ages_10":"10","01_ages_11":"11","01_ages_12":"12","01_ages_13":"13","01_ages_14":"14","01_ages_15":"15","01_ages_16":"16","01_ages_17":"17","01_ages_18":"18","02":"Yes","02_ages_9":"9","02_ages_10":"10","02_ages_11":"11","02_ages_12":"12","02_ages_13":"13","02_ages_14":"14","02_ages_15":"15","02_ages_16":"16","02_ages_17":"17","02_ages_18":"18","03":"Yes","03_ages_8":"8","03_ages_9":"9","03_ages_10":"10","03_ages_11":"11","03_ages_12":"12","03_ages_13":"13","03_ages_14":"14","03_ages_15":"15","03_ages_16":"16","03_ages_17":"17","03_ages_18":"18","04":"Yes","04_ages_16":"16","04_ages_17":"17","04_ages_18":"18","05":"No","06":"Yes","06_ages_6":"6","06_ages_7":"7","06_ages_8":"8","06_ages_9":"9","06_ages_10":"10","06_ages_11":"11","06_ages_12":"12","06_ages_13":"13","06_ages_14":"14","06_ages_15":"15"},"rt":74267.60000014305,"item_order":[0,1,2,3,4,5],"radio_events":[3494.5,21589,31346.200000047684,46542,56156.40000009537,56795.800000190735,59668.60000014305],"checkbox_events":[13353.600000143051,14440.100000143051,14848.100000143051,15486.900000095367,15918.600000143051,16350.600000143051,16997.400000095367,17557.400000095367,17996.700000047684,18707.5,22891.300000190735,23574.5,24061.5,24509.800000190735,24932.700000047684,25564.400000095367,26770.60000014305,27406,27869.900000095367,28357.300000190735,33747.700000047684,34922.60000014305,36692.300000190735,37819.60000014305,38355.200000047684,39321.90000009537,40009.200000047684,40824.200000047684,41240.300000190735,42195.200000047684,42618.5,43042.10000014305,43457.300000190735,52036.60000014305,52999.300000190735,53926.700000047684,63173,63675.700000047684,64116.40000009537,64507.800000190735,64931.200000047684,65970.40000009537,66561.80000019073,67129.10000014305,68043.90000009537,68571.70000004768],"key_events":[],"mouse_events":[0.20000004768371582,3494.5,13353.600000143051,14440.100000143051,14848.100000143051,15486.900000095367,15918.600000143051,16350.600000143051,16997.400000095367,17557.400000095367,17996.700000047684,18707.5,21589,22891.300000190735,23574.5,24061.5,24509.800000190735,24932.700000047684,25564.400000095367,25980,26770.60000014305,27406,27869.900000095367,28357.300000190735,31346.200000047684,33747.700000047684,34922.60000014305,36692.300000190735,37228,37819.60000014305,38355.200000047684,39321.90000009537,40009.200000047684,40824.200000047684,41240.300000190735,41663.60000014305,42195.200000047684,42618.5,43042.10000014305,43457.300000190735,46542,52036.60000014305,52999.300000190735,53926.700000047684,56156.40000009537,56795.800000190735,59668.60000014305,63173,63675.700000047684,64116.40000009537,64507.800000190735,64931.200000047684,65570.70000004768,65970.40000009537,66561.80000019073,67129.10000014305,68043.90000009537,68571.70000004768,69602.30000019073,74261.40000009537],"honeypot":0,"survey":"mace","page":1,"trial_type":"survey-mace","trial_index":9,"time_elapsed":369314,"internal_node_id":"0.0-9.0","task_version":"prescreen-v0.3","browser_interactions":0},{"responses":{"01":"Yes","01_ages_9":"9","01_ages_10":"10","01_ages_11":"11","01_ages_12":"12","01_ages_13":"13","01_ages_14":"14","02":"No","03":"Yes","03_ages_4":"4","03_ages_5":"5","03_ages_6":"6","03_ages_7":"7","03_ages_8":"8","03_ages_9":"9","03_ages_10":"10","03_ages_11":"11","03_ages_12":"12","03_ages_13":"13","04":"Yes","04_ages_12":"12","04_ages_13":"13","05":"Yes","05_ages_4":"4","05_ages_5":"5","05_ages_6":"6","05_ages_7":"7","05_ages_8":"8","05_ages_9":"9","05_ages_10":"10","05_ages_11":"11","05_ages_12":"12","05_ages_13":"13","06":"No","07":"No","08":"No"},"rt":49658.60000014305,"item_order":[0,1,2,3,4,5,6,7],"radio_events":[2654.9000000953674,14454.799999952316,15745.200000047684,24656.400000095367,33363.200000047684,45203.299999952316,46585.60000014305,48795.700000047684],"checkbox_events":[4324.5,4732.600000143051,5164.400000095367,5556,6246.900000095367,7397.900000095367,16912.299999952316,17511.5,18118.5,18582.10000014305,19353.200000047684,19760.900000095367,20672.10000014305,21383.60000014305,21815.299999952316,22318.400000095367,29770.10000014305,31060.60000014305,36379.60000014305,37227.60000014305,37674.5,38074.40000009537,39444.700000047684,39876.10000014305,40603.799999952316,40995.200000047684,41387.299999952316,42130.299999952316],"key_events":[],"mouse_events":[2654.9000000953674,4324.5,4732.600000143051,5164.400000095367,5556,6246.900000095367,7397.900000095367,14454.799999952316,15745.200000047684,16912.299999952316,17511.5,18118.5,18582.10000014305,19353.200000047684,19760.900000095367,20240.299999952316,20672.10000014305,21383.60000014305,21815.299999952316,22318.400000095367,24656.400000095367,29770.10000014305,30509.5,31060.60000014305,33363.200000047684,36379.60000014305,36827.90000009537,37227.60000014305,37674.5,38074.40000009537,39444.700000047684,39876.10000014305,40603.799999952316,40995.200000047684,41387.299999952316,42130.299999952316,45203.299999952316,46585.60000014305,48795.700000047684,49650.700000047684],"honeypot":0,"survey":"mace","page":2,"trial_type":"survey-mace","trial_index":10,"time_elapsed":418979,"internal_node_id":"0.0-10.0","task_version":"prescreen-v0.3","browser_interactions":0},{"responses":{"01":"No","02":"No","03":"No","04":"No"},"rt":14748.200000047684,"item_order":[0,1,2,3],"radio_events":[6620.900000095367,11687.800000190735,12495.100000143051,13681.700000047684],"checkbox_events":[],"key_events":[],"mouse_events":[6620.900000095367,8858.700000047684,11072.300000190735,11687.800000190735,12495.100000143051,13681.700000047684,14744.600000143051],"honeypot":0,"survey":"mace","page":3,"trial_type":"survey-mace","trial_index":11,"time_elapsed":433733,"internal_node_id":"0.0-11.0","task_version":"prescreen-v0.3","browser_interactions":0},{"responses":{"01":"No","02":"No"},"rt":7702.199999809265,"item_order":[0,1],"radio_events":[4339.899999856949,5797.599999904633],"checkbox_events":[],"key_events":[],"mouse_events":[4339.899999856949,5797.599999904633,7700.199999809265],"honeypot":0,"survey":"mace","page":4,"trial_type":"survey-mace","trial_index":12,"time_elapsed":441438,"internal_node_id":"0.0-12.0","task_version":"prescreen-v0.3","browser_interactions":0},{"responses":{"01":"No","02":"No","03":"No","04":"No","05":"No"},"rt":24942.200000047684,"item_order":[0,1,2,3,4],"radio_events":[13364.799999952316,15354.5,17167.799999952316,21065.10000014305,23546.900000095367],"checkbox_events":[],"key_events":[],"mouse_events":[13364.799999952316,15354.5,17167.799999952316,21065.10000014305,23546.900000095367,24936.900000095367],"honeypot":0,"survey":"mace","page":5,"trial_type":"survey-mace","trial_index":13,"time_elapsed":466386,"internal_node_id":"0.0-13.0","task_version":"prescreen-v0.3","browser_interactions":0},{"responses":{"01":"No","02":"Yes","02_ages_9":"9","02_ages_12":"12","02_ages_15":"15","03":"Yes","03_ages_14":"14","03_ages_15":"15","03_ages_16":"16","03_ages_17":"17","04":"Yes","04_ages_12":"12","05":"No"},"rt":42440.700000047684,"item_order":[0,1,2,3,4],"radio_events":[11958.600000143051,18747.700000047684,27027,34691.40000009537,41807.40000009537],"checkbox_events":[19874.60000014305,21292.900000095367,23059,30763.400000095367,31202.799999952316,31650.10000014305,32393.700000047684,37265],"key_events":[],"mouse_events":[11958.600000143051,18747.700000047684,19874.60000014305,21292.900000095367,23059,27027,30763.400000095367,31202.799999952316,31650.10000014305,32393.700000047684,34691.40000009537,37265,41807.40000009537,42435.10000014305],"honeypot":0,"survey":"mace","page":6,"trial_type":"survey-mace","trial_index":14,"time_elapsed":508832,"internal_node_id":"0.0-14.0","task_version":"prescreen-v0.3","browser_interactions":0},{"responses":{"01":"No","02":"No","03":"Yes","03_ages_11":"11","04":"No","05":"No","06":"No","07":"No"},"rt":23288.799999952316,"item_order":[0,1,2,3,4,5,6],"radio_events":[5716.299999952316,7474.299999952316,11186.600000143051,17787.5,19609.5,21375.5,22498.5],"checkbox_events":[12256.799999952316,15202.299999952316,15897.700000047684],"key_events":[],"mouse_events":[5716.299999952316,7474.299999952316,11186.600000143051,12256.799999952316,15202.299999952316,15897.700000047684,17787.5,19609.5,21375.5,22498.5,23282.200000047684],"honeypot":0,"survey":"mace","page":7,"trial_type":"survey-mace","trial_index":15,"time_elapsed":532126,"internal_node_id":"0.0-15.0","task_version":"prescreen-v0.3","browser_interactions":0},{"responses":{"01":"Yes","01_ages_8":"8","01_ages_9":"9","01_ages_10":"10","01_ages_11":"11","01_ages_12":"12","01_ages_13":"13","01_ages_14":"14","01_ages_15":"15","01_ages_16":"16","01_ages_17":"17","01_ages_18":"18","02":"Yes","02_ages_1":"1","02_ages_2":"2","02_ages_3":"3","02_ages_4":"4","02_ages_5":"5","02_ages_6":"6","02_ages_7":"7","02_ages_8":"8","02_ages_9":"9","02_ages_10":"10","02_ages_11":"11","02_ages_12":"12","02_ages_13":"13","02_ages_14":"14","02_ages_15":"15","02_ages_16":"16","02_ages_17":"17","02_ages_18":"18","03":"No","04":"Yes","04_ages_1":"1","04_ages_2":"2","04_ages_3":"3","04_ages_4":"4","04_ages_5":"5","04_ages_6":"6","04_ages_7":"7","04_ages_8":"8","04_ages_9":"9","04_ages_10":"10","04_ages_11":"11","04_ages_12":"12","04_ages_13":"13","04_ages_14":"14","04_ages_15":"15","04_ages_16":"16","04_ages_17":"17","04_ages_18":"18"},"rt":53026.799999952316,"item_order":[0,1,2,3],"radio_events":[9846.599999904633,22029.299999952316,38375.799999952316,40777.59999990463],"checkbox_events":[11400.799999952316,11824.799999952316,12239.599999904633,12640,13406.900000095367,14030.099999904633,14469.200000047684,15260.700000047684,16295.5,16719.400000095367,17366.299999952316,23172.400000095367,23643.700000047684,24059.599999904633,24578.700000047684,25237.900000095367,25837.200000047684,26484.599999904633,27299,27730.799999952316,28114.900000095367,28969.799999952316,30292.799999952316,30947.400000095367,31547,32170.200000047684,32594.200000047684,33072.59999990463,33744.799999952316,41752.700000047684,42112,42495.59999990463,42863.5,43375,44002.200000047684,44394,45265.09999990463,46199.90000009537,46822.90000009537,47406.5,47805.40000009537,48465.5,48903.90000009537,49983,50542.799999952316,51197.59999990463,51837.5],"key_events":[],"mouse_events":[9846.599999904633,11400.799999952316,11824.799999952316,12239.599999904633,12640,13406.900000095367,14030.099999904633,14469.200000047684,15260.700000047684,16295.5,16719.400000095367,17366.299999952316,22029.299999952316,23172.400000095367,23643.700000047684,24059.599999904633,24578.700000047684,25237.900000095367,25837.200000047684,26484.599999904633,27299,27730.799999952316,28114.900000095367,28969.799999952316,30292.799999952316,30947.400000095367,31547,32170.200000047684,32594.200000047684,33072.59999990463,33744.799999952316,38375.799999952316,40777.59999990463,41752.700000047684,42112,42495.59999990463,42863.5,43375,44002.200000047684,44394,45265.09999990463,46199.90000009537,46822.90000009537,47406.5,47805.40000009537,48465.5,48903.90000009537,49400,49983,50542.799999952316,51197.59999990463,51837.5,53023.200000047684],"honeypot":0,"survey":"mace","page":8,"trial_type":"survey-mace","trial_index":16,"time_elapsed":585160,"internal_node_id":"0.0-16.0","task_version":"prescreen-v0.3","browser_interactions":0},{"responses":{"01":"Yes","01_ages_1":"1","01_ages_2":"2","01_ages_3":"3","01_ages_4":"4","01_ages_5":"5","01_ages_6":"6","01_ages_7":"7","01_ages_8":"8","01_ages_9":"9","01_ages_10":"10","01_ages_11":"11","01_ages_12":"12","01_ages_13":"13","01_ages_14":"14","01_ages_15":"15","02":"Yes","02_ages_1":"1","02_ages_2":"2","02_ages_3":"3","02_ages_4":"4","02_ages_5":"5","02_ages_6":"6","02_ages_7":"7","02_ages_8":"8","02_ages_9":"9","02_ages_10":"10","02_ages_11":"11","02_ages_12":"12","02_ages_13":"13","02_ages_14":"14","02_ages_15":"15","02_ages_16":"16","02_ages_17":"17","02_ages_18":"18","03":"Yes","03_ages_1":"1","03_ages_2":"2","03_ages_3":"3","03_ages_4":"4","03_ages_5":"5","03_ages_6":"6","03_ages_7":"7","03_ages_8":"8","03_ages_9":"9","03_ages_10":"10","03_ages_11":"11","03_ages_12":"12","03_ages_13":"13","03_ages_14":"14","03_ages_15":"15","03_ages_16":"16","03_ages_17":"17","03_ages_18":"18","04":"Yes","04_ages_1":"1","04_ages_2":"2","04_ages_3":"3","04_ages_4":"4","04_ages_5":"5","04_ages_6":"6","04_ages_7":"7","04_ages_8":"8","04_ages_9":"9","04_ages_10":"10","04_ages_11":"11","04_ages_12":"12","04_ages_13":"13","04_ages_14":"14","04_ages_15":"15","04_ages_16":"16","04_ages_17":"17","04_ages_18":"18"},"rt":64484.199999809265,"item_order":[0,1,2,3],"radio_events":[5409.799999952316,19383.099999904633,36160.299999952316,52310.5],"checkbox_events":[7891.099999904633,8921.899999856949,9513.399999856949,9944.799999952316,10408.5,11023.299999952316,11782.899999856949,12833.5,13233.599999904633,13640.899999856949,14455.799999952316,14855.699999809265,15239.099999904633,15854.799999952316,16293.799999952316,20653.5,21364.799999952316,22036,22699.699999809265,23163.199999809265,24022,24652.599999904633,25252.89999985695,26259.699999809265,26962.799999952316,27562.099999904633,28201.299999952316,28713,29412.199999809265,29899.299999952316,30451,31473.799999952316,31921.39999985695,37519.199999809265,37910.699999809265,38318,38701.299999952316,39332.5,40359.199999809265,40759.09999990463,41198.799999952316,41621.699999809265,42437.5,43108.59999990463,46373.39999985695,46764,47371.799999952316,48742.5,49078.09999990463,49677.39999985695,50036.799999952316,53652.5,54851.89999985695,55259.39999985695,55683,56302.39999985695,56957.5,57349,58075.699999809265,58707.89999985695,59139.09999990463,59602.799999952316,60226.199999809265,60666.799999952316,61128.199999809265,61804,62195.59999990463,63050.699999809265,63450.09999990463],"key_events":[],"mouse_events":[5409.799999952316,7891.099999904633,8338.5,8921.899999856949,9513.399999856949,9944.799999952316,10408.5,11023.299999952316,11462.799999952316,11782.899999856949,12418.199999809265,12833.5,13233.599999904633,13640.899999856949,14455.799999952316,14855.699999809265,15239.099999904633,15854.799999952316,16293.799999952316,19383.099999904633,20653.5,21364.799999952316,22036,22699.699999809265,23163.199999809265,24022,24652.599999904633,25252.89999985695,26259.699999809265,26962.799999952316,27562.099999904633,28201.299999952316,28713,29412.199999809265,29899.299999952316,30451,30922,31473.799999952316,31921.39999985695,35592.59999990463,36160.299999952316,37519.199999809265,37910.699999809265,38318,38701.299999952316,39332.5,39968.199999809265,40359.199999809265,40759.09999990463,41198.799999952316,41621.699999809265,42437.5,43108.59999990463,44846.59999990463,45709.59999990463,46373.39999985695,46764,47371.799999952316,48015.199999809265,48742.5,49078.09999990463,49677.39999985695,50036.799999952316,51911.199999809265,52310.5,53652.5,54268.39999985695,54851.89999985695,55259.39999985695,55683,56302.39999985695,56957.5,57349,58075.699999809265,58707.89999985695,59139.09999990463,59602.799999952316,60226.199999809265,60666.799999952316,61128.199999809265,61804,62195.59999990463,63050.699999809265,63450.09999990463,64480.59999990463],"honeypot":0,"survey":"mace","page":9,"trial_type":"survey-mace","trial_index":17,"time_elapsed":649650,"internal_node_id":"0.0-17.0","task_version":"prescreen-v0.3","browser_interactions":0},{"responses":{"01":"No","02":"No","03":"Yes","03_ages_9":"9","03_ages_10":"10","03_ages_11":"11","03_ages_12":"12","03_ages_13":"13","03_ages_14":"14","03_ages_15":"15","03_ages_16":"16","03_ages_17":"17","03_ages_18":"18","04":"Yes","04_ages_9":"9","04_ages_10":"10","04_ages_11":"11","04_ages_12":"12","04_ages_13":"13","04_ages_14":"14","04_ages_15":"15","04_ages_16":"16","04_ages_17":"17","04_ages_18":"18","05":"No","06":"Yes","06_ages_17":"17","07":"No","08":"No"},"rt":35995.09999990463,"item_order":[0,1,2,3,4,5,6,7],"radio_events":[2297.2999999523163,3543.5,5622.099999904633,13901.899999856949,22842.799999952316,25255.599999904633,30014.5,32658.799999952316,35331.89999985695],"checkbox_events":[6983.699999809265,7455.5,8238.699999809265,8773.799999952316,9381.799999952316,9789.199999809265,10220.699999809265,10643.599999904633,11295.399999856949,11982.5,14803,15219,15770.299999952316,16693.299999952316,17276.199999809265,17667.799999952316,18114.89999985695,18738.799999952316,19577.89999985695,20233,26365.5],"key_events":[],"mouse_events":[2297.2999999523163,3543.5,5622.099999904633,6983.699999809265,7455.5,7879.099999904633,8238.699999809265,8773.799999952316,9381.799999952316,9789.199999809265,10220.699999809265,10643.599999904633,11295.399999856949,11982.5,13901.899999856949,14803,15219,15770.299999952316,16341.299999952316,16693.299999952316,17276.199999809265,17667.799999952316,18114.89999985695,18738.799999952316,19169.799999952316,19577.89999985695,20233,22842.799999952316,25255.599999904633,26365.5,30014.5,32658.799999952316,35331.89999985695,35987.09999990463],"honeypot":0,"survey":"mace","page":10,"trial_type":"survey-mace","trial_index":18,"time_elapsed":685652,"internal_node_id":"0.0-18.0","task_version":"prescreen-v0.3","browser_interactions":0,"instructed":0},{"rt":1706.4000000953674,"trial_type":"mental-health-alert","trial_index":19,"time_elapsed":687361,"internal_node_id":"0.0-19.0","task_version":"prescreen-v0.3","interactions":"[]"}]