[{"view_history":[{"page_index":0,"viewing_time":3134},{"page_index":1,"viewing_time":9120},{"page_index":2,"viewing_time":2870},{"page_index":3,"viewing_time":1254}],"rt":16378,"trial_type":"instructions","trial_index":0,"time_elapsed":16386,"internal_node_id":"0.0-0.0","task_version":"prescreen-v0.3"},{"rt":11886,"responses":{"age":"23","gender-categorical":"Female","gender-free-response":"","ethnicity":"Not Hispanic or Latino","race":["Black or African American"],"education":"Some college"},"trial_type":"survey-demo","trial_index":1,"time_elapsed":28281,"internal_node_id":"0.0-1.0","task_version":"prescreen-v0.3"},{"responses":{"Q15":"2","Q17":"1","Q11":"2","Q13":"1","Q21":"3","Q20":"1","Q05":"0","Q01":"1","Q16":"2","Q10":"1","Q04":"1","Q18":"1","Q08":"2","Q14":"2","Q03":"0","Q19":"1","Q12":"1","Q02":"0","Q07":"0","Q09":"1","Q06":"0"},"rt":133776.00000000003,"item_order":[14,16,10,12,20,19,4,0,15,9,3,17,7,13,2,18,11,1,6,8,5],"radio_events":[10230.999999999996,17278.000000000004,23470.000000000004,26010.000000000004,29511.999999999996,34146,45413,49405,64589,67465.00000000001,70797,80215.00000000001,83596.00000000001,93216,95807.00000000001,105867,111526.00000000003,116752.00000000003,120568,128369,132200],"key_events":[],"mouse_events":[10230.999999999996,17278.000000000004,23470.000000000004,26010.000000000004,29511.999999999996,34146,45413,47198,49405,64589,67465.00000000001,70797,78266,80215.00000000001,83596.00000000001,93216,95807.00000000001,105867,111526.00000000003,116752.00000000003,120568,128369,132200,133754],"straightlining":0.47619047619047616,"zigzagging":0.6,"honeypot":0,"survey":"sns","trial_type":"survey-template","trial_index":2,"time_elapsed":162043,"internal_node_id":"0.0-2.0","task_version":"prescreen-v0.3","browser_interactions":0,"infrequency":0},{"responses":{"Q05":"3","Q13":"0","Q07":"3","Q12":"2","Q08":"3","Q09":"3","Q10":"2","Q04":"3","Q02":"2","Q01":"2","Q03":"3","Q06":"3","Q11":"3"},"rt":71647.99999999997,"item_order":[4,12,6,11,7,8,9,3,1,0,2,5,10],"radio_events":[3845,6760.999999999971,9403.99999999997,15924.99999999997,22663.99999999997,24073.99999999997,29432.99999999997,38121.99999999997,39923.99999999997,43146.99999999997,52278.99999999997,59357.99999999997,62925.99999999997,70906.99999999997],"key_events":[],"mouse_events":[3845,6760.999999999971,9403.99999999997,15924.99999999997,20589.99999999997,22663.99999999997,24073.99999999997,28631.99999999997,29432.99999999997,36595,38121.99999999997,39089.99999999997,39923.99999999997,43146.99999999997,52278.99999999997,57793.99999999997,58441.99999999997,59357.99999999997,62925.99999999997,70906.99999999997,71633.99999999997],"straightlining":0.6153846153846154,"zigzagging":0.6666666666666666,"honeypot":0,"survey":"bisbas","trial_type":"survey-template","trial_index":3,"time_elapsed":233698,"internal_node_id":"0.0-3.0","task_version":"prescreen-v0.3","browser_interactions":0,"infrequency":0},{"responses":{"Q01":"3","Q02":"3","Q03":"3"},"rt":22642.99999999997,"radio_events":[6671,14046,21924],"key_events":[],"mouse_events":[6671,13138.00000000003,14046,21924,22639.00000000003],"survey":"map","page":1,"trial_type":"survey-map","trial_index":4,"time_elapsed":256347,"internal_node_id":"0.0-4.0","task_version":"prescreen-v0.3","browser_interactions":0},{"responses":{"Q04":"2","Q05":"2","Q06":"2"},"rt":17230.99999999997,"radio_events":[5068.999999999971,9520.99999999997,16229.99999999997],"key_events":[],"mouse_events":[5068.999999999971,9520.99999999997,15125.99999999997,16229.99999999997,17225.99999999997],"survey":"map","page":2,"trial_type":"survey-map","trial_index":5,"time_elapsed":273581,"internal_node_id":"0.0-5.0","task_version":"prescreen-v0.3","browser_interactions":0},{"responses":{"Q07":"4","Q08":"4","Q09":"4"},"rt":16093,"radio_events":[6798,14500,15301],"key_events":[],"mouse_events":[6798,12819,14500,15301,16086],"survey":"map","page":3,"trial_type":"survey-map","trial_index":6,"time_elapsed":289679,"internal_node_id":"0.0-6.0","task_version":"prescreen-v0.3","browser_interactions":0},{"responses":{"Q10":"2","Q11":"2","Q12":"2","Q13":"2","Q16":"0","Q14":"1","Q15":"1"},"rt":51900,"radio_events":[4103.000000000058,7587,15618,21939,27474,45442,50794],"key_events":[],"mouse_events":[4103.000000000058,7587,15618,21939,27474,44702,45442,47626,48851,49937.00000000006,50794,51891],"survey":"map","page":4,"trial_type":"survey-map","trial_index":7,"time_elapsed":341583,"internal_node_id":"0.0-7.0","task_version":"prescreen-v0.3","browser_interactions":0,"infrequency":0},{"view_history":[{"page_index":0,"viewing_time":3313},{"page_index":1,"viewing_time":4018}],"rt":7331,"trial_type":"instructions","trial_index":8,"time_elapsed":348919,"internal_node_id":"0.0-8.0","task_version":"prescreen-v0.3"},{"responses":{"01":"Yes","01_ages_12":"12","01_ages_13":"13","01_ages_14":"14","01_ages_15":"15","01_ages_16":"16","01_ages_17":"17","01_ages_18":"18","02":"Yes","02_ages_12":"12","02_ages_13":"13","02_ages_14":"14","02_ages_15":"15","02_ages_16":"16","02_ages_17":"17","02_ages_18":"18","03":"No","04":"No","05":"No","06":"No"},"rt":66986.00000000006,"item_order":[0,1,2,3,4,5],"radio_events":[8247,27412,42196,44782,46652,63372],"checkbox_events":[15411,18116,18997,19795,20511,21851,22661,30883,31516,32101,34056,35501,36278,53723],"key_events":[],"mouse_events":[0,8247,15411,18116,18997,19795,20511,21851,22661,27412,30883,31516,32101,34056,35501,36278,42196,43611.00000000006,44782,46652,53723,63372,66972],"honeypot":0,"survey":"mace","page":1,"trial_type":"survey-mace","trial_index":9,"time_elapsed":415913,"internal_node_id":"0.0-9.0","task_version":"prescreen-v0.3","browser_interactions":0},{"responses":{"01":"No","02":"No","03":"Yes","03_ages_8":"8","04":"No","05":"Yes","05_ages_8":"8","06":"No","07":"No","08":"No"},"rt":36140.99999999994,"item_order":[0,1,2,3,4,5,6,7],"radio_events":[2904.999999999942,5531.999999999942,14589.999999999942,18137,26646.99999999994,31565,33815.99999999994,35389.99999999994],"checkbox_events":[21904.99999999994,27715.99999999994],"key_events":[],"mouse_events":[2904.999999999942,5531.999999999942,14589.999999999942,18137,21904.99999999994,26646.99999999994,27715.99999999994,31565,33815.99999999994,35389.99999999994,36126.99999999994],"honeypot":0,"survey":"mace","page":2,"trial_type":"survey-mace","trial_index":10,"time_elapsed":452062,"internal_node_id":"0.0-10.0","task_version":"prescreen-v0.3","browser_interactions":0},{"responses":{"01":"No","02":"No","03":"No","04":"No"},"rt":21912,"item_order":[0,1,2,3],"radio_events":[6710.000000000058,7913,8963,10179],"checkbox_events":[],"key_events":[],"mouse_events":[6710.000000000058,7913,8963,10179,21901],"honeypot":0,"survey":"mace","page":3,"trial_type":"survey-mace","trial_index":11,"time_elapsed":473978,"internal_node_id":"0.0-11.0","task_version":"prescreen-v0.3","browser_interactions":0},{"responses":{"01":"No","02":"No"},"rt":9491,"item_order":[0,1],"radio_events":[5922,8620],"checkbox_events":[],"key_events":[],"mouse_events":[5922,8620,9484],"honeypot":0,"survey":"mace","page":4,"trial_type":"survey-mace","trial_index":12,"time_elapsed":483474,"internal_node_id":"0.0-12.0","task_version":"prescreen-v0.3","browser_interactions":0},{"responses":{"01":"No","02":"No","03":"No","04":"No","05":"No"},"rt":29189.99999999994,"item_order":[0,1,2,3,4],"radio_events":[11666,13500,20940,25899.99999999994,28336.99999999994],"checkbox_events":[],"key_events":[],"mouse_events":[11666,13500,20940,25899.99999999994,28336.99999999994,29183.99999999994],"honeypot":0,"survey":"mace","page":5,"trial_type":"survey-mace","trial_index":13,"time_elapsed":512671,"internal_node_id":"0.0-13.0","task_version":"prescreen-v0.3","browser_interactions":0},{"responses":{"01":"Yes","01_ages_9":"9","01_ages_10":"10","01_ages_11":"11","02":"Yes","02_ages_8":"8","02_ages_9":"9","02_ages_10":"10","02_ages_11":"11","03":"Yes","03_ages_8":"8","03_ages_9":"9","03_ages_10":"10","03_ages_17":"17","03_ages_18":"18","04":"Yes","04_ages_8":"8","04_ages_9":"9","04_ages_10":"10","05":"No"},"rt":59759.99999999994,"item_order":[0,1,2,3,4],"radio_events":[9309.999999999942,18561.99999999994,28913.99999999994,53234.99999999994,58991.99999999994],"checkbox_events":[13191.999999999942,14128.999999999942,14722.999999999942,21564.99999999994,22365.99999999994,22899.00000000006,24180.99999999994,38743.99999999994,40157.99999999994,42790.99999999994,43731.99999999994,44564.99999999994,54574.99999999994,55125.99999999994,55764.99999999994],"key_events":[],"mouse_events":[9309.999999999942,13191.999999999942,14128.999999999942,14722.999999999942,18561.99999999994,21564.99999999994,22365.99999999994,22899.00000000006,23471.99999999994,24180.99999999994,28913.99999999994,38743.99999999994,40157.99999999994,42790.99999999994,43731.99999999994,44564.99999999994,53234.99999999994,54574.99999999994,55125.99999999994,55764.99999999994,58991.99999999994,59747.99999999994],"honeypot":0,"survey":"mace","page":6,"trial_type":"survey-mace","trial_index":14,"time_elapsed":572438,"internal_node_id":"0.0-14.0","task_version":"prescreen-v0.3","browser_interactions":0},{"responses":{"01":"No","02":"No","03":"No","04":"No","05":"No","06":"No","07":"No"},"rt":18720,"item_order":[0,1,2,3,4,5,6],"radio_events":[6826,9800,11470,12815,14280,17326,18059],"checkbox_events":[],"key_events":[],"mouse_events":[6826,9800,11470,12815,14280,16445,17326,18059,18712],"honeypot":0,"survey":"mace","page":7,"trial_type":"survey-mace","trial_index":15,"time_elapsed":591167,"internal_node_id":"0.0-15.0","task_version":"prescreen-v0.3","browser_interactions":0},{"responses":{"01":"No","02":"No","03":"Yes","03_ages_11":"11","03_ages_12":"12","03_ages_13":"13","03_ages_14":"14","03_ages_15":"15","03_ages_16":"16","03_ages_17":"17","03_ages_18":"18","04":"No"},"rt":58642,"item_order":[0,1,2,3],"radio_events":[12557.000000000116,14853,21718,33525,46649],"checkbox_events":[37809,38388,38973,39634.00000000012,40207,41039,41516,42020],"key_events":[],"mouse_events":[12557.000000000116,14853,21718,33525,37016,37809,38388,38973,39634.00000000012,40207,41039,41516,42020,46649,58635],"honeypot":0,"survey":"mace","page":8,"trial_type":"survey-mace","trial_index":16,"time_elapsed":649817,"internal_node_id":"0.0-16.0","task_version":"prescreen-v0.3","browser_interactions":0},{"responses":{"01":"Yes","01_ages_1":"1","01_ages_2":"2","01_ages_3":"3","01_ages_4":"4","01_ages_5":"5","01_ages_6":"6","01_ages_7":"7","01_ages_8":"8","01_ages_9":"9","01_ages_10":"10","01_ages_11":"11","01_ages_12":"12","01_ages_13":"13","01_ages_14":"14","01_ages_15":"15","01_ages_16":"16","01_ages_17":"17","01_ages_18":"18","02":"Yes","02_ages_1":"1","02_ages_2":"2","02_ages_3":"3","02_ages_4":"4","02_ages_5":"5","02_ages_6":"6","02_ages_7":"7","02_ages_8":"8","02_ages_9":"9","02_ages_10":"10","02_ages_11":"11","02_ages_12":"12","02_ages_13":"13","02_ages_14":"14","02_ages_15":"15","02_ages_16":"16","02_ages_17":"17","02_ages_18":"18","03":"Yes","03_ages_1":"1","03_ages_2":"2","03_ages_3":"3","03_ages_4":"4","03_ages_5":"5","03_ages_6":"6","03_ages_7":"7","03_ages_8":"8","03_ages_9":"9","03_ages_10":"10","03_ages_11":"11","03_ages_12":"12","03_ages_13":"13","03_ages_14":"14","03_ages_15":"15","03_ages_16":"16","03_ages_17":"17","03_ages_18":"18","04":"Yes","04_ages_1":"1","04_ages_2":"2","04_ages_3":"3","04_ages_4":"4","04_ages_5":"5","04_ages_6":"6","04_ages_7":"7","04_ages_8":"8","04_ages_9":"9","04_ages_10":"10","04_ages_11":"11","04_ages_12":"12","04_ages_13":"13","04_ages_14":"14","04_ages_15":"15","04_ages_16":"16","04_ages_17":"17","04_ages_18":"18"},"rt":75359,"item_order":[0,1,2,3],"radio_events":[3504.0000000001164,3751,19185,20971,25768],"checkbox_events":[5425,6723,7373,8609,9330,9939,10443,10956.000000000116,11477,11973,12518,13018,14677.000000000116,15232,15910,16462,17075,17724,27687,29206.000000000116,29769,30403.000000000116,30992,32393,32946,33489,34007,34555,35156,36322,37478,38106,39257,39757,40690,41205,43556,44389,45326.00000000012,45887,46833,48440,48995,49976,50573,51424,52024,53023.00000000012,53738,53905,54773.00000000012,55763,56676,57613,58423,59932.00000000012,60549,61490,62990,63965,64646,65624.00000000012,66207,66958,67796,68525,69106,69933,70534,71792,72357,73208,73796,74575],"key_events":[],"mouse_events":[2843,3504.0000000001164,3751,5425,6119,6723,7373,7893,8609,9330,9939,10443,10956.000000000116,11477,11973,12518,13018,13620,14012,14677.000000000116,15232,15910,16462,17075,17724,19185,20971,24836,25768,27687,28263,29206.000000000116,29769,30403.000000000116,30992,31521,32393,32946,33489,34007,34555,35156,35778.00000000012,36322,36827,37478,38106,39257,39757,40243,40690,41205,43556,44389,45326.00000000012,45887,46416,46833,47772,48440,48995,49976,50573,51424,52024,53023.00000000012,53738,53905,54773.00000000012,55763,56676,57613,58423,59301,59932.00000000012,60549,61490,62432.00000000012,62990,63965,64646,65624.00000000012,66207,66958,67796,68525,69106,69933,70534,71792,72357,73208,73796,74575,75346],"honeypot":0,"survey":"mace","page":9,"trial_type":"survey-mace","trial_index":17,"time_elapsed":725184,"internal_node_id":"0.0-17.0","task_version":"prescreen-v0.3","browser_interactions":0},{"responses":{"01":"No","02":"No","03":"No","04":"No","05":"Yes","05_ages_10":"10","05_ages_11":"11","05_ages_12":"12","06":"Yes","06_ages_17":"17","07":"Yes","07_ages_1":"1","07_ages_2":"2","07_ages_3":"3","07_ages_4":"4","07_ages_5":"5","07_ages_6":"6","07_ages_7":"7","07_ages_8":"8","07_ages_9":"9","07_ages_10":"10","07_ages_11":"11","07_ages_12":"12","07_ages_13":"13","07_ages_14":"14","07_ages_15":"15","07_ages_16":"16","07_ages_17":"17","07_ages_18":"18","08":"Yes","08_ages_1":"1","08_ages_2":"2","08_ages_3":"3","08_ages_4":"4","08_ages_5":"5","08_ages_6":"6","08_ages_7":"7","08_ages_8":"8","08_ages_9":"9","08_ages_10":"10","08_ages_11":"11","08_ages_12":"12","08_ages_13":"13","08_ages_14":"14","08_ages_15":"15","08_ages_16":"16","08_ages_17":"17","08_ages_18":"18"},"rt":65860,"item_order":[0,1,2,3,4,5,6,7],"radio_events":[5444,8642,9725,12796,15465.000000000116,23908,31935,47320],"checkbox_events":[16867,26304,28096,28697,33954,34502,35334,35918,36463,37505,38437,39426,40031,40610,41218,41811.00000000012,42796,43393.00000000012,43984.00000000012,44729.00000000012,45511,46011,49046,49596,50279,51461,52050,52739.00000000012,54212,55079,55899,56740,58528,59548,60557,61130,62545,63380,64189,65113],"key_events":[],"mouse_events":[5444,7241,8642,9725,12796,15465.000000000116,16867,23401,23908,26304,28096,28697,31935,33954,34502,35334,35918,36463,37505,38437,39426,40031,40610,41218,41811.00000000012,42796,43393.00000000012,43984.00000000012,44729.00000000012,45511,46011,47320,49046,49596,50279,50813,51461,52050,52739.00000000012,53511,54212,55079,55899,56740,57865,58528,59548,60557,61130,61654,62545,63380,64189,65113,65848],"honeypot":0,"survey":"mace","page":10,"trial_type":"survey-mace","trial_index":18,"time_elapsed":791053,"internal_node_id":"0.0-18.0","task_version":"prescreen-v0.3","browser_interactions":0,"instructed":0},{"rt":5733,"trial_type":"mental-health-alert","trial_index":19,"time_elapsed":796790,"internal_node_id":"0.0-19.0","task_version":"prescreen-v0.3","interactions":"[]"}]