[{"view_history":[{"page_index":0,"viewing_time":3294.5999999996275},{"page_index":1,"viewing_time":1512.0999999996275},{"page_index":2,"viewing_time":3312},{"page_index":3,"viewing_time":791.9000000003725}],"rt":8911.099999999627,"trial_type":"instructions","trial_index":0,"time_elapsed":8928,"internal_node_id":"0.0-0.0","task_version":"prescreen-v0.3"},{"rt":8172.300000000745,"responses":{"age":"33","gender-categorical":"Male","gender-free-response":"","ethnicity":"Not Hispanic or Latino","race":["White"],"education":"Bachelor degree"},"trial_type":"survey-demo","trial_index":1,"time_elapsed":17104,"internal_node_id":"0.0-1.0","task_version":"prescreen-v0.3"},{"responses":{"Q06":"2","Q08":"2","Q17":"1","Q05":"0","Q20":"0","Q11":"0","Q09":"0","Q14":"1","Q16":"1","Q19":"1","Q15":"1","Q12":"1","Q10":"0","Q13":"1","Q18":"1","Q02":"2","Q21":"3","Q03":"1","Q01":"1","Q07":"1","Q04":"2"},"rt":68141.80000000075,"item_order":[5,7,16,4,19,10,8,13,15,18,14,11,9,12,17,1,20,2,0,6,3],"radio_events":[7868.10000000149,9764.200000001118,13284.10000000149,14164.200000001118,17156,20851.800000000745,21195.800000000745,25044.10000000149,27956.10000000149,34036.10000000149,34620.10000000149,40044.10000000149,42548,44972.10000000149,46572,47004,49844.10000000149,54516,55796.10000000149,58284.10000000149,59316.10000000149,66100.10000000149,67148.10000000149],"key_events":[],"mouse_events":[6412.10000000149,7868.10000000149,8228.10000000149,9764.200000001118,10364.10000000149,13284.10000000149,14164.200000001118,16564.10000000149,17156,19107.800000000745,19387.900000000373,20539.700000001118,20851.800000000745,21195.800000000745,25044.10000000149,27956.10000000149,33348.10000000149,34036.10000000149,34620.10000000149,39612.10000000149,40044.10000000149,42548,43700.20000000112,44972.10000000149,46572,47004,49844.10000000149,52820.10000000149,54516,55796.10000000149,58284.10000000149,59316.10000000149,63028.20000000112,63420,65380,65796,66100.10000000149,66740.20000000112,67148.10000000149,68140.20000000112],"straightlining":0.5238095238095238,"zigzagging":0.4,"honeypot":0,"survey":"sns","trial_type":"survey-template","trial_index":2,"time_elapsed":85249,"internal_node_id":"0.0-2.0","task_version":"prescreen-v0.3","browser_interactions":2,"infrequency":0},{"responses":{"Q09":"2","Q01":"3","Q12":"2","Q10":"2","Q11":"2","Q07":"2","Q13":"0","Q04":"3","Q06":"2","Q05":"2","Q03":"2","Q02":"2","Q08":"2"},"rt":30915.89999999851,"item_order":[8,0,11,9,10,6,12,3,5,4,2,1,7],"radio_events":[2955,4946.89999999851,7043,9459.199999999255,10411,13371,14227,18763,20011,20835,25155.099999999627,27459.099999999627,30387],"key_events":[],"mouse_events":[2955,4946.89999999851,6659.0999999996275,7043,8082.89999999851,9459.199999999255,10003.099999999627,10411,13371,14227,18763,20011,20835,24659.099999999627,25155.099999999627,27163.199999999255,27459.099999999627,28723,29418.89999999851,30122.799999998882,30387,30915],"straightlining":0.7692307692307693,"zigzagging":0.3333333333333333,"honeypot":0,"survey":"bisbas","trial_type":"survey-template","trial_index":3,"time_elapsed":116168,"internal_node_id":"0.0-3.0","task_version":"prescreen-v0.3","browser_interactions":0,"infrequency":0},{"responses":{"Q01":"1","Q02":"1","Q03":"3"},"rt":11133,"radio_events":[4380.4000000003725,5932.5,6612.4000000003725,8812.400000000373,10612.299999998882],"key_events":[],"mouse_events":[3516.4000000003725,4380.4000000003725,5932.5,6612.4000000003725,8812.400000000373,10284.299999998882,10612.299999998882,11132.400000000373],"survey":"map","page":1,"trial_type":"survey-map","trial_index":4,"time_elapsed":127303,"internal_node_id":"0.0-4.0","task_version":"prescreen-v0.3","browser_interactions":0},{"responses":{"Q04":"1","Q05":"1","Q06":"2"},"rt":6190.10000000149,"radio_events":[2581.5,4125.5,4949.700000001118],"key_events":[],"mouse_events":[2581.5,4125.5,4949.700000001118,6189.60000000149],"survey":"map","page":2,"trial_type":"survey-map","trial_index":5,"time_elapsed":133495,"internal_node_id":"0.0-5.0","task_version":"prescreen-v0.3","browser_interactions":0},{"responses":{"Q07":"3","Q08":"3","Q09":"2"},"rt":9102.39999999851,"radio_events":[3870.0999999996275,6038,8582],"key_events":[],"mouse_events":[3870.0999999996275,6038,8182,8582,9102],"survey":"map","page":3,"trial_type":"survey-map","trial_index":6,"time_elapsed":142599,"internal_node_id":"0.0-6.0","task_version":"prescreen-v0.3","browser_interactions":0},{"responses":{"Q10":"2","Q11":"2","Q12":"3","Q13":"2","Q16":"0","Q14":"2","Q15":"2"},"rt":21182.799999998882,"radio_events":[2502,4533.9000000003725,8021.9000000003725,12726,15541.900000000373,19725.900000000373,20534],"key_events":[],"mouse_events":[2502,4533.9000000003725,7286,8021.9000000003725,12726,15541.900000000373,18158.199999999255,18477.900000000373,19149.900000000373,19725.900000000373,20534,21182],"survey":"map","page":4,"trial_type":"survey-map","trial_index":7,"time_elapsed":163783,"internal_node_id":"0.0-7.0","task_version":"prescreen-v0.3","browser_interactions":0,"infrequency":0},{"view_history":[{"page_index":0,"viewing_time":2029.699999999255},{"page_index":1,"viewing_time":2887.9000000003725}],"rt":4917.89999999851,"trial_type":"instructions","trial_index":8,"time_elapsed":168701,"internal_node_id":"0.0-8.0","task_version":"prescreen-v0.3"},{"responses":{"01":"No","02":"No","03":"No","04":"Yes","04_ages_7":"7","04_ages_8":"8","04_ages_9":"9","04_ages_10":"10","04_ages_11":"11","04_ages_12":"12","04_ages_13":"13","04_ages_14":"14","04_ages_15":"15","05":"No","06":"No"},"rt":25262.900000000373,"item_order":[0,1,2,3,4,5],"radio_events":[10796.599999999627,11652.400000000373,13204.400000000373,13772.400000000373,23108.5,24612.5],"checkbox_events":[18228.699999999255,18796.599999999627,19380.5,19724.5,20044.5,20724.300000000745,21036.599999999627,21532.300000000745,22180.400000000373],"key_events":[],"mouse_events":[0.09999999962747097,8044.5,9060.400000000373,10796.599999999627,11652.400000000373,11996.5,12564.400000000373,13204.400000000373,13772.400000000373,18228.699999999255,18796.599999999627,19084.5,19380.5,19724.5,20044.5,20356.5,20724.300000000745,21036.599999999627,21532.300000000745,22180.400000000373,23108.5,24612.5,25260.5],"honeypot":0,"survey":"mace","page":1,"trial_type":"survey-mace","trial_index":9,"time_elapsed":193968,"internal_node_id":"0.0-9.0","task_version":"prescreen-v0.3","browser_interactions":0},{"responses":{"01":"No","02":"No","03":"No","04":"No","05":"No","06":"No","07":"No","08":"No"},"rt":12797.5,"item_order":[0,1,2,3,4,5,6,7],"radio_events":[2362.699999999255,4218.699999999255,5090.5999999996275,6274.4000000003725,6586.5999999996275,7106.699999999255,9426.599999999627,11586.599999999627,12026.699999999255],"checkbox_events":[],"key_events":[],"mouse_events":[2362.699999999255,3026.5999999996275,3922.5,4218.699999999255,4754.5999999996275,5090.5999999996275,5978.5999999996275,6274.4000000003725,6586.5999999996275,7106.699999999255,9426.599999999627,10074.699999999255,10858.900000000373,11586.599999999627,12026.699999999255,12794.5],"honeypot":0,"survey":"mace","page":2,"trial_type":"survey-mace","trial_index":10,"time_elapsed":206769,"internal_node_id":"0.0-10.0","task_version":"prescreen-v0.3","browser_interactions":0},{"responses":{"01":"No","02":"No","03":"No","04":"No"},"rt":6316.199999999255,"item_order":[0,1,2,3],"radio_events":[3970.5,4546.5999999996275,5450.5999999996275,5986.5999999996275],"checkbox_events":[],"key_events":[],"mouse_events":[1810.4000000003725,2506.9000000003725,2890.5999999996275,3522.5,3970.5,4546.5999999996275,5042.5999999996275,5450.5999999996275,5986.5999999996275,6314.5999999996275],"honeypot":0,"survey":"mace","page":3,"trial_type":"survey-mace","trial_index":11,"time_elapsed":213087,"internal_node_id":"0.0-11.0","task_version":"prescreen-v0.3","browser_interactions":0},{"responses":{"01":"No","02":"No"},"rt":2981.2000000011176,"item_order":[0,1],"radio_events":[1332.5,2004.5],"checkbox_events":[],"key_events":[],"mouse_events":[1332.5,2004.5,2980.5],"honeypot":0,"survey":"mace","page":4,"trial_type":"survey-mace","trial_index":12,"time_elapsed":216070,"internal_node_id":"0.0-12.0","task_version":"prescreen-v0.3","browser_interactions":0},{"responses":{"01":"Yes","01_ages_9":"9","01_ages_10":"10","01_ages_11":"11","01_ages_12":"12","02":"Yes","02_ages_9":"9","02_ages_10":"10","02_ages_11":"11","02_ages_12":"12","03":"No","04":"No","05":"No"},"rt":29590.099999999627,"item_order":[0,1,2,3,4],"radio_events":[1637.199999999255,4725.0999999996275,17181.199999999255,27213.199999999255,27669.099999999627,29093.099999999627],"checkbox_events":[6509.0999999996275,6965.199999999255,7317,7789.0999999996275,18277.199999999255,18597.199999999255,19045.099999999627,19716.900000000373],"key_events":[],"mouse_events":[797.0999999996275,1637.199999999255,3229.199999999255,3605.199999999255,3965,4725.0999999996275,6509.0999999996275,6965.199999999255,7317,7789.0999999996275,17181.199999999255,18277.199999999255,18597.199999999255,19045.099999999627,19716.900000000373,24805.299999998882,27213.199999999255,27669.099999999627,28309.199999999255,29093.099999999627,29589],"honeypot":0,"survey":"mace","page":5,"trial_type":"survey-mace","trial_index":13,"time_elapsed":245661,"internal_node_id":"0.0-13.0","task_version":"prescreen-v0.3","browser_interactions":0},{"responses":{"01":"Yes","01_ages_9":"9","01_ages_10":"10","01_ages_11":"11","01_ages_12":"12","01_ages_13":"13","01_ages_14":"14","01_ages_15":"15","01_ages_16":"16","01_ages_17":"17","02":"Yes","02_ages_9":"9","02_ages_10":"10","02_ages_11":"11","02_ages_12":"12","02_ages_13":"13","02_ages_14":"14","02_ages_15":"15","02_ages_16":"16","02_ages_17":"17","03":"Yes","03_ages_9":"9","03_ages_10":"10","03_ages_11":"11","03_ages_12":"12","03_ages_13":"13","03_ages_14":"14","03_ages_15":"15","03_ages_16":"16","03_ages_17":"17","04":"Yes","04_ages_9":"9","04_ages_10":"10","04_ages_11":"11","04_ages_12":"12","04_ages_13":"13","04_ages_14":"14","04_ages_15":"15","04_ages_16":"16","04_ages_17":"17","05":"Yes","05_ages_9":"9","05_ages_10":"10","05_ages_11":"11","05_ages_12":"12","05_ages_13":"13","05_ages_14":"14","05_ages_15":"15","05_ages_16":"16","05_ages_17":"17"},"rt":52095.60000000149,"item_order":[0,1,2,3,4],"radio_events":[6653.4000000003725,7869.5,13549.5,21949.300000000745,28413.5,31389.400000000373,33021.40000000037,34069.40000000037],"checkbox_events":[16477.400000000373,17269.400000000373,17565.400000000373,17925.400000000373,18301.400000000373,18813.400000000373,19181.400000000373,19509.300000000745,21293.400000000373,22989.400000000373,23277.300000000745,23773.400000000373,24293.200000001118,24789.400000000373,25269.400000000373,26309.300000000745,26717.300000000745,27149.300000000745,35437.40000000037,35821.40000000037,36293.40000000037,37269.40000000037,37669.40000000037,38237.40000000037,38661.40000000037,39317.5,39685.5,40837.5,41165.40000000037,41501.40000000037,41837.40000000037,42213.40000000037,42605.300000000745,43581.5,43885.40000000037,44541.300000000745,45957.40000000037,47349.40000000037,47749.300000000745,48341.40000000037,48765.40000000037,49213.40000000037,50653.40000000037,51005.40000000037,51397.40000000037],"key_events":[],"mouse_events":[3901.300000000745,5429.300000000745,6221.200000001118,6653.4000000003725,7869.5,12533.200000001118,13125.300000000745,13549.5,16477.400000000373,16781.200000001118,17269.400000000373,17565.400000000373,17925.400000000373,18301.400000000373,18813.400000000373,19181.400000000373,19509.300000000745,20077.300000000745,21293.400000000373,21949.300000000745,22989.400000000373,23277.300000000745,23773.400000000373,24293.200000001118,24789.400000000373,25269.400000000373,25925.400000000373,26309.300000000745,26717.300000000745,27149.300000000745,28413.5,30381.5,31029.400000000373,31389.400000000373,33021.40000000037,34069.40000000037,35437.40000000037,35821.40000000037,36293.40000000037,36670.10000000149,37269.40000000037,37669.40000000037,38237.40000000037,38661.40000000037,39317.5,39685.5,40837.5,41165.40000000037,41501.40000000037,41837.40000000037,42213.40000000037,42605.300000000745,42989.20000000112,43581.5,43885.40000000037,44541.300000000745,45957.40000000037,46661.5,47349.40000000037,47749.300000000745,48341.40000000037,48765.40000000037,49213.40000000037,49637.40000000037,50093.300000000745,50653.40000000037,51005.40000000037,51397.40000000037,52093.70000000112],"honeypot":0,"survey":"mace","page":6,"trial_type":"survey-mace","trial_index":14,"time_elapsed":297758,"internal_node_id":"0.0-14.0","task_version":"prescreen-v0.3","browser_interactions":0},{"responses":{"01":"No","02":"No","03":"No","04":"No","05":"No","06":"No","07":"No"},"rt":10917.800000000745,"item_order":[0,1,2,3,4,5,6],"radio_events":[2283.300000000745,6243.199999999255,6643.0999999996275,7307.199999999255,8003.199999999255,8931.099999999627,9787.099999999627],"checkbox_events":[],"key_events":[],"mouse_events":[2283.300000000745,3787.5,5027,5483,6243.199999999255,6643.0999999996275,7307.199999999255,8003.199999999255,8931.099999999627,9787.099999999627,10218.900000000373,10915.099999999627],"honeypot":0,"survey":"mace","page":7,"trial_type":"survey-mace","trial_index":15,"time_elapsed":308678,"internal_node_id":"0.0-15.0","task_version":"prescreen-v0.3","browser_interactions":0},{"responses":{"01":"No","02":"Yes","02_ages_9":"9","02_ages_10":"10","02_ages_11":"11","02_ages_12":"12","02_ages_13":"13","02_ages_14":"14","03":"Yes","03_ages_9":"9","03_ages_10":"10","03_ages_11":"11","03_ages_12":"12","03_ages_13":"13","03_ages_14":"14","03_ages_15":"15","03_ages_16":"16","03_ages_17":"17","03_ages_18":"18","04":"No"},"rt":20612.700000001118,"item_order":[0,1,2,3],"radio_events":[6234.9000000003725,7179,13347.099999999627,20123.099999999627],"checkbox_events":[8274.800000000745,8627,9242.900000000373,9819.099999999627,10323.099999999627,10819.099999999627,14667,15299.099999999627,15667,16011.200000001118,16458.900000000373,17171,17843.200000001118,18539.099999999627,18843,19515],"key_events":[],"mouse_events":[5242.9000000003725,6234.9000000003725,7179,8274.800000000745,8627,8955.5,9242.900000000373,9530.900000000373,9819.099999999627,10323.099999999627,10819.099999999627,13347.099999999627,14667,14947.099999999627,15299.099999999627,15667,16011.200000001118,16458.900000000373,16867.099999999627,17171,17499,17843.200000001118,18179,18539.099999999627,18843,19515,20123.099999999627,20611.200000001118],"honeypot":0,"survey":"mace","page":8,"trial_type":"survey-mace","trial_index":16,"time_elapsed":329293,"internal_node_id":"0.0-16.0","task_version":"prescreen-v0.3","browser_interactions":0},{"responses":{"01":"Yes","01_ages_1":"1","01_ages_2":"2","01_ages_3":"3","01_ages_4":"4","01_ages_5":"5","01_ages_6":"6","01_ages_7":"7","01_ages_8":"8","01_ages_9":"9","01_ages_10":"10","01_ages_11":"11","01_ages_12":"12","01_ages_13":"13","01_ages_14":"14","01_ages_15":"15","01_ages_16":"16","01_ages_17":"17","01_ages_18":"18","02":"Yes","02_ages_1":"1","02_ages_2":"2","02_ages_3":"3","02_ages_4":"4","02_ages_5":"5","02_ages_6":"6","02_ages_7":"7","02_ages_8":"8","02_ages_9":"9","02_ages_10":"10","02_ages_11":"11","02_ages_12":"12","02_ages_13":"13","02_ages_14":"14","02_ages_15":"15","02_ages_16":"16","02_ages_17":"17","02_ages_18":"18","03":"No","04":"Yes","04_ages_1":"1","04_ages_2":"2","04_ages_3":"3","04_ages_4":"4","04_ages_5":"5","04_ages_6":"6","04_ages_7":"7","04_ages_8":"8","04_ages_9":"9","04_ages_10":"10","04_ages_11":"11","04_ages_12":"12","04_ages_13":"13","04_ages_14":"14","04_ages_15":"15","04_ages_16":"16","04_ages_17":"17","04_ages_18":"18"},"rt":49053.800000000745,"item_order":[0,1,2,3],"radio_events":[2035.9000000003725,19572,23716,24476.200000001118],"checkbox_events":[7516.0999999996275,8412.099999999627,8780.099999999627,9540.200000001118,10652,11236,11572.099999999627,12140.099999999627,12508,13444.099999999627,14100.099999999627,14452.099999999627,14900.099999999627,15644,16220.099999999627,16836.300000000745,17380.099999999627,17916,26084.099999999627,26460.200000001118,26820.200000001118,27851.900000000373,28780.099999999627,29364,30716.200000001118,31036,31436,31852.099999999627,32444,33004.09999999963,33683.800000000745,34180.09999999963,34644.09999999963,36132.09999999963,37852,38220.09999999963,39828,40276.09999999963,40692.20000000112,41140,41588,42164.09999999963,42604.09999999963,43244.09999999963,43644.09999999963,44188.09999999963,44740.20000000112,45420.09999999963,46084.09999999963,46452.09999999963,46860.09999999963,47292.09999999963,47756.09999999963,48204.20000000112],"key_events":[],"mouse_events":[2035.9000000003725,7516.0999999996275,8412.099999999627,8780.099999999627,9115.900000000373,9540.200000001118,10123.900000000373,10652,11236,11572.099999999627,11900.099999999627,12140.099999999627,12508,12868,13444.099999999627,14100.099999999627,14452.099999999627,14900.099999999627,15644,16220.099999999627,16836.300000000745,17380.099999999627,17916,19572,20612.099999999627,21388,23291.900000000373,23716,24476.200000001118,26084.099999999627,26460.200000001118,26820.200000001118,27412.099999999627,27851.900000000373,28244.200000001118,28780.099999999627,29364,30420,30716.200000001118,31036,31436,31852.099999999627,32444,33004.09999999963,33683.800000000745,34180.09999999963,34644.09999999963,34956.20000000112,35252,36132.09999999963,36724,37852,38220.09999999963,39028.300000000745,39492.09999999963,39828,40276.09999999963,40692.20000000112,41140,41588,42164.09999999963,42604.09999999963,43244.09999999963,43644.09999999963,44188.09999999963,44740.20000000112,45100.5,45420.09999999963,45780,46084.09999999963,46452.09999999963,46860.09999999963,47292.09999999963,47756.09999999963,48204.20000000112,49052.20000000112],"honeypot":0,"survey":"mace","page":9,"trial_type":"survey-mace","trial_index":17,"time_elapsed":378348,"internal_node_id":"0.0-17.0","task_version":"prescreen-v0.3","browser_interactions":0},{"responses":{"01":"No","02":"No","03":"Yes","03_ages_12":"12","03_ages_13":"13","03_ages_14":"14","03_ages_15":"15","03_ages_16":"16","03_ages_17":"17","03_ages_18":"18","04":"No","05":"No","06":"Yes","06_ages_17":"17","07":"No","08":"No"},"rt":17854.5,"item_order":[0,1,2,3,4,5,6,7],"radio_events":[3307.39999999851,3859.5,4707.5,10211.299999998882,12011.5,13331.5,16627.699999999255,17467.5],"checkbox_events":[6211.5,7091.5,7419.5999999996275,7771.699999999255,8131.5,8539.5,9011.699999999255,15595.5],"key_events":[],"mouse_events":[2475.39999999851,3307.39999999851,3859.5,4707.5,6211.5,6531.89999999851,7091.5,7419.5999999996275,7771.699999999255,8131.5,8539.5,9011.699999999255,10211.299999998882,11131.599999999627,12011.5,12851.299999998882,13331.5,15595.5,16627.699999999255,17467.5,17851.5],"honeypot":0,"survey":"mace","page":10,"trial_type":"survey-mace","trial_index":18,"time_elapsed":396205,"internal_node_id":"0.0-18.0","task_version":"prescreen-v0.3","browser_interactions":0,"instructed":0},{"rt":2226.9000000003725,"trial_type":"mental-health-alert","trial_index":19,"time_elapsed":398434,"internal_node_id":"0.0-19.0","task_version":"prescreen-v0.3","interactions":"[{\"event\":\"blur\",\"trial\":2,\"time\":19647},{\"event\":\"focus\",\"trial\":2,\"time\":20842}]"}]