[{"view_history":[{"page_index":0,"viewing_time":3784.199999988079},{"page_index":1,"viewing_time":3303.800000011921},{"page_index":2,"viewing_time":3045.7999999523163},{"page_index":3,"viewing_time":1219.2000000476837}],"rt":11354.199999988079,"trial_type":"instructions","trial_index":0,"time_elapsed":11380,"internal_node_id":"0.0-0.0","task_version":"prescreen-v0.3"},{"rt":14864.600000023842,"responses":{"age":"20","gender-categorical":"Female","gender-free-response":"","ethnicity":"Not Hispanic or Latino","race":["White"],"education":"High school"},"trial_type":"survey-demo","trial_index":1,"time_elapsed":26251,"internal_node_id":"0.0-1.0","task_version":"prescreen-v0.3"},{"responses":{"Q16":"3","Q01":"1","Q20":"0","Q02":"1","Q09":"1","Q10":"1","Q06":"1","Q21":"2","Q19":"2","Q14":"2","Q05":"1","Q03":"0","Q11":"0","Q15":"2","Q13":"2","Q04":"1","Q18":"2","Q07":"1","Q08":"2","Q17":"0","Q12":"1"},"rt":115429.10000002384,"item_order":[15,0,19,1,8,9,5,20,18,13,4,2,10,14,12,3,17,6,7,16,11],"radio_events":[7346.100000023842,14814.5,18970.900000035763,21149.80000001192,33133,36509.80000001192,45192.80000001192,45995.10000002384,47077.40000003576,56279.200000047684,58444.5,62200.40000003576,69740.40000003576,73531.60000002384,78864.60000002384,81989.30000001192,85574.30000001192,92179.70000004768,100859.70000004768,106756.60000002384,110168.90000003576,114031.30000001192],"key_events":[],"mouse_events":[7346.100000023842,14814.5,18970.900000035763,21149.80000001192,33133,36509.80000001192,45192.80000001192,45995.10000002384,47077.40000003576,56279.200000047684,58444.5,62200.40000003576,69740.40000003576,73531.60000002384,78864.60000002384,81989.30000001192,85574.30000001192,92179.70000004768,100859.70000004768,106756.60000002384,110168.90000003576,114031.30000001192,115427.70000004768],"straightlining":0.42857142857142855,"zigzagging":0.5,"honeypot":0,"survey":"sns","trial_type":"survey-template","trial_index":2,"time_elapsed":141686,"internal_node_id":"0.0-2.0","task_version":"prescreen-v0.3","browser_interactions":0,"infrequency":0.5},{"responses":{"Q11":"2","Q04":"3","Q13":"0","Q12":"1","Q10":"2","Q05":"2","Q02":"2","Q09":"2","Q03":"2","Q08":"2","Q07":"3","Q06":"3","Q01":"3"},"rt":98141.5,"item_order":[10,3,12,11,9,4,1,8,2,7,6,5,0],"radio_events":[15954.799999952316,18162.19999998808,37893,39778.69999998808,49361.5,66977,71857.79999995232,74403.09999996424,78294.19999998808,83211.19999998808,84114.59999996424,88744.19999998808,95546],"key_events":[],"mouse_events":[11553,15954.799999952316,18162.19999998808,21551.69999998808,37893,39778.69999998808,47075.19999998808,49361.5,66977,71857.79999995232,74403.09999996424,78294.19999998808,81540.39999997616,83211.19999998808,84114.59999996424,85153.89999997616,88744.19999998808,91318.39999997616,95546,98139.89999997616],"straightlining":0.5384615384615384,"zigzagging":0.4166666666666667,"honeypot":0,"survey":"bisbas","trial_type":"survey-template","trial_index":3,"time_elapsed":239831,"internal_node_id":"0.0-3.0","task_version":"prescreen-v0.3","browser_interactions":0,"infrequency":0},{"responses":{"Q01":"3","Q02":"1","Q03":"3"},"rt":22840.69999998808,"radio_events":[6142.899999976158,12479,21298.5],"key_events":[],"mouse_events":[6142.899999976158,12479,20502.399999976158,21298.5,22839.69999998808],"survey":"map","page":1,"trial_type":"survey-map","trial_index":4,"time_elapsed":262677,"internal_node_id":"0.0-4.0","task_version":"prescreen-v0.3","browser_interactions":0},{"responses":{"Q04":"3","Q05":"3","Q06":"3"},"rt":24754.5,"radio_events":[6636.800000011921,18632.600000023842,23936.900000035763],"key_events":[],"mouse_events":[6636.800000011921,16567.400000035763,18632.600000023842,23936.900000035763,24753.80000001192],"survey":"map","page":2,"trial_type":"survey-map","trial_index":5,"time_elapsed":287434,"internal_node_id":"0.0-5.0","task_version":"prescreen-v0.3","browser_interactions":0},{"responses":{"Q07":"3","Q08":"0","Q09":"3"},"rt":14222.600000023842,"radio_events":[6919,9499.699999988079,13390.5],"key_events":[],"mouse_events":[6919,9499.699999988079,13390.5,14221.800000011921],"survey":"map","page":3,"trial_type":"survey-map","trial_index":6,"time_elapsed":301660,"internal_node_id":"0.0-6.0","task_version":"prescreen-v0.3","browser_interactions":0},{"responses":{"Q10":"3","Q11":"3","Q12":"1","Q13":"1","Q16":"0","Q14":"2","Q15":"1"},"rt":47570.80000001192,"radio_events":[4619.800000011921,6756.5,14875.600000023842,25365,31722.899999976158,37498.30000001192,40623.39999997616,45719.60000002384],"key_events":[],"mouse_events":[4619.800000011921,6756.5,12690.300000011921,13628.399999976158,14259.699999988079,14875.600000023842,25365,29808.80000001192,31722.899999976158,37498.30000001192,40623.39999997616,45719.60000002384,47569.10000002384],"survey":"map","page":4,"trial_type":"survey-map","trial_index":7,"time_elapsed":349235,"internal_node_id":"0.0-7.0","task_version":"prescreen-v0.3","browser_interactions":0,"infrequency":0},{"view_history":[{"page_index":0,"viewing_time":2961.7999999523163},{"page_index":1,"viewing_time":4198.200000047684}],"rt":7160.399999976158,"trial_type":"instructions","trial_index":8,"time_elapsed":356398,"internal_node_id":"0.0-8.0","task_version":"prescreen-v0.3"},{"responses":{"01":"Yes","01_ages_4":"4","01_ages_5":"5","01_ages_6":"6","01_ages_7":"7","01_ages_8":"8","02":"Yes","02_ages_9":"9","02_ages_10":"10","02_ages_11":"11","02_ages_12":"12","02_ages_13":"13","03":"No","04":"No","05":"No","06":"No"},"rt":83366.40000003576,"item_order":[0,1,2,3,4,5],"radio_events":[7246.5,31809.100000023842,45756.10000002384,48508.10000002384,51583,81477.40000003576],"checkbox_events":[12304.600000023842,12713.700000047684,13235.700000047684,13851.800000011921,14268.100000023842,15156.700000047684,15587.5,16044.800000011921,16748.600000023842,17315.30000001192,24994.900000035763,25724.700000047684,36301.700000047684,36711.5,37112.30000001192,40173.5,40581.60000002384,41125.90000003576,62696.90000003576,63722.60000002384,64182.90000003576,65665.60000002384,66131.10000002384,66725.30000001192,69364.30000001192,74689.40000003576,76704.30000001192,77620.90000003576],"key_events":[],"mouse_events":[0.20000004768371582,7246.5,12304.600000023842,12713.700000047684,13235.700000047684,13851.800000011921,14268.100000023842,14663.800000011921,15156.700000047684,15587.5,16044.800000011921,16748.600000023842,17315.30000001192,24255.80000001192,24994.900000035763,25724.700000047684,31809.100000023842,36301.700000047684,36711.5,37112.30000001192,37542.40000003576,40173.5,40581.60000002384,41125.90000003576,45756.10000002384,46622,48508.10000002384,49827.10000002384,51583,57767.60000002384,62696.90000003576,63077.10000002384,63722.60000002384,64182.90000003576,64732.30000001192,65665.60000002384,66131.10000002384,66725.30000001192,69364.30000001192,74689.40000003576,75778.5,76704.30000001192,77620.90000003576,81477.40000003576,83362.90000003576],"honeypot":0,"survey":"mace","page":1,"trial_type":"survey-mace","trial_index":9,"time_elapsed":439772,"internal_node_id":"0.0-9.0","task_version":"prescreen-v0.3","browser_interactions":0},{"responses":{"01":"No","02":"No","03":"Yes","03_ages_2":"2","04":"No","05":"No","06":"No","07":"No","08":"No"},"rt":17219,"item_order":[0,1,2,3,4,5,6,7],"radio_events":[3050.5,4476.699999988079,6506.699999988079,10360.899999976158,12216,13823.5,15429,16518.399999976158],"checkbox_events":[7829.399999976158],"key_events":[],"mouse_events":[3050.5,4476.699999988079,6506.699999988079,7829.399999976158,10360.899999976158,12216,13823.5,15429,16518.399999976158,17213.69999998808],"honeypot":0,"survey":"mace","page":2,"trial_type":"survey-mace","trial_index":10,"time_elapsed":456997,"internal_node_id":"0.0-10.0","task_version":"prescreen-v0.3","browser_interactions":0},{"responses":{"01":"No","02":"No","03":"No","04":"No"},"rt":12410.399999976158,"item_order":[0,1,2,3],"radio_events":[8236.899999976158,9174.399999976158,10150.199999988079,11117.5],"checkbox_events":[],"key_events":[],"mouse_events":[8236.899999976158,8823.399999976158,9174.399999976158,10150.199999988079,11117.5,12407.399999976158],"honeypot":0,"survey":"mace","page":3,"trial_type":"survey-mace","trial_index":11,"time_elapsed":469412,"internal_node_id":"0.0-11.0","task_version":"prescreen-v0.3","browser_interactions":0},{"responses":{"01":"No","02":"No"},"rt":10000.199999988079,"item_order":[0,1],"radio_events":[5782.5,6485.100000023842],"checkbox_events":[],"key_events":[],"mouse_events":[5782.5,6485.100000023842,9998.699999988079],"honeypot":0,"survey":"mace","page":4,"trial_type":"survey-mace","trial_index":12,"time_elapsed":479416,"internal_node_id":"0.0-12.0","task_version":"prescreen-v0.3","browser_interactions":0},{"responses":{"01":"No","02":"No","03":"No","04":"No","05":"No"},"rt":15895.199999988079,"item_order":[0,1,2,3,4],"radio_events":[6982.600000023842,9111.699999988079,11182.100000023842,12982.5,15181.899999976158],"checkbox_events":[],"key_events":[],"mouse_events":[6982.600000023842,9111.699999988079,11182.100000023842,12982.5,15181.899999976158,15891.699999988079],"honeypot":0,"survey":"mace","page":5,"trial_type":"survey-mace","trial_index":13,"time_elapsed":495315,"internal_node_id":"0.0-13.0","task_version":"prescreen-v0.3","browser_interactions":0},{"responses":{"01":"Yes","01_ages_4":"4","01_ages_5":"5","01_ages_6":"6","01_ages_7":"7","01_ages_8":"8","01_ages_9":"9","01_ages_10":"10","01_ages_11":"11","01_ages_12":"12","01_ages_13":"13","01_ages_14":"14","02":"Yes","02_ages_4":"4","02_ages_5":"5","02_ages_6":"6","02_ages_7":"7","02_ages_8":"8","02_ages_9":"9","02_ages_10":"10","02_ages_11":"11","02_ages_12":"12","02_ages_13":"13","03":"Yes","03_ages_11":"11","03_ages_12":"12","03_ages_13":"13","04":"Yes","04_ages_9":"9","04_ages_10":"10","04_ages_11":"11","04_ages_12":"12","04_ages_13":"13","04_ages_14":"14","05":"No"},"rt":40613.89999997616,"item_order":[0,1,2,3,4],"radio_events":[4299.199999988079,14670.699999988079,28167.600000023842,32704.69999998808,39994.89999997616],"checkbox_events":[6872,7238.5,7631.899999976158,8177.100000023842,8591.899999976158,9159.100000023842,9531.100000023842,10177.300000011921,11150.800000011921,11547,11976.600000023842,16792.80000001192,17237.399999976158,18125.80000001192,18542.399999976158,18964.19999998808,19717,20111.30000001192,21967.19999998808,22362.600000023842,23437.899999976158,29342.30000001192,29778.899999976158,30618.19999998808,33600.60000002384,34409.10000002384,34833.80000001192,35228.39999997616,35887.60000002384,36388.80000001192],"key_events":[],"mouse_events":[4299.199999988079,6872,7238.5,7631.899999976158,8177.100000023842,8591.899999976158,9159.100000023842,9531.100000023842,10177.300000011921,10606.100000023842,11150.800000011921,11547,11976.600000023842,14670.699999988079,16792.80000001192,17237.399999976158,17652.399999976158,18125.80000001192,18542.399999976158,18964.19999998808,19717,20111.30000001192,21967.19999998808,22362.600000023842,23437.899999976158,28167.600000023842,29342.30000001192,29778.899999976158,30618.19999998808,32704.69999998808,33600.60000002384,33923.19999998808,34409.10000002384,34833.80000001192,35228.39999997616,35887.60000002384,36388.80000001192,39994.89999997616,40610.60000002384],"honeypot":0,"survey":"mace","page":6,"trial_type":"survey-mace","trial_index":14,"time_elapsed":535935,"internal_node_id":"0.0-14.0","task_version":"prescreen-v0.3","browser_interactions":0},{"responses":{"01":"No","02":"No","03":"No","04":"No","05":"No","06":"No","07":"No"},"rt":16523,"item_order":[0,1,2,3,4,5,6],"radio_events":[4356.400000035763,9129.400000035763,10289.5,11715.5,13588.300000011921,14152,15866],"checkbox_events":[],"key_events":[],"mouse_events":[4356.400000035763,9129.400000035763,10289.5,11715.5,13588.300000011921,14152,15866,16518.30000001192],"honeypot":0,"survey":"mace","page":7,"trial_type":"survey-mace","trial_index":15,"time_elapsed":552463,"internal_node_id":"0.0-15.0","task_version":"prescreen-v0.3","browser_interactions":0},{"responses":{"01":"No","02":"No","03":"No","04":"No"},"rt":22404.899999976158,"item_order":[0,1,2,3],"radio_events":[7877.599999964237,16094.099999964237,19040,21705.80000001192],"checkbox_events":[],"key_events":[],"mouse_events":[7877.599999964237,16094.099999964237,19040,21705.80000001192,22402.099999964237],"honeypot":0,"survey":"mace","page":8,"trial_type":"survey-mace","trial_index":16,"time_elapsed":574871,"internal_node_id":"0.0-16.0","task_version":"prescreen-v0.3","browser_interactions":0},{"responses":{"01":"Yes","01_ages_1":"1","01_ages_2":"2","01_ages_3":"3","01_ages_4":"4","01_ages_5":"5","01_ages_6":"6","01_ages_7":"7","01_ages_8":"8","01_ages_9":"9","01_ages_10":"10","01_ages_11":"11","01_ages_12":"12","01_ages_13":"13","01_ages_14":"14","01_ages_15":"15","01_ages_16":"16","01_ages_17":"17","01_ages_18":"18","02":"Yes","02_ages_1":"1","02_ages_2":"2","02_ages_3":"3","02_ages_4":"4","02_ages_5":"5","02_ages_6":"6","02_ages_7":"7","02_ages_8":"8","02_ages_9":"9","02_ages_10":"10","02_ages_11":"11","02_ages_12":"12","02_ages_13":"13","02_ages_14":"14","02_ages_15":"15","02_ages_16":"16","02_ages_17":"17","02_ages_18":"18","03":"Yes","03_ages_1":"1","03_ages_2":"2","03_ages_3":"3","03_ages_4":"4","03_ages_5":"5","03_ages_6":"6","03_ages_7":"7","03_ages_8":"8","03_ages_9":"9","03_ages_10":"10","03_ages_11":"11","03_ages_12":"12","03_ages_13":"13","03_ages_14":"14","03_ages_15":"15","03_ages_16":"16","03_ages_17":"17","03_ages_18":"18","04":"Yes","04_ages_1":"1","04_ages_2":"2","04_ages_3":"3","04_ages_4":"4","04_ages_5":"5","04_ages_6":"6","04_ages_7":"7","04_ages_8":"8","04_ages_9":"9","04_ages_10":"10","04_ages_11":"11","04_ages_12":"12","04_ages_13":"13","04_ages_14":"14","04_ages_15":"15","04_ages_16":"16","04_ages_17":"17","04_ages_18":"18"},"rt":79888.10000002384,"item_order":[0,1,2,3],"radio_events":[9563.600000023842,28378.69999998808,46268.5,65570.80000001192],"checkbox_events":[11413.199999988079,12602.699999988079,13046.600000023842,13721.199999988079,14201.100000023842,15246.699999988079,15663.400000035763,17470.600000023842,17892.19999998808,18473.100000023842,18959.600000023842,19649,20087.5,20709.5,21391,22036.100000023842,23096.400000035763,23569.900000035763,29425.30000001192,30178.5,30557,30937.30000001192,31368.100000023842,32349.900000035763,34944.19999998808,35552.19999998808,35990.40000003576,36442.30000001192,37108.90000003576,37560.40000003576,38255.69999998808,38692.19999998808,39117.10000002384,39834.10000002384,40392.10000002384,40886,47594.19999998808,48568.5,48999,49436.30000001192,50102.90000003576,51062.60000002384,52383.19999998808,55055.19999998808,55865.19999998808,56339.10000002384,57292.19999998808,57678.69999998808,58303.90000003576,58731.90000003576,59421.60000002384,60517.80000001192,61270.5,61894.10000002384,67283.69999998808,67720.90000003576,68330.5,68738.30000001192,69743.19999998808,70151.30000001192,70566.60000002384,71821.60000002384,72481.19999998808,72939.69999998808,73627,74100.69999998808,74107.60000002384,74946.90000003576,75720,76193.69999998808,76953.40000003576,77677.5,78265.60000002384,79096.69999998808],"key_events":[],"mouse_events":[9563.600000023842,11413.199999988079,11879.400000035763,12602.699999988079,13046.600000023842,13721.199999988079,14201.100000023842,14838.300000011921,15246.699999988079,15663.400000035763,17074.900000035763,17470.600000023842,17892.19999998808,18473.100000023842,18959.600000023842,19649,20087.5,20709.5,21391,22036.100000023842,22572.900000035763,23096.400000035763,23569.900000035763,27533.19999998808,28378.69999998808,29425.30000001192,29805.100000023842,30178.5,30557,30937.30000001192,31368.100000023842,31790.600000023842,32349.900000035763,33659.90000003576,34537.5,34541.69999998808,34944.19999998808,35552.19999998808,35990.40000003576,36442.30000001192,37108.90000003576,37560.40000003576,38255.69999998808,38692.19999998808,39117.10000002384,39834.10000002384,40392.10000002384,40886,46268.5,47594.19999998808,47937.19999998808,48568.5,48999,49436.30000001192,50102.90000003576,50496.80000001192,51062.60000002384,51664.69999998808,52383.19999998808,55055.19999998808,55515.10000002384,55865.19999998808,56339.10000002384,56934.19999998808,57292.19999998808,57678.69999998808,58303.90000003576,58731.90000003576,59421.60000002384,59887.5,60517.80000001192,61270.5,61894.10000002384,65570.80000001192,67283.69999998808,67720.90000003576,68330.5,68738.30000001192,69390.60000002384,69743.19999998808,70151.30000001192,70566.60000002384,71290.80000001192,71821.60000002384,72481.19999998808,72939.69999998808,73627,74100.69999998808,74107.60000002384,74946.90000003576,75333.19999998808,75720,76193.69999998808,76616.90000003576,76953.40000003576,77677.5,78265.60000002384,78703.5,79096.69999998808,79885.5],"honeypot":0,"survey":"mace","page":9,"trial_type":"survey-mace","trial_index":17,"time_elapsed":654765,"internal_node_id":"0.0-17.0","task_version":"prescreen-v0.3","browser_interactions":0},{"responses":{"01":"No","02":"No","03":"No","04":"Yes","04_ages_17":"17","04_ages_18":"18","05":"No","06":"Yes","06_ages_17":"17","07":"Yes","07_ages_1":"1","07_ages_2":"2","07_ages_3":"3","07_ages_4":"4","07_ages_5":"5","07_ages_6":"6","07_ages_7":"7","07_ages_8":"8","07_ages_9":"9","07_ages_10":"10","07_ages_11":"11","07_ages_12":"12","07_ages_13":"13","07_ages_14":"14","07_ages_15":"15","07_ages_16":"16","07_ages_17":"17","07_ages_18":"18","08":"Yes","08_ages_1":"1","08_ages_2":"2","08_ages_3":"3","08_ages_4":"4","08_ages_5":"5","08_ages_6":"6","08_ages_7":"7","08_ages_8":"8","08_ages_9":"9","08_ages_10":"10","08_ages_11":"11","08_ages_12":"12","08_ages_13":"13","08_ages_14":"14","08_ages_15":"15","08_ages_16":"16","08_ages_17":"17","08_ages_18":"18"},"rt":53376.10000002384,"item_order":[0,1,2,3,4,5,6,7],"radio_events":[3756.7000000476837,4616.5,6738.700000047684,9634.800000011921,15798.5,18278.700000047684,23339.30000001192,40211.40000003576],"checkbox_events":[10931.300000011921,14414.800000011921,19289.900000035763,24571,25023.600000023842,25582.700000047684,26191.900000035763,26952.100000023842,28248,28663.900000035763,29081.200000047684,30028,30549.900000035763,31581.700000047684,32054.900000035763,32806.10000002384,33287.200000047684,34012,34500,35309.5,36650.700000047684,41868.200000047684,42821.200000047684,43287.40000003576,43931.90000003576,44333.700000047684,45480.40000003576,46548.90000003576,47257.700000047684,47731.90000003576,48204.700000047684,48943.30000001192,49365.40000003576,49818,50290,51114.60000002384,51681.30000001192,52132.90000003576,52632.90000003576],"key_events":[],"mouse_events":[2745.7000000476837,3756.7000000476837,4616.5,6738.700000047684,9634.800000011921,10931.300000011921,14414.800000011921,15798.5,18278.700000047684,19289.900000035763,23339.30000001192,24571,25023.600000023842,25582.700000047684,26191.900000035763,26952.100000023842,27619.900000035763,28248,28663.900000035763,29081.200000047684,30028,30549.900000035763,31179.400000035763,31581.700000047684,32054.900000035763,32806.10000002384,33287.200000047684,34012,34500,35309.5,35711,36234.30000001192,36650.700000047684,40211.40000003576,41868.200000047684,42283.200000047684,42821.200000047684,43287.40000003576,43931.90000003576,44333.700000047684,45480.40000003576,46548.90000003576,47257.700000047684,47731.90000003576,48204.700000047684,48943.30000001192,49365.40000003576,49818,50290,51114.60000002384,51681.30000001192,52132.90000003576,52632.90000003576,53373.10000002384],"honeypot":0,"survey":"mace","page":10,"trial_type":"survey-mace","trial_index":18,"time_elapsed":708144,"internal_node_id":"0.0-18.0","task_version":"prescreen-v0.3","browser_interactions":0,"instructed":0},{"rt":7568.5,"trial_type":"mental-health-alert","trial_index":19,"time_elapsed":715715,"internal_node_id":"0.0-19.0","task_version":"prescreen-v0.3","interactions":"[]"}]