[{"view_history":[{"page_index":0,"viewing_time":4334.37000005506},{"page_index":1,"viewing_time":4167.505000019446},{"page_index":2,"viewing_time":2738.8749999227},{"page_index":3,"viewing_time":2052.860000054352}],"rt":13294.33499998413,"trial_type":"instructions","trial_index":0,"time_elapsed":13309,"internal_node_id":"0.0-0.0","task_version":"prescreen-v0.3"},{"rt":27388.199999928474,"responses":{"age":"20","gender-categorical":"Female","gender-free-response":"","ethnicity":"Not Hispanic or Latino","race":["White"],"education":"Some college"},"trial_type":"survey-demo","trial_index":1,"time_elapsed":40703,"internal_node_id":"0.0-1.0","task_version":"prescreen-v0.3"},{"responses":{"Q16":"3","Q06":"1","Q18":"3","Q04":"2","Q08":"2","Q13":"3","Q05":"0","Q20":"0","Q03":"2","Q14":"3","Q11":"0","Q02":"3","Q12":"2","Q10":"1","Q21":"3","Q07":"1","Q15":"3","Q09":"0","Q01":"2","Q19":"1","Q17":"1"},"rt":113452.91500003077,"item_order":[15,5,17,3,7,12,4,19,2,13,10,1,11,9,20,6,14,8,0,18,16],"radio_events":[6665.039999992587,8547.995000029914,16174.005000037141,21754.715000046417,27244.925000006333,32354.425000026822,34693.76000005286,44543.13500004355,47593.5349999927,56693.90499999281,59901.795000070706,64116.38500005938,66554.15500001982,73254.85000002664,77738.9850000618,82258.57499998529,93129.99000004493,96288.50500006229,99602.6749999728,103737.5250000041,108609.5750000095,112337.74500002619],"key_events":[],"mouse_events":[6665.039999992587,8547.995000029914,16174.005000037141,21754.715000046417,27244.925000006333,32354.425000026822,34693.76000005286,44543.13500004355,47593.5349999927,56693.90499999281,59901.795000070706,64116.38500005938,66554.15500001982,73254.85000002664,77738.9850000618,82258.57499998529,93129.99000004493,96288.50500006229,99602.6749999728,103737.5250000041,108609.5750000095,112337.74500002619,113450.81000006758],"straightlining":0.3333333333333333,"zigzagging":0.5,"honeypot":0,"survey":"sns","trial_type":"survey-template","trial_index":2,"time_elapsed":154161,"internal_node_id":"0.0-2.0","task_version":"prescreen-v0.3","browser_interactions":0,"infrequency":0},{"responses":{"Q06":"2","Q07":"2","Q02":"3","Q04":"3","Q05":"2","Q09":"1","Q08":"1","Q01":"3","Q03":"3","Q12":"0","Q13":"0","Q10":"1","Q11":"1"},"rt":61418.36999997031,"item_order":[5,6,1,3,4,8,7,0,2,11,12,9,10],"radio_events":[11651.599999982864,14657.104999991134,16906.74499992747,19855.494999908842,23656.499999924563,26974.790000007488,30283.80500001367,32592.1199999284,36587.17999991495,43986.49999999907,49038.18999999203,55243.95499995444,60108.91499998979],"key_events":[],"mouse_events":[11651.599999982864,14657.104999991134,16906.74499992747,19855.494999908842,23656.499999924563,26974.790000007488,30283.80500001367,32592.1199999284,36587.17999991495,43986.49999999907,49038.18999999203,55243.95499995444,60108.91499998979,61417.14999999385],"straightlining":0.3076923076923077,"zigzagging":0.4166666666666667,"honeypot":0,"survey":"bisbas","trial_type":"survey-template","trial_index":3,"time_elapsed":215582,"internal_node_id":"0.0-3.0","task_version":"prescreen-v0.3","browser_interactions":0,"infrequency":0},{"responses":{"Q01":"2","Q02":"2","Q03":"3"},"rt":30122.62500007637,"radio_events":[13018.760000006296,18108.130000066012,25593.085000058636,26937.864999985322,28562.370000057854],"key_events":[],"mouse_events":[13018.760000006296,18108.130000066012,25593.085000058636,26937.864999985322,28562.370000057854,30121.90000002738],"survey":"map","page":1,"trial_type":"survey-map","trial_index":4,"time_elapsed":245719,"internal_node_id":"0.0-4.0","task_version":"prescreen-v0.3","browser_interactions":0},{"responses":{"Q04":"3","Q05":"1","Q06":"2"},"rt":16985.76499999035,"radio_events":[4236.380000016652,9532.27500000503,16091.355000040494],"key_events":[],"mouse_events":[4236.380000016652,9532.27500000503,16091.355000040494,16985.235000029206],"survey":"map","page":2,"trial_type":"survey-map","trial_index":5,"time_elapsed":262710,"internal_node_id":"0.0-5.0","task_version":"prescreen-v0.3","browser_interactions":0},{"responses":{"Q07":"2","Q08":"4","Q09":"4"},"rt":20235.495000029914,"radio_events":[8618.38500003796,11258.559999987483,19171.354999998584],"key_events":[],"mouse_events":[8618.38500003796,11258.559999987483,19171.354999998584,20234.91500003729],"survey":"map","page":3,"trial_type":"survey-map","trial_index":6,"time_elapsed":282948,"internal_node_id":"0.0-6.0","task_version":"prescreen-v0.3","browser_interactions":0},{"responses":{"Q10":"1","Q11":"2","Q12":"3","Q13":"3","Q16":"0","Q14":"2","Q15":"1"},"rt":37897.61500002351,"radio_events":[6219.3500000284985,11970.070000039414,18614.184999954887,23771.719999960624,27353.80499996245,33730.10000004433,37052.009999984875],"key_events":[],"mouse_events":[6219.3500000284985,11970.070000039414,18614.184999954887,22602.085000020452,23771.719999960624,27353.80499996245,33730.10000004433,37052.009999984875,37896.44000004046],"survey":"map","page":4,"trial_type":"survey-map","trial_index":7,"time_elapsed":320849,"internal_node_id":"0.0-7.0","task_version":"prescreen-v0.3","browser_interactions":0,"infrequency":0},{"view_history":[{"page_index":0,"viewing_time":4091.2099999841303},{"page_index":1,"viewing_time":3861.750000040047}],"rt":7953.180000069551,"trial_type":"instructions","trial_index":8,"time_elapsed":328803,"internal_node_id":"0.0-8.0","task_version":"prescreen-v0.3"},{"responses":{"01":"Yes","01_ages_9":"9","01_ages_10":"10","01_ages_11":"11","01_ages_12":"12","01_ages_13":"13","01_ages_14":"14","01_ages_15":"15","01_ages_16":"16","01_ages_17":"17","01_ages_18":"18","02":"Yes","02_ages_5":"5","02_ages_6":"6","02_ages_7":"7","02_ages_8":"8","02_ages_9":"9","02_ages_10":"10","02_ages_11":"11","02_ages_12":"12","02_ages_13":"13","02_ages_14":"14","02_ages_15":"15","02_ages_16":"16","02_ages_17":"17","02_ages_18":"18","03":"Yes","03_ages_7":"7","03_ages_8":"8","03_ages_11":"11","03_ages_12":"12","03_ages_13":"13","03_ages_17":"17","03_ages_18":"18","04":"Yes","04_ages_10":"10","04_ages_11":"11","04_ages_12":"12","04_ages_13":"13","04_ages_14":"14","04_ages_15":"15","04_ages_16":"16","05":"No","06":"Yes","06_ages_8":"8","06_ages_9":"9","06_ages_10":"10","06_ages_11":"11","06_ages_12":"12","06_ages_13":"13","06_ages_14":"14","06_ages_18":"18"},"rt":131038.83999993559,"item_order":[0,1,2,3,4,5],"radio_events":[4901.429999968968,28758.19500000216,45836.46499994211,68626.99999997858,93686.38500000816,96472.24499995355],"checkbox_events":[17483.60999999568,18246.57999991905,19018.03999999538,19757.63000000734,20504.96499997098,21447.29499996174,22364.82499993872,23283.070000004955,24534.119999967515,26085.69500001613,34992.84999992233,36008.234999957494,37324.15499992203,38014.74999997299,38632.059999974445,39290.09499994572,39777.52999996301,40215.74000001419,40678.6200000206,41182.56999994628,41718.41999993194,42156.895000021905,42628.00999998581,43066.63499993738,48459.65999993496,49223.334999987856,58531.60999994725,60432.13999993168,64436.28999998327,64915.41999997571,65410.80999991391,77951.07499998994,78397.69999997225,78909.8600000143,79412.9950000206,79892.07499998156,80363.1850000238,82759.02999995742,107864.43499999586,108722.02500002459,109464.90000002086,110406.48499992676,110861.23999999836,111373.16499999724,111844.06999999192,112307.07999994047,112792.97999991104,113923.4549999237,114426.72499991022,118706.5050000092,119453.95999995526,127851.81000002194],"key_events":[],"mouse_events":[0.06999995093792677,4901.429999968968,17483.60999999568,18246.57999991905,19018.03999999538,19757.63000000734,20504.96499997098,21447.29499996174,22364.82499993872,23283.070000004955,24534.119999967515,26085.69500001613,28758.19500000216,34992.84999992233,36008.234999957494,37324.15499992203,38014.74999997299,38632.059999974445,39290.09499994572,39777.52999996301,40215.74000001419,40678.6200000206,41182.56999994628,41718.41999993194,42156.895000021905,42628.00999998581,43066.63499993738,45836.46499994211,48459.65999993496,49223.334999987856,58531.60999994725,60432.13999993168,64436.28999998327,64915.41999997571,65410.80999991391,68626.99999997858,77951.07499998994,78397.69999997225,78909.8600000143,79412.9950000206,79892.07499998156,80363.1850000238,82759.02999995742,93686.38500000816,96472.24499995355,107864.43499999586,108722.02500002459,109464.90000002086,109951.61999994889,110406.48499992676,110861.23999999836,111373.16499999724,111844.06999999192,112307.07999994047,112792.97999991104,113289.90999993403,113923.4549999237,114426.72499991022,118706.5050000092,119453.95999995526,127851.81000002194,131035.9499999322],"honeypot":0,"survey":"mace","page":1,"trial_type":"survey-mace","trial_index":9,"time_elapsed":459847,"internal_node_id":"0.0-9.0","task_version":"prescreen-v0.3","browser_interactions":0},{"responses":{"01":"Yes","01_ages_6":"6","01_ages_7":"7","01_ages_8":"8","01_ages_9":"9","01_ages_10":"10","01_ages_11":"11","01_ages_12":"12","02":"No","03":"Yes","03_ages_4":"4","03_ages_5":"5","03_ages_6":"6","03_ages_7":"7","03_ages_8":"8","03_ages_9":"9","03_ages_10":"10","04":"Yes","04_ages_4":"4","04_ages_5":"5","04_ages_6":"6","04_ages_7":"7","04_ages_8":"8","04_ages_9":"9","04_ages_10":"10","05":"Yes","05_ages_4":"4","05_ages_5":"5","05_ages_6":"6","05_ages_7":"7","05_ages_8":"8","05_ages_9":"9","05_ages_10":"10","06":"Yes","06_ages_13":"13","06_ages_14":"14","06_ages_15":"15","07":"No","08":"No"},"rt":77299.87000010442,"item_order":[0,1,2,3,4,5,6,7],"radio_events":[12362.560000037774,26048.02000010386,29800.38000002969,45416.87500011176,55823.76000005752,63766.12500008196,73657.60000003502,74713.59500009567],"checkbox_events":[18154.280000017025,18690.200000070035,19234.105000039563,19794.45000004489,20395.8200000925,21053.89500001911,21913.86000008788,32431.455000070855,32902.415000018664,33389.7200000938,34404.92000000086,34867.90000007022,35599.11000006832,36459.530000109226,46626.56500004232,47227.20000008121,47722.47000003699,48274.890000000596,48924.725000048056,49411.47000005003,49979.21000001952,56985.2050000336,57569.965000031516,58065.260000061244,59161.38000006322,60054.605000070296,61029.45000003092,61565.11500000488,65341.570000047795,65910.39000009187,66503.00500006415],"key_events":[],"mouse_events":[12362.560000037774,18154.280000017025,18690.200000070035,19234.105000039563,19794.45000004489,20395.8200000925,21053.89500001911,21913.86000008788,26048.02000010386,29800.38000002969,32431.455000070855,32902.415000018664,33389.7200000938,33844.470000010915,34404.92000000086,34867.90000007022,35599.11000006832,36459.530000109226,45416.87500011176,46626.56500004232,47227.20000008121,47722.47000003699,48274.890000000596,48924.725000048056,49411.47000005003,49979.21000001952,55823.76000005752,56985.2050000336,57569.965000031516,58065.260000061244,58625.360000063665,59161.38000006322,59624.2950001033,60054.605000070296,60582.43500010576,61029.45000003092,61565.11500000488,63766.12500008196,65341.570000047795,65910.39000009187,66503.00500006415,67201.22500008438,73657.60000003502,74713.59500009567,77296.1400001077],"honeypot":0,"survey":"mace","page":2,"trial_type":"survey-mace","trial_index":10,"time_elapsed":537151,"internal_node_id":"0.0-10.0","task_version":"prescreen-v0.3","browser_interactions":0},{"responses":{"01":"Yes","01_ages_15":"15","01_ages_16":"16","01_ages_17":"17","01_ages_18":"18","02":"No","03":"Yes","03_ages_13":"13","03_ages_14":"14","03_ages_15":"15","03_ages_16":"16","04":"No"},"rt":29539.480000035837,"item_order":[0,1,2,3],"radio_events":[3208.8049999438226,14391.115000005811,16405.21500003524,28847.160000004806],"checkbox_events":[8568.109999992885,9193.51499993354,10557.689999928698,11702.64999999199,22041.399999987334,22959.30500002578,23568.465000018477,24153.124999953434,25493.224999983795,27515.804999973625],"key_events":[],"mouse_events":[3208.8049999438226,8568.109999992885,9193.51499993354,9900.030000018887,10557.689999928698,11702.64999999199,14391.115000005811,16405.21500003524,22041.399999987334,22959.30500002578,23568.465000018477,24153.124999953434,24721.434999955818,25493.224999983795,27515.804999973625,28847.160000004806,29537.490000016987],"honeypot":0,"survey":"mace","page":3,"trial_type":"survey-mace","trial_index":11,"time_elapsed":566694,"internal_node_id":"0.0-11.0","task_version":"prescreen-v0.3","browser_interactions":0},{"responses":{"01":"No","02":"No"},"rt":6948.424999951385,"item_order":[0,1],"radio_events":[4015.8250000094995,5363.800000050105],"checkbox_events":[],"key_events":[],"mouse_events":[4015.8250000094995,5363.800000050105,6947.350000031292],"honeypot":0,"survey":"mace","page":4,"trial_type":"survey-mace","trial_index":12,"time_elapsed":573644,"internal_node_id":"0.0-12.0","task_version":"prescreen-v0.3","browser_interactions":0},{"responses":{"01":"Yes","01_ages_12":"12","01_ages_16":"16","01_ages_18":"18","02":"No","03":"No","04":"No","05":"No"},"rt":31384.82000003569,"item_order":[0,1,2,3,4],"radio_events":[9584.900000016205,21393.22000008542,25039.57000002265,27840.960000059567,29365.915000089444],"checkbox_events":[11225.450000027195,13150.37500008475,14140.935000032187],"key_events":[],"mouse_events":[9584.900000016205,11225.450000027195,13150.37500008475,14140.935000032187,21393.22000008542,25039.57000002265,27840.960000059567,29365.915000089444,31381.99500006158],"honeypot":0,"survey":"mace","page":5,"trial_type":"survey-mace","trial_index":13,"time_elapsed":605032,"internal_node_id":"0.0-13.0","task_version":"prescreen-v0.3","browser_interactions":0},{"responses":{"01":"Yes","01_ages_11":"11","01_ages_12":"12","01_ages_13":"13","01_ages_14":"14","02":"Yes","02_ages_7":"7","02_ages_8":"8","02_ages_9":"9","02_ages_10":"10","02_ages_11":"11","02_ages_12":"12","02_ages_13":"13","02_ages_14":"14","03":"Yes","03_ages_11":"11","03_ages_12":"12","03_ages_13":"13","03_ages_14":"14","03_ages_15":"15","03_ages_16":"16","04":"Yes","04_ages_11":"11","04_ages_12":"12","04_ages_13":"13","04_ages_14":"14","04_ages_15":"15","05":"No"},"rt":83267.14000001084,"item_order":[0,1,2,3,4],"radio_events":[4403.479999979027,12020.795000018552,14782.009999966249,72269.4350000238,82136.01999997627],"checkbox_events":[7448.940000031143,8520.78000002075,34827.51500001177,35435.88500004262,36223.78500003833,38035.30500002671,46906.145000015385,47420.03499995917,49417.649999959394,50213.6200000532,52244.2700000247,52779.63500004262,53373.054999974556,54721.325000049546,60445.88999997359,60985.370000009425,61558.264999999665,62728.059999994,68696.55999995302,69476.14499996416,75493.28000005335,76223.20000000764,78871.9900000142,79350.72999994736,79959.99999996275],"key_events":[],"mouse_events":[4403.479999979027,7448.940000031143,8520.78000002075,12020.795000018552,14782.009999966249,34827.51500001177,35435.88500004262,36223.78500003833,38035.30500002671,46315.4499999946,46906.145000015385,47420.03499995917,49417.649999959394,50213.6200000532,51634.7250000108,52244.2700000247,52779.63500004262,53373.054999974556,54721.325000049546,60445.88999997359,60985.370000009425,61558.264999999665,62274.050000007264,62728.059999994,68046.97499994654,68696.55999995302,69476.14499996416,72269.4350000238,75493.28000005335,76223.20000000764,78871.9900000142,79350.72999994736,79959.99999996275,82136.01999997627,83264.6399999503],"honeypot":0,"survey":"mace","page":6,"trial_type":"survey-mace","trial_index":14,"time_elapsed":688303,"internal_node_id":"0.0-14.0","task_version":"prescreen-v0.3","browser_interactions":0},{"responses":{"01":"No","02":"No","03":"Yes","03_ages_11":"11","03_ages_12":"12","03_ages_13":"13","03_ages_14":"14","04":"No","05":"No","06":"No","07":"No"},"rt":18537.38999995403,"item_order":[0,1,2,3,4,5,6],"radio_events":[3137.609999976121,6035.799999954179,7074.879999971017,13335.549999959767,14821.724999928847,17192.93999997899,17818.114999914542],"checkbox_events":[9153.524999972433,10104.274999932386,10761.30499993451,11362.61499999091],"key_events":[],"mouse_events":[3137.609999976121,6035.799999954179,7074.879999971017,9153.524999972433,10104.274999932386,10761.30499993451,11362.61499999091,13335.549999959767,14821.724999928847,17192.93999997899,17818.114999914542,18532.71999990102],"honeypot":0,"survey":"mace","page":7,"trial_type":"survey-mace","trial_index":15,"time_elapsed":706845,"internal_node_id":"0.0-15.0","task_version":"prescreen-v0.3","browser_interactions":0},{"responses":{"01":"No","02":"Yes","02_ages_8":"8","02_ages_9":"9","02_ages_10":"10","02_ages_11":"11","02_ages_12":"12","02_ages_13":"13","02_ages_14":"14","02_ages_15":"15","02_ages_16":"16","02_ages_17":"17","02_ages_18":"18","03":"Yes","03_ages_5":"5","03_ages_6":"6","03_ages_7":"7","03_ages_8":"8","03_ages_9":"9","03_ages_10":"10","03_ages_11":"11","03_ages_12":"12","03_ages_13":"13","03_ages_14":"14","03_ages_15":"15","03_ages_16":"16","03_ages_17":"17","03_ages_18":"18","04":"Yes","04_ages_11":"11","04_ages_12":"12","04_ages_13":"13","04_ages_14":"14","04_ages_15":"15","04_ages_16":"16","04_ages_17":"17","04_ages_18":"18"},"rt":68339.0800000634,"item_order":[0,1,2,3],"radio_events":[8515.045000007376,13330.550000071526,30190.769999986514,47814.95999998879],"checkbox_events":[17098.465000046417,18105.77500006184,18536.019999999553,19063.9150000643,19502.355000004172,19924.794999998994,20395.959999994375,20850.41000007186,21305.200000060722,21711.355000035837,22198.640000075102,22621.61500006914,23108.280000044033,23579.030000022613,24570.315000019036,25024.75000009872,25503.95500008017,33821.01499999408,34235.145000042394,35169.24499999732,35778.43499998562,36200.680000009015,37094.035000074655,37508.1900000805,37930.215000058524,38377.18000006862,38807.755000074394,39294.70000008587,39773.9850000944,40261.26500009559,41187.254999997094,49983.31000003964,50429.50000008568,50908.64000003785,51371.705000055954,51875.30000007246,52345.900000073016,52800.66000006627,53385.615000035614,54904.620000044815,61986.09500005841,62465.27500008233,63106.910000089556,63780.720000038855,64365.42500008363,64950.1600000076,65770.41500003543,66184.59000007715,66745.06500002462,67264.78500000667,67800.87500007357],"key_events":[],"mouse_events":[8515.045000007376,13330.550000071526,17098.465000046417,17650.630000047386,18105.77500006184,18536.019999999553,19063.9150000643,19502.355000004172,19924.794999998994,20395.959999994375,20850.41000007186,21305.200000060722,21711.355000035837,22198.640000075102,22621.61500006914,23108.280000044033,23579.030000022613,24570.315000019036,25024.75000009872,25503.95500008017,30190.769999986514,33821.01499999408,34235.145000042394,34681.82000005618,35169.24499999732,35778.43499998562,36200.680000009015,36752.65500007663,37094.035000074655,37508.1900000805,37930.215000058524,38377.18000006862,38807.755000074394,39294.70000008587,39773.9850000944,40261.26500009559,41187.254999997094,47814.95999998879,49983.31000003964,50429.50000008568,50908.64000003785,51371.705000055954,51875.30000007246,52345.900000073016,52800.66000006627,53385.615000035614,54010.93500002753,54587.845000089146,54904.620000044815,61986.09500005841,62465.27500008233,63106.910000089556,63780.720000038855,64365.42500008363,64950.1600000076,65770.41500003543,66184.59000007715,66745.06500002462,67264.78500000667,67800.87500007357,68337.13500003796],"honeypot":0,"survey":"mace","page":8,"trial_type":"survey-mace","trial_index":16,"time_elapsed":775187,"internal_node_id":"0.0-16.0","task_version":"prescreen-v0.3","browser_interactions":0},{"responses":{"01":"Yes","01_ages_17":"17","01_ages_18":"18","02":"Yes","02_ages_6":"6","02_ages_7":"7","02_ages_8":"8","02_ages_9":"9","02_ages_10":"10","02_ages_11":"11","02_ages_12":"12","02_ages_13":"13","02_ages_14":"14","02_ages_15":"15","02_ages_16":"16","02_ages_17":"17","02_ages_18":"18","03":"No","04":"Yes","04_ages_14":"14","04_ages_15":"15","04_ages_17":"17"},"rt":66578.63500004169,"item_order":[0,1,2,3],"radio_events":[6337.605000007898,33734.91500003729,50647.82000007108,55699.53500002157],"checkbox_events":[16570.430000079796,17171.310000005178,18503.135000006296,21451.3900000602,35748.94499999937,36167.989999987185,36572.515000007115,37052.17500007711,37506.25500001479,37969.24000000581,39068.310000002384,40016.58000005409,40472.99999999814,40938.72000009287,42189.22000005841,42656.0349999927,43257.71000003442,59151.16000000853,60953.87000008486,62488.74500009697],"key_events":[],"mouse_events":[6337.605000007898,16570.430000079796,17171.310000005178,17755.715000093915,18503.135000006296,21451.3900000602,33734.91500003729,35748.94499999937,36167.989999987185,36572.515000007115,37052.17500007711,37506.25500001479,37969.24000000581,38579.26500006579,39068.310000002384,40016.58000005409,40472.99999999814,40938.72000009287,41429.71000005491,42189.22000005841,42656.0349999927,43257.71000003442,50647.82000007108,55699.53500002157,59151.16000000853,60953.87000008486,62488.74500009697,66576.48000004701],"honeypot":0,"survey":"mace","page":9,"trial_type":"survey-mace","trial_index":17,"time_elapsed":841768,"internal_node_id":"0.0-17.0","task_version":"prescreen-v0.3","browser_interactions":0},{"responses":{"01":"No","02":"No","03":"Yes","03_ages_12":"12","03_ages_13":"13","03_ages_14":"14","03_ages_15":"15","03_ages_16":"16","03_ages_17":"17","03_ages_18":"18","04":"No","05":"Yes","05_ages_8":"8","05_ages_9":"9","05_ages_10":"10","05_ages_11":"11","05_ages_12":"12","05_ages_13":"13","05_ages_14":"14","05_ages_15":"15","05_ages_16":"16","05_ages_17":"17","05_ages_18":"18","06":"Yes","06_ages_17":"17","07":"Yes","07_ages_12":"12","07_ages_13":"13","07_ages_14":"14","07_ages_15":"15","07_ages_16":"16","07_ages_17":"17","07_ages_18":"18","08":"No"},"rt":51292.62500000186,"item_order":[0,1,2,3,4,5,6,7],"radio_events":[4442.0950000640005,5701.200000010431,7772.3799999803305,22855.220000026748,23976.05499997735,35117.76000005193,39284.28000002168,48908.87000004295],"checkbox_events":[12142.304999986663,13019.674999988638,14465.275000082329,17380.850000074133,18371.520000044256,18863.22000005748,19379.599999985658,26523.240000009537,26940.225000027567,27394.96499998495,27849.800000083633,28272.050000028685,28719.07500002999,29173.760000034235,29678.049999987707,30139.560000039637,31084.86000006087,31561.18499999866,36279.18499999214,43580.54500003345,43994.930000044405,44409.19000003487,44847.5300000282,45781.6350000212,46187.95000005048,46675.12999998871],"key_events":[],"mouse_events":[4442.0950000640005,5701.200000010431,7772.3799999803305,12142.304999986663,13019.674999988638,14465.275000082329,17380.850000074133,18371.520000044256,18863.22000005748,19379.599999985658,22855.220000026748,23976.05499997735,26523.240000009537,26940.225000027567,27394.96499998495,27849.800000083633,28272.050000028685,28719.07500002999,29173.760000034235,29678.049999987707,30139.560000039637,30627.375000040047,31084.86000006087,31561.18499999866,35117.76000005193,36279.18499999214,39284.28000002168,43580.54500003345,43994.930000044405,44409.19000003487,44847.5300000282,45294.19000004418,45781.6350000212,46187.95000005048,46675.12999998871,48908.87000004295,51288.6250000447],"honeypot":0,"survey":"mace","page":10,"trial_type":"survey-mace","trial_index":18,"time_elapsed":893066,"internal_node_id":"0.0-18.0","task_version":"prescreen-v0.3","browser_interactions":0,"instructed":0},{"rt":6050.39999994915,"trial_type":"mental-health-alert","trial_index":19,"time_elapsed":899118,"internal_node_id":"0.0-19.0","task_version":"prescreen-v0.3","interactions":"[]"}]