[{"view_history":[{"page_index":0,"viewing_time":10547.600000023842},{"page_index":1,"viewing_time":38031.60000002384},{"page_index":2,"viewing_time":2586.899999976158},{"page_index":3,"viewing_time":2106.399999976158}],"rt":53283.90000003576,"trial_type":"instructions","trial_index":0,"time_elapsed":53427,"internal_node_id":"0.0-0.0","task_version":"prescreen-v0.3"},{"rt":55621.90000003576,"responses":{"age":"52","gender-categorical":"Female","gender-free-response":"","ethnicity":"Not Hispanic or Latino","race":["White"],"education":"Some college"},"trial_type":"survey-demo","trial_index":1,"time_elapsed":109094,"internal_node_id":"0.0-1.0","task_version":"prescreen-v0.3"},{"responses":{"Q18":"2","Q05":"1","Q02":"2","Q10":"0","Q11":"0","Q07":"0","Q20":"1","Q16":"2","Q09":"1","Q21":"2","Q19":"2","Q14":"2","Q12":"2","Q13":"3","Q08":"0","Q17":"1","Q03":"2","Q15":"2","Q06":"1","Q01":"1","Q04":"3"},"rt":185944.5,"item_order":[17,4,1,9,10,6,19,15,8,20,18,13,11,12,7,16,2,14,5,0,3],"radio_events":[10382,23724.899999976158,30611.599999964237,39745.19999998808,42463.39999997616,58315.80000001192,63710.89999997616,73894.30000001192,82058.80000001192,91703,97719,103032.39999997616,114165.09999996424,124084.59999996424,131582.69999998808,138204.59999996424,145506.69999998808,149306.19999998808,154339.09999996424,167615,171126.80000001192,184397.39999997616],"key_events":[],"mouse_events":[10382,23724.899999976158,30611.599999964237,39745.19999998808,42463.39999997616,58315.80000001192,63710.89999997616,73894.30000001192,82058.80000001192,91703,97719,103032.39999997616,114165.09999996424,124084.59999996424,131582.69999998808,138204.59999996424,145506.69999998808,149306.19999998808,154339.09999996424,167615,171126.80000001192,184397.39999997616,185933.19999998808],"straightlining":0.42857142857142855,"zigzagging":0.55,"honeypot":0,"survey":"sns","trial_type":"survey-template","trial_index":2,"time_elapsed":295110,"internal_node_id":"0.0-2.0","task_version":"prescreen-v0.3","browser_interactions":0,"infrequency":0.5},{"responses":{"Q07":"2","Q03":"1","Q04":"2","Q10":"0","Q06":"3","Q09":"1","Q13":"0","Q02":"1","Q11":"3","Q01":"2","Q05":"2","Q12":"1","Q08":"2"},"rt":168085.5,"item_order":[6,2,3,9,5,8,12,1,10,0,4,11,7],"radio_events":[43607.69999998808,62281.80000001192,70214.69999998808,74750.60000002384,81857.60000002384,85416.19999998808,92920,119687.90000003576,126143.69999998808,128471.69999998808,139114.5,146988,153421.19999998808,166559],"key_events":[],"mouse_events":[43607.69999998808,62281.80000001192,70214.69999998808,74750.60000002384,81857.60000002384,85416.19999998808,92920,119687.90000003576,126143.69999998808,128471.69999998808,132793.69999998808,139114.5,146988,153421.19999998808,156721.5,160161.5,166559,168078.30000001192],"straightlining":0.38461538461538464,"zigzagging":0.6666666666666666,"honeypot":0,"survey":"bisbas","trial_type":"survey-template","trial_index":3,"time_elapsed":463240,"internal_node_id":"0.0-3.0","task_version":"prescreen-v0.3","browser_interactions":0,"infrequency":0},{"responses":{"Q01":"2","Q02":"1","Q03":"2"},"rt":75200.40000003576,"radio_events":[51519.19999998808,64597.60000002384,73308],"key_events":[],"mouse_events":[51519.19999998808,64597.60000002384,73308,75198.19999998808],"survey":"map","page":1,"trial_type":"survey-map","trial_index":4,"time_elapsed":538468,"internal_node_id":"0.0-4.0","task_version":"prescreen-v0.3","browser_interactions":0},{"responses":{"Q04":"1","Q05":"1","Q06":"1"},"rt":30657.69999998808,"radio_events":[11475.399999976158,20783.599999964237,29221.799999952316],"key_events":[],"mouse_events":[11475.399999976158,20783.599999964237,29221.799999952316,30656.099999964237],"survey":"map","page":2,"trial_type":"survey-map","trial_index":5,"time_elapsed":569147,"internal_node_id":"0.0-5.0","task_version":"prescreen-v0.3","browser_interactions":0},{"responses":{"Q07":"3","Q08":"3","Q09":"2"},"rt":54418,"radio_events":[15306.799999952316,37785.39999997616,47032.299999952316],"key_events":[],"mouse_events":[15306.799999952316,37785.39999997616,47032.299999952316,54415.799999952316],"survey":"map","page":3,"trial_type":"survey-map","trial_index":6,"time_elapsed":623582,"internal_node_id":"0.0-6.0","task_version":"prescreen-v0.3","browser_interactions":0},{"responses":{"Q10":"1","Q11":"1","Q12":"2","Q13":"2","Q16":"0","Q14":"2","Q15":"1"},"rt":253258.30000001192,"radio_events":[7666.300000011921,13774.5,25245.100000023842,32781.80000001192,45697.80000001192,229078.90000003576,237339.70000004768,243894.90000003576,252089.60000002384],"key_events":[],"mouse_events":[7666.300000011921,13774.5,25245.100000023842,32781.80000001192,45697.80000001192,229078.90000003576,237339.70000004768,243894.90000003576,252089.60000002384,253249.40000003576],"survey":"map","page":4,"trial_type":"survey-map","trial_index":7,"time_elapsed":876894,"internal_node_id":"0.0-7.0","task_version":"prescreen-v0.3","browser_interactions":0,"infrequency":0},{"view_history":[{"page_index":0,"viewing_time":7270.899999976158},{"page_index":1,"viewing_time":5047}],"rt":12320.5,"trial_type":"instructions","trial_index":8,"time_elapsed":889219,"internal_node_id":"0.0-8.0","task_version":"prescreen-v0.3"},{"responses":{"01":"Yes","01_ages_7":"7","01_ages_8":"8","01_ages_9":"9","01_ages_10":"10","01_ages_11":"11","01_ages_12":"12","01_ages_13":"13","01_ages_14":"14","01_ages_15":"15","01_ages_16":"16","01_ages_17":"17","01_ages_18":"18","02":"Yes","02_ages_7":"7","02_ages_8":"8","02_ages_9":"9","02_ages_10":"10","02_ages_11":"11","02_ages_12":"12","02_ages_13":"13","02_ages_14":"14","02_ages_15":"15","02_ages_16":"16","02_ages_17":"17","02_ages_18":"18","03":"Yes","03_ages_7":"7","03_ages_8":"8","03_ages_9":"9","03_ages_10":"10","03_ages_11":"11","03_ages_12":"12","03_ages_13":"13","03_ages_14":"14","03_ages_15":"15","04":"No","05":"No","06":"Yes","06_ages_7":"7","06_ages_8":"8","06_ages_9":"9","06_ages_10":"10","06_ages_11":"11","06_ages_12":"12","06_ages_13":"13","06_ages_14":"14","06_ages_15":"15"},"rt":140575.90000003576,"item_order":[0,1,2,3,4,5],"radio_events":[10563.600000023842,49828.60000002384,76853.80000001192,112132.40000003576,115976,121892.40000003576],"checkbox_events":[19396.5,20163.80000001192,20905.600000023842,21600.100000023842,22996.5,23809.80000001192,24586.400000035763,25528.100000023842,26291.80000001192,27213.19999998808,29194.30000001192,30130,53064.80000001192,53828.30000001192,54555,56478.19999998808,57562.40000003576,58998,60846.69999998808,62059.69999998808,63450.80000001192,64560.10000002384,65412.69999998808,66155.60000002384,81328.40000003576,82460.5,83282.10000002384,84209.60000002384,86421.69999998808,88017.19999998808,89163.10000002384,89895.30000001192,90651,124441,125427.40000003576,126307.10000002384,128397.19999998808,129443.60000002384,131925.60000002384,133131.80000001192,134191.5,139287.69999998808],"key_events":[],"mouse_events":[0.30000001192092896,10563.600000023842,19396.5,20163.80000001192,20905.600000023842,21600.100000023842,22996.5,23809.80000001192,24586.400000035763,25528.100000023842,26291.80000001192,27213.19999998808,28177,29194.30000001192,30130,49828.60000002384,53064.80000001192,53828.30000001192,54555,56478.19999998808,57562.40000003576,58998,60846.69999998808,62059.69999998808,63450.80000001192,64560.10000002384,65412.69999998808,66155.60000002384,76853.80000001192,81328.40000003576,82460.5,83282.10000002384,84209.60000002384,86421.69999998808,88017.19999998808,89163.10000002384,89895.30000001192,90651,112132.40000003576,115976,121892.40000003576,124441,125427.40000003576,126307.10000002384,128397.19999998808,129443.60000002384,131925.60000002384,133131.80000001192,134191.5,139287.69999998808,140562.69999998808],"honeypot":0,"survey":"mace","page":1,"trial_type":"survey-mace","trial_index":9,"time_elapsed":1029852,"internal_node_id":"0.0-9.0","task_version":"prescreen-v0.3","browser_interactions":0},{"responses":{"01":"Yes","01_ages_10":"10","01_ages_11":"11","01_ages_12":"12","01_ages_13":"13","01_ages_14":"14","02":"No","03":"Yes","03_ages_4":"4","03_ages_5":"5","03_ages_6":"6","03_ages_7":"7","03_ages_8":"8","03_ages_9":"9","03_ages_10":"10","03_ages_11":"11","03_ages_12":"12","04":"Yes","04_ages_4":"4","04_ages_5":"5","04_ages_6":"6","04_ages_7":"7","04_ages_8":"8","04_ages_9":"9","04_ages_10":"10","05":"Yes","05_ages_7":"7","05_ages_8":"8","05_ages_9":"9","05_ages_10":"10","05_ages_11":"11","05_ages_12":"12","05_ages_13":"13","06":"No","07":"No","08":"No"},"rt":139732.60000002384,"item_order":[0,1,2,3,4,5,6,7],"radio_events":[4912.200000047684,24719.200000047684,27269.100000023842,65148,94558.5,129264.70000004768,133610.10000002384,138365.60000002384],"checkbox_events":[8975.800000011921,9923.900000035763,10831.5,11837.800000011921,12761.200000047684,33593.40000003576,34346.90000003576,39793,40793.30000001192,41768.30000001192,43097,44077.10000002384,45028.90000003576,46009,48793.700000047684,58140.80000001192,69586,70293.90000003576,71166.5,71981.90000003576,72976.10000002384,73951.60000002384,83741.5,102528.60000002384,103414.5,104398.90000003576,105750.20000004768,107010.10000002384,108033,109226.20000004768],"key_events":[],"mouse_events":[4912.200000047684,8975.800000011921,9923.900000035763,10831.5,11837.800000011921,12761.200000047684,24719.200000047684,27269.100000023842,33593.40000003576,34346.90000003576,39793,40793.30000001192,41768.30000001192,43097,44077.10000002384,45028.90000003576,46009,48793.700000047684,58140.80000001192,65148,69586,70293.90000003576,71166.5,71981.90000003576,72976.10000002384,73951.60000002384,83741.5,94558.5,102528.60000002384,103414.5,104398.90000003576,105750.20000004768,107010.10000002384,108033,109226.20000004768,129264.70000004768,133610.10000002384,138365.60000002384,139717.90000003576],"honeypot":0,"survey":"mace","page":2,"trial_type":"survey-mace","trial_index":10,"time_elapsed":1169627,"internal_node_id":"0.0-10.0","task_version":"prescreen-v0.3","browser_interactions":0},{"responses":{"01":"Yes","01_ages_7":"7","01_ages_8":"8","01_ages_9":"9","01_ages_10":"10","01_ages_11":"11","01_ages_12":"12","02":"No","03":"No","04":"No"},"rt":57282.19999998808,"item_order":[0,1,2,3],"radio_events":[17064.799999952316,49013.69999998808,54782,56281.89999997616],"checkbox_events":[28908.5,29880.299999952316,30717.19999998808,31681.19999998808,32573.399999976158,40551.69999998808],"key_events":[],"mouse_events":[17064.799999952316,28908.5,29880.299999952316,30717.19999998808,31681.19999998808,32573.399999976158,40551.69999998808,49013.69999998808,54782,56281.89999997616,57270.299999952316],"honeypot":0,"survey":"mace","page":3,"trial_type":"survey-mace","trial_index":11,"time_elapsed":1226932,"internal_node_id":"0.0-11.0","task_version":"prescreen-v0.3","browser_interactions":0},{"responses":{"01":"No","02":"No"},"rt":7103.300000011921,"item_order":[0,1],"radio_events":[2944.600000023842,5901.5],"checkbox_events":[],"key_events":[],"mouse_events":[2944.600000023842,5901.5,7098.600000023842],"honeypot":0,"survey":"mace","page":4,"trial_type":"survey-mace","trial_index":12,"time_elapsed":1234048,"internal_node_id":"0.0-12.0","task_version":"prescreen-v0.3","browser_interactions":0},{"responses":{"01":"No","02":"No","03":"No","04":"No","05":"No"},"rt":33431.80000001192,"item_order":[0,1,2,3,4],"radio_events":[15370.200000047684,19370.80000001192,22616.700000047684,29256.900000035763,31794.400000035763],"checkbox_events":[],"key_events":[],"mouse_events":[15370.200000047684,19370.80000001192,22616.700000047684,29256.900000035763,31794.400000035763,33417.90000003576],"honeypot":0,"survey":"mace","page":5,"trial_type":"survey-mace","trial_index":13,"time_elapsed":1267496,"internal_node_id":"0.0-13.0","task_version":"prescreen-v0.3","browser_interactions":0},{"responses":{"01":"Yes","01_ages_7":"7","01_ages_8":"8","01_ages_9":"9","01_ages_10":"10","01_ages_11":"11","01_ages_12":"12","01_ages_13":"13","01_ages_14":"14","02":"Yes","02_ages_7":"7","02_ages_8":"8","02_ages_9":"9","02_ages_10":"10","02_ages_11":"11","02_ages_12":"12","02_ages_13":"13","02_ages_14":"14","02_ages_15":"15","02_ages_16":"16","03":"No","04":"Yes","04_ages_10":"10","04_ages_11":"11","04_ages_12":"12","04_ages_13":"13","04_ages_14":"14","04_ages_15":"15","05":"Yes","05_ages_11":"11","05_ages_12":"12","05_ages_13":"13","05_ages_14":"14"},"rt":144989.09999996424,"item_order":[0,1,2,3,4],"radio_events":[20173.80000001192,47937.69999998808,86622.89999997616,106523.5,134418.30000001192],"checkbox_events":[22358.19999998808,23793.19999998808,25219.80000001192,26205,27104.5,28066.5,36969.59999996424,50823.59999996424,57183.19999998808,58199.69999998808,59089.89999997616,59869.09999996424,60732.89999997616,61610.80000001192,62534,63694.59999996424,67632.39999997616,70135.09999996424,92814.69999998808,93867.59999996424,94723.19999998808,96821.5,97638.59999996424,100203.89999997616,137761.5,138614.59999996424,139668.69999998808,140632.09999996424],"key_events":[],"mouse_events":[20173.80000001192,22358.19999998808,23793.19999998808,25219.80000001192,26205,27104.5,28066.5,36969.59999996424,47937.69999998808,50823.59999996424,57183.19999998808,58199.69999998808,59089.89999997616,59869.09999996424,60732.89999997616,61610.80000001192,62534,63694.59999996424,67632.39999997616,70135.09999996424,86622.89999997616,92814.69999998808,93867.59999996424,94723.19999998808,95687.09999996424,96821.5,97638.59999996424,100203.89999997616,106523.5,134418.30000001192,137761.5,138614.59999996424,139668.69999998808,140632.09999996424,144980.39999997616],"honeypot":0,"survey":"mace","page":6,"trial_type":"survey-mace","trial_index":14,"time_elapsed":1412531,"internal_node_id":"0.0-14.0","task_version":"prescreen-v0.3","browser_interactions":0},{"responses":{"01":"No","02":"No","03":"Yes","03_ages_8":"8","03_ages_9":"9","03_ages_10":"10","03_ages_11":"11","03_ages_12":"12","04":"No","05":"No","06":"No","07":"No"},"rt":47513.09999996424,"item_order":[0,1,2,3,4,5,6],"radio_events":[8164.199999988079,12198.599999964237,16780.19999998808,36827.89999997616,39212.59999996424,41022.5,45464.299999952316],"checkbox_events":[19701.799999952316,21450,22795.799999952316,23794.899999976158,25403.799999952316],"key_events":[],"mouse_events":[8164.199999988079,12198.599999964237,16780.19999998808,19320.399999976158,19701.799999952316,21450,22795.799999952316,23794.899999976158,25403.799999952316,36827.89999997616,39212.59999996424,41022.5,45464.299999952316,47496.59999996424],"honeypot":0,"survey":"mace","page":7,"trial_type":"survey-mace","trial_index":15,"time_elapsed":1460074,"internal_node_id":"0.0-15.0","task_version":"prescreen-v0.3","browser_interactions":0},{"responses":{"01":"Yes","01_ages_7":"7","01_ages_8":"8","01_ages_9":"9","01_ages_10":"10","01_ages_11":"11","01_ages_12":"12","01_ages_13":"13","01_ages_14":"14","01_ages_15":"15","01_ages_16":"16","01_ages_17":"17","01_ages_18":"18","02":"No","03":"Yes","03_ages_7":"7","03_ages_8":"8","03_ages_9":"9","03_ages_10":"10","03_ages_11":"11","03_ages_12":"12","03_ages_13":"13","03_ages_14":"14","03_ages_15":"15","03_ages_16":"16","03_ages_17":"17","03_ages_18":"18","04":"Yes","04_ages_7":"7","04_ages_8":"8","04_ages_9":"9","04_ages_10":"10","04_ages_11":"11","04_ages_12":"12","04_ages_13":"13","04_ages_14":"14","04_ages_15":"15","04_ages_16":"16","04_ages_17":"17","04_ages_18":"18"},"rt":103976.39999997616,"item_order":[0,1,2,3],"radio_events":[14279.5,44495.5,53404.39999997616,79294.5],"checkbox_events":[17093,18486.099999964237,19295.599999964237,20311.69999998808,21318.19999998808,22234.19999998808,23220.5,24191.099999964237,32432.19999998808,33396.30000001192,34304,35838.5,56815.59999996424,57708.5,58584.30000001192,60840.59999996424,61816.59999996424,62776.5,63782.80000001192,64976.69999998808,66158.09999996424,68508.89999997616,69571.30000001192,70555.59999996424,86012.19999998808,86956.59999996424,89180.09999996424,90120,91111.59999996424,93324.59999996424,94509,96174.59999996424,97950.80000001192,98996.09999996424,100280.59999996424,101492.80000001192],"key_events":[],"mouse_events":[14279.5,17093,18486.099999964237,19295.599999964237,20311.69999998808,21318.19999998808,22234.19999998808,23220.5,24191.099999964237,32432.19999998808,33396.30000001192,34304,35838.5,44495.5,53404.39999997616,56815.59999996424,57708.5,58584.30000001192,60840.59999996424,61816.59999996424,62776.5,63782.80000001192,64976.69999998808,66158.09999996424,68508.89999997616,69571.30000001192,70555.59999996424,79294.5,86012.19999998808,86956.59999996424,89180.09999996424,90120,91111.59999996424,93324.59999996424,94509,96174.59999996424,97950.80000001192,98996.09999996424,100280.59999996424,101492.80000001192,103965.89999997616],"honeypot":0,"survey":"mace","page":8,"trial_type":"survey-mace","trial_index":16,"time_elapsed":1564080,"internal_node_id":"0.0-16.0","task_version":"prescreen-v0.3","browser_interactions":0},{"responses":{"01":"Yes","01_ages_7":"7","01_ages_8":"8","01_ages_9":"9","01_ages_10":"10","01_ages_11":"11","01_ages_12":"12","01_ages_13":"13","01_ages_14":"14","01_ages_15":"15","01_ages_16":"16","01_ages_17":"17","01_ages_18":"18","02":"Yes","02_ages_7":"7","02_ages_8":"8","02_ages_9":"9","02_ages_10":"10","02_ages_11":"11","02_ages_12":"12","02_ages_13":"13","02_ages_14":"14","02_ages_15":"15","02_ages_16":"16","02_ages_17":"17","02_ages_18":"18","03":"Yes","03_ages_7":"7","03_ages_8":"8","03_ages_9":"9","03_ages_10":"10","03_ages_11":"11","03_ages_12":"12","03_ages_13":"13","03_ages_14":"14","03_ages_15":"15","03_ages_16":"16","03_ages_17":"17","03_ages_18":"18","04":"Yes","04_ages_7":"7","04_ages_8":"8","04_ages_9":"9","04_ages_10":"10","04_ages_11":"11","04_ages_12":"12","04_ages_13":"13","04_ages_14":"14","04_ages_15":"15","04_ages_16":"16","04_ages_17":"17","04_ages_18":"18"},"rt":96881.20000004768,"item_order":[0,1,2,3],"radio_events":[7659.200000047684,30613.100000023842,51801.10000002384,77202.70000004768],"checkbox_events":[12745.800000011921,13590.600000023842,14576.200000047684,15811.800000011921,17795.700000047684,19422,20314.80000001192,21184.100000023842,22230,23039.900000035763,24238,25658.700000047684,32718.900000035763,33680.60000002384,34743.700000047684,35704.10000002384,36733.80000001192,37577,38528.90000003576,39398.30000001192,40207.60000002384,41649,42642.80000001192,43679.30000001192,53504.10000002384,54644.60000002384,55518.5,56419.700000047684,57493.60000002384,58479.200000047684,59670.30000001192,62030.40000003576,62942.60000002384,63914.200000047684,66081.40000003576,67259.60000002384,81400.70000004768,82326,83271.80000001192,84133.40000003576,84994.5,85910.60000002384,86680.60000002384,87610,88736.40000003576,89791.60000002384,91552.10000002384,92720],"key_events":[],"mouse_events":[7659.200000047684,12745.800000011921,13590.600000023842,14576.200000047684,15811.800000011921,17795.700000047684,19422,20314.80000001192,21184.100000023842,22230,23039.900000035763,24238,25658.700000047684,30613.100000023842,32718.900000035763,33680.60000002384,34743.700000047684,35704.10000002384,36733.80000001192,37577,38528.90000003576,39398.30000001192,40207.60000002384,41649,42642.80000001192,43679.30000001192,51801.10000002384,53504.10000002384,54644.60000002384,55518.5,56419.700000047684,57493.60000002384,58479.200000047684,59670.30000001192,62030.40000003576,62942.60000002384,63914.200000047684,66081.40000003576,67259.60000002384,77202.70000004768,81400.70000004768,82326,83271.80000001192,84133.40000003576,84994.5,85910.60000002384,86680.60000002384,87610,88736.40000003576,89791.60000002384,91552.10000002384,92720,96875.10000002384],"honeypot":0,"survey":"mace","page":9,"trial_type":"survey-mace","trial_index":17,"time_elapsed":1660996,"internal_node_id":"0.0-17.0","task_version":"prescreen-v0.3","browser_interactions":0},{"responses":{"01":"No","02":"No","03":"Yes","03_ages_11":"11","03_ages_12":"12","03_ages_13":"13","03_ages_14":"14","03_ages_15":"15","04":"No","05":"No","06":"Yes","06_ages_17":"17","07":"Yes","07_ages_10":"10","07_ages_11":"11","07_ages_12":"12","07_ages_13":"13","07_ages_14":"14","07_ages_15":"15","07_ages_16":"16","07_ages_17":"17","07_ages_18":"18","08":"No"},"rt":94314.60000002384,"item_order":[0,1,2,3,4,5,6,7],"radio_events":[6909.100000023842,11984.400000035763,16998.5,35948.60000002384,39065.10000002384,44018.200000047684,62085.10000002384,92627.60000002384],"checkbox_events":[19730.5,20620.700000047684,21872.80000001192,23032.700000047684,25310.400000035763,26195.5,28808.900000035763,46246.10000002384,66373.70000004768,67379.60000002384,68624,69746.30000001192,70676.80000001192,71983.5,73066.5,73966.90000003576,74958.20000004768],"key_events":[],"mouse_events":[6909.100000023842,11984.400000035763,16998.5,19730.5,20620.700000047684,21872.80000001192,23032.700000047684,25310.400000035763,26195.5,28808.900000035763,35948.60000002384,39065.10000002384,44018.200000047684,46246.10000002384,47750.5,62085.10000002384,66373.70000004768,67379.60000002384,68624,69746.30000001192,70676.80000001192,71983.5,73066.5,73966.90000003576,74958.20000004768,92627.60000002384,94214.70000004768],"honeypot":0,"survey":"mace","page":10,"trial_type":"survey-mace","trial_index":18,"time_elapsed":1755348,"internal_node_id":"0.0-18.0","task_version":"prescreen-v0.3","browser_interactions":0,"instructed":0},{"rt":15501.200000047684,"trial_type":"mental-health-alert","trial_index":19,"time_elapsed":1770863,"internal_node_id":"0.0-19.0","task_version":"prescreen-v0.3","interactions":"[{\"event\":\"blur\",\"trial\":1,\"time\":57879},{\"event\":\"focus\",\"trial\":1,\"time\":61507},{\"event\":\"blur\",\"trial\":1,\"time\":67220},{\"event\":\"focus\",\"trial\":1,\"time\":69559}]"}]