[{"view_history":[{"page_index":0,"viewing_time":3095.300000000745},{"page_index":1,"viewing_time":5779.799999998882},{"page_index":2,"viewing_time":3433.800000000745},{"page_index":3,"viewing_time":1183.9000000003725}],"rt":13493.300000000745,"trial_type":"instructions","trial_index":0,"time_elapsed":13508,"internal_node_id":"0.0-0.0","task_version":"prescreen-v0.3"},{"rt":12291.5,"responses":{"age":"27","gender-categorical":"Female","gender-free-response":"","ethnicity":"Not Hispanic or Latino","race":["White"],"education":"Bachelor degree"},"trial_type":"survey-demo","trial_index":1,"time_elapsed":25794,"internal_node_id":"0.0-1.0","task_version":"prescreen-v0.3"},{"responses":{"Q19":"1","Q21":"3","Q06":"0","Q16":"1","Q04":"0","Q12":"0","Q17":"0","Q03":"0","Q13":"2","Q10":"0","Q02":"0","Q18":"0","Q07":"0","Q08":"0","Q14":"1","Q11":"0","Q15":"0","Q05":"0","Q01":"0","Q20":"0","Q09":"0"},"rt":98615.5,"item_order":[18,20,5,15,3,11,16,2,12,9,1,17,6,7,13,10,14,4,0,19,8],"radio_events":[15769.800000000745,20975.800000000745,29186,34817.5,38437.70000000112,41801.59999999963,44077.59999999963,46853.5,49909.5,53113.800000000745,55527.59999999963,57987.59999999963,60031.20000000112,65005.5,67209.30000000075,75147.5,77013.5,85113.30000000075,91319.70000000112,93369.59999999963,94629.5,97623.40000000037],"key_events":[],"mouse_events":[15769.800000000745,20975.800000000745,29186,34817.5,38437.70000000112,41801.59999999963,44077.59999999963,46853.5,49909.5,53113.800000000745,55527.59999999963,57987.59999999963,60031.20000000112,65005.5,67209.30000000075,75147.5,77013.5,85113.30000000075,91319.70000000112,93369.59999999963,94629.5,97623.40000000037,98614],"straightlining":0.7619047619047619,"zigzagging":0.25,"honeypot":0,"survey":"sns","trial_type":"survey-template","trial_index":2,"time_elapsed":124406,"internal_node_id":"0.0-2.0","task_version":"prescreen-v0.3","browser_interactions":0,"infrequency":0},{"responses":{"Q08":"3","Q04":"2","Q13":"0","Q01":"2","Q03":"2","Q09":"2","Q02":"1","Q10":"2","Q07":"3","Q05":"3","Q11":"2","Q06":"2","Q12":"2"},"rt":49386.70000000112,"item_order":[7,3,12,0,2,8,1,9,6,4,10,5,11],"radio_events":[10903.900000000373,16257.900000000373,18192,21434.300000000745,24093.5,27367.800000000745,29751.400000000373,31953.800000000745,34507.70000000112,38181.90000000037,42645.800000000745,44944,48727.800000000745],"key_events":[],"mouse_events":[10903.900000000373,16257.900000000373,18192,21434.300000000745,24093.5,27367.800000000745,29751.400000000373,31953.800000000745,34507.70000000112,38181.90000000037,42645.800000000745,44944,48727.800000000745,49386],"straightlining":0.6153846153846154,"zigzagging":0.4166666666666667,"honeypot":0,"survey":"bisbas","trial_type":"survey-template","trial_index":3,"time_elapsed":173788,"internal_node_id":"0.0-3.0","task_version":"prescreen-v0.3","browser_interactions":0,"infrequency":0},{"responses":{"Q01":"4","Q02":"3","Q03":"4"},"rt":15128.099999999627,"radio_events":[5301.199999999255,11483.699999999255,14563.599999999627],"key_events":[],"mouse_events":[5301.199999999255,11483.699999999255,14563.599999999627,15127.699999999255],"survey":"map","page":1,"trial_type":"survey-map","trial_index":4,"time_elapsed":188920,"internal_node_id":"0.0-4.0","task_version":"prescreen-v0.3","browser_interactions":0},{"responses":{"Q04":"3","Q05":"2","Q06":"3"},"rt":18749.299999998882,"radio_events":[11408.599999999627,12452.5,16312.699999999255],"key_events":[],"mouse_events":[10208.699999999255,11408.599999999627,12452.5,16312.699999999255,18748.900000000373],"survey":"map","page":2,"trial_type":"survey-map","trial_index":5,"time_elapsed":207664,"internal_node_id":"0.0-5.0","task_version":"prescreen-v0.3","browser_interactions":0},{"responses":{"Q07":"4","Q08":"4","Q09":"3"},"rt":14556.900000000373,"radio_events":[5674.5,10448.699999999255,13766],"key_events":[],"mouse_events":[5674.5,10448.699999999255,13766,14556.5],"survey":"map","page":3,"trial_type":"survey-map","trial_index":6,"time_elapsed":222224,"internal_node_id":"0.0-6.0","task_version":"prescreen-v0.3","browser_interactions":0},{"responses":{"Q10":"4","Q11":"4","Q12":"2","Q13":"3","Q16":"0","Q14":"3","Q15":"3"},"rt":34187.199999999255,"radio_events":[3981.800000000745,6648.5999999996275,12746.599999999627,18672.599999999627,24228.599999999627,30094.900000000373,33590.5],"key_events":[],"mouse_events":[3981.800000000745,6648.5999999996275,12746.599999999627,18672.599999999627,24228.599999999627,30094.900000000373,33590.5,34186.5],"survey":"map","page":4,"trial_type":"survey-map","trial_index":7,"time_elapsed":256408,"internal_node_id":"0.0-7.0","task_version":"prescreen-v0.3","browser_interactions":0,"infrequency":0},{"view_history":[{"page_index":0,"viewing_time":3260.4000000003725},{"page_index":1,"viewing_time":4829.199999999255}],"rt":8090.0999999996275,"trial_type":"instructions","trial_index":8,"time_elapsed":264500,"internal_node_id":"0.0-8.0","task_version":"prescreen-v0.3"},{"responses":{"01":"No","02":"No","03":"No","04":"No","05":"No","06":"No"},"rt":26030.10000000149,"item_order":[0,1,2,3,4,5],"radio_events":[13387.60000000149,18423.300000000745,20964,22577,24093,25517.5],"checkbox_events":[],"key_events":[],"mouse_events":[0.10000000149011612,13387.60000000149,18423.300000000745,20964,22577,24093,25517.5,26028.300000000745],"honeypot":0,"survey":"mace","page":1,"trial_type":"survey-mace","trial_index":9,"time_elapsed":290535,"internal_node_id":"0.0-9.0","task_version":"prescreen-v0.3","browser_interactions":0},{"responses":{"01":"No","02":"No","03":"Yes","03_ages_4":"4","03_ages_5":"5","04":"No","05":"No","06":"No","07":"No","08":"No"},"rt":36112.29999999888,"item_order":[0,1,2,3,4,5,6,7],"radio_events":[3839.5,7094.699999999255,9834.799999998882,24062.699999999255,25943.299999998882,28534.89999999851,32472.599999999627,35550.89999999851],"checkbox_events":[14986.89999999851,15496.799999998882],"key_events":[],"mouse_events":[3839.5,7094.699999999255,9834.799999998882,14986.89999999851,15496.799999998882,24062.699999999255,25943.299999998882,28534.89999999851,31256.699999999255,32472.599999999627,35550.89999999851,36110],"honeypot":0,"survey":"mace","page":2,"trial_type":"survey-mace","trial_index":10,"time_elapsed":326648,"internal_node_id":"0.0-10.0","task_version":"prescreen-v0.3","browser_interactions":0},{"responses":{"01":"No","02":"No","03":"No","04":"No"},"rt":14569.60000000149,"item_order":[0,1,2,3],"radio_events":[8920.400000000373,11156.300000000745,12844.10000000149,14144.300000000745],"checkbox_events":[],"key_events":[],"mouse_events":[8920.400000000373,11156.300000000745,12844.10000000149,14144.300000000745,14568.300000000745],"honeypot":0,"survey":"mace","page":3,"trial_type":"survey-mace","trial_index":11,"time_elapsed":341221,"internal_node_id":"0.0-11.0","task_version":"prescreen-v0.3","browser_interactions":0},{"responses":{"01":"No","02":"No"},"rt":10651.799999998882,"item_order":[0,1],"radio_events":[7943,10155.599999999627],"checkbox_events":[],"key_events":[],"mouse_events":[7943,10155.599999999627,10651.199999999255],"honeypot":0,"survey":"mace","page":4,"trial_type":"survey-mace","trial_index":12,"time_elapsed":351876,"internal_node_id":"0.0-12.0","task_version":"prescreen-v0.3","browser_interactions":0},{"responses":{"01":"No","02":"No","03":"No","04":"Yes","04_ages_6":"6","05":"No"},"rt":36849.20000000112,"item_order":[0,1,2,3,4],"radio_events":[11253.599999999627,18263.800000000745,21373.700000001118,24833.900000000373,30257.800000000745,36027.59999999963],"checkbox_events":[32423.900000000373],"key_events":[],"mouse_events":[11253.599999999627,18263.800000000745,21373.700000001118,24833.900000000373,30257.800000000745,32423.900000000373,36027.59999999963,36847.90000000037],"honeypot":0,"survey":"mace","page":5,"trial_type":"survey-mace","trial_index":13,"time_elapsed":388725,"internal_node_id":"0.0-13.0","task_version":"prescreen-v0.3","browser_interactions":0},{"responses":{"01":"Yes","01_ages_10":"10","01_ages_11":"11","01_ages_12":"12","01_ages_13":"13","01_ages_14":"14","01_ages_15":"15","01_ages_16":"16","02":"Yes","02_ages_11":"11","02_ages_12":"12","02_ages_13":"13","02_ages_14":"14","02_ages_15":"15","03":"No","04":"No","05":"No"},"rt":35968.10000000149,"item_order":[0,1,2,3,4],"radio_events":[5340.800000000745,17428.800000000745,28266.400000000373,34558.70000000112,35200.90000000037],"checkbox_events":[9566.60000000149,10038.800000000745,10462.800000000745,11632.700000001118,12142.900000000373,12684.800000000745,14773.700000001118,20692.700000001118,21360.5,22008.900000000373,22480.900000000373,23494.800000000745],"key_events":[],"mouse_events":[5340.800000000745,9566.60000000149,10038.800000000745,10462.800000000745,11632.700000001118,12142.900000000373,12684.800000000745,14773.700000001118,17428.800000000745,20692.700000001118,21360.5,22008.900000000373,22480.900000000373,23494.800000000745,28266.400000000373,31208.800000000745,34558.70000000112,35200.90000000037,35966.800000000745],"honeypot":0,"survey":"mace","page":6,"trial_type":"survey-mace","trial_index":14,"time_elapsed":424697,"internal_node_id":"0.0-14.0","task_version":"prescreen-v0.3","browser_interactions":0},{"responses":{"01":"No","02":"No","03":"No","04":"No","05":"No","06":"No","07":"No"},"rt":15557.099999999627,"item_order":[0,1,2,3,4,5,6],"radio_events":[6106.5,7624.5999999996275,9194.299999998882,10572.400000000373,11911.599999999627,13717.799999998882,15161],"checkbox_events":[],"key_events":[],"mouse_events":[6106.5,7624.5999999996275,9194.299999998882,10572.400000000373,11911.599999999627,13717.799999998882,15161,15555.199999999255],"honeypot":0,"survey":"mace","page":7,"trial_type":"survey-mace","trial_index":15,"time_elapsed":440256,"internal_node_id":"0.0-15.0","task_version":"prescreen-v0.3","browser_interactions":0},{"responses":{"01":"No","02":"No","03":"No","04":"No"},"rt":32620.300000000745,"item_order":[0,1,2,3],"radio_events":[14811.700000001118,23903.5,28027.700000001118,29630],"checkbox_events":[],"key_events":[],"mouse_events":[14811.700000001118,23903.5,28027.700000001118,29630,32619.10000000149],"honeypot":0,"survey":"mace","page":8,"trial_type":"survey-mace","trial_index":16,"time_elapsed":472879,"internal_node_id":"0.0-16.0","task_version":"prescreen-v0.3","browser_interactions":0},{"responses":{"01":"Yes","01_ages_1":"1","01_ages_2":"2","01_ages_3":"3","01_ages_4":"4","01_ages_5":"5","01_ages_6":"6","01_ages_7":"7","01_ages_8":"8","01_ages_9":"9","01_ages_10":"10","01_ages_11":"11","01_ages_12":"12","01_ages_13":"13","01_ages_14":"14","01_ages_15":"15","01_ages_16":"16","01_ages_17":"17","01_ages_18":"18","02":"Yes","02_ages_1":"1","02_ages_2":"2","02_ages_3":"3","02_ages_4":"4","02_ages_5":"5","02_ages_6":"6","02_ages_7":"7","02_ages_8":"8","02_ages_9":"9","02_ages_10":"10","02_ages_11":"11","02_ages_12":"12","02_ages_13":"13","02_ages_14":"14","02_ages_15":"15","02_ages_16":"16","02_ages_17":"17","02_ages_18":"18","03":"Yes","03_ages_1":"1","03_ages_2":"2","03_ages_3":"3","03_ages_4":"4","03_ages_5":"5","03_ages_6":"6","03_ages_7":"7","03_ages_8":"8","03_ages_9":"9","03_ages_10":"10","03_ages_11":"11","03_ages_12":"12","03_ages_13":"13","03_ages_14":"14","03_ages_15":"15","03_ages_16":"16","04":"Yes","04_ages_1":"1","04_ages_2":"2","04_ages_7":"7","04_ages_8":"8","04_ages_15":"15"},"rt":61667.29999999888,"item_order":[0,1,2,3],"radio_events":[5594.199999999255,19778.099999999627,32482.599999999627,49998.59999999963],"checkbox_events":[8272.099999999627,10160.699999999255,10592.199999999255,11034.099999999627,11398,12069.89999999851,12613.89999999851,12938.599999999627,13418,13883.199999999255,14268,14864.299999998882,15231.099999999627,15746.199999999255,16148.099999999627,16604.39999999851,17014,17410.199999999255,20884.199999999255,21378.299999998882,21687.699999999255,22036.199999999255,23336.299999998882,23708,24070.199999999255,24417.89999999851,24836,25208,25588,25982,26871.699999999255,27174.199999999255,27631.599999999627,28064,28875.799999998882,29364.199999999255,33464,34710,35522,35870.5,36242.29999999888,36628.699999999255,37480.09999999963,37890,38810.29999999888,39166,39823.79999999888,40387.89999999851,40784,41270.09999999963,41726.199999999255,42238,51707.89999999851,52166.199999999255,53618,54842,58380.89999999851],"key_events":[],"mouse_events":[5594.199999999255,8272.099999999627,10160.699999999255,10592.199999999255,11034.099999999627,11398,12069.89999999851,12613.89999999851,12938.599999999627,13418,13883.199999999255,14268,14864.299999998882,15231.099999999627,15746.199999999255,16148.099999999627,16604.39999999851,17014,17410.199999999255,19778.099999999627,20884.199999999255,21378.299999998882,21687.699999999255,22036.199999999255,22438.299999998882,23336.299999998882,23708,24070.199999999255,24417.89999999851,24836,25208,25588,25982,26400,26871.699999999255,27174.199999999255,27631.599999999627,28064,28476.099999999627,28875.799999998882,29364.199999999255,32482.599999999627,33464,34710,35074.09999999963,35522,35870.5,36242.29999999888,36628.699999999255,37480.09999999963,37890,38291.89999999851,38810.29999999888,39166,39823.79999999888,40387.89999999851,40784,41270.09999999963,41726.199999999255,42238,49998.59999999963,51707.89999999851,52166.199999999255,53618,54842,58380.89999999851,61666.09999999963],"honeypot":0,"survey":"mace","page":9,"trial_type":"survey-mace","trial_index":17,"time_elapsed":534547,"internal_node_id":"0.0-17.0","task_version":"prescreen-v0.3","browser_interactions":0},{"responses":{"01":"No","02":"No","03":"Yes","03_ages_15":"15","03_ages_16":"16","03_ages_17":"17","03_ages_18":"18","04":"Yes","04_ages_7":"7","04_ages_8":"8","04_ages_9":"9","04_ages_10":"10","04_ages_11":"11","04_ages_12":"12","04_ages_13":"13","04_ages_14":"14","04_ages_15":"15","04_ages_16":"16","04_ages_17":"17","04_ages_18":"18","05":"Yes","05_ages_10":"10","05_ages_11":"11","05_ages_13":"13","05_ages_14":"14","05_ages_15":"15","05_ages_16":"16","05_ages_17":"17","05_ages_18":"18","06":"Yes","06_ages_17":"17","07":"Yes","07_ages_1":"1","07_ages_2":"2","07_ages_3":"3","07_ages_4":"4","07_ages_5":"5","07_ages_6":"6","07_ages_7":"7","07_ages_8":"8","07_ages_9":"9","07_ages_10":"10","07_ages_11":"11","07_ages_12":"12","07_ages_13":"13","07_ages_14":"14","07_ages_15":"15","07_ages_16":"16","07_ages_17":"17","07_ages_18":"18","08":"Yes","08_ages_1":"1","08_ages_2":"2","08_ages_3":"3","08_ages_4":"4","08_ages_5":"5","08_ages_6":"6","08_ages_7":"7","08_ages_8":"8","08_ages_9":"9","08_ages_10":"10","08_ages_11":"11","08_ages_12":"12","08_ages_13":"13","08_ages_14":"14","08_ages_15":"15","08_ages_16":"16"},"rt":70996.19999999925,"item_order":[0,1,2,3,4,5,6,7],"radio_events":[3987,5193.0999999996275,7196.799999998882,14006.900000000373,25449.5,35755,41985,58348.90000000037],"checkbox_events":[9519.299999998882,9950.900000000373,10409,10841,17130.900000000373,17494.699999999255,17875,18835.099999999627,19188.599999999627,19739.599999999627,20350.599999999627,20783.799999998882,21187,21540.699999999255,21999.5,22841.199999999255,28165,28896.599999999627,29295,29875,30214.599999999627,30662.900000000373,31460.799999998882,32350.799999998882,37722.29999999888,46294.699999999255,46789,47177,47902.90000000037,48314.5,48711,49120.199999999255,49628.79999999888,50046.79999999888,50403,50826.79999999888,51238.90000000037,51802.90000000037,52182.79999999888,52709,53056.79999999888,53434.79999999888,54162.90000000037,59720.09999999963,60352.90000000037,60768.90000000037,61173,61574.5,62009.5,63368.699999999255,64026.699999999255,64538.90000000037,65612.69999999925,66309,66804.79999999888,67888.69999999925,68236.90000000037,68708.59999999963,70419.09999999963],"key_events":[],"mouse_events":[3987,5193.0999999996275,7196.799999998882,9519.299999998882,9950.900000000373,10409,10841,14006.900000000373,17130.900000000373,17494.699999999255,17875,18231.400000000373,18835.099999999627,19188.599999999627,19739.599999999627,20350.599999999627,20783.799999998882,21187,21540.699999999255,21999.5,22441.900000000373,22841.199999999255,25449.5,28165,28529.199999999255,28896.599999999627,29295,29875,30214.599999999627,30662.900000000373,31051.199999999255,31460.799999998882,31849.900000000373,32350.799999998882,35755,37722.29999999888,41985,46294.699999999255,46789,47177,47902.90000000037,48314.5,48711,49120.199999999255,49628.79999999888,50046.79999999888,50403,50826.79999999888,51238.90000000037,51802.90000000037,52182.79999999888,52709,53056.79999999888,53434.79999999888,53806.90000000037,54162.90000000037,58348.90000000037,59720.09999999963,60018.90000000037,60352.90000000037,60768.90000000037,61173,61574.5,62009.5,63368.699999999255,64026.699999999255,64538.90000000037,65002.79999999888,65612.69999999925,66309,66804.79999999888,67888.69999999925,68236.90000000037,68708.59999999963,70419.09999999963,70994.09999999963],"honeypot":0,"survey":"mace","page":10,"trial_type":"survey-mace","trial_index":18,"time_elapsed":605545,"internal_node_id":"0.0-18.0","task_version":"prescreen-v0.3","browser_interactions":0,"instructed":0},{"rt":5026.699999999255,"trial_type":"mental-health-alert","trial_index":19,"time_elapsed":610575,"internal_node_id":"0.0-19.0","task_version":"prescreen-v0.3","interactions":"[]"}]