[{"view_history":[{"page_index":0,"viewing_time":5415},{"page_index":1,"viewing_time":4981},{"page_index":2,"viewing_time":8419},{"page_index":3,"viewing_time":1511}],"rt":20327,"trial_type":"instructions","trial_index":0,"time_elapsed":20335,"internal_node_id":"0.0-0.0","task_version":"prescreen-v0.3"},{"rt":37985,"responses":{"age":"62","gender-categorical":"Male","gender-free-response":"","ethnicity":"Not Hispanic or Latino","race":["White"],"education":"Some college","siblings":"5"},"trial_type":"survey-demo","trial_index":1,"time_elapsed":58332,"internal_node_id":"0.0-1.0","task_version":"prescreen-v0.3"},{"responses":{"Q05":"0","Q10":"2","Q06":"2","Q16":"0","Q03":"0","Q15":"2","Q13":"1","Q14":"0","Q21":"3","Q20":"0","Q17":"1","Q04":"2","Q19":"0","Q18":"0","Q08":"2","Q02":"1","Q12":"0","Q01":"2","Q07":"0","Q11":"2","Q09":"1"},"rt":145004,"item_order":[4,9,5,15,2,14,12,13,20,19,16,3,18,17,7,1,11,0,6,10,8],"radio_events":[8329,14748,32576,39616,41963,49746,56156,63040,66586,69684,76670,88326,93869,101454,106541,112000,120381,125475,134732,139533,144011],"key_events":[],"mouse_events":[8329,14748,32576,39616,41963,49746,56156,63040,66586,69684,76670,88326,93869,101454,106541,112000,120381,125475,134732,139533,144011,145004],"straightlining":0.42857142857142855,"zigzagging":0.45,"honeypot":0,"survey":"sns","trial_type":"survey-template","trial_index":2,"time_elapsed":203344,"internal_node_id":"0.0-2.0","task_version":"prescreen-v0.3","browser_interactions":0,"infrequency":0},{"responses":{"Q11":"2","Q12":"2","Q13":"0","Q01":"2","Q03":"2","Q05":"3","Q10":"3","Q06":"3","Q09":"2","Q02":"3","Q04":"3","Q08":"2","Q07":"2"},"rt":67908,"item_order":[10,11,12,0,2,4,9,5,8,1,3,7,6],"radio_events":[7356,11677,14350,18329,24873,30573,34237,40207,45053,48391,54215,56909,61819,64491,67231],"key_events":[],"mouse_events":[7356,11677,14350,18329,24873,30573,34237,40207,45053,48391,54215,56909,61819,64491,67231,67908],"straightlining":0.5384615384615384,"zigzagging":0.3333333333333333,"honeypot":0,"survey":"bisbas","trial_type":"survey-template","trial_index":3,"time_elapsed":271259,"internal_node_id":"0.0-3.0","task_version":"prescreen-v0.3","browser_interactions":0,"infrequency":0},{"responses":{"Q01":"3","Q02":"2","Q03":"3"},"rt":24453,"radio_events":[8146,16130,23268],"key_events":[],"mouse_events":[8146,16130,23268,24453],"survey":"map","page":1,"trial_type":"survey-map","trial_index":4,"time_elapsed":295717,"internal_node_id":"0.0-4.0","task_version":"prescreen-v0.3","browser_interactions":0},{"responses":{"Q04":"2","Q05":"2","Q06":"3"},"rt":22773,"radio_events":[8070,12019,16975,18483,21418],"key_events":[],"mouse_events":[8070,12019,16975,18483,21418,22773],"survey":"map","page":2,"trial_type":"survey-map","trial_index":5,"time_elapsed":318493,"internal_node_id":"0.0-5.0","task_version":"prescreen-v0.3","browser_interactions":0},{"responses":{"Q07":"3","Q08":"4","Q09":"1"},"rt":25990,"radio_events":[10573,18557,24882],"key_events":[],"mouse_events":[10573,18557,24882,25990],"survey":"map","page":3,"trial_type":"survey-map","trial_index":6,"time_elapsed":344488,"internal_node_id":"0.0-6.0","task_version":"prescreen-v0.3","browser_interactions":0},{"responses":{"Q10":"1","Q11":"1","Q12":"2","Q13":"1","Q16":"0","Q14":"3","Q15":"4"},"rt":58414,"radio_events":[8701,17195,18866,27177,36452,42725,49840,56917],"key_events":[],"mouse_events":[8701,17195,18866,27177,36452,42725,49840,56299,56917,58414],"survey":"map","page":4,"trial_type":"survey-map","trial_index":7,"time_elapsed":402905,"internal_node_id":"0.0-7.0","task_version":"prescreen-v0.3","browser_interactions":0,"infrequency":0},{"view_history":[{"page_index":0,"viewing_time":4982},{"page_index":1,"viewing_time":5163}],"rt":10146,"trial_type":"instructions","trial_index":8,"time_elapsed":413053,"internal_node_id":"0.0-8.0","task_version":"prescreen-v0.3"},{"responses":{"01":"No","02":"No","03":"No","04":"No","05":"No","06":"No"},"rt":40588,"item_order":[0,1,2,3,4,5],"radio_events":[13374,20396,23781,25957,30726,39686],"checkbox_events":[],"key_events":[],"mouse_events":[0,13374,20396,23781,25957,30726,39686,40587],"honeypot":0,"survey":"mace","page":1,"trial_type":"survey-mace","trial_index":9,"time_elapsed":453651,"internal_node_id":"0.0-9.0","task_version":"prescreen-v0.3","browser_interactions":0},{"responses":{"01":"No","02":"No","03":"Yes","03_ages_5":"5","03_ages_6":"6","03_ages_7":"7","03_ages_8":"8","03_ages_9":"9","04":"No","05":"No","06":"No","07":"No","08":"No"},"rt":43473,"item_order":[0,1,2,3,4,5,6,7],"radio_events":[3293,4889,7166,33505,37321,39605,41131,42842],"checkbox_events":[19607,20537,21505,22069,23185,24244,27341],"key_events":[],"mouse_events":[3293,4889,7166,19607,20537,21505,22069,23185,24244,27341,33505,37321,39605,41131,42842,43473],"honeypot":0,"survey":"mace","page":2,"trial_type":"survey-mace","trial_index":10,"time_elapsed":497133,"internal_node_id":"0.0-10.0","task_version":"prescreen-v0.3","browser_interactions":0},{"responses":{"01":"No","02":"No","03":"No","04":"No"},"rt":13531,"item_order":[0,1,2,3],"radio_events":[4852,8428,11782,12966],"checkbox_events":[],"key_events":[],"mouse_events":[4852,8428,11782,12966,13531],"honeypot":0,"survey":"mace","page":3,"trial_type":"survey-mace","trial_index":11,"time_elapsed":510669,"internal_node_id":"0.0-11.0","task_version":"prescreen-v0.3","browser_interactions":0},{"responses":{"01":"No","02":"No"},"rt":8046,"item_order":[0,1],"radio_events":[4754,7303],"checkbox_events":[],"key_events":[],"mouse_events":[4754,7303,8046],"honeypot":0,"survey":"mace","page":4,"trial_type":"survey-mace","trial_index":12,"time_elapsed":518720,"internal_node_id":"0.0-12.0","task_version":"prescreen-v0.3","browser_interactions":0},{"responses":{"01":"No","02":"No","03":"No","04":"No","05":"No"},"rt":29090,"item_order":[0,1,2,3,4],"radio_events":[15973,18365,20363,25734,28483],"checkbox_events":[],"key_events":[],"mouse_events":[15973,18365,20363,25734,28483,29090],"honeypot":0,"survey":"mace","page":5,"trial_type":"survey-mace","trial_index":13,"time_elapsed":547816,"internal_node_id":"0.0-13.0","task_version":"prescreen-v0.3","browser_interactions":0},{"responses":{"01":"Yes","01_ages_5":"5","01_ages_6":"6","01_ages_7":"7","01_ages_8":"8","01_ages_9":"9","01_ages_10":"10","01_ages_11":"11","01_ages_12":"12","01_ages_13":"13","02":"Yes","02_ages_5":"5","02_ages_6":"6","02_ages_7":"7","02_ages_8":"8","02_ages_9":"9","02_ages_10":"10","02_ages_11":"11","02_ages_12":"12","02_ages_13":"13","03":"Yes","03_ages_10":"10","03_ages_11":"11","03_ages_12":"12","03_ages_13":"13","04":"Yes","04_ages_11":"11","04_ages_12":"12","04_ages_13":"13","05":"Yes","05_ages_8":"8","05_ages_9":"9","05_ages_10":"10","05_ages_11":"11","05_ages_12":"12"},"rt":140906,"item_order":[0,1,2,3,4],"radio_events":[11319,39687,98273,110238,130463],"checkbox_events":[17646,18805,19449,20216,20787,21864,22514,23173,26121,46236,46887,47405,47963,89409,90236,90733,91260,91887,104233,105711,106430,107296,112073,112862,113923,114882,116431,134813,135665,136856,137941,138658],"key_events":[],"mouse_events":[11319,17646,18805,19449,20216,20787,21864,22514,23173,26121,39687,46236,46887,47405,47963,89409,90236,90733,91260,91887,98273,104233,105711,106430,107296,110238,112073,112862,113923,114882,116431,130463,134813,135665,136856,137941,138658,140906],"honeypot":0,"survey":"mace","page":6,"trial_type":"survey-mace","trial_index":14,"time_elapsed":688730,"internal_node_id":"0.0-14.0","task_version":"prescreen-v0.3","browser_interactions":2},{"responses":{"01":"No","02":"No","03":"Yes","03_ages_9":"9","03_ages_10":"10","03_ages_11":"11","03_ages_12":"12","03_ages_13":"13","04":"No","05":"No","06":"No","07":"No"},"rt":38228,"item_order":[0,1,2,3,4,5,6],"radio_events":[4643,7121,9635,27514,33241,35005,36623],"checkbox_events":[14180,14953,16650,17639,18515],"key_events":[],"mouse_events":[4643,7121,9635,14180,14953,16650,17639,18515,27514,33241,35005,36623,38228],"honeypot":0,"survey":"mace","page":7,"trial_type":"survey-mace","trial_index":15,"time_elapsed":726969,"internal_node_id":"0.0-15.0","task_version":"prescreen-v0.3","browser_interactions":0},{"responses":{"01":"No","02":"No","03":"Yes","03_ages_13":"13","03_ages_14":"14","03_ages_15":"15","03_ages_16":"16","04":"No"},"rt":63362,"item_order":[0,1,2,3],"radio_events":[13860,36098,47375,62626],"checkbox_events":[52346,53275,54080,54900],"key_events":[],"mouse_events":[13860,36098,47375,52346,53275,54080,54900,62626,63362],"honeypot":0,"survey":"mace","page":8,"trial_type":"survey-mace","trial_index":16,"time_elapsed":790339,"internal_node_id":"0.0-16.0","task_version":"prescreen-v0.3","browser_interactions":0},{"responses":{"01":"Yes","01_ages_1":"1","01_ages_2":"2","01_ages_3":"3","01_ages_4":"4","01_ages_5":"5","01_ages_6":"6","01_ages_7":"7","01_ages_8":"8","01_ages_9":"9","01_ages_10":"10","01_ages_11":"11","01_ages_12":"12","01_ages_13":"13","01_ages_14":"14","01_ages_15":"15","01_ages_16":"16","01_ages_17":"17","01_ages_18":"18","02":"Yes","02_ages_8":"8","02_ages_9":"9","02_ages_10":"10","02_ages_11":"11","02_ages_12":"12","02_ages_13":"13","02_ages_14":"14","02_ages_15":"15","03":"Yes","03_ages_10":"10","03_ages_11":"11","03_ages_12":"12","03_ages_13":"13","04":"Yes","04_ages_1":"1","04_ages_2":"2","04_ages_3":"3","04_ages_4":"4","04_ages_5":"5","04_ages_6":"6","04_ages_7":"7","04_ages_8":"8","04_ages_10":"10","04_ages_11":"11","04_ages_12":"12","04_ages_13":"13","04_ages_14":"14","04_ages_15":"15","04_ages_16":"16","04_ages_17":"17","04_ages_18":"18"},"rt":88248,"item_order":[0,1,2,3],"radio_events":[4875,33372,51932,70545],"checkbox_events":[9109,9990,11074,11873,12639,13429,14201,14921,15689,16384,16989,17561,18342,19116,19697,20564,21198,23892,37908,38844,39702,40492,40996,41716,42566,43318,59788,60708,61536,62388,72264,73572,74438,74996,75738,76241,77008,77512,79430,81800,82364,83548,84068,84600,85429,86056,86682],"key_events":[],"mouse_events":[4875,9109,9990,11074,11873,12639,13429,14201,14921,15689,16384,16989,17561,18342,19116,19697,20564,21198,23892,33372,37908,38844,39702,40492,40996,41716,42566,43318,45570,51932,59788,60708,61536,62388,70545,72264,73572,74438,74996,75738,76241,77008,77512,79430,81800,82364,83548,84068,84600,85429,86056,86682,88247],"honeypot":0,"survey":"mace","page":9,"trial_type":"survey-mace","trial_index":17,"time_elapsed":878594,"internal_node_id":"0.0-17.0","task_version":"prescreen-v0.3","browser_interactions":0},{"responses":{"01":"No","02":"No","03":"Yes","03_ages_14":"14","03_ages_15":"15","03_ages_16":"16","03_ages_17":"17","03_ages_18":"18","04":"Yes","04_ages_12":"12","04_ages_13":"13","04_ages_14":"14","04_ages_15":"15","04_ages_16":"16","04_ages_17":"17","04_ages_18":"18","05":"No","06":"Yes","06_ages_17":"17","07":"Yes","07_ages_8":"8","07_ages_9":"9","07_ages_10":"10","07_ages_11":"11","07_ages_12":"12","07_ages_13":"13","07_ages_14":"14","07_ages_15":"15","07_ages_16":"16","07_ages_17":"17","07_ages_18":"18","08":"Yes","08_ages_8":"8","08_ages_9":"9","08_ages_10":"10","08_ages_11":"11","08_ages_12":"12","08_ages_13":"13","08_ages_14":"14","08_ages_15":"15","08_ages_16":"16"},"rt":90926,"item_order":[0,1,2,3,4,5,6,7],"radio_events":[5907,7115,12936,24942,40907,44044,54014,75412],"checkbox_events":[15961,17091,17711,18246,18772,31673,32743,33998,34677,35451,36195,36984,46258,60290,61031,61892,62402,62943,64993,66526,67394,67965,68809,69373,77709,78499,79384,80155,80683,81210,81751,85195,88329],"key_events":[],"mouse_events":[5907,7115,12936,15961,17091,17711,18246,18772,20931,24942,31673,32743,33998,34677,35451,36195,36984,40907,44044,46258,48409,54014,60290,61031,61892,62402,62943,63431,64993,66526,67394,67965,68809,69373,75412,77709,78499,79384,80155,80683,81210,81751,85195,88329,90926],"honeypot":0,"survey":"mace","page":10,"trial_type":"survey-mace","trial_index":18,"time_elapsed":969533,"internal_node_id":"0.0-18.0","task_version":"prescreen-v0.3","browser_interactions":0,"instructed":0},{"rt":9322,"trial_type":"mental-health-alert","trial_index":19,"time_elapsed":978860,"internal_node_id":"0.0-19.0","task_version":"prescreen-v0.3","interactions":"[{\"event\":\"focus\",\"trial\":0,\"time\":2},{\"event\":\"blur\",\"trial\":14,\"time\":597021},{\"event\":\"focus\",\"trial\":14,\"time\":635082}]"}]