[{"view_history":[{"page_index":0,"viewing_time":4172.5},{"page_index":1,"viewing_time":3199.5999999940395},{"page_index":2,"viewing_time":3536.600000023842},{"page_index":3,"viewing_time":1184.0999999940395}],"rt":12093.59999999404,"trial_type":"instructions","trial_index":0,"time_elapsed":12112,"internal_node_id":"0.0-0.0","task_version":"prescreen-v0.3"},{"rt":22647.09999999404,"responses":{"age":"34","gender-categorical":"Male","gender-free-response":"","ethnicity":"Not Hispanic or Latino","race":["White"],"education":"Bachelor degree","siblings":"3"},"trial_type":"survey-demo","trial_index":1,"time_elapsed":34764,"internal_node_id":"0.0-1.0","task_version":"prescreen-v0.3"},{"responses":{"Q06":"2","Q02":"0","Q12":"1","Q14":"0","Q08":"2","Q13":"0","Q04":"1","Q15":"0","Q01":"1","Q16":"0","Q10":"1","Q18":"0","Q09":"2","Q03":"1","Q17":"2","Q21":"3","Q20":"0","Q19":"0","Q05":"0","Q07":"2","Q11":"3"},"rt":184437.80000001192,"item_order":[5,1,11,13,7,12,3,14,0,15,9,17,8,2,16,20,19,18,4,6,10],"radio_events":[23003.80000001192,28133,39814.10000002384,47440.10000002384,84372.70000001788,87573.60000002384,96566.60000002384,104239.5,106159.70000001788,110080.40000000596,114289,117097.5,122514.90000000596,127411,128772,143853.5,146214.10000002384,150294.30000001192,156119.20000001788,170113.30000001192,177866.30000001192,183995.20000001788],"key_events":[23003.80000001192,26460,27180.100000023842,27596.80000001192,28133,38142.5,38701.70000001788,39814.10000002384,46855.30000001192,47440.10000002384,83452.60000002384,84372.70000001788,87069,87573.60000002384,96086.30000001192,96566.60000002384,103255.40000000596,104239.5,106159.70000001788,110080.40000000596,114289,117097.5,122514.90000000596,127411,128772,143853.5,145550.30000001192,146214.10000002384,149367,149614.10000002384,150294.30000001192,156119.20000001788,168681.10000002384,169169.10000002384,169760.90000000596,170113.30000001192,177010.40000000596,177434.5,177866.30000001192,182539.90000000596,182964.10000002384,183507.10000002384,183995.20000001788,184436],"mouse_events":[],"straightlining":0.42857142857142855,"zigzagging":0.65,"honeypot":0,"survey":"sns","trial_type":"survey-template","trial_index":2,"time_elapsed":219209,"internal_node_id":"0.0-2.0","task_version":"prescreen-v0.3","browser_interactions":0,"infrequency":0},{"responses":{"Q01":"3","Q03":"3","Q11":"3","Q02":"3","Q05":"3","Q10":"2","Q06":"2","Q07":"3","Q12":"3","Q08":"2","Q13":"0","Q04":"3","Q09":"3"},"rt":74634.69999998808,"item_order":[0,2,10,1,4,9,5,6,11,7,12,3,8],"radio_events":[4600.299999982119,14632.799999982119,22818.09999999404,27107.09999999404,30579.29999998212,34331.79999998212,43998.09999999404,46861.59999999404,49013.79999998212,56151.5,59087.40000000596,67464.59999999404,70632.90000000596,72185.29999998212,73569.59999999404],"key_events":[3671.0999999940395,4111.199999988079,4600.299999982119,13240.799999982119,14120.699999988079,14632.799999982119,22379.19999998808,22818.09999999404,27107.09999999404,30579.29999998212,33812.19999998808,34331.79999998212,42871.40000000596,43637.69999998808,43998.09999999404,46861.59999999404,49013.79999998212,55319.40000000596,56151.5,58687.40000000596,59087.40000000596,67464.59999999404,69881,70632.90000000596,72185.29999998212,73569.59999999404,74633.69999998808],"mouse_events":[],"straightlining":0.6923076923076923,"zigzagging":0.3333333333333333,"honeypot":0,"survey":"bisbas","trial_type":"survey-template","trial_index":3,"time_elapsed":293850,"internal_node_id":"0.0-3.0","task_version":"prescreen-v0.3","browser_interactions":0,"infrequency":0},{"responses":{"Q01":"3","Q02":"1","Q03":"3"},"rt":31662.80000001192,"radio_events":[17236.100000023842,26053.80000001192,31013.90000000596],"key_events":[17236.100000023842,25029.100000023842,25677.90000000596,26053.80000001192,31013.90000000596,31662.100000023842],"mouse_events":[],"survey":"map","page":1,"trial_type":"survey-map","trial_index":4,"time_elapsed":325518,"internal_node_id":"0.0-4.0","task_version":"prescreen-v0.3","browser_interactions":0},{"responses":{"Q04":"2","Q05":"2","Q06":"2"},"rt":18237.90000000596,"radio_events":[9804.09999999404,12717,17221.59999999404],"key_events":[8860.200000017881,9804.09999999404,12220.59999999404,12717,17221.59999999404,18237.5],"mouse_events":[],"survey":"map","page":2,"trial_type":"survey-map","trial_index":5,"time_elapsed":343760,"internal_node_id":"0.0-5.0","task_version":"prescreen-v0.3","browser_interactions":0},{"responses":{"Q07":"1","Q08":"3","Q09":"2"},"rt":27873.29999998212,"radio_events":[12877,24054.79999998212,27231.59999999404],"key_events":[12877,24054.79999998212,27231.59999999404,27872.59999999404],"mouse_events":[],"survey":"map","page":3,"trial_type":"survey-map","trial_index":6,"time_elapsed":371638,"internal_node_id":"0.0-6.0","task_version":"prescreen-v0.3","browser_interactions":0},{"responses":{"Q10":"2","Q11":"1","Q12":"1","Q13":"3","Q16":"0","Q14":"2","Q15":"1"},"rt":59827.09999999404,"radio_events":[18955.59999999404,22580.19999998808,29269.09999999404,33429.69999998808,37503,42887.19999998808,52520.79999998212,55513.29999998212],"key_events":[18955.59999999404,22580.19999998808,28773.59999999404,29269.09999999404,33054.29999998212,33429.69999998808,37503,42343.59999999404,42887.19999998808,52520.79999998212,55050.09999999404,55513.29999998212,59826.29999998212],"mouse_events":[],"survey":"map","page":4,"trial_type":"survey-map","trial_index":7,"time_elapsed":431471,"internal_node_id":"0.0-7.0","task_version":"prescreen-v0.3","browser_interactions":0,"infrequency":0},{"view_history":[{"page_index":0,"viewing_time":3226.4000000059605},{"page_index":1,"viewing_time":3688.0999999940395}],"rt":6915.299999982119,"trial_type":"instructions","trial_index":8,"time_elapsed":438391,"internal_node_id":"0.0-8.0","task_version":"prescreen-v0.3"},{"responses":{"01":"No","02":"No","03":"No","04":"No","05":"No","06":"No"},"rt":47636.09999999404,"item_order":[0,1,2,3,4,5],"radio_events":[16885,22357.90000000596,25702.30000001192,40480.59999999404,41072.59999999404,47097.40000000596],"checkbox_events":[],"key_events":[0.09999999403953552,16581.09999999404,16885,22357.90000000596,24790.30000001192,25702.30000001192,26342.30000001192,38752,39144.09999999404,40144.20000001788,40480.59999999404,41072.59999999404,46321.30000001192,46793.5,47097.40000000596,47633.59999999404],"mouse_events":[],"honeypot":0,"survey":"mace","page":1,"trial_type":"survey-mace","trial_index":9,"time_elapsed":486033,"internal_node_id":"0.0-9.0","task_version":"prescreen-v0.3","browser_interactions":0},{"responses":{"01":"No","02":"No","03":"Yes","03_ages_4":"4","03_ages_5":"5","03_ages_6":"6","03_ages_7":"7","04":"Yes","04_ages_4":"4","04_ages_5":"5","04_ages_6":"6","04_ages_7":"7","05":"Yes","05_ages_4":"4","05_ages_5":"5","05_ages_6":"6","05_ages_7":"7","06":"No","07":"No","08":"No"},"rt":82902.5,"item_order":[0,1,2,3,4,5,6,7],"radio_events":[8664.800000011921,14321.200000017881,15801.5,64776.30000001192,71921.59999999404,79586.80000001192,80627.90000000596,81995.59999999404],"checkbox_events":[24747.5,28059.80000001192,30067.70000001788,34612.20000001788,67297.09999999404,67833.59999999404,68386,68897.09999999404,75410.09999999404,75890.09999999404,76347.70000001788,76762.40000000596],"key_events":[8664.800000011921,14321.200000017881,15801.5,24747.5,27611.09999999404,28059.80000001192,29003.30000001192,30067.70000001788,34612.20000001788,64064.90000000596,64472.40000000596,64776.30000001192,67001.70000001788,67297.09999999404,67833.59999999404,68386,68897.09999999404,71921.59999999404,75410.09999999404,75890.09999999404,76347.70000001788,76762.40000000596,79586.80000001192,80627.90000000596,81995.59999999404,82899.5],"mouse_events":[],"honeypot":0,"survey":"mace","page":2,"trial_type":"survey-mace","trial_index":10,"time_elapsed":568941,"internal_node_id":"0.0-10.0","task_version":"prescreen-v0.3","browser_interactions":0},{"responses":{"01":"No","02":"No","03":"No","04":"No"},"rt":26981.30000001192,"item_order":[0,1,2,3],"radio_events":[8544.59999999404,12681.09999999404,14306,26387.20000001788],"checkbox_events":[],"key_events":[7640.200000017881,8544.59999999404,11553,12681.09999999404,14306,25635.40000000596,26211.70000001788,26387.20000001788,26979.70000001788],"mouse_events":[],"honeypot":0,"survey":"mace","page":3,"trial_type":"survey-mace","trial_index":11,"time_elapsed":595928,"internal_node_id":"0.0-11.0","task_version":"prescreen-v0.3","browser_interactions":0},{"responses":{"01":"No","02":"No"},"rt":9900.199999988079,"item_order":[0,1],"radio_events":[8682.699999988079,9259.300000011921],"checkbox_events":[],"key_events":[7250.199999988079,7938.5,8682.699999988079,9259.300000011921,9899.40000000596],"mouse_events":[],"honeypot":0,"survey":"mace","page":4,"trial_type":"survey-mace","trial_index":12,"time_elapsed":605832,"internal_node_id":"0.0-12.0","task_version":"prescreen-v0.3","browser_interactions":0},{"responses":{"01":"No","02":"No","03":"No","04":"No","05":"No"},"rt":30232.40000000596,"item_order":[0,1,2,3,4],"radio_events":[14659.300000011921,19708.20000001788,24420.80000001192,26485.09999999404,28621.90000000596],"checkbox_events":[],"key_events":[14659.300000011921,18997,19708.20000001788,23772.70000001788,24420.80000001192,25668.90000000596,26485.09999999404,28621.90000000596,30230.40000000596],"mouse_events":[],"honeypot":0,"survey":"mace","page":5,"trial_type":"survey-mace","trial_index":13,"time_elapsed":636071,"internal_node_id":"0.0-13.0","task_version":"prescreen-v0.3","browser_interactions":0},{"responses":{"01":"Yes","01_ages_7":"7","01_ages_8":"8","01_ages_9":"9","01_ages_10":"10","01_ages_11":"11","01_ages_12":"12","01_ages_13":"13","02":"Yes","02_ages_7":"7","02_ages_8":"8","02_ages_9":"9","02_ages_10":"10","02_ages_11":"11","02_ages_12":"12","02_ages_13":"13","03":"No","04":"No","05":"Yes","05_ages_7":"7","05_ages_8":"8","05_ages_9":"9"},"rt":115811.69999998808,"item_order":[0,1,2,3,4],"radio_events":[8737.199999988079,61856.59999999404,87405.09999999404,90909,95341.59999999404],"checkbox_events":[14842.199999988079,15217.59999999404,15609.699999988079,16338.299999982119,17042,17587,19890.399999976158,20410.5,35516.79999998212,65057.09999999404,65441.09999999404,66137.59999999404,66457.29999998212,66857.39999997616,67137.69999998808,67425.29999998212,96589.69999998808,98454,99598.19999998808,112912.09999999404,114032.19999998808],"key_events":[8240.5,8737.199999988079,14097.799999982119,14842.199999988079,15217.59999999404,15609.699999988079,16027.59999999404,16338.299999982119,17042,17587,19890.399999976158,20410.5,35516.79999998212,61856.59999999404,65057.09999999404,65441.09999999404,65849.89999997616,66137.59999999404,66457.29999998212,66857.39999997616,67137.69999998808,67425.29999998212,87405.09999999404,90116.69999998808,90596.89999997616,90909,94885.29999998212,95341.59999999404,96589.69999998808,98454,99598.19999998808,112912.09999999404,113640.69999998808,114032.19999998808,115809.79999998212],"mouse_events":[],"honeypot":0,"survey":"mace","page":6,"trial_type":"survey-mace","trial_index":14,"time_elapsed":751888,"internal_node_id":"0.0-14.0","task_version":"prescreen-v0.3","browser_interactions":0},{"responses":{"01":"No","02":"Yes","02_ages_11":"11","03":"No","04":"No","05":"No","06":"No","07":"No"},"rt":38272.19999998808,"item_order":[0,1,2,3,4,5,6],"radio_events":[4215.699999988079,15537.90000000596,29859.5,31035.59999999404,32532.30000001192,35141.19999998808,37380.40000000596],"checkbox_events":[19786.19999998808],"key_events":[4215.699999988079,15537.90000000596,19786.19999998808,29859.5,31035.59999999404,32532.30000001192,34532.90000000596,35141.19999998808,36484.90000000596,37380.40000000596,38269.30000001192],"mouse_events":[],"honeypot":0,"survey":"mace","page":7,"trial_type":"survey-mace","trial_index":15,"time_elapsed":790166,"internal_node_id":"0.0-15.0","task_version":"prescreen-v0.3","browser_interactions":0},{"responses":{"01":"No","02":"Yes","02_ages_1":"1","02_ages_2":"2","02_ages_3":"3","02_ages_4":"4","02_ages_5":"5","02_ages_6":"6","02_ages_7":"7","02_ages_8":"8","02_ages_9":"9","02_ages_10":"10","02_ages_11":"11","02_ages_12":"12","02_ages_13":"13","02_ages_14":"14","02_ages_15":"15","02_ages_16":"16","02_ages_17":"17","02_ages_18":"18","03":"No","04":"Yes","04_ages_6":"6","04_ages_7":"7","04_ages_8":"8","04_ages_9":"9","04_ages_10":"10","04_ages_11":"11","04_ages_12":"12","04_ages_13":"13","04_ages_14":"14","04_ages_15":"15","04_ages_16":"16","04_ages_17":"17","04_ages_18":"18"},"rt":91614,"item_order":[0,1,2,3],"radio_events":[7936,28659.09999999404,57424,64168.19999998808],"checkbox_events":[32323.5,32827.69999998808,33259.79999998212,33667.69999998808,34076.69999998808,34444.59999999404,34741.29999998212,35053.09999999404,35780.59999999404,36140.09999999404,37028.19999998808,37372.5,38684.29999998212,40301.39999997616,40669,41406.09999999404,41701.5,42405,74921.79999998212,79699,81498.69999998808,81922.89999997616,82803.39999997616,86219.5,86763.59999999404,87172.59999999404,87628.29999998212,88027.79999998212,89348.09999999404,89733.09999999404,90188.19999998808],"key_events":[7503.799999982119,7936,28147.79999998212,28659.09999999404,31571.5,32323.5,32827.69999998808,33259.79999998212,33667.69999998808,34076.69999998808,34444.59999999404,34741.29999998212,35053.09999999404,35780.59999999404,36140.09999999404,36468.09999999404,37028.19999998808,37372.5,37669.09999999404,38372.79999998212,38684.29999998212,38981,39260.59999999404,39660.5,40301.39999997616,40669,40988.79999998212,41406.09999999404,41701.5,42166.5,42405,57424,64168.19999998808,74217.69999998808,74921.79999998212,79699,80602.59999999404,81498.69999998808,81922.89999997616,82803.39999997616,86219.5,86763.59999999404,87172.59999999404,87628.29999998212,88027.79999998212,88323.69999998808,88795.69999998808,89348.09999999404,89733.09999999404,90188.19999998808,91612.39999997616],"mouse_events":[],"honeypot":0,"survey":"mace","page":8,"trial_type":"survey-mace","trial_index":16,"time_elapsed":881786,"internal_node_id":"0.0-16.0","task_version":"prescreen-v0.3","browser_interactions":0},{"responses":{"01":"Yes","01_ages_1":"1","01_ages_2":"2","01_ages_3":"3","01_ages_4":"4","01_ages_5":"5","01_ages_6":"6","01_ages_7":"7","01_ages_8":"8","01_ages_9":"9","01_ages_10":"10","01_ages_11":"11","01_ages_12":"12","01_ages_13":"13","01_ages_14":"14","01_ages_15":"15","01_ages_16":"16","01_ages_17":"17","01_ages_18":"18","02":"Yes","02_ages_10":"10","02_ages_14":"14","03":"No","04":"Yes","04_ages_1":"1","04_ages_2":"2","04_ages_3":"3","04_ages_4":"4","04_ages_5":"5","04_ages_6":"6","04_ages_7":"7","04_ages_8":"8","04_ages_9":"9","04_ages_10":"10","04_ages_11":"11","04_ages_12":"12","04_ages_13":"13","04_ages_14":"14","04_ages_15":"15","04_ages_16":"16","04_ages_17":"17","04_ages_18":"18"},"rt":84007.39999997616,"item_order":[0,1,2,3],"radio_events":[4866.0999999940395,29789.59999999404,60963.39999997616,70131.69999998808],"checkbox_events":[9154.799999982119,9667.799999982119,10050.799999982119,10563.09999999404,11555.09999999404,11947.09999999404,12259.199999988079,12635.199999988079,13683.299999982119,14604,15059.59999999404,15939.799999982119,16500.09999999404,16956.29999998212,17716.09999999404,18148,19244.09999999404,19540.29999998212,37551.19999998808,47984.89999997616,73676.89999997616,74396.19999998808,75164.39999997616,75668.89999997616,76109.19999998808,76645.79999998212,77004.69999998808,77748.69999998808,78164.79999998212,78500.79999998212,79477.79999998212,79997.09999999404,80325,81077.29999998212,81573.79999998212,81997.39999997616,82293.69999998808,83477.59999999404],"key_events":[4457.899999976158,4866.0999999940395,9154.799999982119,9667.799999982119,10050.799999982119,10563.09999999404,10979.59999999404,11555.09999999404,11947.09999999404,12259.199999988079,12635.199999988079,13131.199999988079,13683.299999982119,14299.5,14604,15059.59999999404,15939.799999982119,16500.09999999404,16956.29999998212,17716.09999999404,18148,18668,19244.09999999404,19540.29999998212,29405.59999999404,29789.59999999404,37551.19999998808,47984.89999997616,60963.39999997616,70131.69999998808,73676.89999997616,74396.19999998808,75164.39999997616,75668.89999997616,76109.19999998808,76645.79999998212,77004.69999998808,77372.79999998212,77748.69999998808,78164.79999998212,78500.79999998212,78821,79477.79999998212,79997.09999999404,80325,80622.09999999404,81077.29999998212,81573.79999998212,81997.39999997616,82293.69999998808,82541.5,83149.5,83477.59999999404,84006],"mouse_events":[],"honeypot":0,"survey":"mace","page":9,"trial_type":"survey-mace","trial_index":17,"time_elapsed":965798,"internal_node_id":"0.0-17.0","task_version":"prescreen-v0.3","browser_interactions":0},{"responses":{"01":"No","02":"No","03":"Yes","03_ages_10":"10","03_ages_15":"15","04":"Yes","04_ages_15":"15","05":"No","06":"Yes","06_ages_17":"17","07":"Yes","07_ages_8":"8","08":"No"},"rt":96025.40000000596,"item_order":[0,1,2,3,4,5,6,7],"radio_events":[10585.90000000596,11322.5,14066.90000000596,36773.59999999404,43782.59999999404,46751.69999998808,55272.29999998212,95454.19999998808],"checkbox_events":[18908.09999999404,31638.09999999404,38526.59999999404,48343.69999998808,65073.79999998212],"key_events":[9537.5,10585.90000000596,11322.5,13186.199999988079,14066.90000000596,18908.09999999404,31638.09999999404,36773.59999999404,38213.79999998212,38526.59999999404,43782.59999999404,46399.09999999404,46751.69999998808,48047.90000000596,48343.69999998808,55272.29999998212,65073.79999998212,95454.19999998808,96022.59999999404],"mouse_events":[],"honeypot":0,"survey":"mace","page":10,"trial_type":"survey-mace","trial_index":18,"time_elapsed":1061830,"internal_node_id":"0.0-18.0","task_version":"prescreen-v0.3","browser_interactions":0,"instructed":0},{"rt":11570.199999988079,"trial_type":"mental-health-alert","trial_index":19,"time_elapsed":1073404,"internal_node_id":"0.0-19.0","task_version":"prescreen-v0.3","interactions":"[]"}]