[{"view_history":[{"page_index":0,"viewing_time":11826.29999999702},{"page_index":1,"viewing_time":6380.30000000447},{"page_index":2,"viewing_time":6691.69999999553},{"page_index":3,"viewing_time":2168.89999999851}],"rt":27068.29999999702,"trial_type":"instructions","trial_index":0,"time_elapsed":27093,"internal_node_id":"0.0-0.0","task_version":"prescreen-v0.3"},{"rt":25048.70000000298,"responses":{"age":"26","gender-categorical":"Male","gender-free-response":"","ethnicity":"Not Hispanic or Latino","race":["Black or African American"],"education":"Bachelor degree"},"trial_type":"survey-demo","trial_index":1,"time_elapsed":52150,"internal_node_id":"0.0-1.0","task_version":"prescreen-v0.3"},{"responses":{"Q12":"0","Q16":"2","Q02":"0","Q05":"0","Q21":"3","Q18":"0","Q10":"0","Q04":"2","Q01":"2","Q11":"1","Q07":"1","Q06":"2","Q15":"2","Q09":"2","Q19":"1","Q14":"1","Q03":"0","Q13":"1","Q20":"0","Q17":"1","Q08":"2"},"rt":220451.70000000298,"item_order":[11,15,1,4,20,17,9,3,0,10,6,5,14,8,18,13,2,12,19,16,7],"radio_events":[16840.10000000149,32371,40022.79999999702,47326.10000000149,59767.60000000149,71533.89999999851,79885.29999999702,87777.29999999702,92178.70000000298,96781.70000000298,111512.29999999702,133521.79999999702,144547.5,159534.6000000015,183773.1000000015,190264.70000000298,196167.8999999985,200945.6000000015,206932.20000000298,214521,219246.1000000015],"key_events":[],"mouse_events":[16840.10000000149,32371,40022.79999999702,47326.10000000149,59767.60000000149,71533.89999999851,78292.10000000149,79885.29999999702,87777.29999999702,92178.70000000298,96781.70000000298,111512.29999999702,133521.79999999702,144547.5,159534.6000000015,183773.1000000015,190264.70000000298,196167.8999999985,200945.6000000015,206932.20000000298,214521,219246.1000000015,220450.29999999702],"straightlining":0.3333333333333333,"zigzagging":0.5,"honeypot":0,"survey":"sns","trial_type":"survey-template","trial_index":2,"time_elapsed":272614,"internal_node_id":"0.0-2.0","task_version":"prescreen-v0.3","browser_interactions":2,"infrequency":0},{"responses":{"Q11":"2","Q13":"0","Q02":"1","Q01":"1","Q08":"2","Q05":"2","Q04":"2","Q06":"3","Q03":"1","Q09":"2","Q07":"2","Q12":"1","Q10":"1"},"rt":118811.60000000149,"item_order":[10,12,1,0,7,4,3,5,2,8,6,11,9],"radio_events":[17439.70000000298,23422.29999999702,33070.79999999702,36320.70000000298,61720.5,66738.79999999702,73085.89999999851,80272.70000000298,92778.89999999851,99157.39999999851,105564.70000000298,110407.10000000149,117118.39999999851],"key_events":[],"mouse_events":[17439.70000000298,23422.29999999702,33070.79999999702,36320.70000000298,60888.10000000149,61720.5,66738.79999999702,73085.89999999851,80272.70000000298,92778.89999999851,99157.39999999851,105564.70000000298,110407.10000000149,117118.39999999851,118810.79999999702],"straightlining":0.46153846153846156,"zigzagging":0.4166666666666667,"honeypot":0,"survey":"bisbas","trial_type":"survey-template","trial_index":3,"time_elapsed":391433,"internal_node_id":"0.0-3.0","task_version":"prescreen-v0.3","browser_interactions":0,"infrequency":0},{"responses":{"Q01":"2","Q02":"2","Q03":"2"},"rt":44595,"radio_events":[22360.60000000149,29320.39999999851,38464.39999999851],"key_events":[],"mouse_events":[22360.60000000149,29320.39999999851,38464.39999999851,44594.5],"survey":"map","page":1,"trial_type":"survey-map","trial_index":4,"time_elapsed":436033,"internal_node_id":"0.0-4.0","task_version":"prescreen-v0.3","browser_interactions":0},{"responses":{"Q04":"3","Q05":"3","Q06":"4"},"rt":35524.69999999553,"radio_events":[12974.69999999553,20709.5,27080.29999999702],"key_events":[],"mouse_events":[12974.69999999553,20709.5,27080.29999999702,35524.29999999702],"survey":"map","page":2,"trial_type":"survey-map","trial_index":5,"time_elapsed":471561,"internal_node_id":"0.0-5.0","task_version":"prescreen-v0.3","browser_interactions":0},{"responses":{"Q07":"4","Q08":"3","Q09":"2"},"rt":36954.79999999702,"radio_events":[14768,20614.29999999702,35260.79999999702],"key_events":[],"mouse_events":[14768,20614.29999999702,35260.79999999702,36954],"survey":"map","page":3,"trial_type":"survey-map","trial_index":6,"time_elapsed":508520,"internal_node_id":"0.0-6.0","task_version":"prescreen-v0.3","browser_interactions":0},{"responses":{"Q10":"1","Q11":"2","Q12":"2","Q13":"1","Q16":"0","Q14":"2","Q15":"2"},"rt":92842.20000000298,"radio_events":[34733.60000000149,42449.60000000149,47559.60000000149,57196.5,65912.79999999702,77394,91016.5],"key_events":[],"mouse_events":[33813.60000000149,34733.60000000149,42449.60000000149,47559.60000000149,57196.5,65912.79999999702,77394,91016.5,92840.89999999851],"survey":"map","page":4,"trial_type":"survey-map","trial_index":7,"time_elapsed":601372,"internal_node_id":"0.0-7.0","task_version":"prescreen-v0.3","browser_interactions":0,"infrequency":0},{"view_history":[{"page_index":0,"viewing_time":57180.20000000298},{"page_index":1,"viewing_time":5090.60000000149}],"rt":62271.5,"trial_type":"instructions","trial_index":8,"time_elapsed":663648,"internal_node_id":"0.0-8.0","task_version":"prescreen-v0.3"},{"responses":{"01":"Yes","01_ages_11":"11","01_ages_12":"12","01_ages_13":"13","01_ages_14":"14","01_ages_15":"15","01_ages_16":"16","02":"Yes","02_ages_11":"11","02_ages_12":"12","02_ages_13":"13","02_ages_14":"14","02_ages_15":"15","02_ages_16":"16","03":"No","04":"No","05":"No","06":"No"},"rt":78176.79999999702,"item_order":[0,1,2,3,4,5],"radio_events":[19429.60000000149,50512.69999999553,64219,67732.5,70889.39999999851,77400.19999999553],"checkbox_events":[29718.69999999553,38527.29999999702,39238.29999999702,40460,41148.10000000149,42529.10000000149,43048.39999999851,52224.39999999851,53261.39999999851,53693.19999999553,54405.10000000149,55654.19999999553,56174.29999999702,56971.5,57936.10000000149,59024.5],"key_events":[],"mouse_events":[0.19999999552965164,19429.60000000149,29718.69999999553,38527.29999999702,39238.29999999702,39554.29999999702,40460,41148.10000000149,42529.10000000149,43048.39999999851,49851.19999999553,50512.69999999553,52224.39999999851,53261.39999999851,53693.19999999553,54405.10000000149,54974.19999999553,55654.19999999553,56174.29999999702,56971.5,57936.10000000149,59024.5,64219,67732.5,70889.39999999851,77400.19999999553,78174.60000000149],"honeypot":0,"survey":"mace","page":1,"trial_type":"survey-mace","trial_index":9,"time_elapsed":741832,"internal_node_id":"0.0-9.0","task_version":"prescreen-v0.3","browser_interactions":0},{"responses":{"01":"Yes","01_ages_11":"11","01_ages_12":"12","02":"No","03":"Yes","03_ages_7":"7","03_ages_8":"8","03_ages_9":"9","03_ages_10":"10","03_ages_11":"11","03_ages_12":"12","04":"No","05":"Yes","05_ages_7":"7","05_ages_8":"8","05_ages_9":"9","05_ages_10":"10","05_ages_11":"11","05_ages_12":"12","06":"No","07":"No","08":"No"},"rt":50825.30000000447,"item_order":[0,1,2,3,4,5,6,7],"radio_events":[7417.30000000447,16826.40000000596,19506.90000000596,33053.60000000149,36255.60000000149,44331.20000000298,46035,49961.10000000149],"checkbox_events":[10399.60000000149,10871.20000000298,20908,21540.30000000447,25037,26258.40000000596,27019.40000000596,28354.90000000596,28898.90000000596,29275.40000000596,37466.90000000596,38431.70000000298,38983.90000000596,39900.90000000596,40612.90000000596,41269],"key_events":[],"mouse_events":[7417.30000000447,10399.60000000149,10871.20000000298,16826.40000000596,19506.90000000596,20908,21540.30000000447,25037,25526.20000000298,26258.40000000596,27019.40000000596,27694.90000000596,28354.90000000596,28898.90000000596,29275.40000000596,33053.60000000149,36255.60000000149,37466.90000000596,38431.70000000298,38983.90000000596,39900.90000000596,40612.90000000596,41269,44331.20000000298,46035,49961.10000000149,50822.20000000298],"honeypot":0,"survey":"mace","page":2,"trial_type":"survey-mace","trial_index":10,"time_elapsed":792667,"internal_node_id":"0.0-10.0","task_version":"prescreen-v0.3","browser_interactions":0},{"responses":{"01":"No","02":"No","03":"No","04":"No"},"rt":20384.79999999702,"item_order":[0,1,2,3],"radio_events":[8428.19999999553,12325.39999999851,15523.39999999851,19613.29999999702],"checkbox_events":[],"key_events":[],"mouse_events":[8428.19999999553,12325.39999999851,15523.39999999851,19613.29999999702,20381.60000000149],"honeypot":0,"survey":"mace","page":3,"trial_type":"survey-mace","trial_index":11,"time_elapsed":813058,"internal_node_id":"0.0-11.0","task_version":"prescreen-v0.3","browser_interactions":0},{"responses":{"01":"No","02":"No"},"rt":11428,"item_order":[0,1],"radio_events":[5956.5,9526.60000000149],"checkbox_events":[],"key_events":[],"mouse_events":[5956.5,9526.60000000149,11427.29999999702],"honeypot":0,"survey":"mace","page":4,"trial_type":"survey-mace","trial_index":12,"time_elapsed":824492,"internal_node_id":"0.0-12.0","task_version":"prescreen-v0.3","browser_interactions":0},{"responses":{"01":"No","02":"No","03":"No","04":"No","05":"No"},"rt":25486.39999999851,"item_order":[0,1,2,3,4],"radio_events":[7311.79999999702,10902.79999999702,15964,20210.29999999702,24648.39999999851],"checkbox_events":[],"key_events":[],"mouse_events":[7311.79999999702,10902.79999999702,15964,20210.29999999702,23576,24648.39999999851,25484.89999999851],"honeypot":0,"survey":"mace","page":5,"trial_type":"survey-mace","trial_index":13,"time_elapsed":849986,"internal_node_id":"0.0-13.0","task_version":"prescreen-v0.3","browser_interactions":0},{"responses":{"01":"Yes","01_ages_10":"10","01_ages_11":"11","01_ages_12":"12","01_ages_13":"13","01_ages_14":"14","02":"Yes","02_ages_10":"10","02_ages_11":"11","02_ages_12":"12","02_ages_13":"13","02_ages_14":"14","03":"No","04":"No","05":"No"},"rt":42257.60000000149,"item_order":[0,1,2,3,4],"radio_events":[8119.10000000149,25815.20000000298,36524.20000000298,38441.60000000149,39445.5],"checkbox_events":[13741.10000000149,15022.20000000298,16354.39999999851,17251.70000000298,17671.70000000298,28500.20000000298,30013.5,30853.5,31574.70000000298,32106.70000000298],"key_events":[],"mouse_events":[8119.10000000149,13741.10000000149,15022.20000000298,16062,16354.39999999851,17251.70000000298,17671.70000000298,25815.20000000298,27008,28108,28500.20000000298,30013.5,30505.70000000298,30853.5,31574.70000000298,32106.70000000298,36524.20000000298,38441.60000000149,39445.5,42255.39999999851],"honeypot":0,"survey":"mace","page":6,"trial_type":"survey-mace","trial_index":14,"time_elapsed":892250,"internal_node_id":"0.0-14.0","task_version":"prescreen-v0.3","browser_interactions":0},{"responses":{"01":"No","02":"No","03":"No","04":"No","05":"No","06":"No","07":"No"},"rt":32835.70000000298,"item_order":[0,1,2,3,4,5,6],"radio_events":[6261.9000000059605,9274.60000000149,12300.10000000149,21149.10000000149,24001.60000000149,26318.5,31513.5],"checkbox_events":[],"key_events":[],"mouse_events":[6261.9000000059605,9274.60000000149,12300.10000000149,15253.90000000596,21149.10000000149,24001.60000000149,26318.5,27559.80000000447,31513.5,32833.5],"honeypot":0,"survey":"mace","page":7,"trial_type":"survey-mace","trial_index":15,"time_elapsed":925093,"internal_node_id":"0.0-15.0","task_version":"prescreen-v0.3","browser_interactions":0},{"responses":{"01":"No","02":"Yes","02_ages_14":"14","02_ages_15":"15","02_ages_16":"16","02_ages_17":"17","03":"No","04":"No"},"rt":48181.19999999553,"item_order":[0,1,2,3],"radio_events":[14025,23288.10000000149,42653.19999999553,47088],"checkbox_events":[30059.10000000149,31408.10000000149,32356,32912.79999999702,33433,35641.89999999851],"key_events":[],"mouse_events":[14025,22931.89999999851,23288.10000000149,30059.10000000149,31408.10000000149,31975.69999999553,32356,32912.79999999702,33433,35641.89999999851,42653.19999999553,47088,48179.79999999702],"honeypot":0,"survey":"mace","page":8,"trial_type":"survey-mace","trial_index":16,"time_elapsed":973279,"internal_node_id":"0.0-16.0","task_version":"prescreen-v0.3","browser_interactions":0},{"responses":{"01":"Yes","01_ages_1":"1","01_ages_2":"2","01_ages_3":"3","01_ages_4":"4","01_ages_5":"5","01_ages_6":"6","01_ages_7":"7","01_ages_8":"8","01_ages_9":"9","01_ages_10":"10","01_ages_11":"11","01_ages_12":"12","01_ages_13":"13","01_ages_14":"14","01_ages_15":"15","01_ages_16":"16","01_ages_17":"17","01_ages_18":"18","02":"Yes","02_ages_1":"1","02_ages_2":"2","02_ages_3":"3","02_ages_4":"4","02_ages_5":"5","02_ages_6":"6","02_ages_7":"7","02_ages_8":"8","02_ages_9":"9","02_ages_10":"10","02_ages_11":"11","02_ages_12":"12","02_ages_13":"13","02_ages_14":"14","02_ages_15":"15","02_ages_16":"16","02_ages_17":"17","02_ages_18":"18","03":"Yes","03_ages_1":"1","03_ages_2":"2","03_ages_3":"3","03_ages_4":"4","03_ages_5":"5","03_ages_6":"6","03_ages_7":"7","03_ages_8":"8","03_ages_9":"9","03_ages_10":"10","03_ages_11":"11","03_ages_12":"12","03_ages_13":"13","03_ages_14":"14","03_ages_15":"15","03_ages_16":"16","03_ages_17":"17","03_ages_18":"18","04":"Yes","04_ages_1":"1","04_ages_2":"2","04_ages_3":"3","04_ages_4":"4","04_ages_5":"5","04_ages_6":"6","04_ages_7":"7","04_ages_8":"8","04_ages_9":"9","04_ages_10":"10","04_ages_11":"11","04_ages_12":"12","04_ages_13":"13","04_ages_14":"14","04_ages_15":"15","04_ages_16":"16","04_ages_17":"17","04_ages_18":"18"},"rt":99375.89999999851,"item_order":[0,1,2,3],"radio_events":[5654.89999999851,28172.80000000447,55617.80000000447,81550],"checkbox_events":[7435.89999999851,8604.20000000298,9352.5,10605.39999999851,11060.80000000447,11524.80000000447,11926.39999999851,12445.89999999851,13022.60000000149,14855.70000000298,15956,17440,18036.30000000447,18548.89999999851,19405,20418.10000000149,21294.89999999851,22174.5,29174.5,30102.10000000149,30865.89999999851,33031.10000000149,34019.89999999851,35413.30000000447,36161.60000000149,36821.10000000149,37550.10000000149,38138,39015.10000000149,39958.89999999851,40723.10000000149,42584.10000000149,43501,44352.89999999851,45140.80000000447,46014.20000000298,57566.89999999851,58190.80000000447,59048,59443.89999999851,60296.20000000298,61064.60000000149,61552.80000000447,62209.30000000447,63533.70000000298,65154.70000000298,66323.20000000298,67014.60000000149,67967.60000000149,68795.89999999851,69453.10000000149,70133,70740.80000000447,71343.30000000447,84156.80000000447,84895.89999999851,85491.89999999851,86101.20000000298,86905.20000000298,87481.10000000149,88469.70000000298,89013.89999999851,89834.60000000149,90906.60000000149,92607.80000000447,93808.39999999851,94669.5,95553.20000000298,96196.60000000149,96906.30000000447,97554.39999999851,98425.70000000298],"key_events":[],"mouse_events":[5654.89999999851,7435.89999999851,8008.10000000149,8604.20000000298,9352.5,9964.80000000447,10605.39999999851,11060.80000000447,11524.80000000447,11926.39999999851,12445.89999999851,13022.60000000149,13565.80000000447,13954.39999999851,14033.60000000149,14855.70000000298,15256.10000000149,15956,16548.60000000149,17440,18036.30000000447,18548.89999999851,19405,20418.10000000149,21294.89999999851,22174.5,28172.80000000447,29174.5,30102.10000000149,30865.89999999851,32023.10000000149,33031.10000000149,34019.89999999851,34596.70000000298,35023.60000000149,35413.30000000447,36161.60000000149,36821.10000000149,37550.10000000149,38138,39015.10000000149,39958.89999999851,40723.10000000149,41299.30000000447,42584.10000000149,43501,44352.89999999851,45140.80000000447,46014.20000000298,55617.80000000447,57566.89999999851,58190.80000000447,59048,59443.89999999851,60296.20000000298,61064.60000000149,61552.80000000447,62209.30000000447,63533.70000000298,64002.30000000447,64409.80000000447,65154.70000000298,65646.89999999851,66323.20000000298,67014.60000000149,67967.60000000149,68795.89999999851,69453.10000000149,70133,70740.80000000447,71343.30000000447,81550,84156.80000000447,84895.89999999851,85491.89999999851,86101.20000000298,86905.20000000298,87481.10000000149,88101.10000000149,88469.70000000298,89013.89999999851,89834.60000000149,90906.60000000149,92607.80000000447,93808.39999999851,94669.5,95553.20000000298,96196.60000000149,96906.30000000447,97554.39999999851,98425.70000000298,99374.70000000298],"honeypot":0,"survey":"mace","page":9,"trial_type":"survey-mace","trial_index":17,"time_elapsed":1072661,"internal_node_id":"0.0-17.0","task_version":"prescreen-v0.3","browser_interactions":0},{"responses":{"01":"No","02":"No","03":"No","04":"Yes","04_ages_11":"11","04_ages_12":"12","04_ages_13":"13","04_ages_14":"14","04_ages_15":"15","04_ages_16":"16","04_ages_17":"17","04_ages_18":"18","05":"No","06":"Yes","06_ages_17":"17","07":"Yes","07_ages_1":"1","07_ages_2":"2","07_ages_3":"3","07_ages_4":"4","07_ages_5":"5","07_ages_6":"6","07_ages_7":"7","07_ages_8":"8","07_ages_9":"9","07_ages_10":"10","07_ages_11":"11","07_ages_12":"12","07_ages_13":"13","07_ages_14":"14","07_ages_15":"15","07_ages_16":"16","07_ages_17":"17","07_ages_18":"18","08":"Yes","08_ages_11":"11","08_ages_12":"12","08_ages_13":"13","08_ages_14":"14","08_ages_15":"15","08_ages_16":"16","08_ages_17":"17","08_ages_18":"18"},"rt":87040.39999999851,"item_order":[0,1,2,3,4,5,6,7],"radio_events":[10593.60000000149,13494.19999999553,18562.10000000149,23655.29999999702,35561,39403.10000000149,48034,78629.19999999553],"checkbox_events":[26865.5,27461.19999999553,28033.69999999553,28937,29493.89999999851,30190.29999999702,31070,31727.29999999702,40872,49491.79999999702,49943.79999999702,50572.29999999702,51136.60000000149,52917.19999999553,54004.79999999702,55086.19999999553,55578.19999999553,56154.29999999702,56970.89999999851,57951,58880.29999999702,59767.79999999702,60435.89999999851,61220.79999999702,61769,62601.10000000149,63237.79999999702,80441.79999999702,81182.19999999553,82603.79999999702,83282.89999999851,83847.5,84640.10000000149,85172.10000000149,85743.79999999702],"key_events":[],"mouse_events":[10593.60000000149,13494.19999999553,18562.10000000149,23655.29999999702,26865.5,27461.19999999553,28033.69999999553,28566,28937,29493.89999999851,30190.29999999702,31070,31727.29999999702,35561,39403.10000000149,40872,48034,49491.79999999702,49943.79999999702,50572.29999999702,51136.60000000149,51700.10000000149,52501.60000000149,52917.19999999553,54004.79999999702,55086.19999999553,55578.19999999553,56154.29999999702,56970.89999999851,57495.69999999553,57951,58880.29999999702,59767.79999999702,60435.89999999851,61220.79999999702,61769,62601.10000000149,63237.79999999702,78629.19999999553,80441.79999999702,81182.19999999553,81730.89999999851,82603.79999999702,83282.89999999851,83847.5,84640.10000000149,85172.10000000149,85743.79999999702,87033.79999999702],"honeypot":0,"survey":"mace","page":10,"trial_type":"survey-mace","trial_index":18,"time_elapsed":1159711,"internal_node_id":"0.0-18.0","task_version":"prescreen-v0.3","browser_interactions":0,"instructed":0},{"rt":6671.19999999553,"trial_type":"mental-health-alert","trial_index":19,"time_elapsed":1166388,"internal_node_id":"0.0-19.0","task_version":"prescreen-v0.3","interactions":"[{\"event\":\"blur\",\"trial\":2,\"time\":166123},{\"event\":\"focus\",\"trial\":2,\"time\":185575}]"}]