[{"view_history":[{"page_index":0,"viewing_time":5255.699999988079},{"page_index":1,"viewing_time":3988.399999976158},{"page_index":2,"viewing_time":2528.800000011921},{"page_index":3,"viewing_time":1279.5}],"rt":13054.5,"trial_type":"instructions","trial_index":0,"time_elapsed":13110,"internal_node_id":"0.0-0.0","task_version":"prescreen-v0.3"},{"rt":14776.800000011921,"responses":{"age":"23","gender-categorical":"Female","gender-free-response":"","ethnicity":"Not Hispanic or Latino","race":["Asian"],"education":"Bachelor degree"},"trial_type":"survey-demo","trial_index":1,"time_elapsed":27910,"internal_node_id":"0.0-1.0","task_version":"prescreen-v0.3"},{"responses":{"Q11":"2","Q04":"3","Q17":"1","Q15":"1","Q03":"0","Q01":"3","Q18":"0","Q07":"0","Q13":"2","Q14":"1","Q09":"1","Q08":"2","Q19":"0","Q20":"1","Q10":"1","Q05":"0","Q12":"2","Q21":"3","Q06":"0","Q16":"0","Q02":"0"},"rt":84768.19999998808,"item_order":[10,3,16,14,2,0,17,6,12,13,8,7,18,19,9,4,11,20,5,15,1],"radio_events":[3488,4594.399999976158,6168.599999964237,12475.799999952316,13697.699999988079,16571.799999952316,18350.799999952316,19420.5,20919.099999964237,24331.599999964237,27223.799999952316,29820.399999976158,33330.299999952316,37283.299999952316,41984.299999952316,43643.89999997616,48104,49756.39999997616,53707.799999952316,59942.69999998808,61258.299999952316,65925.29999995232,70300,71757.5,77519.59999996424,79985.69999998808,83694.19999998808],"key_events":[],"mouse_events":[3488,4594.399999976158,6168.599999964237,11054,12475.799999952316,13697.699999988079,16571.799999952316,18350.799999952316,19420.5,20919.099999964237,24331.599999964237,26107.899999976158,27223.799999952316,28598.69999998808,29820.399999976158,33330.299999952316,37283.299999952316,41984.299999952316,43643.89999997616,46986.19999998808,48104,49756.39999997616,53707.799999952316,57621.799999952316,59090.69999998808,59942.69999998808,61258.299999952316,63384.89999997616,65037.799999952316,65925.29999995232,69005.5,70300,71757.5,77519.59999996424,79985.69999998808,82375.19999998808,83694.19999998808,84764.29999995232],"straightlining":0.38095238095238093,"zigzagging":0.5,"honeypot":0,"survey":"sns","trial_type":"survey-template","trial_index":2,"time_elapsed":112691,"internal_node_id":"0.0-2.0","task_version":"prescreen-v0.3","browser_interactions":0,"infrequency":0},{"responses":{"Q11":"1","Q06":"3","Q09":"1","Q13":"0","Q07":"3","Q04":"2","Q05":"3","Q03":"3","Q12":"1","Q01":"2","Q08":"2","Q02":"2","Q10":"0"},"rt":52244.60000002384,"item_order":[10,5,8,12,6,3,4,2,11,0,7,1,9],"radio_events":[8024.400000035763,10524.900000035763,12742.699999988079,15565.600000023842,17142.600000023842,19406.400000035763,24004.30000001192,25005.80000001192,28219,37176.69999998808,42224.69999998808,43976.30000001192,46041.90000003576,47942.10000002384,49857.30000001192,51205.90000003576],"key_events":[],"mouse_events":[6881,8024.400000035763,9478.800000011921,10524.900000035763,11610.600000023842,12742.699999988079,15565.600000023842,17142.600000023842,19406.400000035763,22764.400000035763,24004.30000001192,25005.80000001192,26026.19999998808,27444.900000035763,28219,32363.19999998808,37176.69999998808,42224.69999998808,43976.30000001192,46041.90000003576,47942.10000002384,49857.30000001192,51205.90000003576,52242.19999998808],"straightlining":0.3076923076923077,"zigzagging":0.4166666666666667,"honeypot":0,"survey":"bisbas","trial_type":"survey-template","trial_index":3,"time_elapsed":164943,"internal_node_id":"0.0-3.0","task_version":"prescreen-v0.3","browser_interactions":0,"infrequency":0},{"responses":{"Q01":"2","Q02":"2","Q03":"2"},"rt":9651.5,"radio_events":[4339,5957.700000047684,8723.400000035763],"key_events":[],"mouse_events":[4339,5957.700000047684,8723.400000035763,9650.200000047684],"survey":"map","page":1,"trial_type":"survey-map","trial_index":4,"time_elapsed":174600,"internal_node_id":"0.0-4.0","task_version":"prescreen-v0.3","browser_interactions":0},{"responses":{"Q04":"3","Q05":"3","Q06":"3"},"rt":9493,"radio_events":[4948.300000011921,6085.899999976158,8298],"key_events":[],"mouse_events":[3390.100000023842,4948.300000011921,6085.899999976158,7400.699999988079,8298,9491.899999976158],"survey":"map","page":2,"trial_type":"survey-map","trial_index":5,"time_elapsed":184098,"internal_node_id":"0.0-5.0","task_version":"prescreen-v0.3","browser_interactions":0},{"responses":{"Q07":"3","Q08":"0","Q09":"1"},"rt":12849,"radio_events":[5125.800000011921,8471,11981.899999976158],"key_events":[],"mouse_events":[3106.300000011921,5125.800000011921,8471,10867.099999964237,11981.899999976158,12848],"survey":"map","page":3,"trial_type":"survey-map","trial_index":6,"time_elapsed":196952,"internal_node_id":"0.0-6.0","task_version":"prescreen-v0.3","browser_interactions":0},{"responses":{"Q10":"2","Q11":"1","Q12":"2","Q13":"2","Q16":"0","Q14":"4","Q15":"3"},"rt":29612.30000001192,"radio_events":[5170.899999976158,7394.199999988079,10424.300000011921,11715.800000011921,16197.199999988079,21611.69999998808,27021.399999976158,28877.600000023842],"key_events":[],"mouse_events":[5170.899999976158,7394.199999988079,10424.300000011921,11715.800000011921,16197.199999988079,20150.19999998808,21611.69999998808,25358.19999998808,27021.399999976158,28220.899999976158,28877.600000023842,29610.19999998808],"survey":"map","page":4,"trial_type":"survey-map","trial_index":7,"time_elapsed":226565,"internal_node_id":"0.0-7.0","task_version":"prescreen-v0.3","browser_interactions":0,"infrequency":0},{"view_history":[{"page_index":0,"viewing_time":2014.5},{"page_index":1,"viewing_time":2758}],"rt":4773.100000023842,"trial_type":"instructions","trial_index":8,"time_elapsed":231341,"internal_node_id":"0.0-8.0","task_version":"prescreen-v0.3"},{"responses":{"01":"No","02":"No","03":"No","04":"No","05":"No","06":"No"},"rt":16569.80000001192,"item_order":[0,1,2,3,4,5],"radio_events":[6256.900000035763,8587.5,10422.100000023842,11693.600000023842,12855.300000011921,15537.100000023842],"checkbox_events":[],"key_events":[],"mouse_events":[0.20000004768371582,6256.900000035763,8587.5,10422.100000023842,11693.600000023842,12855.300000011921,14768.5,15537.100000023842,16564.600000023842],"honeypot":0,"survey":"mace","page":1,"trial_type":"survey-mace","trial_index":9,"time_elapsed":247922,"internal_node_id":"0.0-9.0","task_version":"prescreen-v0.3","browser_interactions":0},{"responses":{"01":"No","02":"No","03":"No","04":"No","05":"No","06":"No","07":"No","08":"No"},"rt":21319,"item_order":[0,1,2,3,4,5,6,7],"radio_events":[4096.399999976158,4988.599999964237,6242.899999976158,7634.799999952316,9770.099999964237,11073.299999952316,12660.5,13674.899999976158],"checkbox_events":[],"key_events":[],"mouse_events":[386.5,2396.899999976158,3236.2999999523163,4096.399999976158,4988.599999964237,6242.899999976158,7634.799999952316,9770.099999964237,11073.299999952316,12660.5,13674.899999976158,21311.69999998808],"honeypot":0,"survey":"mace","page":2,"trial_type":"survey-mace","trial_index":10,"time_elapsed":269254,"internal_node_id":"0.0-10.0","task_version":"prescreen-v0.3","browser_interactions":0},{"responses":{"01":"No","02":"No","03":"No","04":"No"},"rt":10356.900000035763,"item_order":[0,1,2,3],"radio_events":[4127.199999988079,5117,8249.900000035763,9574.5],"checkbox_events":[],"key_events":[],"mouse_events":[2275,4127.199999988079,5117,7150.400000035763,8249.900000035763,9574.5,10352.900000035763],"honeypot":0,"survey":"mace","page":3,"trial_type":"survey-mace","trial_index":11,"time_elapsed":279617,"internal_node_id":"0.0-11.0","task_version":"prescreen-v0.3","browser_interactions":0},{"responses":{"01":"No","02":"No"},"rt":10012.599999964237,"item_order":[0,1],"radio_events":[8189.699999988079,9203.5],"checkbox_events":[],"key_events":[],"mouse_events":[8189.699999988079,9203.5,10010.599999964237],"honeypot":0,"survey":"mace","page":4,"trial_type":"survey-mace","trial_index":12,"time_elapsed":289635,"internal_node_id":"0.0-12.0","task_version":"prescreen-v0.3","browser_interactions":0},{"responses":{"01":"Yes","01_ages_9":"9","02":"No","03":"No","04":"No","05":"No"},"rt":304153.6999999881,"item_order":[0,1,2,3,4],"radio_events":[277026.5,296226.7999999523,297766.09999996424,299319.09999996424,300411.1999999881,301852.6999999881],"checkbox_events":[293016.7999999523],"key_events":[],"mouse_events":[233319.79999995232,262718.7999999523,277026.5,291674.1999999881,293016.7999999523,294926,296226.7999999523,297766.09999996424,299319.09999996424,300411.1999999881,301852.6999999881,304149.2999999523],"honeypot":0,"survey":"mace","page":5,"trial_type":"survey-mace","trial_index":13,"time_elapsed":593792,"internal_node_id":"0.0-13.0","task_version":"prescreen-v0.3","browser_interactions":6},{"responses":{"01":"Yes","01_ages_9":"9","01_ages_10":"10","02":"No","03":"No","04":"Yes","04_ages_9":"9","04_ages_10":"10","05":"No"},"rt":27824.599999964237,"item_order":[0,1,2,3,4],"radio_events":[5385.599999964237,15438.399999976158,16665.899999976158,18425.19999998808,26319.69999998808],"checkbox_events":[7929.5,8622.899999976158,20740.799999952316,24082.899999976158],"key_events":[],"mouse_events":[5385.599999964237,7929.5,8622.899999976158,13973.799999952316,15438.399999976158,16665.899999976158,18425.19999998808,19841.299999952316,20740.799999952316,21577.599999964237,22235.099999964237,24082.899999976158,25358.899999976158,26319.69999998808,27819.19999998808],"honeypot":0,"survey":"mace","page":6,"trial_type":"survey-mace","trial_index":14,"time_elapsed":621625,"internal_node_id":"0.0-14.0","task_version":"prescreen-v0.3","browser_interactions":0},{"responses":{"01":"No","02":"No","03":"No","04":"No","05":"No","06":"No","07":"No"},"rt":13830.199999988079,"item_order":[0,1,2,3,4,5,6],"radio_events":[3260.2999999523163,4396.699999988079,5502.299999952316,6721.299999952316,8017.5,11030.199999988079,12062.699999988079],"checkbox_events":[],"key_events":[],"mouse_events":[3260.2999999523163,4396.699999988079,5502.299999952316,6721.299999952316,8017.5,10126.199999988079,11030.199999988079,12062.699999988079,13824.199999988079],"honeypot":0,"survey":"mace","page":7,"trial_type":"survey-mace","trial_index":15,"time_elapsed":635464,"internal_node_id":"0.0-15.0","task_version":"prescreen-v0.3","browser_interactions":0},{"responses":{"01":"No","02":"No","03":"No","04":"No"},"rt":10222.300000011921,"item_order":[0,1,2,3],"radio_events":[4922.600000023842,6636,8031.600000023842,9363.699999988079],"checkbox_events":[],"key_events":[],"mouse_events":[3884.900000035763,4922.600000023842,6636,8031.600000023842,9363.699999988079,10218.699999988079],"honeypot":0,"survey":"mace","page":8,"trial_type":"survey-mace","trial_index":16,"time_elapsed":645695,"internal_node_id":"0.0-16.0","task_version":"prescreen-v0.3","browser_interactions":0},{"responses":{"01":"Yes","01_ages_1":"1","01_ages_2":"2","01_ages_3":"3","01_ages_4":"4","01_ages_5":"5","01_ages_6":"6","01_ages_7":"7","01_ages_8":"8","01_ages_9":"9","01_ages_10":"10","01_ages_11":"11","01_ages_12":"12","01_ages_13":"13","01_ages_14":"14","01_ages_15":"15","01_ages_16":"16","01_ages_17":"17","01_ages_18":"18","02":"Yes","02_ages_1":"1","02_ages_18":"18","03":"Yes","03_ages_1":"1","03_ages_18":"18","04":"Yes","04_ages_1":"1","04_ages_18":"18"},"rt":63367.59999996424,"item_order":[0,1,2,3],"radio_events":[5914.199999988079,37506.19999998808,39737.59999996424,44227.69999998808],"checkbox_events":[9853.699999988079,11680.399999976158,12385.599999964237,13085.299999952316,15312.199999988079,16200.099999964237,17490.299999952316,19123.299999952316,19819,20603.399999976158,21369.399999976158,22840,25473.5,27126.099999964237,28644.399999976158,29661,32699.399999976158,33502.69999998808,34198,34917.89999997616,52719.299999952316,54984.89999997616,56042.09999996424,58361.5,59444,61540.69999998808],"key_events":[],"mouse_events":[4889.099999964237,5914.199999988079,9853.699999988079,10749.799999952316,11680.399999976158,12385.599999964237,13085.299999952316,13950.799999952316,14877.5,15312.199999988079,16200.099999964237,17490.299999952316,18253.799999952316,19123.299999952316,19819,20603.399999976158,21369.399999976158,22840,25473.5,27126.099999964237,28644.399999976158,29661,32699.399999976158,33502.69999998808,34198,34917.89999997616,36587.09999996424,37506.19999998808,38859.799999952316,39255,39737.59999996424,42864.59999996424,44227.69999998808,48885.39999997616,52719.299999952316,54027.39999997616,54984.89999997616,56042.09999996424,57454.19999998808,58361.5,59444,60633.69999998808,61540.69999998808,63364.19999998808],"honeypot":0,"survey":"mace","page":9,"trial_type":"survey-mace","trial_index":17,"time_elapsed":709069,"internal_node_id":"0.0-17.0","task_version":"prescreen-v0.3","browser_interactions":0},{"responses":{"01":"No","02":"No","03":"Yes","03_ages_12":"12","03_ages_13":"13","03_ages_14":"14","03_ages_15":"15","03_ages_16":"16","03_ages_17":"17","03_ages_18":"18","04":"Yes","04_ages_14":"14","04_ages_18":"18","05":"No","06":"Yes","06_ages_17":"17","07":"Yes","07_ages_1":"1","07_ages_18":"18","08":"Yes","08_ages_1":"1","08_ages_18":"18"},"rt":40716.5,"item_order":[0,1,2,3,4,5,6,7],"radio_events":[2495.199999988079,3519.699999988079,5055.899999976158,19886.099999964237,26354.599999964237,28635.69999998808,32224,37023.69999998808],"checkbox_events":[8166.699999988079,9781,10897.399999976158,11914.399999976158,13009.699999988079,15100.300000011921,16134.5,21151.30000001192,22161.30000001192,30140.399999976158,33971.30000001192,35353.80000001192,38128.39999997616,39466.69999998808],"key_events":[],"mouse_events":[2495.199999988079,3519.699999988079,5055.899999976158,8166.699999988079,9781,10897.399999976158,11914.399999976158,13009.699999988079,13712.5,14604.399999976158,15100.300000011921,16134.5,17409.30000001192,18938.899999976158,19886.099999964237,21151.30000001192,22161.30000001192,25095.099999964237,26354.599999964237,28635.69999998808,30140.399999976158,32224,33971.30000001192,35353.80000001192,37023.69999998808,38128.39999997616,39466.69999998808,40712.30000001192],"honeypot":0,"survey":"mace","page":10,"trial_type":"survey-mace","trial_index":18,"time_elapsed":749794,"internal_node_id":"0.0-18.0","task_version":"prescreen-v0.3","browser_interactions":0,"instructed":0},{"rt":8255.899999976158,"trial_type":"mental-health-alert","trial_index":19,"time_elapsed":758053,"internal_node_id":"0.0-19.0","task_version":"prescreen-v0.3","interactions":"[{\"event\":\"blur\",\"trial\":13,\"time\":510444},{\"event\":\"focus\",\"trial\":13,\"time\":522791},{\"event\":\"blur\",\"trial\":13,\"time\":534062},{\"event\":\"focus\",\"trial\":13,\"time\":552154},{\"event\":\"blur\",\"trial\":13,\"time\":572943},{\"event\":\"focus\",\"trial\":13,\"time\":581096}]"}]