[{"view_history":[{"page_index":0,"viewing_time":3783.2999999523163},{"page_index":1,"viewing_time":3211.4000000953674},{"page_index":2,"viewing_time":3793},{"page_index":3,"viewing_time":1534.7999999523163}],"rt":12323.299999952316,"trial_type":"instructions","trial_index":0,"time_elapsed":12327,"internal_node_id":"0.0-0.0","task_version":"prescreen-v0.3"},{"rt":12918.799999952316,"responses":{"age":"21","gender-categorical":"Female","gender-free-response":"","ethnicity":"Not Hispanic or Latino","race":["Black or African American"],"education":"Associate degree"},"trial_type":"survey-demo","trial_index":1,"time_elapsed":25250,"internal_node_id":"0.0-1.0","task_version":"prescreen-v0.3"},{"responses":{"Q12":"2","Q13":"1","Q01":"3","Q17":"2","Q05":"2","Q07":"0","Q04":"2","Q08":"2","Q20":"1","Q10":"3","Q14":"1","Q16":"2","Q18":"2","Q15":"3","Q09":"3","Q03":"1","Q02":"1","Q19":"0","Q06":"0","Q21":"3","Q11":"3"},"rt":118915.69999980927,"item_order":[11,12,0,16,4,6,3,7,19,9,13,15,17,14,8,2,1,18,5,20,10],"radio_events":[10238.899999856949,15759,15983.599999904633,19296.699999809265,23069.299999952316,33774.59999990463,44295.299999952316,49182.5,57465.299999952316,60711.89999985695,63745.09999990463,67815.59999990463,74187.69999980927,78279.5,83088.89999985695,87443.59999990463,89915.29999995232,96600,100919.29999995232,106347.29999995232,111247.89999985695,112136.79999995232],"key_events":[],"mouse_events":[9479.299999952316,10238.899999856949,15759,15983.599999904633,18593.5,19296.699999809265,23069.299999952316,31629.599999904633,33064.299999952316,33774.59999990463,41375.39999985695,44295.299999952316,49182.5,57465.299999952316,60711.89999985695,63134.5,63745.09999990463,67815.59999990463,73513.29999995232,74187.69999980927,78279.5,81895.39999985695,82520.69999980927,83088.89999985695,87443.59999990463,89140.39999985695,89915.29999995232,93772.89999985695,94511.5,95200.69999980927,95911.79999995232,96600,100919.29999995232,105523,106347.29999995232,109387.29999995232,110630.89999985695,111247.89999985695,112136.79999995232,118913.69999980927],"straightlining":0.3333333333333333,"zigzagging":0.35,"honeypot":0,"survey":"sns","trial_type":"survey-template","trial_index":2,"time_elapsed":144171,"internal_node_id":"0.0-2.0","task_version":"prescreen-v0.3","browser_interactions":0,"infrequency":0},{"responses":{"Q01":"3","Q13":"0","Q07":"3","Q06":"2","Q10":"2","Q12":"1","Q11":"2","Q08":"3","Q05":"3","Q04":"3","Q02":"3","Q03":"3","Q09":"2"},"rt":59424.09999990463,"item_order":[0,12,6,5,9,11,10,7,4,3,1,2,8],"radio_events":[5321.199999809265,9185.599999904633,12098,16339.099999904633,18314.099999904633,22235.199999809265,30859.39999985695,37281.5,42509.59999990463,44448.59999990463,48597.299999952316,50507.89999985695,55274.89999985695,58408.09999990463],"key_events":[],"mouse_events":[5157.299999952316,5321.199999809265,7374.699999809265,9185.599999904633,12098,16339.099999904633,17688.89999985695,18314.099999904633,22235.199999809265,30859.39999985695,37281.5,41919.799999952316,42509.59999990463,44448.59999990463,48597.299999952316,50507.89999985695,55274.89999985695,58408.09999990463,59423.299999952316],"straightlining":0.5384615384615384,"zigzagging":0.5833333333333334,"honeypot":0,"survey":"bisbas","trial_type":"survey-template","trial_index":3,"time_elapsed":203599,"internal_node_id":"0.0-3.0","task_version":"prescreen-v0.3","browser_interactions":0,"infrequency":0},{"responses":{"Q01":"2","Q02":"2","Q03":"2"},"rt":18488.299999952316,"radio_events":[9600.799999952316,13515,16811],"key_events":[],"mouse_events":[9600.799999952316,13515,16668.699999809265,16811,18487.699999809265],"survey":"map","page":1,"trial_type":"survey-map","trial_index":4,"time_elapsed":222089,"internal_node_id":"0.0-4.0","task_version":"prescreen-v0.3","browser_interactions":0},{"responses":{"Q04":"3","Q05":"2","Q06":"2"},"rt":24258.5,"radio_events":[13246.100000143051,17835.400000095367,22651.800000190735],"key_events":[],"mouse_events":[13246.100000143051,17835.400000095367,22651.800000190735,24257.5],"survey":"map","page":2,"trial_type":"survey-map","trial_index":5,"time_elapsed":246349,"internal_node_id":"0.0-5.0","task_version":"prescreen-v0.3","browser_interactions":0},{"responses":{"Q07":"3","Q08":"0","Q09":"0"},"rt":16450,"radio_events":[6276.900000095367,11328,14666.400000095367],"key_events":[],"mouse_events":[5658.799999952316,6276.900000095367,11328,14666.400000095367,16449.400000095367],"survey":"map","page":3,"trial_type":"survey-map","trial_index":6,"time_elapsed":262801,"internal_node_id":"0.0-6.0","task_version":"prescreen-v0.3","browser_interactions":0},{"responses":{"Q10":"3","Q11":"2","Q12":"1","Q13":"2","Q16":"0","Q14":"2","Q15":"2"},"rt":29245,"radio_events":[5979.099999904633,10617.899999856949,14588.700000047684,17742.799999952316,21074.200000047684,24938.799999952316,27937.5],"key_events":[],"mouse_events":[5979.099999904633,8934.200000047684,9559.200000047684,10617.899999856949,14588.700000047684,17742.799999952316,21074.200000047684,24938.799999952316,27937.5,29243.700000047684],"survey":"map","page":4,"trial_type":"survey-map","trial_index":7,"time_elapsed":292048,"internal_node_id":"0.0-7.0","task_version":"prescreen-v0.3","browser_interactions":0,"infrequency":0},{"view_history":[{"page_index":0,"viewing_time":2434.100000143051},{"page_index":1,"viewing_time":5292.299999952316}],"rt":7727,"trial_type":"instructions","trial_index":8,"time_elapsed":299777,"internal_node_id":"0.0-8.0","task_version":"prescreen-v0.3"},{"responses":{"01":"No","02":"Yes","02_ages_8":"8","02_ages_9":"9","02_ages_10":"10","02_ages_11":"11","02_ages_12":"12","02_ages_13":"13","02_ages_14":"14","02_ages_15":"15","02_ages_16":"16","02_ages_17":"17","03":"Yes","03_ages_8":"8","03_ages_9":"9","03_ages_10":"10","03_ages_11":"11","03_ages_12":"12","03_ages_13":"13","04":"No","05":"No","06":"Yes","06_ages_8":"8","06_ages_9":"9","06_ages_10":"10","06_ages_11":"11","06_ages_12":"12"},"rt":72615.79999995232,"item_order":[0,1,2,3,4,5],"radio_events":[11114.399999856949,13373.5,37838.700000047684,39948.799999952316,51613.5,53589.200000047684,63455.299999952316],"checkbox_events":[22338.89999985695,23155.700000047684,23836.700000047684,24391.5,25030.799999952316,25670,27623.799999952316,28475.89999985695,30124.200000047684,31751,43180.89999985695,43934,45149.299999952316,46015.39999985695,46654.700000047684,47350.700000047684,68386.09999990463,68939.5,69557.5,70062.20000004768,70765.5],"key_events":[],"mouse_events":[0.09999990463256836,11114.399999856949,13373.5,22338.89999985695,23155.700000047684,23836.700000047684,24391.5,25030.799999952316,25670,26344.5,27069.39999985695,27623.799999952316,28475.89999985695,30124.200000047684,31751,37838.700000047684,39948.799999952316,43180.89999985695,43934,45149.299999952316,46015.39999985695,46654.700000047684,47350.700000047684,51613.5,53589.200000047684,63455.299999952316,68386.09999990463,68939.5,69557.5,70062.20000004768,70765.5,72613.39999985695],"honeypot":0,"survey":"mace","page":1,"trial_type":"survey-mace","trial_index":9,"time_elapsed":372397,"internal_node_id":"0.0-9.0","task_version":"prescreen-v0.3","browser_interactions":0},{"responses":{"01":"No","02":"No","03":"Yes","03_ages_9":"9","03_ages_10":"10","03_ages_11":"11","04":"No","05":"Yes","05_ages_9":"9","05_ages_10":"10","05_ages_11":"11","06":"No","07":"No","08":"No"},"rt":54091.40000009537,"item_order":[0,1,2,3,4,5,6,7],"radio_events":[4034.5,8503,11472,33594.09999990463,37280.799999952316,50785.200000047684,51673.40000009537,52866.40000009537],"checkbox_events":[13752.799999952316,16061.599999904633,17759.400000095367,21567.5,21716.299999952316,25346.400000095367,26318.900000095367,28898.5,30461,38822.700000047684,39461.700000047684,40307.299999952316],"key_events":[],"mouse_events":[4034.5,7927.400000095367,8503,11472,13752.799999952316,16061.599999904633,17155.400000095367,17759.400000095367,21567.5,21716.299999952316,23285.900000095367,25346.400000095367,26318.900000095367,27378.099999904633,28109.700000047684,28898.5,29821.900000095367,30461,33594.09999990463,37280.799999952316,38822.700000047684,39461.700000047684,40307.299999952316,48625.700000047684,49997,50785.200000047684,51673.40000009537,52866.40000009537,54089],"honeypot":0,"survey":"mace","page":2,"trial_type":"survey-mace","trial_index":10,"time_elapsed":426493,"internal_node_id":"0.0-10.0","task_version":"prescreen-v0.3","browser_interactions":0},{"responses":{"01":"Yes","01_ages_11":"11","02":"No","03":"No","04":"No"},"rt":30924.5,"item_order":[0,1,2,3],"radio_events":[8858.200000047684,26881,29040.60000014305,29843.200000047684],"checkbox_events":[15863.600000143051,17034.900000095367,17645.800000190735,21098.5,21936.60000014305],"key_events":[],"mouse_events":[8858.200000047684,15863.600000143051,17034.900000095367,17645.800000190735,21098.5,21936.60000014305,26881,29040.60000014305,29843.200000047684,30923.300000190735],"honeypot":0,"survey":"mace","page":3,"trial_type":"survey-mace","trial_index":11,"time_elapsed":457421,"internal_node_id":"0.0-11.0","task_version":"prescreen-v0.3","browser_interactions":0},{"responses":{"01":"No","02":"No"},"rt":6795.700000047684,"item_order":[0,1],"radio_events":[2461.4000000953674,5814.300000190735],"checkbox_events":[],"key_events":[],"mouse_events":[2461.4000000953674,5046.900000095367,5814.300000190735,6794.900000095367],"honeypot":0,"survey":"mace","page":4,"trial_type":"survey-mace","trial_index":12,"time_elapsed":464219,"internal_node_id":"0.0-12.0","task_version":"prescreen-v0.3","browser_interactions":0},{"responses":{"01":"No","02":"No","03":"No","04":"No","05":"No"},"rt":20805.599999904633,"item_order":[0,1,2,3,4],"radio_events":[9743.200000047684,12996.399999856949,15724.200000047684,17948.200000047684,19795.099999904633],"checkbox_events":[],"key_events":[],"mouse_events":[9743.200000047684,12996.399999856949,15724.200000047684,17948.200000047684,19795.099999904633,20804],"honeypot":0,"survey":"mace","page":5,"trial_type":"survey-mace","trial_index":13,"time_elapsed":485028,"internal_node_id":"0.0-13.0","task_version":"prescreen-v0.3","browser_interactions":0},{"responses":{"01":"No","02":"Yes","02_ages_13":"13","02_ages_14":"14","02_ages_15":"15","03":"No","04":"No","05":"No"},"rt":39508.89999985695,"item_order":[0,1,2,3,4],"radio_events":[7852.399999856949,9479.099999904633,25555.199999809265,35969.39999985695,38228.09999990463],"checkbox_events":[16412.199999809265,17442.5,18401.5],"key_events":[],"mouse_events":[7852.399999856949,9479.099999904633,16412.199999809265,17442.5,18401.5,25555.199999809265,35969.39999985695,38228.09999990463,39507.199999809265],"honeypot":0,"survey":"mace","page":6,"trial_type":"survey-mace","trial_index":14,"time_elapsed":524540,"internal_node_id":"0.0-14.0","task_version":"prescreen-v0.3","browser_interactions":0},{"responses":{"01":"Yes","01_ages_14":"14","02":"Yes","02_ages_14":"14","03":"Yes","03_ages_14":"14","04":"No","05":"No","06":"No","07":"No"},"rt":36881.5,"item_order":[0,1,2,3,4,5,6],"radio_events":[5464.299999952316,19302.400000095367,26208.299999952316,29497.10000014305,32878.700000047684,34668.700000047684,35677.5],"checkbox_events":[7950.600000143051,20616.400000095367,27543.10000014305],"key_events":[],"mouse_events":[5464.299999952316,7950.600000143051,19302.400000095367,20616.400000095367,26208.299999952316,27543.10000014305,29497.10000014305,31017.10000014305,32878.700000047684,34171.700000047684,34668.700000047684,35677.5,36878.299999952316],"honeypot":0,"survey":"mace","page":7,"trial_type":"survey-mace","trial_index":15,"time_elapsed":561426,"internal_node_id":"0.0-15.0","task_version":"prescreen-v0.3","browser_interactions":0},{"responses":{"01":"Yes","01_ages_10":"10","01_ages_11":"11","01_ages_12":"12","01_ages_13":"13","02":"No","03":"Yes","03_ages_8":"8","03_ages_9":"9","03_ages_10":"10","03_ages_11":"11","03_ages_12":"12","03_ages_13":"13","03_ages_14":"14","03_ages_15":"15","03_ages_16":"16","03_ages_17":"17","04":"Yes","04_ages_8":"8","04_ages_9":"9","04_ages_10":"10","04_ages_11":"11","04_ages_12":"12","04_ages_13":"13","04_ages_14":"14","04_ages_15":"15","04_ages_16":"16","04_ages_17":"17"},"rt":43924.700000047684,"item_order":[0,1,2,3],"radio_events":[9881.100000143051,20884.800000190735,23321.800000190735,35412.60000014305],"checkbox_events":[13035.5,13930.100000143051,14861.100000143051,15699.200000047684,25083.200000047684,25701.5,26361.5,26888,28102,28656.700000047684,29402.700000047684,30056.400000095367,30653.10000014305,31327.700000047684,36805.10000014305,37287.700000047684,37820.700000047684,38360,38829.200000047684,39610.5,40783.300000190735,41600.10000014305,42360.200000047684,42992.800000190735],"key_events":[],"mouse_events":[9881.100000143051,13035.5,13930.100000143051,14861.100000143051,15699.200000047684,20884.800000190735,23321.800000190735,25083.200000047684,25701.5,26361.5,26888,27413,28102,28656.700000047684,29402.700000047684,30056.400000095367,30653.10000014305,31327.700000047684,35412.60000014305,36805.10000014305,37287.700000047684,37820.700000047684,38360,38829.200000047684,39610.5,40186.5,40783.300000190735,41600.10000014305,42360.200000047684,42992.800000190735,43923.40000009537],"honeypot":0,"survey":"mace","page":8,"trial_type":"survey-mace","trial_index":16,"time_elapsed":605354,"internal_node_id":"0.0-16.0","task_version":"prescreen-v0.3","browser_interactions":0},{"responses":{"01":"Yes","01_ages_5":"5","01_ages_6":"6","01_ages_7":"7","01_ages_8":"8","01_ages_13":"13","01_ages_16":"16","01_ages_17":"17","01_ages_18":"18","02":"Yes","02_ages_5":"5","02_ages_6":"6","02_ages_7":"7","02_ages_8":"8","02_ages_13":"13","02_ages_16":"16","02_ages_17":"17","02_ages_18":"18","03":"Yes","03_ages_5":"5","03_ages_6":"6","03_ages_7":"7","03_ages_8":"8","03_ages_9":"9","03_ages_10":"10","03_ages_11":"11","03_ages_12":"12","03_ages_13":"13","03_ages_14":"14","03_ages_15":"15","03_ages_16":"16","03_ages_17":"17","03_ages_18":"18","04":"Yes","04_ages_5":"5","04_ages_6":"6","04_ages_7":"7","04_ages_8":"8","04_ages_9":"9","04_ages_10":"10","04_ages_11":"11","04_ages_12":"12","04_ages_13":"13","04_ages_14":"14","04_ages_15":"15","04_ages_16":"16","04_ages_17":"17","04_ages_18":"18"},"rt":77550.20000004768,"item_order":[0,1,2,3],"radio_events":[4321.399999856949,32538.89999985695,44693.700000047684,66033.29999995232],"checkbox_events":[9209.799999952316,10246.899999856949,11525.200000047684,16747.099999904633,24945.39999985695,27758.099999904633,28511.200000047684,29605,34102.09999990463,35238.799999952316,36034,36808.299999952316,38179.39999985695,39266.200000047684,40097.59999990463,40779.39999985695,45936.700000047684,46490.39999985695,47045.39999985695,47549.5,50916.799999952316,51030.700000047684,51946.700000047684,55605.299999952316,56209.09999990463,56762.59999990463,57288.700000047684,58255,59014.89999985695,59626,60102.200000047684,62275.39999985695,68704.5,69222.59999990463,69677.39999985695,70203.29999995232,70672.39999985695,71247.59999990463,71694.89999985695,72220.59999990463,72725,73229.09999990463,74252.20000004768,74792.59999990463,75431.79999995232,75921.89999985695],"key_events":[],"mouse_events":[3803.2999999523163,4321.399999856949,9209.799999952316,10246.899999856949,11525.200000047684,16747.099999904633,24945.39999985695,27758.099999904633,28511.200000047684,29605,32538.89999985695,34102.09999990463,34591.89999985695,35238.799999952316,36034,36808.299999952316,38179.39999985695,39266.200000047684,40097.59999990463,40779.39999985695,44693.700000047684,45936.700000047684,46490.39999985695,47045.39999985695,47549.5,50916.799999952316,51030.700000047684,51946.700000047684,55605.299999952316,56209.09999990463,56762.59999990463,57288.700000047684,58255,59014.89999985695,59626,60102.200000047684,60996.700000047684,62275.39999985695,66033.29999995232,68704.5,69222.59999990463,69677.39999985695,70203.29999995232,70672.39999985695,71247.59999990463,71694.89999985695,72220.59999990463,72725,73229.09999990463,73748.20000004768,74252.20000004768,74792.59999990463,75431.79999995232,75921.89999985695,77548.89999985695],"honeypot":0,"survey":"mace","page":9,"trial_type":"survey-mace","trial_index":17,"time_elapsed":682907,"internal_node_id":"0.0-17.0","task_version":"prescreen-v0.3","browser_interactions":0},{"responses":{"01":"Yes","01_ages_12":"12","01_ages_13":"13","02":"No","03":"Yes","03_ages_17":"17","03_ages_18":"18","04":"Yes","04_ages_12":"12","04_ages_13":"13","04_ages_14":"14","04_ages_15":"15","04_ages_18":"18","05":"Yes","05_ages_13":"13","05_ages_14":"14","05_ages_15":"15","05_ages_16":"16","05_ages_17":"17","06":"Yes","06_ages_17":"17","07":"Yes","07_ages_13":"13","07_ages_14":"14","07_ages_15":"15","07_ages_16":"16","07_ages_17":"17","07_ages_18":"18","08":"Yes","08_ages_17":"17","08_ages_18":"18"},"rt":378342.5,"item_order":[0,1,2,3,4,5,6,7],"radio_events":[7561.099999904633,20440.099999904633,23387.699999809265,32160.89999985695,346075.09999990463,353789.7999999523,357626,371236.19999980927],"checkbox_events":[12853.199999809265,15381.799999952316,17030.199999809265,17591.39999985695,26136.89999985695,27195.39999985695,28211.099999904633,28865.099999904633,35016.59999990463,36075.39999985695,40109.89999985695,40706.39999985695,42141.5,348675.09999990463,349364,350025.19999980927,350635.19999980927,351452.89999985695,355303.2999999523,360325.2999999523,361412.39999985695,362627.09999990463,364488,365155.59999990463,366306.7999999523,376074.19999980927,376756],"key_events":[],"mouse_events":[7561.099999904633,12853.199999809265,15381.799999952316,17030.199999809265,17591.39999985695,20440.099999904633,23025.5,23387.699999809265,26136.89999985695,27195.39999985695,28211.099999904633,28865.099999904633,31620.799999952316,32160.89999985695,35016.59999990463,36075.39999985695,40109.89999985695,40706.39999985695,42141.5,346075.09999990463,348675.09999990463,349364,350025.19999980927,350635.19999980927,351452.89999985695,353789.7999999523,355303.2999999523,357626,360325.2999999523,361412.39999985695,362627.09999990463,363195,363940.89999985695,364488,365155.59999990463,366306.7999999523,371236.19999980927,376074.19999980927,376756,378340.19999980927],"honeypot":0,"survey":"mace","page":10,"trial_type":"survey-mace","trial_index":18,"time_elapsed":1061254,"internal_node_id":"0.0-18.0","task_version":"prescreen-v0.3","browser_interactions":2,"instructed":0},{"rt":6600.399999856949,"trial_type":"mental-health-alert","trial_index":19,"time_elapsed":1067856,"internal_node_id":"0.0-19.0","task_version":"prescreen-v0.3","interactions":"[{\"event\":\"blur\",\"trial\":18,\"time\":785061},{\"event\":\"focus\",\"trial\":18,\"time\":1024524}]"}]