[{"view_history":[{"page_index":0,"viewing_time":2225.300000011921},{"page_index":1,"viewing_time":1855.199999988079},{"page_index":2,"viewing_time":2552.099999964237},{"page_index":3,"viewing_time":1176.2000000476837}],"rt":7809.800000011921,"trial_type":"instructions","trial_index":0,"time_elapsed":7828,"internal_node_id":"0.0-0.0","task_version":"prescreen-v0.3"},{"rt":11833.800000011921,"responses":{"age":"27","gender-categorical":"Female","gender-free-response":"","ethnicity":"Not Hispanic or Latino","race":["White"],"education":"Master degree or higher"},"trial_type":"survey-demo","trial_index":1,"time_elapsed":19668,"internal_node_id":"0.0-1.0","task_version":"prescreen-v0.3"},{"responses":{"Q13":"3","Q06":"0","Q07":"0","Q05":"1","Q21":"3","Q12":"3","Q18":"1","Q15":"3","Q20":"2","Q14":"2","Q19":"2","Q02":"1","Q09":"0","Q01":"1","Q17":"1","Q04":"0","Q11":"1","Q16":"2","Q03":"1","Q10":"0","Q08":"2"},"rt":86397.09999996424,"item_order":[12,5,6,4,20,11,17,14,19,13,18,1,8,0,16,3,10,15,2,9,7],"radio_events":[4426.199999988079,9586,12971.300000011921,18874.099999964237,22473.80000001192,23169.899999976158,26482.5,35651.09999996424,39434.59999996424,40361.89999997616,44385.89999997616,48978.09999996424,51601.69999998808,56241.80000001192,59721.69999998808,64521.69999998808,66714.80000001192,69265.59999996424,74793.80000001192,77529.69999998808,80705.89999997616,82443.30000001192,84489.80000001192],"key_events":[],"mouse_events":[4426.199999988079,9586,12242.899999976158,12971.300000011921,17914.099999964237,18874.099999964237,21578,22473.80000001192,23169.899999976158,26219,26482.5,35210.09999996424,35651.09999996424,39434.59999996424,40361.89999997616,43449.89999997616,44385.89999997616,48561.89999997616,48978.09999996424,51601.69999998808,55489.80000001192,55915.5,56241.80000001192,59721.69999998808,62530.69999998808,63860.09999996424,64521.69999998808,66714.80000001192,69265.59999996424,73818.69999998808,74218.5,74793.80000001192,77529.69999998808,80705.89999997616,81441.59999996424,82443.30000001192,84489.80000001192,85490.80000001192,86394.39999997616],"straightlining":0.3333333333333333,"zigzagging":0.55,"honeypot":0,"survey":"sns","trial_type":"survey-template","trial_index":2,"time_elapsed":106071,"internal_node_id":"0.0-2.0","task_version":"prescreen-v0.3","browser_interactions":0,"infrequency":0},{"responses":{"Q12":"2","Q02":"3","Q10":"1","Q07":"2","Q08":"3","Q09":"1","Q11":"2","Q13":"0","Q03":"3","Q06":"3","Q04":"3","Q05":"3","Q01":"3"},"rt":48210,"item_order":[11,1,9,6,7,8,10,12,2,5,3,4,0],"radio_events":[4961.199999988079,7200.5,10913,16488.5,21352.5,23112.899999976158,26200.399999976158,28624.5,39673.69999998808,41865.299999952316,43881.59999996424,46640.799999952316,47754],"key_events":[],"mouse_events":[4961.199999988079,7200.5,10913,16488.5,21352.5,23112.899999976158,26200.399999976158,28624.5,38561.299999952316,38890.09999996424,39673.69999998808,41865.299999952316,43881.59999996424,45906,46192.69999998808,46640.799999952316,47440.799999952316,47754,48208.39999997616],"straightlining":0.5384615384615384,"zigzagging":0.4166666666666667,"honeypot":0,"survey":"bisbas","trial_type":"survey-template","trial_index":3,"time_elapsed":154293,"internal_node_id":"0.0-3.0","task_version":"prescreen-v0.3","browser_interactions":0,"infrequency":0},{"responses":{"Q01":"3","Q02":"2","Q03":"4"},"rt":13566.600000023842,"radio_events":[5493.600000023842,9525.800000011921,12254.5,13046.800000011921],"key_events":[],"mouse_events":[4373.400000035763,5493.600000023842,9525.800000011921,12254.5,13046.800000011921,13565.800000011921],"survey":"map","page":1,"trial_type":"survey-map","trial_index":4,"time_elapsed":167869,"internal_node_id":"0.0-4.0","task_version":"prescreen-v0.3","browser_interactions":0},{"responses":{"Q04":"2","Q05":"3","Q06":"3"},"rt":12719,"radio_events":[3254.300000011921,7790.5,11919.800000011921],"key_events":[],"mouse_events":[3254.300000011921,7790.5,8455,11414.600000023842,11919.800000011921,12718.300000011921],"survey":"map","page":2,"trial_type":"survey-map","trial_index":5,"time_elapsed":180596,"internal_node_id":"0.0-5.0","task_version":"prescreen-v0.3","browser_interactions":0},{"responses":{"Q07":"0","Q08":"0","Q09":"4"},"rt":13531.600000023842,"radio_events":[6921.700000047684,10913.600000023842,13027.600000023842],"key_events":[],"mouse_events":[6370.100000023842,6921.700000047684,10913.600000023842,13027.600000023842,13530.700000047684],"survey":"map","page":3,"trial_type":"survey-map","trial_index":6,"time_elapsed":194133,"internal_node_id":"0.0-6.0","task_version":"prescreen-v0.3","browser_interactions":0},{"responses":{"Q10":"2","Q11":"3","Q12":"2","Q13":"1","Q16":"0","Q14":"1","Q15":"2"},"rt":49346,"radio_events":[5063,7416.800000011921,15871,20718.80000001192,25438.80000001192,37662.89999997616,43614.89999997616,48135.09999996424,48830.80000001192],"key_events":[],"mouse_events":[5063,7416.800000011921,15871,19295.80000001192,19646.69999998808,20343.19999998808,20718.80000001192,25438.80000001192,37662.89999997616,43614.89999997616,45783,47256,48135.09999996424,48830.80000001192,49344],"survey":"map","page":4,"trial_type":"survey-map","trial_index":7,"time_elapsed":243484,"internal_node_id":"0.0-7.0","task_version":"prescreen-v0.3","browser_interactions":0,"infrequency":0},{"view_history":[{"page_index":0,"viewing_time":1374.7999999523163},{"page_index":1,"viewing_time":3480.2000000476837}],"rt":4856,"trial_type":"instructions","trial_index":8,"time_elapsed":248346,"internal_node_id":"0.0-8.0","task_version":"prescreen-v0.3"},{"responses":{"01":"Yes","01_ages_7":"7","01_ages_8":"8","01_ages_9":"9","01_ages_10":"10","01_ages_11":"11","01_ages_12":"12","02":"Yes","02_ages_7":"7","02_ages_8":"8","02_ages_9":"9","02_ages_10":"10","02_ages_11":"11","02_ages_12":"12","02_ages_13":"13","02_ages_14":"14","02_ages_15":"15","03":"Yes","03_ages_8":"8","03_ages_9":"9","03_ages_10":"10","03_ages_11":"11","03_ages_12":"12","04":"No","05":"No","06":"No"},"rt":74762.10000002384,"item_order":[0,1,2,3,4,5],"radio_events":[9343,34446.200000047684,55781.5,71678.10000002384,72406.20000004768,74054.20000004768],"checkbox_events":[14295.100000023842,14949.700000047684,17246.700000047684,17861.900000035763,22774.200000047684,26077.900000035763,27614.400000035763,28366,30744,31333.80000001192,40813.700000047684,41711.700000047684,42398.60000002384,43591.30000001192,44005.80000001192,44374.10000002384,44973.700000047684,45927,49238.90000003576,49581.90000003576,50461.5,51982.700000047684,52358.5,59021.90000003576,59766.40000003576,60222,62286.10000002384,63278.60000002384,64101.700000047684,68421.90000003576],"key_events":[],"mouse_events":[0.40000003576278687,9343,12993.300000011921,13878.100000023842,14295.100000023842,14949.700000047684,15759,16343.600000023842,16831.100000023842,17246.700000047684,17861.900000035763,22774.200000047684,26077.900000035763,27614.400000035763,28366,29238.100000023842,29759.900000035763,30285.5,30744,31333.80000001192,34446.200000047684,40813.700000047684,41397.80000001192,41711.700000047684,42038.200000047684,42398.60000002384,42854.5,43591.30000001192,44005.80000001192,44374.10000002384,44973.700000047684,45927,48926.200000047684,49238.90000003576,49581.90000003576,50461.5,51982.700000047684,52358.5,55781.5,59021.90000003576,59502.30000001192,59766.40000003576,60222,62286.10000002384,63037.60000002384,63278.60000002384,63694.40000003576,64101.700000047684,64605.700000047684,68421.90000003576,70790.70000004768,71678.10000002384,72406.20000004768,74054.20000004768,74758.40000003576],"honeypot":0,"survey":"mace","page":1,"trial_type":"survey-mace","trial_index":9,"time_elapsed":323118,"internal_node_id":"0.0-9.0","task_version":"prescreen-v0.3","browser_interactions":0},{"responses":{"01":"No","02":"No","03":"Yes","03_ages_7":"7","04":"No","05":"No","06":"No","07":"No","08":"No"},"rt":22481,"item_order":[0,1,2,3,4,5,6,7],"radio_events":[2256.699999988079,3032.800000011921,9506.199999988079,13872.699999988079,15242.399999976158,16097.399999976158,16904.69999998808,21898],"checkbox_events":[11408.600000023842],"key_events":[],"mouse_events":[2256.699999988079,3032.800000011921,9506.199999988079,11408.600000023842,13401.600000023842,13872.699999988079,15242.399999976158,16097.399999976158,16904.69999998808,18154,21898,22475.600000023842],"honeypot":0,"survey":"mace","page":2,"trial_type":"survey-mace","trial_index":10,"time_elapsed":345610,"internal_node_id":"0.0-10.0","task_version":"prescreen-v0.3","browser_interactions":0},{"responses":{"01":"No","02":"No","03":"No","04":"No"},"rt":10680.200000047684,"item_order":[0,1,2,3],"radio_events":[4901.200000047684,7262,9189.400000035763,10133.700000047684],"checkbox_events":[],"key_events":[],"mouse_events":[4901.200000047684,6381.400000035763,7262,8597.200000047684,9189.400000035763,9765.800000011921,10133.700000047684,10677.5],"honeypot":0,"survey":"mace","page":3,"trial_type":"survey-mace","trial_index":11,"time_elapsed":356299,"internal_node_id":"0.0-11.0","task_version":"prescreen-v0.3","browser_interactions":0},{"responses":{"01":"Yes","01_ages_8":"8","01_ages_9":"9","02":"No"},"rt":13734,"item_order":[0,1],"radio_events":[4469.400000035763,13301.699999988079],"checkbox_events":[8141.900000035763,10573.699999988079],"key_events":[],"mouse_events":[4469.400000035763,8141.900000035763,10573.699999988079,12749.600000023842,13069.400000035763,13301.699999988079,13733.199999988079],"honeypot":0,"survey":"mace","page":4,"trial_type":"survey-mace","trial_index":12,"time_elapsed":370043,"internal_node_id":"0.0-12.0","task_version":"prescreen-v0.3","browser_interactions":0},{"responses":{"01":"No","02":"No","03":"No","04":"No","05":"No"},"rt":12085,"item_order":[0,1,2,3,4],"radio_events":[5178.799999952316,6490.399999976158,8065.599999964237,10377.5,11386.899999976158],"checkbox_events":[],"key_events":[],"mouse_events":[5178.799999952316,6490.399999976158,7689.799999952316,8065.599999964237,10377.5,11386.899999976158,12081.899999976158],"honeypot":0,"survey":"mace","page":5,"trial_type":"survey-mace","trial_index":13,"time_elapsed":382136,"internal_node_id":"0.0-13.0","task_version":"prescreen-v0.3","browser_interactions":0},{"responses":{"01":"Yes","01_ages_11":"11","01_ages_12":"12","02":"Yes","02_ages_9":"9","02_ages_10":"10","02_ages_11":"11","02_ages_12":"12","02_ages_13":"13","02_ages_14":"14","02_ages_15":"15","02_ages_16":"16","03":"No","04":"Yes","04_ages_16":"16","04_ages_17":"17","04_ages_18":"18","05":"No"},"rt":47149.80000001192,"item_order":[0,1,2,3,4],"radio_events":[8570.399999976158,18849.80000001192,39377.80000001192,40258.09999996424,45953.89999997616],"checkbox_events":[14657.899999976158,16626.80000001192,22794.19999998808,23802.80000001192,24322.099999964237,24827.099999964237,25330.19999998808,28361.899999976158,33162.80000001192,33755.19999998808,42986.59999996424,43515,43938.19999998808],"key_events":[],"mouse_events":[8570.399999976158,14657.899999976158,15386,16626.80000001192,18467.19999998808,18849.80000001192,21457.899999976158,22402.099999964237,22794.19999998808,23210.5,23802.80000001192,24322.099999964237,24827.099999964237,25330.19999998808,26593.69999998808,28361.899999976158,33162.80000001192,33755.19999998808,39377.80000001192,40258.09999996424,42986.59999996424,43515,43938.19999998808,45953.89999997616,47145.89999997616],"honeypot":0,"survey":"mace","page":6,"trial_type":"survey-mace","trial_index":14,"time_elapsed":429294,"internal_node_id":"0.0-14.0","task_version":"prescreen-v0.3","browser_interactions":0},{"responses":{"01":"No","02":"No","03":"No","04":"No","05":"No","06":"No","07":"No"},"rt":20968.5,"item_order":[0,1,2,3,4,5,6],"radio_events":[3100.5,10948.5,12076.699999988079,12645.899999976158,13212.899999976158,14996.5,16660.5],"checkbox_events":[],"key_events":[],"mouse_events":[3100.5,5685.300000011921,10948.5,11540.199999988079,11813.199999988079,12076.699999988079,12645.899999976158,13212.899999976158,14565.399999976158,14996.5,16125.600000023842,16660.5,20964.19999998808],"honeypot":0,"survey":"mace","page":7,"trial_type":"survey-mace","trial_index":15,"time_elapsed":450273,"internal_node_id":"0.0-15.0","task_version":"prescreen-v0.3","browser_interactions":0},{"responses":{"01":"No","02":"Yes","02_ages_1":"1","02_ages_2":"2","02_ages_3":"3","02_ages_4":"4","02_ages_5":"5","02_ages_6":"6","02_ages_7":"7","02_ages_8":"8","02_ages_9":"9","02_ages_10":"10","02_ages_11":"11","02_ages_12":"12","02_ages_13":"13","02_ages_14":"14","02_ages_15":"15","02_ages_16":"16","02_ages_17":"17","03":"Yes","03_ages_7":"7","03_ages_8":"8","03_ages_9":"9","03_ages_10":"10","03_ages_11":"11","03_ages_12":"12","03_ages_13":"13","03_ages_14":"14","03_ages_15":"15","03_ages_16":"16","03_ages_17":"17","03_ages_18":"18","04":"No"},"rt":52692.80000001192,"item_order":[0,1,2,3],"radio_events":[7121,11560.599999964237,36137.80000001192,51873.19999998808],"checkbox_events":[18648.80000001192,19312.899999976158,19497.399999976158,19880.5,20529.69999998808,21049.19999998808,22512.899999976158,23153.19999998808,23561.19999998808,24353.80000001192,26040.80000001192,27042.099999964237,27504.899999976158,28168.899999976158,29833.099999964237,30177.5,30706.099999964237,31904.599999964237,32848.80000001192,40329.69999998808,40754,41137.19999998808,41808.89999997616,42513.80000001192,42857.09999996424,43218.39999997616,43905.30000001192,44160.69999998808,44425.09999996424,44760.89999997616,45050.30000001192,45529.09999996424,46217.30000001192,47769.80000001192,48240.89999997616],"key_events":[],"mouse_events":[7121,11560.599999964237,18648.80000001192,19009.099999964237,19312.899999976158,19497.399999976158,19880.5,20329.80000001192,20529.69999998808,21049.19999998808,21466.899999976158,21793.80000001192,22016.80000001192,22512.899999976158,22905.19999998808,23153.19999998808,23561.19999998808,23978.19999998808,24353.80000001192,25520.599999964237,26040.80000001192,26522.099999964237,27042.099999964237,27504.899999976158,28168.899999976158,28665.599999964237,29240.5,29570,29833.099999964237,30177.5,30706.099999964237,30979.399999976158,31281.80000001192,31904.599999964237,32384.899999976158,32848.80000001192,36137.80000001192,40329.69999998808,40754,41137.19999998808,41465.19999998808,41808.89999997616,42193,42513.80000001192,42857.09999996424,43218.39999997616,43905.30000001192,44160.69999998808,44425.09999996424,44760.89999997616,45050.30000001192,45529.09999996424,46217.30000001192,46776.89999997616,47290.19999998808,47440.80000001192,47769.80000001192,48240.89999997616,50488.80000001192,51873.19999998808,52688.89999997616],"honeypot":0,"survey":"mace","page":8,"trial_type":"survey-mace","trial_index":16,"time_elapsed":502974,"internal_node_id":"0.0-16.0","task_version":"prescreen-v0.3","browser_interactions":0},{"responses":{"01":"Yes","01_ages_4":"4","01_ages_5":"5","01_ages_6":"6","01_ages_7":"7","02":"No","03":"Yes","03_ages_1":"1","03_ages_2":"2","03_ages_3":"3","03_ages_4":"4","03_ages_5":"5","03_ages_6":"6","03_ages_7":"7","03_ages_8":"8","03_ages_9":"9","03_ages_10":"10","03_ages_11":"11","03_ages_12":"12","03_ages_13":"13","03_ages_14":"14","03_ages_15":"15","03_ages_16":"16","03_ages_17":"17","03_ages_18":"18","04":"Yes","04_ages_1":"1","04_ages_2":"2","04_ages_3":"3","04_ages_4":"4","04_ages_5":"5","04_ages_6":"6","04_ages_7":"7","04_ages_8":"8","04_ages_9":"9","04_ages_10":"10","04_ages_11":"11","04_ages_12":"12","04_ages_13":"13","04_ages_14":"14","04_ages_15":"15","04_ages_16":"16","04_ages_17":"17","04_ages_18":"18"},"rt":107023.5,"item_order":[0,1,2,3],"radio_events":[4707.800000011921,38572.40000003576,40395.90000003576,45148.80000001192,61443.700000047684],"checkbox_events":[20588.700000047684,21478.100000023842,21979.900000035763,22379.600000023842,50701,52219.80000001192,52732.90000003576,53027.60000002384,53812.90000003576,54229,54724.60000002384,55411.90000003576,56843.700000047684,57196,57707.80000001192,62845.30000001192,64444,66259.80000001192,67596.10000002384,68580.5,68940,69796,70148.70000004768,70716.90000003576,71109.30000001192,71499.80000001192,72059.70000004768,72644.90000003576,73205.80000001192,74611.70000004768,85115.90000003576,85684,94316.70000004768,94691.80000001192,95101.20000004768,95364.10000002384,96100.80000001192,96533.10000002384,97340.70000004768,99291.70000004768,99748.60000002384,100163.80000001192,100796.70000004768,101236.70000004768,102003.90000003576,102332.70000004768,103179.60000002384,103653.10000002384,103940.80000001192,105860.40000003576],"key_events":[],"mouse_events":[4075.600000023842,4396.100000023842,4707.800000011921,20588.700000047684,21123.80000001192,21478.100000023842,21979.900000035763,22379.600000023842,38572.40000003576,40395.90000003576,45148.80000001192,50701,51189,51773.10000002384,52219.80000001192,52732.90000003576,53027.60000002384,53364.80000001192,53812.90000003576,54229,54724.60000002384,55411.90000003576,56435.60000002384,56843.700000047684,57196,57707.80000001192,60884.30000001192,61443.700000047684,62845.30000001192,63300.700000047684,63965,64444,66259.80000001192,66660.60000002384,67069.40000003576,67596.10000002384,68067.80000001192,68580.5,68940,69796,70148.70000004768,70716.90000003576,71109.30000001192,71499.80000001192,71820.70000004768,72059.70000004768,72644.90000003576,73205.80000001192,73492.10000002384,74611.70000004768,80995.70000004768,85115.90000003576,85684,94316.70000004768,94691.80000001192,95101.20000004768,95364.10000002384,96100.80000001192,96533.10000002384,97340.70000004768,97652,97949.40000003576,98204.40000003576,99052.60000002384,99291.70000004768,99748.60000002384,100163.80000001192,100548.20000004768,100796.70000004768,101236.70000004768,101691.60000002384,102003.90000003576,102332.70000004768,102835.80000001192,103179.60000002384,103653.10000002384,103940.80000001192,104869.20000004768,105860.40000003576,107019.80000001192],"honeypot":0,"survey":"mace","page":9,"trial_type":"survey-mace","trial_index":17,"time_elapsed":610006,"internal_node_id":"0.0-17.0","task_version":"prescreen-v0.3","browser_interactions":0},{"responses":{"01":"No","02":"No","03":"Yes","03_ages_7":"7","03_ages_8":"8","03_ages_9":"9","03_ages_10":"10","03_ages_11":"11","03_ages_12":"12","03_ages_13":"13","03_ages_14":"14","03_ages_15":"15","03_ages_16":"16","03_ages_17":"17","03_ages_18":"18","04":"Yes","04_ages_3":"3","04_ages_4":"4","04_ages_5":"5","04_ages_6":"6","04_ages_7":"7","05":"Yes","05_ages_1":"1","05_ages_2":"2","05_ages_3":"3","05_ages_4":"4","05_ages_5":"5","05_ages_6":"6","05_ages_7":"7","05_ages_8":"8","05_ages_9":"9","05_ages_10":"10","05_ages_11":"11","05_ages_12":"12","05_ages_13":"13","05_ages_14":"14","05_ages_15":"15","05_ages_16":"16","05_ages_17":"17","05_ages_18":"18","06":"Yes","06_ages_17":"17","07":"No","08":"No"},"rt":46919.299999952316,"item_order":[0,1,2,3,4,5,6,7],"radio_events":[4314.099999964237,4874.199999988079,6441.899999976158,15578.399999976158,25562.19999998808,38466,45930.59999996424,46370],"checkbox_events":[7819.199999988079,8332.5,8819.099999964237,9531.5,10066.399999976158,11074,11588,12139.299999952316,12474.899999976158,12835.199999988079,13066.099999964237,13538.199999988079,18978.899999976158,19651.69999998808,20178.099999964237,20603.299999952316,21018.19999998808,21330.099999964237,21643.19999998808,27218.69999998808,27507.099999964237,27819.19999998808,28234.19999998808,28603.5,29458.099999964237,30498.099999964237,31379,32156,32867.59999996424,33155.09999996424,33618,34051.5,34571.39999997616,35066,35626.39999997616,36258.5,36674.39999997616,39737.69999998808],"key_events":[],"mouse_events":[4314.099999964237,4874.199999988079,6441.899999976158,7819.199999988079,8332.5,8819.099999964237,9164,9531.5,10066.399999976158,11074,11588,12139.299999952316,12474.899999976158,12835.199999988079,13066.099999964237,13538.199999988079,15578.399999976158,18978.899999976158,19651.69999998808,20178.099999964237,20603.299999952316,21018.19999998808,21330.099999964237,21643.19999998808,25562.19999998808,27218.69999998808,27507.099999964237,27819.19999998808,28234.19999998808,28603.5,28971.099999964237,29458.099999964237,29996,30498.099999964237,31003.19999998808,31379,32156,32867.59999996424,33155.09999996424,33618,34051.5,34571.39999997616,35066,35403.5,35626.39999997616,35994.19999998808,36258.5,36674.39999997616,38466,39737.69999998808,45930.59999996424,46370,46914.39999997616],"honeypot":0,"survey":"mace","page":10,"trial_type":"survey-mace","trial_index":18,"time_elapsed":656936,"internal_node_id":"0.0-18.0","task_version":"prescreen-v0.3","browser_interactions":0,"instructed":0},{"rt":4866.100000023842,"trial_type":"mental-health-alert","trial_index":19,"time_elapsed":661809,"internal_node_id":"0.0-19.0","task_version":"prescreen-v0.3","interactions":"[]"}]