[{"view_history":[{"page_index":0,"viewing_time":1780.1000000014901},{"page_index":1,"viewing_time":3393.5999999940395},{"page_index":2,"viewing_time":47934.5},{"page_index":3,"viewing_time":1206.6000000014901}],"rt":54317,"trial_type":"instructions","trial_index":0,"time_elapsed":54331,"internal_node_id":"0.0-0.0","task_version":"prescreen-v0.3"},{"rt":33468.89999999851,"responses":{"age":"28","gender-categorical":"Female","gender-free-response":"","ethnicity":"Not Hispanic or Latino","race":["White"],"education":"Bachelor degree"},"trial_type":"survey-demo","trial_index":1,"time_elapsed":87805,"internal_node_id":"0.0-1.0","task_version":"prescreen-v0.3"},{"responses":{"Q16":"2","Q07":"3","Q21":"3","Q15":"3","Q19":"2","Q14":"3","Q11":"0","Q18":"2","Q04":"3","Q10":"0","Q17":"0","Q12":"0","Q20":"1","Q01":"0","Q02":"1","Q06":"0","Q03":"1","Q09":"0","Q13":"2","Q05":"0","Q08":"1"},"rt":138705.79999999702,"item_order":[15,6,20,14,18,13,10,17,3,9,16,11,19,0,1,5,2,8,12,4,7],"radio_events":[15031.29999999702,24205.39999999851,27801.60000000149,29519.5,32085.29999999702,34822,35947.70000000298,37868,40597,50252.89999999851,87209.89999999851,91332.89999999851,92669,96548.89999999851,100209.39999999851,103190.60000000149,107094.60000000149,113511.5,115139.39999999851,119683.60000000149,121983.70000000298,125402.20000000298,128277.79999999702,137689.8999999985],"key_events":[],"mouse_events":[15031.29999999702,24205.39999999851,26165.89999999851,27801.60000000149,29519.5,32085.29999999702,34822,35947.70000000298,37868,40597,50252.89999999851,87209.89999999851,91332.89999999851,92669,95131.79999999702,96548.89999999851,100209.39999999851,103190.60000000149,107094.60000000149,113511.5,115139.39999999851,119683.60000000149,121983.70000000298,125402.20000000298,128277.79999999702,137689.8999999985,138702.29999999702],"straightlining":0.38095238095238093,"zigzagging":0.65,"honeypot":0,"survey":"sns","trial_type":"survey-template","trial_index":2,"time_elapsed":226520,"internal_node_id":"0.0-2.0","task_version":"prescreen-v0.3","browser_interactions":0,"infrequency":0},{"responses":{"Q12":"3","Q06":"3","Q05":"3","Q13":"0","Q03":"3","Q09":"3","Q01":"3","Q04":"3","Q11":"1","Q02":"3","Q08":"1","Q07":"2","Q10":"2"},"rt":62164.60000000149,"item_order":[11,5,4,12,2,8,0,3,10,1,7,6,9],"radio_events":[11368.89999999851,15769.89999999851,17780,21108.5,26583.80000000447,29855.39999999851,30754.39999999851,33629.89999999851,36666.80000000447,43888,45710.39999999851,50156.80000000447,55554.30000000447,56153.80000000447,61312.89999999851],"key_events":[],"mouse_events":[11368.89999999851,15769.89999999851,17780,21108.5,26583.80000000447,28997.39999999851,29855.39999999851,30754.39999999851,33629.89999999851,36666.80000000447,43888,45710.39999999851,50156.80000000447,55554.30000000447,56153.80000000447,60454.60000000149,61312.89999999851,62163],"straightlining":0.6153846153846154,"zigzagging":0.25,"honeypot":0,"survey":"bisbas","trial_type":"survey-template","trial_index":3,"time_elapsed":288692,"internal_node_id":"0.0-3.0","task_version":"prescreen-v0.3","browser_interactions":0,"infrequency":0},{"responses":{"Q01":"3","Q02":"2","Q03":"3"},"rt":28149.39999999851,"radio_events":[20866.39999999851,23644,27159.39999999851],"key_events":[],"mouse_events":[20866.39999999851,23644,27159.39999999851,28148.10000000149],"survey":"map","page":1,"trial_type":"survey-map","trial_index":4,"time_elapsed":316851,"internal_node_id":"0.0-4.0","task_version":"prescreen-v0.3","browser_interactions":0},{"responses":{"Q04":"4","Q05":"2","Q06":"3"},"rt":11865.79999999702,"radio_events":[3150.1999999955297,5830.5,10876.29999999702],"key_events":[],"mouse_events":[3150.1999999955297,5830.5,10876.29999999702,11864.89999999851],"survey":"map","page":2,"trial_type":"survey-map","trial_index":5,"time_elapsed":328724,"internal_node_id":"0.0-5.0","task_version":"prescreen-v0.3","browser_interactions":0},{"responses":{"Q07":"4","Q08":"4","Q09":"1"},"rt":23118.60000000149,"radio_events":[9980.20000000298,13584.60000000149,21668],"key_events":[],"mouse_events":[9980.20000000298,13584.60000000149,21668,23117.5],"survey":"map","page":3,"trial_type":"survey-map","trial_index":6,"time_elapsed":351849,"internal_node_id":"0.0-6.0","task_version":"prescreen-v0.3","browser_interactions":0},{"responses":{"Q10":"2","Q11":"1","Q12":"2","Q13":"2","Q16":"0","Q14":"2","Q15":"2"},"rt":51376.5,"radio_events":[4867.70000000298,7315.5,10941.60000000149,12695,20053.20000000298,34589.80000000447,37489.70000000298,50053.5],"key_events":[],"mouse_events":[4867.70000000298,7315.5,10941.60000000149,12695,20053.20000000298,34589.80000000447,37489.70000000298,50053.5,51374],"survey":"map","page":4,"trial_type":"survey-map","trial_index":7,"time_elapsed":403233,"internal_node_id":"0.0-7.0","task_version":"prescreen-v0.3","browser_interactions":0,"infrequency":0},{"view_history":[{"page_index":0,"viewing_time":2540.6999999955297},{"page_index":1,"viewing_time":5579.5}],"rt":8121.79999999702,"trial_type":"instructions","trial_index":8,"time_elapsed":411362,"internal_node_id":"0.0-8.0","task_version":"prescreen-v0.3"},{"responses":{"01":"No","02":"Yes","02_ages_6":"6","02_ages_7":"7","02_ages_13":"13","02_ages_14":"14","02_ages_15":"15","03":"Yes","03_ages_14":"14","03_ages_15":"15","03_ages_16":"16","04":"No","05":"No","06":"Yes","06_ages_15":"15"},"rt":54675.20000000298,"item_order":[0,1,2,3,4,5],"radio_events":[8769.29999999702,11004.70000000298,28498.10000000149,36380,37756.5,40809.29999999702],"checkbox_events":[18908.89999999851,19640.29999999702,20407,22675,23849.10000000149,30458.79999999702,31390.29999999702,32062.60000000149,33471.29999999702,34378.70000000298,45638.5,46756,47387.89999999851,48845.60000000149,49947.70000000298,50976.60000000149,52142.60000000149],"key_events":[],"mouse_events":[0.10000000149011612,8769.29999999702,11004.70000000298,18908.89999999851,19640.29999999702,20407,22675,23849.10000000149,28498.10000000149,30458.79999999702,31390.29999999702,32062.60000000149,32750.60000000149,33471.29999999702,34378.70000000298,36380,37756.5,40809.29999999702,45638.5,46756,47387.89999999851,48221.79999999702,48845.60000000149,49947.70000000298,50976.60000000149,52142.60000000149,54670],"honeypot":0,"survey":"mace","page":1,"trial_type":"survey-mace","trial_index":9,"time_elapsed":466046,"internal_node_id":"0.0-9.0","task_version":"prescreen-v0.3","browser_interactions":0},{"responses":{"01":"No","02":"No","03":"No","04":"No","05":"No","06":"Yes","06_ages_12":"12","07":"No","08":"No"},"rt":25629.90000000596,"item_order":[0,1,2,3,4,5,6,7],"radio_events":[3045.10000000149,5466.5,7329.4000000059605,10042.70000000298,11677.70000000298,16488.30000000447,22010.80000000447,23517.70000000298],"checkbox_events":[19500.80000000447],"key_events":[],"mouse_events":[3045.10000000149,4600.20000000298,5466.5,7329.4000000059605,10042.70000000298,11677.70000000298,16488.30000000447,19500.80000000447,22010.80000000447,23517.70000000298,25623.5],"honeypot":0,"survey":"mace","page":2,"trial_type":"survey-mace","trial_index":10,"time_elapsed":491686,"internal_node_id":"0.0-10.0","task_version":"prescreen-v0.3","browser_interactions":0},{"responses":{"01":"No","02":"No","03":"No","04":"No"},"rt":7746.5,"item_order":[0,1,2,3],"radio_events":[2940.10000000149,4324.89999999851,5669,6981.19999999553],"checkbox_events":[],"key_events":[],"mouse_events":[2940.10000000149,4324.89999999851,5669,6981.19999999553,7742.39999999851],"honeypot":0,"survey":"mace","page":3,"trial_type":"survey-mace","trial_index":11,"time_elapsed":499440,"internal_node_id":"0.0-11.0","task_version":"prescreen-v0.3","browser_interactions":0},{"responses":{"01":"No","02":"No"},"rt":7920,"item_order":[0,1],"radio_events":[6030.60000000149,7026.89999999851],"checkbox_events":[],"key_events":[],"mouse_events":[6030.60000000149,7026.89999999851,7917.89999999851],"honeypot":0,"survey":"mace","page":4,"trial_type":"survey-mace","trial_index":12,"time_elapsed":507368,"internal_node_id":"0.0-12.0","task_version":"prescreen-v0.3","browser_interactions":0},{"responses":{"01":"No","02":"No","03":"No","04":"No","05":"No"},"rt":15503.89999999851,"item_order":[0,1,2,3,4],"radio_events":[6283.5999999940395,7734.89999999851,10647.19999999553,13352.89999999851,14470.39999999851],"checkbox_events":[],"key_events":[],"mouse_events":[6283.5999999940395,7734.89999999851,10647.19999999553,13352.89999999851,14470.39999999851,15499.59999999404],"honeypot":0,"survey":"mace","page":5,"trial_type":"survey-mace","trial_index":13,"time_elapsed":522880,"internal_node_id":"0.0-13.0","task_version":"prescreen-v0.3","browser_interactions":0},{"responses":{"01":"No","02":"Yes","02_ages_6":"6","02_ages_7":"7","02_ages_8":"8","03":"No","04":"No","05":"No"},"rt":38349.39999999851,"item_order":[0,1,2,3,4],"radio_events":[8225.39999999851,13794.39999999851,33404.60000000149,34488.70000000298,37461],"checkbox_events":[17803.20000000298,18532.29999999702,20071.39999999851],"key_events":[],"mouse_events":[8225.39999999851,13794.39999999851,17803.20000000298,18532.29999999702,19293.5,20071.39999999851,33404.60000000149,34488.70000000298,37461,38344.29999999702],"honeypot":0,"survey":"mace","page":6,"trial_type":"survey-mace","trial_index":14,"time_elapsed":561238,"internal_node_id":"0.0-14.0","task_version":"prescreen-v0.3","browser_interactions":0},{"responses":{"01":"No","02":"No","03":"No","04":"No","05":"No","06":"No","07":"No"},"rt":50195.30000000447,"item_order":[0,1,2,3,4,5,6],"radio_events":[39351.89999999851,41150.5,42770.30000000447,44422.30000000447,46382.80000000447,48626.60000000149,49533.80000000447],"checkbox_events":[],"key_events":[],"mouse_events":[39351.89999999851,41150.5,42770.30000000447,44422.30000000447,46382.80000000447,47614.10000000149,48626.60000000149,49533.80000000447,50190],"honeypot":0,"survey":"mace","page":7,"trial_type":"survey-mace","trial_index":15,"time_elapsed":611442,"internal_node_id":"0.0-15.0","task_version":"prescreen-v0.3","browser_interactions":0},{"responses":{"01":"No","02":"Yes","02_ages_1":"1","02_ages_2":"2","02_ages_3":"3","02_ages_4":"4","02_ages_5":"5","02_ages_6":"6","02_ages_7":"7","02_ages_8":"8","02_ages_9":"9","02_ages_10":"10","02_ages_11":"11","02_ages_12":"12","02_ages_13":"13","02_ages_14":"14","02_ages_15":"15","02_ages_16":"16","02_ages_17":"17","02_ages_18":"18","03":"Yes","03_ages_1":"1","03_ages_2":"2","03_ages_3":"3","03_ages_4":"4","03_ages_5":"5","03_ages_6":"6","03_ages_7":"7","03_ages_8":"8","03_ages_9":"9","03_ages_10":"10","03_ages_11":"11","03_ages_12":"12","03_ages_13":"13","03_ages_14":"14","03_ages_15":"15","03_ages_16":"16","03_ages_17":"17","03_ages_18":"18","04":"Yes","04_ages_1":"1","04_ages_2":"2","04_ages_3":"3","04_ages_4":"4","04_ages_5":"5","04_ages_6":"6","04_ages_7":"7","04_ages_8":"8","04_ages_9":"9","04_ages_10":"10","04_ages_11":"11","04_ages_12":"12","04_ages_13":"13","04_ages_14":"14","04_ages_15":"15","04_ages_16":"16","04_ages_17":"17","04_ages_18":"18"},"rt":62739.5,"item_order":[0,1,2,3],"radio_events":[6351.9000000059605,8304.80000000447,27815.80000000447,46187.10000000149],"checkbox_events":[10654.10000000149,11269.20000000298,12095.60000000149,13043.10000000149,13771.90000000596,14703.70000000298,15521.80000000447,17287.70000000298,18308.5,19101.70000000298,19862.80000000447,20616.30000000447,21393.60000000149,22235.20000000298,23062.10000000149,23944.40000000596,24698.30000000447,25458.90000000596,30092.40000000596,30829.40000000596,32149.20000000298,32781.80000000447,33453.60000000149,34109.60000000149,35397.30000000447,36086.20000000298,36846.90000000596,37544.30000000447,38532.90000000596,39472.10000000149,40274.20000000298,41019.40000000596,41731.80000000447,42898.5,43635.10000000149,44405,47961.70000000298,48585.20000000298,49183.90000000596,49811.5,50577.70000000298,51282.20000000298,52003.30000000447,52683.70000000298,53420.30000000447,54304.10000000149,54992.40000000596,55696.60000000149,56478.30000000447,57317.40000000596,58370,59714.80000000447,61197.40000000596,61926],"key_events":[],"mouse_events":[5397.10000000149,6351.9000000059605,8304.80000000447,10654.10000000149,11269.20000000298,12095.60000000149,13043.10000000149,13771.90000000596,14703.70000000298,15521.80000000447,16550.10000000149,17287.70000000298,18308.5,19101.70000000298,19862.80000000447,20616.30000000447,21393.60000000149,22235.20000000298,23062.10000000149,23944.40000000596,24698.30000000447,25458.90000000596,27815.80000000447,30092.40000000596,30829.40000000596,31453.30000000447,32149.20000000298,32781.80000000447,33453.60000000149,34109.60000000149,34781.80000000447,35397.30000000447,36086.20000000298,36846.90000000596,37544.30000000447,38532.90000000596,39472.10000000149,40274.20000000298,41019.40000000596,41731.80000000447,42898.5,43635.10000000149,44405,46187.10000000149,47961.70000000298,48585.20000000298,49183.90000000596,49811.5,50577.70000000298,51282.20000000298,52003.30000000447,52683.70000000298,53420.30000000447,54304.10000000149,54992.40000000596,55696.60000000149,56478.30000000447,57317.40000000596,58370,59140,59714.80000000447,60484.70000000298,61197.40000000596,61926,62736.40000000596],"honeypot":0,"survey":"mace","page":8,"trial_type":"survey-mace","trial_index":16,"time_elapsed":674188,"internal_node_id":"0.0-16.0","task_version":"prescreen-v0.3","browser_interactions":0},{"responses":{"01":"Yes","01_ages_1":"1","01_ages_2":"2","01_ages_3":"3","01_ages_4":"4","01_ages_5":"5","01_ages_6":"6","01_ages_7":"7","01_ages_8":"8","01_ages_9":"9","01_ages_10":"10","01_ages_11":"11","01_ages_12":"12","01_ages_13":"13","01_ages_14":"14","01_ages_15":"15","01_ages_16":"16","01_ages_17":"17","01_ages_18":"18","02":"Yes","02_ages_1":"1","02_ages_2":"2","02_ages_3":"3","02_ages_4":"4","02_ages_5":"5","02_ages_6":"6","02_ages_7":"7","02_ages_8":"8","02_ages_9":"9","02_ages_10":"10","02_ages_11":"11","02_ages_12":"12","02_ages_13":"13","02_ages_14":"14","02_ages_15":"15","02_ages_16":"16","02_ages_17":"17","02_ages_18":"18","03":"Yes","03_ages_1":"1","03_ages_2":"2","03_ages_3":"3","03_ages_4":"4","03_ages_5":"5","03_ages_6":"6","03_ages_7":"7","03_ages_8":"8","03_ages_9":"9","03_ages_10":"10","03_ages_11":"11","03_ages_12":"12","03_ages_13":"13","03_ages_14":"14","03_ages_15":"15","03_ages_16":"16","03_ages_17":"17","03_ages_18":"18","04":"Yes","04_ages_1":"1","04_ages_2":"2","04_ages_3":"3","04_ages_4":"4","04_ages_5":"5","04_ages_6":"6","04_ages_7":"7","04_ages_8":"8","04_ages_9":"9","04_ages_10":"10","04_ages_11":"11","04_ages_12":"12","04_ages_13":"13","04_ages_14":"14","04_ages_15":"15","04_ages_16":"16","04_ages_17":"17","04_ages_18":"18"},"rt":75201.19999999553,"item_order":[0,1,2,3],"radio_events":[11167.89999999851,28469.29999999702,30138.29999999702,32697.29999999702],"checkbox_events":[14002.19999999553,15468.89999999851,16132.29999999702,16804.69999999553,17388.39999999851,18036.60000000149,18773.69999999553,19421.69999999553,20117.79999999702,21179.19999999553,21875.89999999851,22645.29999999702,23382.5,24097.10000000149,24832.69999999553,25577.29999999702,26282.5,27181.39999999851,34939.69999999553,35588.69999999553,36123.29999999702,36617.79999999702,37095.19999999553,37555.60000000149,38576.89999999851,39120.60000000149,39638.89999999851,40230.29999999702,40757.10000000149,41339.60000000149,42271.5,42894.79999999702,43680.39999999851,44321.5,44871.29999999702,45526.39999999851,47690.10000000149,48184.39999999851,48662.10000000149,49147.89999999851,50249.5,50791.89999999851,52355.5,53173.19999999553,53837.60000000149,54517.60000000149,55230.69999999553,55861.5,56631.89999999851,57328.5,58008.5,58729.5,59443.29999999702,60219.19999999553,61693.29999999702,62382.39999999851,63038.79999999702,63630.19999999553,64277.89999999851,65663.60000000149,66432.89999999851,67120.79999999702,68320,68983.10000000149,69655.5,70393.60000000149,71032.79999999702,71697,72311.89999999851,73009.29999999702,73705.69999999553,74394.10000000149],"key_events":[],"mouse_events":[11167.89999999851,14002.19999999553,14723.69999999553,15468.89999999851,16132.29999999702,16804.69999999553,17388.39999999851,18036.60000000149,18773.69999999553,19421.69999999553,20117.79999999702,21179.19999999553,21875.89999999851,22645.29999999702,23382.5,24097.10000000149,24832.69999999553,25577.29999999702,26282.5,27181.39999999851,28469.29999999702,30138.29999999702,32697.29999999702,34939.69999999553,35588.69999999553,36123.29999999702,36617.79999999702,37095.19999999553,37555.60000000149,38576.89999999851,39120.60000000149,39638.89999999851,40230.29999999702,40757.10000000149,41339.60000000149,42271.5,42894.79999999702,43680.39999999851,44321.5,44871.29999999702,45526.39999999851,47198.60000000149,47690.10000000149,48184.39999999851,48662.10000000149,49147.89999999851,50249.5,50791.89999999851,51294.10000000149,52355.5,53173.19999999553,53837.60000000149,54517.60000000149,55230.69999999553,55861.5,56631.89999999851,57328.5,58008.5,58729.5,59443.29999999702,60219.19999999553,61693.29999999702,62382.39999999851,63038.79999999702,63630.19999999553,64277.89999999851,64908.60000000149,65663.60000000149,66432.89999999851,67120.79999999702,67736.60000000149,68320,68983.10000000149,69655.5,70393.60000000149,71032.79999999702,71697,72311.89999999851,73009.29999999702,73705.69999999553,74394.10000000149,75197.39999999851],"honeypot":0,"survey":"mace","page":9,"trial_type":"survey-mace","trial_index":17,"time_elapsed":749396,"internal_node_id":"0.0-17.0","task_version":"prescreen-v0.3","browser_interactions":0},{"responses":{"01":"No","02":"No","03":"Yes","03_ages_12":"12","03_ages_13":"13","03_ages_14":"14","03_ages_15":"15","03_ages_16":"16","03_ages_17":"17","03_ages_18":"18","04":"Yes","04_ages_5":"5","04_ages_6":"6","04_ages_7":"7","04_ages_8":"8","05":"No","06":"Yes","06_ages_17":"17","07":"Yes","07_ages_1":"1","07_ages_2":"2","07_ages_3":"3","07_ages_4":"4","07_ages_5":"5","07_ages_6":"6","07_ages_7":"7","07_ages_8":"8","07_ages_9":"9","07_ages_10":"10","07_ages_11":"11","07_ages_12":"12","07_ages_13":"13","07_ages_14":"14","07_ages_15":"15","07_ages_16":"16","07_ages_17":"17","07_ages_18":"18","08":"Yes","08_ages_1":"1","08_ages_2":"2","08_ages_3":"3","08_ages_4":"4","08_ages_5":"5","08_ages_6":"6","08_ages_7":"7","08_ages_8":"8","08_ages_9":"9","08_ages_10":"10","08_ages_11":"11","08_ages_12":"12","08_ages_13":"13","08_ages_14":"14","08_ages_15":"15","08_ages_16":"16","08_ages_17":"17","08_ages_18":"18"},"rt":77313,"item_order":[0,1,2,3,4,5,6,7],"radio_events":[19811.29999999702,21318.89999999851,23021.69999999553,29506.39999999851,31693.5,39424.59999999404,41894.79999999702,46122.5,63964.89999999851],"checkbox_events":[24236.39999999851,24849.29999999702,25506,26145.39999999851,26736.59999999404,27408.5,28040.59999999404,33037.69999999553,33709.29999999702,34333.09999999404,34997.5,43482.19999999553,49741.69999999553,50682.59999999404,51265.69999999553,51807.59999999404,52366.79999999702,52893,53427.39999999851,54326.59999999404,55526,56076.39999999851,56909.29999999702,57469.59999999404,58003.39999999851,58620,59195.5,59730.09999999404,60401.79999999702,61721.29999999702,65447.69999999553,65991.59999999404,66541.89999999851,67084.89999999851,67658.89999999851,68218.39999999851,68777.89999999851,69320.19999999553,70040.09999999404,71134,71749.69999999553,73037,73620,74220.29999999702,74754.79999999702,75297.69999999553,75890.89999999851,76649.5],"key_events":[],"mouse_events":[19811.29999999702,21318.89999999851,23021.69999999553,24236.39999999851,24849.29999999702,25506,26145.39999999851,26736.59999999404,27408.5,28040.59999999404,29506.39999999851,31693.5,33037.69999999553,33709.29999999702,34333.09999999404,34997.5,39424.59999999404,41894.79999999702,43482.19999999553,46122.5,49741.69999999553,50682.59999999404,51265.69999999553,51807.59999999404,52366.79999999702,52893,53427.39999999851,54326.59999999404,54895.29999999702,55526,56076.39999999851,56909.29999999702,57469.59999999404,58003.39999999851,58620,59195.5,59730.09999999404,60401.79999999702,60951.39999999851,61721.29999999702,62880.5,63463.69999999553,63964.89999999851,65447.69999999553,65991.59999999404,66541.89999999851,67084.89999999851,67658.89999999851,68218.39999999851,68777.89999999851,69320.19999999553,70040.09999999404,71134,71749.69999999553,73037,73620,74220.29999999702,74754.79999999702,75297.69999999553,75890.89999999851,76649.5,77307.29999999702],"honeypot":0,"survey":"mace","page":10,"trial_type":"survey-mace","trial_index":18,"time_elapsed":826718,"internal_node_id":"0.0-18.0","task_version":"prescreen-v0.3","browser_interactions":0,"instructed":0},{"rt":4612.39999999851,"trial_type":"mental-health-alert","trial_index":19,"time_elapsed":831337,"internal_node_id":"0.0-19.0","task_version":"prescreen-v0.3","interactions":"[{\"event\":\"blur\",\"trial\":1,\"time\":62935},{\"event\":\"focus\",\"trial\":1,\"time\":72744}]"}]