[{"view_history":[{"page_index":0,"viewing_time":2959},{"page_index":1,"viewing_time":5048},{"page_index":2,"viewing_time":4040},{"page_index":3,"viewing_time":952}],"rt":12999.399999976158,"trial_type":"instructions","trial_index":0,"time_elapsed":13003,"internal_node_id":"0.0-0.0","task_version":"prescreen-v0.3"},{"rt":10974.200000047684,"responses":{"age":"50","gender-categorical":"Male","gender-free-response":"","ethnicity":"Not Hispanic or Latino","race":["White"],"education":"Bachelor degree","siblings":"3"},"trial_type":"survey-demo","trial_index":1,"time_elapsed":23980,"internal_node_id":"0.0-1.0","task_version":"prescreen-v0.3"},{"responses":{"Q10":"1","Q05":"1","Q09":"3","Q02":"2","Q18":"2","Q08":"3","Q14":"2","Q01":"2","Q06":"1","Q03":"2","Q13":"2","Q12":"1","Q16":"2","Q20":"2","Q21":"3","Q15":"2","Q07":"1","Q04":"2","Q11":"2","Q17":"2","Q19":"2"},"rt":119027.5,"item_order":[9,4,8,1,17,7,13,0,5,2,12,11,15,19,20,14,6,3,10,16,18],"radio_events":[3778.4000000953674,13193.400000095367,16122.300000071526,20282.300000071526,26291.5,27194.300000071526,29826.900000095367,45122.800000071526,47746.60000002384,54722.300000071526,55938.40000009537,61578.40000009537,70402.30000007153,70818.30000007153,76762.20000004768,81522.20000004768,85803.20000004768,108202.30000007153,113298.60000002384,113794.40000009537,118291.40000009537],"key_events":[],"mouse_events":[3778.4000000953674,13193.400000095367,16122.300000071526,18802.800000071526,20282.300000071526,24074.300000071526,24890.200000047684,26291.5,27194.300000071526,29826.900000095367,45122.800000071526,47746.60000002384,54722.300000071526,55938.40000009537,61578.40000009537,69746.40000009537,70402.30000007153,70818.30000007153,75018.20000004768,76402.5,76762.20000004768,80866.30000007153,81522.20000004768,85387,85803.20000004768,98026.40000009537,98418.30000007153,108202.30000007153,110354.10000002384,111330.20000004768,113298.60000002384,113794.40000009537,118291.40000009537,119026.40000009537],"straightlining":0.6190476190476191,"zigzagging":0.55,"honeypot":0,"survey":"sns","trial_type":"survey-template","trial_index":2,"time_elapsed":143013,"internal_node_id":"0.0-2.0","task_version":"prescreen-v0.3","browser_interactions":0,"infrequency":0},{"responses":{"Q06":"2","Q12":"1","Q04":"3","Q09":"1","Q08":"1","Q03":"3","Q01":"3","Q05":"1","Q13":"0","Q07":"2","Q10":"1","Q11":"1","Q02":"3"},"rt":34122.10000002384,"item_order":[5,11,3,8,7,2,0,4,12,6,9,10,1],"radio_events":[6233.5,7081.899999976158,10130.199999928474,12169.600000023842,14961.5,17945.399999976158,19473.5,22201.5,24233.799999952316,28025.399999976158,30697.5,32097.5,33426.5],"key_events":[],"mouse_events":[6233.5,7081.899999976158,9393.5,10130.199999928474,11674.100000023842,12169.600000023842,14961.5,17945.399999976158,18585.600000023842,18857.600000023842,19473.5,22201.5,24233.799999952316,27665.600000023842,28025.399999976158,30697.5,32097.5,33426.5,34121.39999997616],"straightlining":0.46153846153846156,"zigzagging":0.25,"honeypot":0,"survey":"bisbas","trial_type":"survey-template","trial_index":3,"time_elapsed":177139,"internal_node_id":"0.0-3.0","task_version":"prescreen-v0.3","browser_interactions":0,"infrequency":0},{"responses":{"Q01":"1","Q02":"2","Q03":"1"},"rt":14868.300000071526,"radio_events":[6131.700000047684,10043.5,14004.399999976158],"key_events":[],"mouse_events":[6131.700000047684,10043.5,13363.5,13675.5,14004.399999976158,14867.800000071526],"survey":"map","page":1,"trial_type":"survey-map","trial_index":4,"time_elapsed":192011,"internal_node_id":"0.0-4.0","task_version":"prescreen-v0.3","browser_interactions":0},{"responses":{"Q04":"1","Q05":"1","Q06":"1"},"rt":10876.700000047684,"radio_events":[6652.900000095367,8100.300000071526,10092.200000047684],"key_events":[],"mouse_events":[5196.100000023842,6652.900000095367,8100.300000071526,10092.200000047684,10876.300000071526],"survey":"map","page":2,"trial_type":"survey-map","trial_index":5,"time_elapsed":202891,"internal_node_id":"0.0-5.0","task_version":"prescreen-v0.3","browser_interactions":0},{"responses":{"Q07":"2","Q08":"2","Q09":"0"},"rt":37861,"radio_events":[5492.600000023842,8724.600000023842,37228.5],"key_events":[],"mouse_events":[5492.600000023842,8724.600000023842,35636.700000047684,36916.700000047684,37228.5,37860.60000002384],"survey":"map","page":3,"trial_type":"survey-map","trial_index":6,"time_elapsed":240755,"internal_node_id":"0.0-6.0","task_version":"prescreen-v0.3","browser_interactions":0},{"responses":{"Q10":"1","Q11":"1","Q12":"1","Q13":"1","Q16":"0","Q14":"1","Q15":"2"},"rt":37749.200000047684,"radio_events":[3844.5,6892.600000023842,11717.100000023842,16324.700000047684,21852.600000023842,27892.899999976158,36380.5],"key_events":[],"mouse_events":[3844.5,5676.600000023842,6892.600000023842,11717.100000023842,16324.700000047684,21068.5,21428.600000023842,21852.600000023842,27892.899999976158,36380.5,37748.700000047684],"survey":"map","page":4,"trial_type":"survey-map","trial_index":7,"time_elapsed":278507,"internal_node_id":"0.0-7.0","task_version":"prescreen-v0.3","browser_interactions":0,"infrequency":0},{"view_history":[{"page_index":0,"viewing_time":2668.2000000476837},{"page_index":1,"viewing_time":2824.100000023842}],"rt":5492.700000047684,"trial_type":"instructions","trial_index":8,"time_elapsed":284002,"internal_node_id":"0.0-8.0","task_version":"prescreen-v0.3"},{"responses":{"01":"No","02":"Yes","02_ages_10":"10","02_ages_11":"11","02_ages_12":"12","02_ages_13":"13","02_ages_14":"14","02_ages_15":"15","02_ages_16":"16","02_ages_17":"17","02_ages_18":"18","03":"Yes","03_ages_7":"7","03_ages_10":"10","03_ages_12":"12","03_ages_13":"13","03_ages_14":"14","03_ages_15":"15","03_ages_16":"16","04":"Yes","04_ages_9":"9","04_ages_10":"10","04_ages_11":"11","04_ages_12":"12","04_ages_13":"13","04_ages_14":"14","04_ages_15":"15","04_ages_16":"16","04_ages_17":"17","04_ages_18":"18","05":"No","06":"Yes","06_ages_7":"7"},"rt":89541.80000007153,"item_order":[0,1,2,3,4,5],"radio_events":[14685.100000023842,16812.200000047684,32036.5,52460.200000047684,72012.20000004768,77444.89999997616],"checkbox_events":[24862,25284.300000071526,25756.300000071526,26725.300000071526,27052.300000071526,27420.399999976158,27772,28245.100000023842,28604.600000023842,33996.200000047684,47044.200000047684,48068.300000071526,48556.300000071526,49260.200000047684,50099.89999997616,50380.10000002384,59228.10000002384,60044.5,60388.200000047684,60796.10000002384,61236.200000047684,61628.39999997616,62020.39999997616,62636.10000002384,63068.200000047684,63436.700000047684,79428.30000007153],"key_events":[],"mouse_events":[0,14685.100000023842,16812.200000047684,24862,25284.300000071526,25756.300000071526,26220.200000047684,26725.300000071526,27052.300000071526,27420.399999976158,27772,28245.100000023842,28604.600000023842,32036.5,33996.200000047684,47044.200000047684,47460.10000002384,48068.300000071526,48556.300000071526,49260.200000047684,49572.200000047684,50099.89999997616,50380.10000002384,52460.200000047684,59228.10000002384,59644.10000002384,60044.5,60388.200000047684,60796.10000002384,61236.200000047684,61628.39999997616,62020.39999997616,62636.10000002384,63068.200000047684,63436.700000047684,72012.20000004768,77444.89999997616,79428.30000007153,89204.89999997616,89540.39999997616],"honeypot":0,"survey":"mace","page":1,"trial_type":"survey-mace","trial_index":9,"time_elapsed":373548,"internal_node_id":"0.0-9.0","task_version":"prescreen-v0.3","browser_interactions":0},{"responses":{"01":"No","02":"No","03":"Yes","03_ages_3":"3","03_ages_4":"4","03_ages_5":"5","03_ages_6":"6","03_ages_7":"7","03_ages_8":"8","04":"No","05":"No","06":"No","07":"No","08":"No"},"rt":32083.899999976158,"item_order":[0,1,2,3,4,5,6,7],"radio_events":[5121.700000047684,7265.700000047684,8578.399999976158,22113.800000071526,24441.600000023842,25833.700000047684,28881.700000047684,30017.700000047684],"checkbox_events":[14961.800000071526,15386.399999976158,15793.700000047684,16457.800000071526,17273.600000023842,17961.600000023842,18729.600000023842,19346.200000047684],"key_events":[],"mouse_events":[5121.700000047684,7265.700000047684,8578.399999976158,14961.800000071526,15386.399999976158,15793.700000047684,16145.600000023842,16457.800000071526,17273.600000023842,17961.600000023842,18729.600000023842,19346.200000047684,22113.800000071526,24441.600000023842,25833.700000047684,27074.399999976158,28881.700000047684,29361.700000047684,30017.700000047684,32082],"honeypot":0,"survey":"mace","page":2,"trial_type":"survey-mace","trial_index":10,"time_elapsed":405637,"internal_node_id":"0.0-10.0","task_version":"prescreen-v0.3","browser_interactions":0},{"responses":{"01":"No","02":"No","03":"No","04":"No"},"rt":13530.700000047684,"item_order":[0,1,2,3],"radio_events":[8425.399999976158,9273.700000047684,11506.100000023842,12633.600000023842],"checkbox_events":[],"key_events":[],"mouse_events":[8425.399999976158,9273.700000047684,11506.100000023842,12633.600000023842,13529.600000023842],"honeypot":0,"survey":"mace","page":3,"trial_type":"survey-mace","trial_index":11,"time_elapsed":419172,"internal_node_id":"0.0-11.0","task_version":"prescreen-v0.3","browser_interactions":0},{"responses":{"01":"No","02":"No"},"rt":6748.600000023842,"item_order":[0,1],"radio_events":[4483.700000047684,6211.600000023842],"checkbox_events":[],"key_events":[],"mouse_events":[4483.700000047684,6211.600000023842,6748],"honeypot":0,"survey":"mace","page":4,"trial_type":"survey-mace","trial_index":12,"time_elapsed":425923,"internal_node_id":"0.0-12.0","task_version":"prescreen-v0.3","browser_interactions":0},{"responses":{"01":"No","02":"No","03":"No","04":"No","05":"No"},"rt":16925.200000047684,"item_order":[0,1,2,3,4],"radio_events":[8875.600000023842,10331.600000023842,13331.700000047684,14795.600000023842,16243.5],"checkbox_events":[],"key_events":[],"mouse_events":[8099.5,8875.600000023842,10331.600000023842,13331.700000047684,14795.600000023842,16243.5,16923.899999976158],"honeypot":0,"survey":"mace","page":5,"trial_type":"survey-mace","trial_index":13,"time_elapsed":442852,"internal_node_id":"0.0-13.0","task_version":"prescreen-v0.3","browser_interactions":0},{"responses":{"01":"Yes","01_ages_8":"8","01_ages_9":"9","01_ages_10":"10","01_ages_11":"11","01_ages_12":"12","01_ages_13":"13","01_ages_14":"14","01_ages_15":"15","02":"Yes","02_ages_12":"12","02_ages_13":"13","02_ages_14":"14","02_ages_15":"15","02_ages_16":"16","02_ages_17":"17","03":"No","04":"No","05":"No"},"rt":41724,"item_order":[0,1,2,3,4],"radio_events":[10082.700000047684,24314.700000047684,37074.700000047684,40066.60000002384,41154.700000047684],"checkbox_events":[16202.5,16603,17026.5,17466.800000071526,17866.399999976158,18275,18642.5,19035,27482.600000023842,27802.600000023842,28730.700000047684,29794.600000023842,30194.700000047684,32226.600000023842],"key_events":[],"mouse_events":[10082.700000047684,16202.5,16603,17026.5,17466.800000071526,17866.399999976158,18275,18642.5,19035,24314.700000047684,27482.600000023842,27802.600000023842,28162.600000023842,28730.700000047684,29130.800000071526,29794.600000023842,30194.700000047684,32226.600000023842,37074.700000047684,40066.60000002384,41154.700000047684,41722.800000071526],"honeypot":0,"survey":"mace","page":6,"trial_type":"survey-mace","trial_index":14,"time_elapsed":484580,"internal_node_id":"0.0-14.0","task_version":"prescreen-v0.3","browser_interactions":0},{"responses":{"01":"Yes","01_ages_10":"10","01_ages_11":"11","01_ages_12":"12","01_ages_13":"13","01_ages_14":"14","01_ages_15":"15","02":"No","03":"Yes","03_ages_13":"13","03_ages_14":"14","03_ages_15":"15","03_ages_16":"16","04":"No","05":"No","06":"No","07":"No"},"rt":30972.399999976158,"item_order":[0,1,2,3,4,5,6],"radio_events":[6410.600000023842,15746.600000023842,20098.700000047684,26378.700000047684,27891.200000047684,29746.600000023842,30467.100000023842],"checkbox_events":[8826.800000071526,9170.700000047684,9522.800000071526,9898.700000047684,10274.700000047684,10658.600000023842,22483.300000071526,23138.800000071526,23466.899999976158,23810.800000071526],"key_events":[],"mouse_events":[6410.600000023842,8826.800000071526,9170.700000047684,9522.800000071526,9898.700000047684,10274.700000047684,10658.600000023842,15746.600000023842,20098.700000047684,22483.300000071526,22794.800000071526,23138.800000071526,23466.899999976158,23810.800000071526,26378.700000047684,27891.200000047684,29746.600000023842,30467.100000023842,30970.700000047684],"honeypot":0,"survey":"mace","page":7,"trial_type":"survey-mace","trial_index":15,"time_elapsed":515557,"internal_node_id":"0.0-15.0","task_version":"prescreen-v0.3","browser_interactions":0},{"responses":{"01":"Yes","01_ages_10":"10","01_ages_11":"11","01_ages_12":"12","01_ages_13":"13","01_ages_14":"14","02":"No","03":"Yes","03_ages_9":"9","03_ages_10":"10","03_ages_11":"11","03_ages_12":"12","03_ages_13":"13","03_ages_14":"14","03_ages_15":"15","03_ages_16":"16","03_ages_17":"17","03_ages_18":"18","04":"Yes","04_ages_8":"8","04_ages_9":"9","04_ages_10":"10","04_ages_11":"11","04_ages_12":"12","04_ages_13":"13","04_ages_14":"14","04_ages_15":"15","04_ages_16":"16","04_ages_17":"17","04_ages_18":"18"},"rt":58259.300000071526,"item_order":[0,1,2,3],"radio_events":[11450.800000071526,35234.300000071526,39170.200000047684,51202.300000071526],"checkbox_events":[18010.300000071526,18506.400000095367,19058.200000047684,20250.200000047684,22378.200000047684,41746.10000002384,42050.300000071526,42778.10000002384,43202.300000071526,44154.200000047684,44458.5,44826.10000002384,45274.300000071526,45642.300000071526,46066.10000002384,53298.300000071526,53626.800000071526,54394,54698.200000047684,55442.200000047684,55754.60000002384,56146,56530.200000047684,56963,57322.10000002384,57771],"key_events":[],"mouse_events":[11450.800000071526,18010.300000071526,18506.400000095367,19058.200000047684,20250.200000047684,22378.200000047684,34682.300000071526,35234.300000071526,39170.200000047684,41746.10000002384,42050.300000071526,42394.200000047684,42778.10000002384,43202.300000071526,43642.300000071526,44154.200000047684,44458.5,44826.10000002384,45274.300000071526,45642.300000071526,46066.10000002384,51202.300000071526,53298.300000071526,53626.800000071526,53962.200000047684,54394,54698.200000047684,55018.60000002384,55442.200000047684,55754.60000002384,56146,56530.200000047684,56963,57322.10000002384,57771,58258.10000002384],"honeypot":0,"survey":"mace","page":8,"trial_type":"survey-mace","trial_index":16,"time_elapsed":573819,"internal_node_id":"0.0-16.0","task_version":"prescreen-v0.3","browser_interactions":0},{"responses":{"01":"No","02":"No","03":"Yes","03_ages_1":"1","03_ages_2":"2","03_ages_3":"3","03_ages_4":"4","03_ages_5":"5","03_ages_6":"6","03_ages_7":"7","03_ages_8":"8","03_ages_9":"9","03_ages_10":"10","03_ages_11":"11","03_ages_12":"12","03_ages_13":"13","03_ages_14":"14","03_ages_15":"15","03_ages_16":"16","03_ages_17":"17","03_ages_18":"18","04":"Yes","04_ages_1":"1","04_ages_2":"2","04_ages_3":"3","04_ages_4":"4","04_ages_5":"5","04_ages_6":"6","04_ages_7":"7","04_ages_8":"8","04_ages_9":"9","04_ages_10":"10","04_ages_11":"11","04_ages_12":"12","04_ages_13":"13","04_ages_14":"14","04_ages_15":"15","04_ages_16":"16","04_ages_17":"17","04_ages_18":"18"},"rt":60957.10000002384,"item_order":[0,1,2,3],"radio_events":[16708,17603.600000023842,22403.399999976158,35668.10000002384,38947.799999952316,49843.5],"checkbox_events":[40579.199999928474,40883.5,41235.5,41683.39999997616,42027.39999997616,42747.39999997616,43051.39999997616,43827.60000002384,44123.60000002384,44507.89999997616,44915.5,45315.299999952316,46147.299999952316,46443.699999928474,46851.299999952316,47324.39999997616,47811.39999997616,48475.39999997616,51052.299999952316,51491.5,52083.89999997616,52851.299999952316,53147.39999997616,53483.39999997616,53907.39999997616,54348.5,54803.39999997616,55332.39999997616,55731.39999997616,56843.5,57563.89999997616,58139.299999952316,58603.5,59075.5,59603.39999997616,60291.5],"key_events":[],"mouse_events":[16708,17603.600000023842,22403.399999976158,35668.10000002384,38947.799999952316,40579.199999928474,40883.5,41235.5,41683.39999997616,42027.39999997616,42379.39999997616,42747.39999997616,43051.39999997616,43411.60000002384,43827.60000002384,44123.60000002384,44507.89999997616,44915.5,45315.299999952316,45739.799999952316,46147.299999952316,46443.699999928474,46851.299999952316,47324.39999997616,47811.39999997616,48475.39999997616,49340.5,49843.5,51052.299999952316,51491.5,51811.89999997616,52083.89999997616,52379.5,52851.299999952316,53147.39999997616,53483.39999997616,53907.39999997616,54348.5,54803.39999997616,55332.39999997616,55731.39999997616,56371.5,56843.5,57171.5,57563.89999997616,58139.299999952316,58603.5,59075.5,59603.39999997616,59955.699999928474,60291.5,60956.10000002384],"honeypot":0,"survey":"mace","page":9,"trial_type":"survey-mace","trial_index":17,"time_elapsed":634781,"internal_node_id":"0.0-17.0","task_version":"prescreen-v0.3","browser_interactions":0},{"responses":{"01":"No","02":"No","03":"No","04":"Yes","04_ages_5":"5","04_ages_6":"6","04_ages_7":"7","05":"No","06":"Yes","06_ages_17":"17","07":"Yes","07_ages_8":"8","07_ages_9":"9","07_ages_10":"10","07_ages_11":"11","07_ages_12":"12","07_ages_13":"13","07_ages_14":"14","07_ages_15":"15","07_ages_16":"16","07_ages_17":"17","07_ages_18":"18","08":"Yes","08_ages_6":"6","08_ages_7":"7","08_ages_8":"8","08_ages_9":"9","08_ages_10":"10","08_ages_11":"11","08_ages_12":"12","08_ages_13":"13","08_ages_14":"14","08_ages_15":"15","08_ages_16":"16","08_ages_17":"17","08_ages_18":"18"},"rt":48555,"item_order":[0,1,2,3,4,5,6,7],"radio_events":[2656.9000000953674,3665.5,6816.800000071526,8016.800000071526,21664.700000047684,23376.800000071526,27472.700000047684,39744.90000009537],"checkbox_events":[9553,10840.700000047684,16289,24696.700000047684,31192.700000047684,31505.700000047684,31912.800000071526,32696.600000023842,33000.60000002384,33809.300000071526,34160.800000071526,34560.800000071526,35248.700000047684,35600.700000047684,36304.700000047684,42176.700000047684,42568.60000002384,42936.800000071526,43336.800000071526,43704.800000071526,44425.40000009537,45128.700000047684,45552.700000047684,46432.90000009537,46776.90000009537,47176.700000047684,47633.200000047684,48129.10000002384],"key_events":[],"mouse_events":[2656.9000000953674,3665.5,6816.800000071526,8016.800000071526,9553,10840.700000047684,16289,21664.700000047684,23376.800000071526,24696.700000047684,27472.700000047684,30904.5,31192.700000047684,31505.700000047684,31912.800000071526,32329.5,32696.600000023842,33000.60000002384,33361.40000009537,33809.300000071526,34160.800000071526,34560.800000071526,34936.5,35248.700000047684,35600.700000047684,35952.800000071526,36304.700000047684,39744.90000009537,42176.700000047684,42568.60000002384,42936.800000071526,43336.800000071526,43704.800000071526,44080.800000071526,44425.40000009537,44792.60000002384,45128.700000047684,45552.700000047684,46432.90000009537,46776.90000009537,47176.700000047684,47633.200000047684,48129.10000002384,48553],"honeypot":0,"survey":"mace","page":10,"trial_type":"survey-mace","trial_index":18,"time_elapsed":683341,"internal_node_id":"0.0-18.0","task_version":"prescreen-v0.3","browser_interactions":0,"instructed":0},{"rt":4179.100000023842,"trial_type":"mental-health-alert","trial_index":19,"time_elapsed":687523,"internal_node_id":"0.0-19.0","task_version":"prescreen-v0.3","interactions":"[]"}]