[{"view_history":[{"page_index":0,"viewing_time":5397.20000000298},{"page_index":1,"viewing_time":3049},{"page_index":2,"viewing_time":4702.70000000298},{"page_index":3,"viewing_time":2219.5999999940395}],"rt":15370.10000000894,"trial_type":"instructions","trial_index":0,"time_elapsed":15424,"internal_node_id":"0.0-0.0","task_version":"prescreen-v0.3"},{"rt":20733.29999999702,"responses":{"age":"44","gender-categorical":"Male","gender-free-response":"","ethnicity":"Not Hispanic or Latino","race":["White"],"education":"Associate degree","siblings":"1"},"trial_type":"survey-demo","trial_index":1,"time_elapsed":36172,"internal_node_id":"0.0-1.0","task_version":"prescreen-v0.3"},{"responses":{"Q15":"2","Q17":"1","Q19":"1","Q16":"2","Q13":"2","Q06":"1","Q20":"0","Q09":"1","Q04":"2","Q14":"1","Q01":"1","Q02":"1","Q18":"0","Q10":"1","Q21":"3","Q12":"1","Q08":"1","Q11":"1","Q03":"1","Q05":"0","Q07":"0"},"rt":146526.5,"item_order":[14,16,18,15,12,5,19,8,3,13,0,1,17,9,20,11,7,10,2,4,6],"radio_events":[21978.40000000596,26606,35865.40000000596,40409.10000000894,46149.60000000894,47666.10000000894,54949.10000000894,60872.70000000298,63872.40000000596,66211.70000000298,70109,74195.79999999702,80549.70000000298,85030.29999999702,89422.60000000894,92152.60000000894,108858.79999999702,116462.70000000298,124666.29999999702,130708,144908.29999999702],"key_events":[],"mouse_events":[21978.40000000596,26606,31260.10000000894,35865.40000000596,40409.10000000894,41775.40000000596,46149.60000000894,47666.10000000894,54949.10000000894,60872.70000000298,63872.40000000596,66211.70000000298,70109,74195.79999999702,77414.20000000298,80549.70000000298,85030.29999999702,86203.70000000298,89422.60000000894,92152.60000000894,97165,108858.79999999702,110426.60000000894,116462.70000000298,118460.60000000894,124666.29999999702,129672,130708,135399,136933.79999999702,140538.90000000596,144908.29999999702,146520.20000000298],"straightlining":0.5714285714285714,"zigzagging":0.5,"honeypot":0,"survey":"sns","trial_type":"survey-template","trial_index":2,"time_elapsed":182706,"internal_node_id":"0.0-2.0","task_version":"prescreen-v0.3","browser_interactions":0,"infrequency":0},{"responses":{"Q01":"1","Q12":"0","Q07":"2","Q11":"1","Q04":"2","Q09":"1","Q06":"3","Q10":"1","Q05":"3","Q03":"1","Q02":"1","Q08":"2","Q13":"0"},"rt":59763.29999999702,"item_order":[0,11,6,10,3,8,5,9,4,2,1,7,12],"radio_events":[3237.5,9692.90000000596,11457.79999999702,14487.70000000298,20368.79999999702,23505,31081.20000000298,35446.70000000298,38096.20000000298,45407,51043.20000000298,52434.20000000298,57955.5],"key_events":[],"mouse_events":[3237.5,7649.29999999702,9692.90000000596,11457.79999999702,14487.70000000298,20368.79999999702,23505,27889.40000000596,29935.10000000894,31081.20000000298,35446.70000000298,38096.20000000298,45407,47172.79999999702,51043.20000000298,52434.20000000298,54776.90000000596,56706.90000000596,57955.5,59760.90000000596],"straightlining":0.46153846153846156,"zigzagging":0.4166666666666667,"honeypot":0,"survey":"bisbas","trial_type":"survey-template","trial_index":3,"time_elapsed":242482,"internal_node_id":"0.0-3.0","task_version":"prescreen-v0.3","browser_interactions":0,"infrequency":0},{"responses":{"Q01":"4","Q02":"4","Q03":"4"},"rt":17220,"radio_events":[9947.699999988079,12513,16348.5],"key_events":[],"mouse_events":[9947.699999988079,12513,16348.5,17217.19999998808],"survey":"map","page":1,"trial_type":"survey-map","trial_index":4,"time_elapsed":259711,"internal_node_id":"0.0-4.0","task_version":"prescreen-v0.3","browser_interactions":0},{"responses":{"Q04":"4","Q05":"3","Q06":"4"},"rt":11428.90000000596,"radio_events":[5511.600000008941,8277.40000000596,10661.60000000894],"key_events":[],"mouse_events":[5511.600000008941,8277.40000000596,10661.60000000894,11427.70000000298],"survey":"map","page":2,"trial_type":"survey-map","trial_index":5,"time_elapsed":271145,"internal_node_id":"0.0-5.0","task_version":"prescreen-v0.3","browser_interactions":0},{"responses":{"Q07":"4","Q08":"4","Q09":"1"},"rt":14048.40000000596,"radio_events":[10221.40000000596,11489.59999999404,12910.79999999702],"key_events":[],"mouse_events":[8399.29999999702,9420.20000000298,10221.40000000596,11489.59999999404,12910.79999999702,14047.09999999404],"survey":"map","page":3,"trial_type":"survey-map","trial_index":6,"time_elapsed":285197,"internal_node_id":"0.0-6.0","task_version":"prescreen-v0.3","browser_interactions":0},{"responses":{"Q10":"3","Q11":"4","Q12":"3","Q13":"3","Q16":"0","Q14":"4","Q15":"3"},"rt":29188,"radio_events":[4525.5,12752.40000000596,14288.40000000596,18121.40000000596,21256.70000000298,26202.70000000298,28077.29999999702],"key_events":[],"mouse_events":[4525.5,7789.29999999702,12752.40000000596,14288.40000000596,18121.40000000596,21256.70000000298,24263.29999999702,26202.70000000298,28077.29999999702,29185.79999999702],"survey":"map","page":4,"trial_type":"survey-map","trial_index":7,"time_elapsed":314392,"internal_node_id":"0.0-7.0","task_version":"prescreen-v0.3","browser_interactions":0,"infrequency":0},{"view_history":[{"page_index":0,"viewing_time":3478.2000000029802},{"page_index":1,"viewing_time":12489.79999999702}],"rt":15969.39999999106,"trial_type":"instructions","trial_index":8,"time_elapsed":330363,"internal_node_id":"0.0-8.0","task_version":"prescreen-v0.3"},{"responses":{"01":"No","02":"No","03":"No","04":"No","05":"No","06":"No"},"rt":24127.40000000596,"item_order":[0,1,2,3,4,5],"radio_events":[10005.70000000298,13569.70000000298,16110.90000000596,19331.70000000298,20434.09999999404,23151.59999999404],"checkbox_events":[],"key_events":[],"mouse_events":[0.09999999403953552,10005.70000000298,13569.70000000298,16110.90000000596,17642.40000000596,19331.70000000298,20434.09999999404,23151.59999999404,24119.09999999404],"honeypot":0,"survey":"mace","page":1,"trial_type":"survey-mace","trial_index":9,"time_elapsed":354510,"internal_node_id":"0.0-9.0","task_version":"prescreen-v0.3","browser_interactions":0},{"responses":{"01":"No","02":"No","03":"Yes","03_ages_1":"1","03_ages_2":"2","03_ages_3":"3","03_ages_4":"4","03_ages_5":"5","03_ages_6":"6","03_ages_7":"7","03_ages_8":"8","04":"No","05":"Yes","05_ages_8":"8","06":"No","07":"No","08":"No"},"rt":47532.10000000894,"item_order":[0,1,2,3,4,5,6,7],"radio_events":[5525.20000000298,8607,10893.20000000298,29216,33372.90000000596,41240.40000000596,45546.60000000894,46523.79999999702],"checkbox_events":[14840.40000000596,16056.5,20018,20514,20955.79999999702,21764.5,24248.70000000298,25314.79999999702,36404.20000000298],"key_events":[],"mouse_events":[5525.20000000298,7148.100000008941,8607,10893.20000000298,13596.40000000596,14840.40000000596,16056.5,20018,20514,20955.79999999702,21764.5,22444.70000000298,24248.70000000298,25314.79999999702,29216,33372.90000000596,35351.5,36404.20000000298,41240.40000000596,42521.60000000894,45546.60000000894,46523.79999999702,47523.5],"honeypot":0,"survey":"mace","page":2,"trial_type":"survey-mace","trial_index":10,"time_elapsed":402051,"internal_node_id":"0.0-10.0","task_version":"prescreen-v0.3","browser_interactions":0},{"responses":{"01":"No","02":"No","03":"No","04":"No"},"rt":12991.5,"item_order":[0,1,2,3],"radio_events":[5088,9156.70000000298,10252,11391.10000000894],"checkbox_events":[],"key_events":[],"mouse_events":[3445.2000000029802,5088,6324.4000000059605,7833.300000011921,9156.70000000298,10252,11391.10000000894,12987.5],"honeypot":0,"survey":"mace","page":3,"trial_type":"survey-mace","trial_index":11,"time_elapsed":415049,"internal_node_id":"0.0-11.0","task_version":"prescreen-v0.3","browser_interactions":0},{"responses":{"01":"No","02":"No"},"rt":9318.79999999702,"item_order":[0,1],"radio_events":[2319.7000000029802,8520.60000000894],"checkbox_events":[],"key_events":[],"mouse_events":[2319.7000000029802,7338.5,8520.60000000894,9316.29999999702],"honeypot":0,"survey":"mace","page":4,"trial_type":"survey-mace","trial_index":12,"time_elapsed":424372,"internal_node_id":"0.0-12.0","task_version":"prescreen-v0.3","browser_interactions":0},{"responses":{"01":"No","02":"No","03":"No","04":"No","05":"No"},"rt":14798.09999999404,"item_order":[0,1,2,3,4],"radio_events":[7518.79999999702,8865.5,10300.59999999404,12750.09999999404,13726.59999999404],"checkbox_events":[],"key_events":[],"mouse_events":[7518.79999999702,8865.5,10300.59999999404,11638.199999988079,12750.09999999404,13726.59999999404,14793.5],"honeypot":0,"survey":"mace","page":5,"trial_type":"survey-mace","trial_index":13,"time_elapsed":439178,"internal_node_id":"0.0-13.0","task_version":"prescreen-v0.3","browser_interactions":0},{"responses":{"01":"Yes","01_ages_10":"10","01_ages_11":"11","01_ages_12":"12","01_ages_13":"13","01_ages_14":"14","01_ages_15":"15","01_ages_16":"16","02":"No","03":"Yes","03_ages_13":"13","03_ages_14":"14","03_ages_15":"15","03_ages_16":"16","04":"No","05":"Yes","05_ages_14":"14","05_ages_15":"15","05_ages_16":"16"},"rt":66272.59999999404,"item_order":[0,1,2,3,4],"radio_events":[9077.29999999702,41774,43105.19999998808,57006.19999998808,59282.19999998808],"checkbox_events":[22423.89999999106,23442.69999998808,29564.19999998808,30088.29999999702,31038.79999999702,31840.19999998808,32560.5,44183.29999999702,44633.79999999702,45089,45549.59999999404,48002.69999998808,50747.09999999404,63910.89999999106,64420.39999999106,64971.59999999404],"key_events":[],"mouse_events":[9077.29999999702,22423.89999999106,23442.69999998808,28945.09999999404,29564.19999998808,30088.29999999702,31038.79999999702,31840.19999998808,32560.5,34341.39999999106,38279.29999999702,39549.79999999702,40548.29999999702,41774,43105.19999998808,44183.29999999702,44633.79999999702,45089,45549.59999999404,46080.29999999702,48002.69999998808,50747.09999999404,57006.19999998808,59282.19999998808,63910.89999999106,64420.39999999106,64971.59999999404,66268.09999999404],"honeypot":0,"survey":"mace","page":6,"trial_type":"survey-mace","trial_index":14,"time_elapsed":505459,"internal_node_id":"0.0-14.0","task_version":"prescreen-v0.3","browser_interactions":0},{"responses":{"01":"No","02":"No","03":"Yes","03_ages_14":"14","03_ages_15":"15","04":"No","05":"No","06":"No","07":"No"},"rt":25045.5,"item_order":[0,1,2,3,4,5,6],"radio_events":[4120.29999999702,5741.4000000059605,9142.29999999702,14222.29999999702,21051,22489.60000000894,24250.5],"checkbox_events":[11201.5,11711.40000000596],"key_events":[],"mouse_events":[4120.29999999702,5741.4000000059605,9142.29999999702,10657.60000000894,11201.5,11711.40000000596,14222.29999999702,21051,22489.60000000894,24250.5,25037.90000000596],"honeypot":0,"survey":"mace","page":7,"trial_type":"survey-mace","trial_index":15,"time_elapsed":530514,"internal_node_id":"0.0-15.0","task_version":"prescreen-v0.3","browser_interactions":0},{"responses":{"01":"No","02":"No","03":"No","04":"No"},"rt":15821.20000000298,"item_order":[0,1,2,3],"radio_events":[10586.59999999404,12570.20000000298,13718.79999999702,15056.90000000596],"checkbox_events":[],"key_events":[],"mouse_events":[10586.59999999404,12046.5,12570.20000000298,13718.79999999702,15056.90000000596,15817.40000000596],"honeypot":0,"survey":"mace","page":8,"trial_type":"survey-mace","trial_index":16,"time_elapsed":546343,"internal_node_id":"0.0-16.0","task_version":"prescreen-v0.3","browser_interactions":0},{"responses":{"01":"Yes","01_ages_1":"1","01_ages_2":"2","01_ages_3":"3","01_ages_4":"4","01_ages_5":"5","01_ages_6":"6","01_ages_7":"7","01_ages_8":"8","01_ages_9":"9","01_ages_10":"10","01_ages_11":"11","01_ages_12":"12","01_ages_13":"13","01_ages_14":"14","01_ages_15":"15","01_ages_16":"16","01_ages_17":"17","01_ages_18":"18","02":"Yes","02_ages_1":"1","02_ages_2":"2","02_ages_3":"3","02_ages_4":"4","02_ages_5":"5","02_ages_6":"6","02_ages_7":"7","02_ages_8":"8","02_ages_9":"9","02_ages_10":"10","02_ages_11":"11","02_ages_12":"12","02_ages_13":"13","02_ages_14":"14","02_ages_15":"15","02_ages_16":"16","02_ages_17":"17","02_ages_18":"18","03":"Yes","03_ages_1":"1","03_ages_2":"2","03_ages_3":"3","03_ages_4":"4","03_ages_5":"5","03_ages_6":"6","03_ages_7":"7","03_ages_8":"8","03_ages_9":"9","03_ages_10":"10","03_ages_11":"11","03_ages_12":"12","03_ages_13":"13","03_ages_14":"14","03_ages_15":"15","03_ages_16":"16","03_ages_17":"17","03_ages_18":"18","04":"Yes","04_ages_1":"1","04_ages_2":"2","04_ages_3":"3","04_ages_4":"4","04_ages_5":"5","04_ages_6":"6","04_ages_7":"7","04_ages_8":"8","04_ages_9":"9","04_ages_10":"10","04_ages_11":"11","04_ages_12":"12","04_ages_13":"13","04_ages_14":"14","04_ages_15":"15","04_ages_16":"16","04_ages_17":"17","04_ages_18":"18"},"rt":89941.5,"item_order":[0,1,2,3],"radio_events":[4114.5,25314.5,30747.59999999404,36149.69999998808],"checkbox_events":[7708,8185.0999999940395,8682.199999988079,9171.59999999404,10895.199999988079,11879.59999999404,12599.89999999106,13475.79999999702,15989.79999999702,16684.89999999106,17235.39999999106,18512.19999998808,19783.09999999404,20747.79999999702,22181.19999998808,22766.09999999404,23357,24125.79999999702,27256.29999999702,28695.89999999106,32216.39999999106,37821.5,38972.59999999404,39420.5,40045.5,41928.09999999404,44036.69999998808,44690.89999999106,45261.09999999404,45913.69999998808,46764.69999998808,47489.5,48899.19999998808,49416.29999999702,51060,52269.29999999702,53432.19999998808,54233.09999999404,55368.19999998808,56617.59999999404,57402.39999999106,57999.89999999106,58502.69999998808,59142,59867.39999999106,61186.79999999702,62031,62806.5,63790.59999999404,64867.5,65581.19999998808,66799,68788.89999999106,69454.5,70229.79999999702,71207.59999999404,72039.59999999404,72781.5,73805,74640.89999999106,75389.79999999702,76197.69999998808,77462.09999999404,78471.39999999106,79690.69999998808,81112.29999999702,81722.59999999404,82307.89999999106,83021.39999999106,85124.39999999106,86291.79999999702,87520],"key_events":[],"mouse_events":[4114.5,7708,8185.0999999940395,8682.199999988079,9171.59999999404,9699.79999999702,10895.199999988079,11879.59999999404,12599.89999999106,13475.79999999702,15989.79999999702,16684.89999999106,17235.39999999106,18512.19999998808,19783.09999999404,20306.5,20747.79999999702,22181.19999998808,22766.09999999404,23357,24125.79999999702,25314.5,27256.29999999702,28695.89999999106,30747.59999999404,32216.39999999106,35253.29999999702,36149.69999998808,37821.5,38972.59999999404,39420.5,40045.5,41526,41928.09999999404,44036.69999998808,44690.89999999106,45261.09999999404,45913.69999998808,46764.69999998808,47489.5,48158.69999998808,48899.19999998808,49416.29999999702,50372.89999999106,51060,51685.19999998808,52269.29999999702,53432.19999998808,54233.09999999404,55368.19999998808,56617.59999999404,57402.39999999106,57999.89999999106,58502.69999998808,59142,59867.39999999106,61186.79999999702,62031,62806.5,63790.59999999404,64867.5,65581.19999998808,66233.29999999702,66799,67435.59999999404,68788.89999999106,69454.5,70229.79999999702,71207.59999999404,72039.59999999404,72781.5,73805,74640.89999999106,75389.79999999702,76197.69999998808,77462.09999999404,78471.39999999106,79690.69999998808,80404.19999998808,81112.29999999702,81722.59999999404,82307.89999999106,83021.39999999106,83964.09999999404,84353.29999999702,85124.39999999106,86291.79999999702,87520,89939],"honeypot":0,"survey":"mace","page":9,"trial_type":"survey-mace","trial_index":17,"time_elapsed":636293,"internal_node_id":"0.0-17.0","task_version":"prescreen-v0.3","browser_interactions":0},{"responses":{"01":"No","02":"No","03":"No","04":"Yes","04_ages_12":"12","04_ages_13":"13","04_ages_14":"14","05":"No","06":"Yes","06_ages_17":"17","07":"Yes","07_ages_1":"1","07_ages_2":"2","07_ages_3":"3","07_ages_4":"4","07_ages_5":"5","07_ages_6":"6","07_ages_7":"7","07_ages_8":"8","07_ages_9":"9","07_ages_10":"10","07_ages_11":"11","07_ages_12":"12","07_ages_13":"13","07_ages_14":"14","07_ages_15":"15","07_ages_16":"16","07_ages_17":"17","07_ages_18":"18","08":"Yes","08_ages_1":"1","08_ages_2":"2","08_ages_3":"3","08_ages_4":"4","08_ages_5":"5","08_ages_6":"6","08_ages_7":"7","08_ages_8":"8","08_ages_9":"9","08_ages_10":"10","08_ages_11":"11","08_ages_12":"12","08_ages_13":"13","08_ages_14":"14","08_ages_15":"15","08_ages_16":"16","08_ages_17":"17","08_ages_18":"18"},"rt":79436.20000000298,"item_order":[0,1,2,3,4,5,6,7],"radio_events":[4290,5588.5,8516.60000000894,10455,13247.300000011921,24784.10000000894,26327.10000000894,34231,35759.90000000596],"checkbox_events":[18331.70000000298,19406,20921.60000000894,28251,42204.70000000298,42781.70000000298,43836.60000000894,44550,45236.40000000596,45908.20000000298,46562,48722.10000000894,49402.20000000298,50014.90000000596,50835.80000001192,52345.20000000298,53058.80000001192,53927.10000000894,54750.90000000596,55341.90000000596,56382.10000000894,57319.10000000894,59037.30000001192,60262.40000000596,61002.80000001192,61689.30000001192,62369.70000000298,64366.90000000596,66274.70000000298,67565.90000000596,68986.30000001192,69755.20000000298,70657.80000001192,71649.40000000596,72745.5,73663.30000001192,74690.10000000894,75825.10000000894,76584.90000000596,77292.30000001192],"key_events":[],"mouse_events":[4290,5588.5,6567.5,8516.60000000894,10455,13247.300000011921,18331.70000000298,19406,20921.60000000894,24784.10000000894,26327.10000000894,28251,34231,35759.90000000596,41191.20000000298,42204.70000000298,42781.70000000298,43836.60000000894,44550,45236.40000000596,45908.20000000298,46562,47790.60000000894,48722.10000000894,49402.20000000298,50014.90000000596,50835.80000001192,51652.20000000298,52345.20000000298,53058.80000001192,53927.10000000894,54750.90000000596,55341.90000000596,56382.10000000894,57319.10000000894,59037.30000001192,60262.40000000596,61002.80000001192,61689.30000001192,62369.70000000298,63787.60000000894,64366.90000000596,65446.80000001192,66274.70000000298,67565.90000000596,68986.30000001192,69755.20000000298,70657.80000001192,71649.40000000596,72745.5,73663.30000001192,74690.10000000894,75825.10000000894,76584.90000000596,77292.30000001192,79426.70000000298],"honeypot":0,"survey":"mace","page":10,"trial_type":"survey-mace","trial_index":18,"time_elapsed":715745,"internal_node_id":"0.0-18.0","task_version":"prescreen-v0.3","browser_interactions":0,"instructed":0},{"rt":7831.4000000059605,"trial_type":"mental-health-alert","trial_index":19,"time_elapsed":723582,"internal_node_id":"0.0-19.0","task_version":"prescreen-v0.3","interactions":"[]"}]