[{"view_history":[{"page_index":0,"viewing_time":10197.399999976158},{"page_index":1,"viewing_time":9697.200000017881},{"page_index":2,"viewing_time":4297.799999982119},{"page_index":3,"viewing_time":1675.1000000238419}],"rt":25868.09999999404,"trial_type":"instructions","trial_index":0,"time_elapsed":25885,"internal_node_id":"0.0-0.0","task_version":"prescreen-v0.3"},{"rt":15476.700000017881,"responses":{"age":"38","gender-categorical":"Male","gender-free-response":"","ethnicity":"Not Hispanic or Latino","race":["White"],"education":"Master degree or higher","siblings":"2"},"trial_type":"survey-demo","trial_index":1,"time_elapsed":41366,"internal_node_id":"0.0-1.0","task_version":"prescreen-v0.3"},{"responses":{"Q05":"2","Q16":"2","Q12":"2","Q10":"3","Q07":"1","Q14":"3","Q13":"2","Q21":"3","Q04":"3","Q20":"2","Q01":"3","Q06":"0","Q03":"2","Q09":"2","Q02":"2","Q19":"2","Q18":"2","Q08":"3","Q15":"3","Q11":"2","Q17":"3"},"rt":106743.29999998212,"item_order":[4,15,11,9,6,13,12,20,3,19,0,5,2,8,1,18,17,7,14,10,16],"radio_events":[7700.4000000059605,17081.59999999404,24350.59999999404,28446.79999998212,37447,41682.69999998808,46596.09999999404,49979.79999998212,55083.19999998808,58949.90000000596,60575,65156.40000000596,69206.09999999404,75916,80070.69999998808,86021.09999999404,90958.90000000596,91964.09999999404,95786.5,99806,102992.5,105821.69999998808],"key_events":[],"mouse_events":[7700.4000000059605,16439.59999999404,17081.59999999404,23482.5,24350.59999999404,28446.79999998212,37447,41682.69999998808,45844.09999999404,46596.09999999404,49979.79999998212,55083.19999998808,57591.90000000596,58949.90000000596,60575,65156.40000000596,69206.09999999404,75916,79521.29999998212,80070.69999998808,86021.09999999404,90958.90000000596,91964.09999999404,95786.5,99806,102369.5,102992.5,105821.69999998808,106741.79999998212],"straightlining":0.5238095238095238,"zigzagging":0.45,"honeypot":0,"survey":"sns","trial_type":"survey-template","trial_index":2,"time_elapsed":148113,"internal_node_id":"0.0-2.0","task_version":"prescreen-v0.3","browser_interactions":0,"infrequency":0},{"responses":{"Q01":"3","Q11":"1","Q13":"0","Q02":"3","Q10":"1","Q05":"2","Q08":"1","Q03":"3","Q12":"1","Q06":"2","Q09":"1","Q04":"3","Q07":"2"},"rt":61960,"item_order":[0,10,12,1,9,4,7,2,11,5,8,3,6],"radio_events":[9762.09999999404,14558.59999999404,16874.30000001192,21242.69999998808,24618.90000000596,27936.30000001192,36526.59999999404,42399.09999999404,48271,51912.09999999404,54899,58559.19999998808,60792.59999999404],"key_events":[],"mouse_events":[8567,9762.09999999404,13560.59999999404,14558.59999999404,16874.30000001192,21242.69999998808,23583.80000001192,24618.90000000596,27936.30000001192,35927.59999999404,36526.59999999404,42399.09999999404,47040.69999998808,48271,51912.09999999404,54899,58559.19999998808,60792.59999999404,61958.80000001192],"straightlining":0.38461538461538464,"zigzagging":0.5833333333333334,"honeypot":0,"survey":"bisbas","trial_type":"survey-template","trial_index":3,"time_elapsed":210075,"internal_node_id":"0.0-3.0","task_version":"prescreen-v0.3","browser_interactions":2,"infrequency":0},{"responses":{"Q01":"1","Q02":"1","Q03":"1"},"rt":24985.90000000596,"radio_events":[12637.600000023842,13844.600000023842,17466.20000001788,24248.100000023842],"key_events":[],"mouse_events":[12637.600000023842,13844.600000023842,17466.20000001788,24248.100000023842,24985.20000001788],"survey":"map","page":1,"trial_type":"survey-map","trial_index":4,"time_elapsed":235063,"internal_node_id":"0.0-4.0","task_version":"prescreen-v0.3","browser_interactions":0},{"responses":{"Q04":"2","Q05":"2","Q06":"1"},"rt":16505.40000000596,"radio_events":[10398.90000000596,12967.40000000596,15709.800000011921],"key_events":[],"mouse_events":[10398.90000000596,12967.40000000596,14672.600000023842,15297.40000000596,15709.800000011921,16504.70000001788],"survey":"map","page":2,"trial_type":"survey-map","trial_index":5,"time_elapsed":251570,"internal_node_id":"0.0-5.0","task_version":"prescreen-v0.3","browser_interactions":0},{"responses":{"Q07":"1","Q08":"3","Q09":"0"},"rt":14085.09999999404,"radio_events":[5614.699999988079,10256.199999988079,13217.59999999404],"key_events":[],"mouse_events":[5614.699999988079,10256.199999988079,13217.59999999404,14084.699999988079],"survey":"map","page":3,"trial_type":"survey-map","trial_index":6,"time_elapsed":265657,"internal_node_id":"0.0-6.0","task_version":"prescreen-v0.3","browser_interactions":0},{"responses":{"Q10":"0","Q11":"0","Q12":"1","Q13":"3","Q16":"0","Q14":"1","Q15":"1"},"rt":47923.30000001192,"radio_events":[7829.200000017881,10602.200000017881,16486.20000001788,23076.100000023842,27630.600000023842,33820.40000000596,39238],"key_events":[],"mouse_events":[7829.200000017881,10602.200000017881,16486.20000001788,23076.100000023842,27630.600000023842,33820.40000000596,39238,47922.5],"survey":"map","page":4,"trial_type":"survey-map","trial_index":7,"time_elapsed":313582,"internal_node_id":"0.0-7.0","task_version":"prescreen-v0.3","browser_interactions":0,"infrequency":0},{"view_history":[{"page_index":0,"viewing_time":8723.799999982119},{"page_index":1,"viewing_time":9620.200000017881}],"rt":18344.59999999404,"trial_type":"instructions","trial_index":8,"time_elapsed":331927,"internal_node_id":"0.0-8.0","task_version":"prescreen-v0.3"},{"responses":{"01":"No","02":"No","03":"No","04":"No","05":"No","06":"No"},"rt":22117.70000001788,"item_order":[0,1,2,3,4,5],"radio_events":[11044.90000000596,13621.09999999404,16190.5,18160.70000001788,19334.70000001788,21136],"checkbox_events":[],"key_events":[],"mouse_events":[0,11044.90000000596,13621.09999999404,16190.5,18160.70000001788,19334.70000001788,21136,22115.70000001788],"honeypot":0,"survey":"mace","page":1,"trial_type":"survey-mace","trial_index":9,"time_elapsed":354050,"internal_node_id":"0.0-9.0","task_version":"prescreen-v0.3","browser_interactions":0},{"responses":{"01":"No","02":"No","03":"No","04":"No","05":"No","06":"No","07":"No","08":"No"},"rt":14491.100000023842,"item_order":[0,1,2,3,4,5,6,7],"radio_events":[2736.100000023842,5185,6700.300000011921,8014.800000011921,9132.700000017881,10718.800000011921,11970,12965.100000023842],"checkbox_events":[],"key_events":[],"mouse_events":[2736.100000023842,5185,6700.300000011921,8014.800000011921,9132.700000017881,10718.800000011921,11970,12965.100000023842,14488.5],"honeypot":0,"survey":"mace","page":2,"trial_type":"survey-mace","trial_index":10,"time_elapsed":368544,"internal_node_id":"0.0-10.0","task_version":"prescreen-v0.3","browser_interactions":0},{"responses":{"01":"No","02":"No","03":"No","04":"No"},"rt":14042.100000023842,"item_order":[0,1,2,3],"radio_events":[9255,10751.90000000596,12662.90000000596,13453.800000011921],"checkbox_events":[],"key_events":[],"mouse_events":[9255,10751.90000000596,12662.90000000596,13453.800000011921,14040.700000017881],"honeypot":0,"survey":"mace","page":3,"trial_type":"survey-mace","trial_index":11,"time_elapsed":382588,"internal_node_id":"0.0-11.0","task_version":"prescreen-v0.3","browser_interactions":0},{"responses":{"01":"No","02":"No"},"rt":6316.399999976158,"item_order":[0,1],"radio_events":[4598,5594],"checkbox_events":[],"key_events":[],"mouse_events":[4598,5594,6315.5],"honeypot":0,"survey":"mace","page":4,"trial_type":"survey-mace","trial_index":12,"time_elapsed":388907,"internal_node_id":"0.0-12.0","task_version":"prescreen-v0.3","browser_interactions":0},{"responses":{"01":"No","02":"No","03":"No","04":"Yes","04_ages_5":"5","04_ages_6":"6","04_ages_7":"7","05":"No"},"rt":39673.80000001192,"item_order":[0,1,2,3,4],"radio_events":[9776.300000011921,12810.300000011921,15474.800000011921,19287.40000000596,38558.90000000596],"checkbox_events":[24163,24851.100000023842,25427.30000001192,28025.600000023842,29704.70000001788],"key_events":[],"mouse_events":[9776.300000011921,12810.300000011921,15474.800000011921,19287.40000000596,24163,24851.100000023842,25427.30000001192,28025.600000023842,29704.70000001788,38558.90000000596,39672],"honeypot":0,"survey":"mace","page":5,"trial_type":"survey-mace","trial_index":13,"time_elapsed":428583,"internal_node_id":"0.0-13.0","task_version":"prescreen-v0.3","browser_interactions":0},{"responses":{"01":"Yes","01_ages_7":"7","01_ages_8":"8","01_ages_9":"9","01_ages_10":"10","01_ages_11":"11","01_ages_12":"12","01_ages_13":"13","02":"Yes","02_ages_7":"7","02_ages_8":"8","02_ages_9":"9","02_ages_10":"10","02_ages_11":"11","02_ages_12":"12","02_ages_13":"13","03":"Yes","03_ages_11":"11","03_ages_12":"12","04":"Yes","04_ages_7":"7","04_ages_8":"8","05":"No"},"rt":52067.5,"item_order":[0,1,2,3,4],"radio_events":[6976.800000011921,20589.20000001788,32938.20000001788,41523.40000000596,50560.40000000596],"checkbox_events":[12513.800000011921,13188.700000017881,14434,15005,15670,16677.20000001788,17384,22435.90000000596,22858.90000000596,24242.100000023842,24690.100000023842,25243.20000001788,25936.30000001192,26828.30000001192,37401.5,38011.5,43261.20000001788,43891.5],"key_events":[],"mouse_events":[6976.800000011921,12513.800000011921,13188.700000017881,13761.800000011921,14434,15005,15670,16677.20000001788,17384,19924.30000001192,20589.20000001788,22435.90000000596,22858.90000000596,23330.100000023842,24242.100000023842,24690.100000023842,25243.20000001788,25936.30000001192,26828.30000001192,32938.20000001788,37401.5,38011.5,41523.40000000596,43261.20000001788,43891.5,50560.40000000596,52065.80000001192],"honeypot":0,"survey":"mace","page":6,"trial_type":"survey-mace","trial_index":14,"time_elapsed":480652,"internal_node_id":"0.0-14.0","task_version":"prescreen-v0.3","browser_interactions":0},{"responses":{"01":"No","02":"No","03":"No","04":"No","05":"No","06":"No","07":"No"},"rt":16828,"item_order":[0,1,2,3,4,5,6],"radio_events":[2954,5016.5,10019.90000000596,11255,12652.40000000596,13884.40000000596,16033.800000011921],"checkbox_events":[],"key_events":[],"mouse_events":[2954,5016.5,7958.5999999940395,10019.90000000596,11255,12652.40000000596,13884.40000000596,16033.800000011921,16825.59999999404],"honeypot":0,"survey":"mace","page":7,"trial_type":"survey-mace","trial_index":15,"time_elapsed":497483,"internal_node_id":"0.0-15.0","task_version":"prescreen-v0.3","browser_interactions":0},{"responses":{"01":"No","02":"No","03":"No","04":"No"},"rt":28320.40000000596,"item_order":[0,1,2,3],"radio_events":[20233.90000000596,21872.69999998808,24836.69999998808,27611.90000000596],"checkbox_events":[],"key_events":[],"mouse_events":[20233.90000000596,21872.69999998808,24836.69999998808,26983.79999998212,27611.90000000596,28318.90000000596],"honeypot":0,"survey":"mace","page":8,"trial_type":"survey-mace","trial_index":16,"time_elapsed":525805,"internal_node_id":"0.0-16.0","task_version":"prescreen-v0.3","browser_interactions":0},{"responses":{"01":"Yes","01_ages_1":"1","01_ages_2":"2","01_ages_3":"3","01_ages_4":"4","01_ages_5":"5","01_ages_6":"6","01_ages_7":"7","01_ages_8":"8","01_ages_9":"9","01_ages_10":"10","01_ages_11":"11","01_ages_12":"12","01_ages_13":"13","01_ages_14":"14","01_ages_15":"15","01_ages_16":"16","01_ages_17":"17","01_ages_18":"18","02":"Yes","02_ages_1":"1","02_ages_2":"2","02_ages_3":"3","02_ages_4":"4","02_ages_5":"5","02_ages_6":"6","02_ages_7":"7","02_ages_8":"8","02_ages_9":"9","02_ages_10":"10","02_ages_11":"11","02_ages_12":"12","02_ages_13":"13","02_ages_14":"14","02_ages_15":"15","02_ages_16":"16","02_ages_17":"17","02_ages_18":"18","03":"Yes","03_ages_1":"1","03_ages_2":"2","03_ages_3":"3","03_ages_4":"4","03_ages_5":"5","03_ages_6":"6","03_ages_7":"7","03_ages_8":"8","03_ages_9":"9","03_ages_10":"10","03_ages_11":"11","03_ages_12":"12","03_ages_13":"13","03_ages_14":"14","03_ages_15":"15","03_ages_16":"16","03_ages_17":"17","03_ages_18":"18","04":"Yes","04_ages_1":"1","04_ages_2":"2","04_ages_3":"3","04_ages_4":"4","04_ages_5":"5","04_ages_6":"6","04_ages_7":"7","04_ages_8":"8","04_ages_9":"9","04_ages_10":"10","04_ages_11":"11","04_ages_12":"12","04_ages_13":"13","04_ages_14":"14","04_ages_15":"15","04_ages_16":"16","04_ages_17":"17","04_ages_18":"18"},"rt":82121.59999999404,"item_order":[0,1,2,3],"radio_events":[8173.899999976158,24950.899999976158,49454.89999997616,66970.09999999404],"checkbox_events":[11637.299999982119,12229.299999982119,12650.5,13198.5,13811.299999982119,14352.59999999404,15345.59999999404,15887.59999999404,16945.79999998212,17414.899999976158,18167.19999998808,18697.79999998212,19728.19999998808,20261.399999976158,21113.5,21590.5,22176.59999999404,23100.69999998808,25958.69999998808,26878.29999998212,27546.29999998212,28253.09999999404,29077.19999998808,29712.59999999404,30291.29999998212,30816.69999998808,31383.69999998808,32120.5,32707.69999998808,33172.69999998808,33895.89999997616,34560,35207.29999998212,36038.39999997616,36662.19999998808,37389.39999997616,50809.19999998808,51554.5,52376,52839.39999997616,54191.5,55580.59999999404,56190,56665.79999998212,57440,57936,58949.09999999404,59507,60193.19999998808,60810.09999999404,63575.79999998212,64044.5,64604.89999997616,65612.19999998808,68247.29999998212,69134.29999998212,69863.69999998808,71498.79999998212,71932.69999998808,72860.79999998212,73269.09999999404,74279,74986.19999998808,76270.29999998212,76903.39999997616,77655.39999997616,78194.39999997616,78869.59999999404,79774.79999998212,80252.79999998212,80733.29999998212,81359.09999999404],"key_events":[],"mouse_events":[8173.899999976158,11637.299999982119,12229.299999982119,12650.5,13198.5,13811.299999982119,14352.59999999404,14917.59999999404,15345.59999999404,15887.59999999404,16523.5,16945.79999998212,17414.899999976158,18167.19999998808,18697.79999998212,19345.59999999404,19728.19999998808,20261.399999976158,21113.5,21590.5,22176.59999999404,23100.69999998808,24950.899999976158,25958.69999998808,26427.899999976158,26878.29999998212,27546.29999998212,28253.09999999404,29077.19999998808,29712.59999999404,30291.29999998212,30816.69999998808,31383.69999998808,32120.5,32707.69999998808,33172.69999998808,33895.89999997616,34560,35207.29999998212,36038.39999997616,36662.19999998808,37389.39999997616,49454.89999997616,50809.19999998808,51184.09999999404,51554.5,52008,52376,52839.39999997616,53402.59999999404,54191.5,55580.59999999404,56190,56665.79999998212,57440,57936,58949.09999999404,59507,60193.19999998808,60810.09999999404,61799.19999998808,63575.79999998212,64044.5,64604.89999997616,65043.09999999404,65612.19999998808,66970.09999999404,68247.29999998212,68702.39999997616,69134.29999998212,69863.69999998808,70627.39999997616,71498.79999998212,71932.69999998808,72860.79999998212,73269.09999999404,73896.59999999404,74279,74986.19999998808,75795.5,76270.29999998212,76903.39999997616,77655.39999997616,78194.39999997616,78869.59999999404,79774.79999998212,80252.79999998212,80733.29999998212,81359.09999999404,82120.29999998212],"honeypot":0,"survey":"mace","page":9,"trial_type":"survey-mace","trial_index":17,"time_elapsed":607929,"internal_node_id":"0.0-17.0","task_version":"prescreen-v0.3","browser_interactions":0},{"responses":{"01":"No","02":"No","03":"No","04":"No","05":"No","06":"Yes","06_ages_17":"17","07":"Yes","07_ages_1":"1","07_ages_2":"2","07_ages_3":"3","07_ages_4":"4","07_ages_5":"5","07_ages_6":"6","07_ages_7":"7","07_ages_8":"8","07_ages_9":"9","07_ages_10":"10","07_ages_11":"11","07_ages_12":"12","07_ages_13":"13","07_ages_14":"14","07_ages_15":"15","07_ages_16":"16","07_ages_17":"17","07_ages_18":"18","08":"Yes","08_ages_1":"1","08_ages_2":"2","08_ages_3":"3","08_ages_4":"4","08_ages_5":"5","08_ages_6":"6","08_ages_7":"7","08_ages_8":"8","08_ages_9":"9","08_ages_10":"10","08_ages_11":"11","08_ages_12":"12","08_ages_13":"13","08_ages_14":"14","08_ages_15":"15","08_ages_16":"16","08_ages_17":"17","08_ages_18":"18"},"rt":50819.20000001788,"item_order":[0,1,2,3,4,5,6,7],"radio_events":[3042,4522.4000000059605,5907.700000017881,7968.200000017881,10906.300000011921,12848.09999999404,18179.20000001788,36316.40000000596],"checkbox_events":[14397.800000011921,20777.40000000596,21934.40000000596,22428.59999999404,23201.59999999404,23660.90000000596,24265.09999999404,25071,26508.30000001192,27474.09999999404,28030.30000001192,28849.40000000596,29672.59999999404,30239.5,30908.80000001192,31824.20000001788,32684,33194.09999999404,33917.20000001788,38442.59999999404,39185.90000000596,39907.09999999404,40496,41103.09999999404,41932.30000001192,42400.40000000596,43013.30000001192,43909.40000000596,44632.5,45362.59999999404,46060.70000001788,46587.59999999404,47224.5,47897.09999999404,48566.09999999404,49204,49847.30000001192],"key_events":[],"mouse_events":[3042,4522.4000000059605,5907.700000017881,7968.200000017881,10906.300000011921,12848.09999999404,14397.800000011921,18179.20000001788,20777.40000000596,21201.40000000596,21934.40000000596,22428.59999999404,23201.59999999404,23660.90000000596,24265.09999999404,25071,25902,26508.30000001192,27013.30000001192,27474.09999999404,28030.30000001192,28849.40000000596,29672.59999999404,30239.5,30908.80000001192,31824.20000001788,32684,33194.09999999404,33917.20000001788,36316.40000000596,38442.59999999404,39185.90000000596,39907.09999999404,40496,41103.09999999404,41932.30000001192,42400.40000000596,43013.30000001192,43909.40000000596,44632.5,45362.59999999404,46060.70000001788,46587.59999999404,47224.5,47897.09999999404,48566.09999999404,49204,49847.30000001192,50816.59999999404],"honeypot":0,"survey":"mace","page":10,"trial_type":"survey-mace","trial_index":18,"time_elapsed":658751,"internal_node_id":"0.0-18.0","task_version":"prescreen-v0.3","browser_interactions":0,"instructed":0},{"rt":6333,"trial_type":"mental-health-alert","trial_index":19,"time_elapsed":665086,"internal_node_id":"0.0-19.0","task_version":"prescreen-v0.3","interactions":"[{\"event\":\"blur\",\"trial\":0,\"time\":3086},{\"event\":\"focus\",\"trial\":0,\"time\":4866},{\"event\":\"blur\",\"trial\":3,\"time\":150379},{\"event\":\"focus\",\"trial\":3,\"time\":151801}]"}]