[{"view_history":[{"page_index":0,"viewing_time":3901.199999988079},{"page_index":1,"viewing_time":2973.5999999940395},{"page_index":2,"viewing_time":4065.300000011921},{"page_index":3,"viewing_time":996.5}],"rt":11937.40000000596,"trial_type":"instructions","trial_index":0,"time_elapsed":11948,"internal_node_id":"0.0-0.0","task_version":"prescreen-v0.3"},{"rt":13946.200000017881,"responses":{"age":"24","gender-categorical":"Female","gender-free-response":"","ethnicity":"Not Hispanic or Latino","race":["White"],"education":"Associate degree"},"trial_type":"survey-demo","trial_index":1,"time_elapsed":25900,"internal_node_id":"0.0-1.0","task_version":"prescreen-v0.3"},{"responses":{"Q06":"0","Q14":"2","Q07":"0","Q02":"2","Q08":"2","Q03":"2","Q01":"2","Q05":"0","Q12":"2","Q11":"1","Q17":"1","Q16":"1","Q21":"3","Q10":"2","Q20":"0","Q09":"1","Q04":"2","Q18":"1","Q13":"2","Q19":"1","Q15":"1"},"rt":223528.5,"item_order":[5,13,6,1,7,2,0,4,11,10,16,15,20,9,19,8,3,17,12,18,14],"radio_events":[118396.29999998212,121521.40000000596,126069.5,130208,134410.5,138339.40000000596,140966.19999998808,163133.69999998808,170492,173586.5,175788.29999998212,179564.90000000596,182039.40000000596,184690.59999999404,187937.09999999404,191376.19999998808,196823.79999998212,200455.69999998808,207230.69999998808,210035.40000000596,215113.79999998212,219370.29999998212],"key_events":[],"mouse_events":[118396.29999998212,121521.40000000596,126069.5,129484.69999998808,130208,134410.5,138339.40000000596,140966.19999998808,141696.90000000596,162619.59999999404,163133.69999998808,170492,173586.5,175788.29999998212,179564.90000000596,182039.40000000596,184690.59999999404,187937.09999999404,188467,191376.19999998808,196823.79999998212,200455.69999998808,207230.69999998808,210035.40000000596,215113.79999998212,219370.29999998212,223525.79999998212],"straightlining":0.42857142857142855,"zigzagging":0.35,"honeypot":0,"survey":"sns","trial_type":"survey-template","trial_index":2,"time_elapsed":249437,"internal_node_id":"0.0-2.0","task_version":"prescreen-v0.3","browser_interactions":0,"infrequency":0},{"responses":{"Q09":"2","Q07":"2","Q06":"3","Q01":"3","Q11":"2","Q03":"3","Q10":"2","Q08":"2","Q12":"2","Q04":"3","Q13":"0","Q05":"2","Q02":"3"},"rt":47543.69999998808,"item_order":[8,6,5,0,10,2,9,7,11,3,12,4,1],"radio_events":[4539.899999976158,6885.399999976158,10501.59999999404,12124.699999988079,15869.199999988079,20790.79999998212,22647.399999976158,28657.79999998212,32780.5,36662.69999998808,39065.5,44288.5,46778.89999997616],"key_events":[],"mouse_events":[4539.899999976158,6885.399999976158,10501.59999999404,12124.699999988079,15869.199999988079,20790.79999998212,22647.399999976158,23175.899999976158,28657.79999998212,32780.5,36662.69999998808,39065.5,44288.5,46778.89999997616,47542],"straightlining":0.5384615384615384,"zigzagging":0.5833333333333334,"honeypot":0,"survey":"bisbas","trial_type":"survey-template","trial_index":3,"time_elapsed":296985,"internal_node_id":"0.0-3.0","task_version":"prescreen-v0.3","browser_interactions":0,"infrequency":0},{"responses":{"Q01":"3","Q02":"2","Q03":"2"},"rt":14986.59999999404,"radio_events":[5095.300000011921,8999.300000011921,12960.200000017881],"key_events":[],"mouse_events":[5095.300000011921,8999.300000011921,12960.200000017881,14985.59999999404],"survey":"map","page":1,"trial_type":"survey-map","trial_index":4,"time_elapsed":311976,"internal_node_id":"0.0-4.0","task_version":"prescreen-v0.3","browser_interactions":0},{"responses":{"Q04":"3","Q05":"2","Q06":"2"},"rt":21467.90000000596,"radio_events":[7648.0999999940395,13754.200000017881,16027.700000017881,20616],"key_events":[],"mouse_events":[7648.0999999940395,13754.200000017881,16027.700000017881,20616,21467.20000001788],"survey":"map","page":2,"trial_type":"survey-map","trial_index":5,"time_elapsed":333448,"internal_node_id":"0.0-5.0","task_version":"prescreen-v0.3","browser_interactions":0},{"responses":{"Q07":"3","Q08":"4","Q09":"1"},"rt":13398.299999982119,"radio_events":[4993.5999999940395,8463.899999976158,12176.09999999404],"key_events":[],"mouse_events":[4993.5999999940395,8463.899999976158,12176.09999999404,13397.5],"survey":"map","page":3,"trial_type":"survey-map","trial_index":6,"time_elapsed":346848,"internal_node_id":"0.0-6.0","task_version":"prescreen-v0.3","browser_interactions":0},{"responses":{"Q10":"2","Q11":"1","Q12":"0","Q13":"1","Q16":"0","Q14":"2","Q15":"2"},"rt":36657.40000000596,"radio_events":[4914.0999999940395,8449.700000017881,9906.300000011921,14250.200000017881,20842.30000001192,25001,30057.80000001192,35561.90000000596],"key_events":[],"mouse_events":[4914.0999999940395,8449.700000017881,9906.300000011921,14250.200000017881,15904.5,20842.30000001192,25001,30057.80000001192,35561.90000000596,36655.80000001192],"survey":"map","page":4,"trial_type":"survey-map","trial_index":7,"time_elapsed":383509,"internal_node_id":"0.0-7.0","task_version":"prescreen-v0.3","browser_interactions":0,"infrequency":0},{"view_history":[{"page_index":0,"viewing_time":3201.7999999821186},{"page_index":1,"viewing_time":3816}],"rt":7018.799999982119,"trial_type":"instructions","trial_index":8,"time_elapsed":390529,"internal_node_id":"0.0-8.0","task_version":"prescreen-v0.3"},{"responses":{"01":"Yes","01_ages_4":"4","01_ages_5":"5","01_ages_6":"6","01_ages_7":"7","01_ages_8":"8","01_ages_9":"9","01_ages_10":"10","01_ages_11":"11","01_ages_12":"12","01_ages_13":"13","01_ages_14":"14","01_ages_15":"15","01_ages_16":"16","01_ages_17":"17","01_ages_18":"18","02":"Yes","02_ages_4":"4","02_ages_5":"5","02_ages_6":"6","02_ages_7":"7","02_ages_8":"8","02_ages_9":"9","02_ages_10":"10","02_ages_11":"11","02_ages_12":"12","02_ages_13":"13","02_ages_14":"14","02_ages_15":"15","02_ages_16":"16","02_ages_17":"17","02_ages_18":"18","03":"Yes","03_ages_4":"4","03_ages_5":"5","03_ages_6":"6","03_ages_7":"7","03_ages_8":"8","03_ages_9":"9","03_ages_10":"10","03_ages_11":"11","03_ages_12":"12","03_ages_13":"13","03_ages_14":"14","03_ages_15":"15","03_ages_16":"16","03_ages_17":"17","04":"Yes","04_ages_4":"4","04_ages_5":"5","04_ages_6":"6","04_ages_7":"7","04_ages_8":"8","04_ages_9":"9","04_ages_10":"10","04_ages_11":"11","04_ages_12":"12","04_ages_13":"13","04_ages_14":"14","04_ages_15":"15","04_ages_16":"16","04_ages_17":"17","05":"Yes","05_ages_13":"13","05_ages_14":"14","05_ages_15":"15","06":"Yes","06_ages_5":"5","06_ages_6":"6","06_ages_7":"7","06_ages_8":"8","06_ages_9":"9","06_ages_10":"10","06_ages_11":"11","06_ages_12":"12","06_ages_13":"13","06_ages_14":"14","06_ages_15":"15","06_ages_16":"16","06_ages_17":"17"},"rt":112575.20000001788,"item_order":[0,1,2,3,4,5],"radio_events":[4827.700000017881,24970.20000001788,43257.5,68094.60000002384,84065.60000002384,94332.90000000596],"checkbox_events":[8033.9000000059605,8917.600000023842,10130.5,10700.40000000596,11632.90000000596,12234.5,12774.200000017881,13343.700000017881,14340.600000023842,14766.600000023842,15761.700000017881,16301.100000023842,16863.600000023842,17593.5,18623.100000023842,19177.80000001192,20172.5,22823.70000001788,26640.80000001192,27235.20000001788,28399.100000023842,31068.100000023842,31758.5,32328.30000001192,33011.80000001192,33564.80000001192,34265.5,34667,35205.40000000596,35904.20000001788,36692.20000001788,37204.5,37848.60000002384,38483.5,39238,39816.70000001788,44245.70000001788,45186,46021.90000000596,46567.20000001788,47203.40000000596,47869.40000000596,48465.40000000596,49180.10000002384,49821.90000000596,50393.80000001192,50874.40000000596,51679.90000000596,52225.70000001788,52973.60000002384,53527.60000002384,54073.10000002384,55119.60000002384,58871.90000000596,59442.40000000596,59940.40000000596,60952.5,61339.10000002384,61876.70000001788,63925.60000002384,64503.20000001788,65564.40000000596,69934.90000000596,70376.40000000596,70963.5,71420.70000001788,72345.70000001788,72907.10000002384,73678.90000000596,75599.20000001788,76097.20000001788,76708.10000002384,77446.10000002384,77952.90000000596,78498.30000001192,81247.20000001788,87858.70000001788,88252.60000002384,89087.90000000596,102632.20000001788,103203.40000000596,104458.20000001788,104987.70000001788,105951.70000001788,106707.60000002384,107212.90000000596,107800.40000000596,109283.70000001788,109839.5,110352.5,111325.90000000596,111944],"key_events":[],"mouse_events":[0.10000002384185791,4827.700000017881,8033.9000000059605,8419.200000017881,8917.600000023842,9311.40000000596,9680.700000017881,10130.5,10700.40000000596,11632.90000000596,12234.5,12774.200000017881,13343.700000017881,13979.100000023842,14340.600000023842,14766.600000023842,15400.90000000596,15761.700000017881,16301.100000023842,16863.600000023842,17593.5,18165.100000023842,18623.100000023842,19177.80000001192,20172.5,20647.600000023842,21610.80000001192,22823.70000001788,24970.20000001788,26640.80000001192,27235.20000001788,27701,28399.100000023842,31068.100000023842,31758.5,32328.30000001192,33011.80000001192,33564.80000001192,34265.5,34667,35205.40000000596,35904.20000001788,36692.20000001788,37204.5,37848.60000002384,38483.5,39238,39816.70000001788,40233.80000001192,43257.5,44245.70000001788,44712.90000000596,45186,46021.90000000596,46567.20000001788,47203.40000000596,47869.40000000596,48465.40000000596,49180.10000002384,49821.90000000596,50393.80000001192,50874.40000000596,51679.90000000596,52225.70000001788,52973.60000002384,53527.60000002384,54073.10000002384,54572.30000001192,55119.60000002384,58871.90000000596,59442.40000000596,59940.40000000596,60952.5,61339.10000002384,61876.70000001788,63925.60000002384,64503.20000001788,65162.5,65564.40000000596,66254.60000002384,68094.60000002384,69934.90000000596,70376.40000000596,70963.5,71420.70000001788,71927.70000001788,72345.70000001788,72907.10000002384,73678.90000000596,74113.60000002384,74506.5,75599.20000001788,76097.20000001788,76708.10000002384,77061.60000002384,77446.10000002384,77952.90000000596,78498.30000001192,79012.5,81247.20000001788,84065.60000002384,87858.70000001788,88252.60000002384,89087.90000000596,90027.10000002384,94332.90000000596,95812,102632.20000001788,103203.40000000596,103597.60000002384,104023.80000001192,104458.20000001788,104987.70000001788,105582,105951.70000001788,106707.60000002384,107212.90000000596,107800.40000000596,108890.40000000596,109283.70000001788,109839.5,110352.5,110899.5,111325.90000000596,111944,112571.70000001788],"honeypot":0,"survey":"mace","page":1,"trial_type":"survey-mace","trial_index":9,"time_elapsed":503115,"internal_node_id":"0.0-9.0","task_version":"prescreen-v0.3","browser_interactions":0},{"responses":{"01":"Yes","01_ages_4":"4","01_ages_5":"5","01_ages_6":"6","01_ages_7":"7","01_ages_8":"8","01_ages_9":"9","01_ages_10":"10","01_ages_11":"11","01_ages_12":"12","01_ages_13":"13","01_ages_14":"14","01_ages_15":"15","01_ages_16":"16","01_ages_17":"17","02":"Yes","02_ages_14":"14","02_ages_15":"15","03":"Yes","03_ages_4":"4","03_ages_5":"5","03_ages_6":"6","03_ages_7":"7","03_ages_8":"8","03_ages_9":"9","03_ages_10":"10","03_ages_11":"11","03_ages_12":"12","04":"Yes","04_ages_4":"4","04_ages_5":"5","04_ages_6":"6","04_ages_7":"7","04_ages_8":"8","04_ages_9":"9","04_ages_10":"10","04_ages_11":"11","04_ages_12":"12","05":"Yes","05_ages_4":"4","05_ages_5":"5","05_ages_6":"6","05_ages_7":"7","05_ages_8":"8","05_ages_9":"9","05_ages_10":"10","05_ages_11":"11","05_ages_12":"12","06":"No","07":"No","08":"No"},"rt":73623.69999998808,"item_order":[0,1,2,3,4,5,6,7],"radio_events":[2737.199999988079,24042.29999998212,30124.69999998808,45075,56772.29999998212,67650.79999998212,69577.79999998212,72180.79999998212],"checkbox_events":[5364.299999982119,5741.799999982119,7003.5,7428.799999982119,8256.5,8706.299999982119,9236.09999999404,9799.09999999404,10289.5,13373.799999982119,13840.40000000596,14346.299999982119,15118,15616.09999999404,26291.90000000596,27256.79999998212,31282,31707.40000000596,32261.29999998212,33466.40000000596,34028.59999999404,34493.29999998212,35617.90000000596,37106,38351.29999998212,40310.90000000596,42567.5,46047.5,46770.09999999404,47211.69999998808,48264.5,48778.29999998212,49317.19999998808,49886.29999998212,50441.69999998808,54152.19999998808,57632.40000000596,58106.09999999404,59093.59999999404,60049.79999998212,60707.29999998212,61327,62540.79999998212,62950,63631.69999998808],"key_events":[],"mouse_events":[2737.199999988079,5364.299999982119,5741.799999982119,6440.5999999940395,7003.5,7428.799999982119,8256.5,8706.299999982119,9236.09999999404,9799.09999999404,10289.5,13373.799999982119,13840.40000000596,14346.299999982119,15118,15616.09999999404,24042.29999998212,25536.5,26291.90000000596,26854.59999999404,27256.79999998212,27793.29999998212,30124.69999998808,31282,31707.40000000596,32261.29999998212,32790.59999999404,33466.40000000596,34028.59999999404,34493.29999998212,35064.69999998808,35617.90000000596,37106,37739,38351.29999998212,40310.90000000596,40751.40000000596,42567.5,45075,46047.5,46440.59999999404,46770.09999999404,47211.69999998808,47750.19999998808,48264.5,48778.29999998212,49317.19999998808,49886.29999998212,50441.69999998808,51107.19999998808,51799.69999998808,52473.09999999404,54152.19999998808,56772.29999998212,57632.40000000596,58106.09999999404,58603.5,59093.59999999404,59656,60049.79999998212,60707.29999998212,61327,61833.90000000596,62540.79999998212,62950,63631.69999998808,64194,67650.79999998212,69577.79999998212,72180.79999998212,73618.29999998212],"honeypot":0,"survey":"mace","page":2,"trial_type":"survey-mace","trial_index":10,"time_elapsed":576744,"internal_node_id":"0.0-10.0","task_version":"prescreen-v0.3","browser_interactions":0},{"responses":{"01":"Yes","01_ages_4":"4","01_ages_5":"5","01_ages_6":"6","01_ages_7":"7","01_ages_8":"8","01_ages_9":"9","01_ages_10":"10","01_ages_11":"11","01_ages_12":"12","01_ages_13":"13","01_ages_14":"14","01_ages_15":"15","01_ages_16":"16","01_ages_17":"17","01_ages_18":"18","02":"No","03":"No","04":"No"},"rt":31676.90000000596,"item_order":[0,1,2,3],"radio_events":[7044,28550.19999998808,29603.19999998808,30680.19999998808],"checkbox_events":[12876.800000011921,14113.800000011921,14483.300000011921,15270.5,15824.5,16258.699999988079,16683.5,17311.09999999404,17696.80000001192,18837.40000000596,19367.40000000596,20034.80000001192,20717.90000000596,21946.40000000596,22347.80000001192],"key_events":[],"mouse_events":[7044,12876.800000011921,13366.5,14113.800000011921,14483.300000011921,14933.300000011921,15270.5,15824.5,16258.699999988079,16683.5,17311.09999999404,17696.80000001192,18363.90000000596,18837.40000000596,19367.40000000596,20034.80000001192,20717.90000000596,21103.69999998808,21479.19999998808,21946.40000000596,22347.80000001192,25311.59999999404,28550.19999998808,29603.19999998808,30680.19999998808,31674.40000000596],"honeypot":0,"survey":"mace","page":3,"trial_type":"survey-mace","trial_index":11,"time_elapsed":608424,"internal_node_id":"0.0-11.0","task_version":"prescreen-v0.3","browser_interactions":0},{"responses":{"01":"No","02":"No"},"rt":13243.09999999404,"item_order":[0,1],"radio_events":[3931.5,11426.799999982119],"checkbox_events":[],"key_events":[],"mouse_events":[3931.5,5199.5999999940395,11426.799999982119,13241.699999988079],"honeypot":0,"survey":"mace","page":4,"trial_type":"survey-mace","trial_index":12,"time_elapsed":621671,"internal_node_id":"0.0-12.0","task_version":"prescreen-v0.3","browser_interactions":0},{"responses":{"01":"Yes","01_ages_12":"12","01_ages_13":"13","01_ages_14":"14","01_ages_15":"15","01_ages_16":"16","01_ages_17":"17","01_ages_18":"18","02":"Yes","02_ages_12":"12","02_ages_13":"13","02_ages_14":"14","02_ages_15":"15","02_ages_16":"16","02_ages_17":"17","02_ages_18":"18","03":"No","04":"No","05":"No"},"rt":59994.5,"item_order":[0,1,2,3,4],"radio_events":[24931.29999998212,39199.79999998212,50446.69999998808,53538.69999998808,56625.29999998212,57943.40000000596],"checkbox_events":[28474.5,29278,30097.09999999404,30459,30836.69999998808,31180.79999998212,31769,33078.19999998808,33648.79999998212,34476.19999998808,35472.29999998212,40179.79999998212,40805.19999998808,41866.69999998808,42349.19999998808,42887.59999999404,43528.59999999404,44044.5],"key_events":[],"mouse_events":[24931.29999998212,28474.5,29278,29752.19999998808,30097.09999999404,30459,30836.69999998808,31180.79999998212,31769,32162.79999998212,32523.90000000596,33078.19999998808,33648.79999998212,34476.19999998808,34998.29999998212,35472.29999998212,35985.19999998808,39199.79999998212,40179.79999998212,40805.19999998808,41489.40000000596,41866.69999998808,42349.19999998808,42887.59999999404,43528.59999999404,44044.5,44476.29999998212,50446.69999998808,53538.69999998808,56625.29999998212,57943.40000000596,59991.5],"honeypot":0,"survey":"mace","page":5,"trial_type":"survey-mace","trial_index":13,"time_elapsed":681671,"internal_node_id":"0.0-13.0","task_version":"prescreen-v0.3","browser_interactions":0},{"responses":{"01":"Yes","01_ages_13":"13","01_ages_14":"14","01_ages_15":"15","01_ages_16":"16","02":"Yes","02_ages_13":"13","02_ages_14":"14","02_ages_15":"15","02_ages_16":"16","03":"No","04":"Yes","04_ages_13":"13","04_ages_14":"14","04_ages_15":"15","04_ages_16":"16","05":"No"},"rt":46434.80000001192,"item_order":[0,1,2,3,4],"radio_events":[7534.4000000059605,31120.69999998808,36173.5,39202.19999998808,45621.5],"checkbox_events":[11205.800000011921,11679.59999999404,12434.800000011921,12996.40000000596,13584.199999988079,14660.699999988079,15134.59999999404,16314.199999988079,16781.5,17231,18516.5,19600.40000000596,20404.09999999404,21199.09999999404,21784.59999999404,22468.5,23279.80000001192,24154.19999998808,24886.5,25432.69999998808,26115.40000000596,26525.09999999404,32518.09999999404,32927.80000001192,33465.80000001192,33980.40000000596,40214.09999999404,40640.19999998808,41082.90000000596,41797.19999998808],"key_events":[],"mouse_events":[7534.4000000059605,11205.800000011921,11679.59999999404,12434.800000011921,12996.40000000596,13584.199999988079,14153.199999988079,14660.699999988079,15134.59999999404,15736.90000000596,16314.199999988079,16781.5,17231,18516.5,19078.19999998808,19600.40000000596,20404.09999999404,21199.09999999404,21784.59999999404,22468.5,23279.80000001192,24154.19999998808,24886.5,25432.69999998808,26115.40000000596,26525.09999999404,26990,31120.69999998808,32518.09999999404,32927.80000001192,33465.80000001192,33980.40000000596,36173.5,36831.40000000596,39202.19999998808,40214.09999999404,40640.19999998808,41082.90000000596,41797.19999998808,42390.5,45621.5,46431.59999999404],"honeypot":0,"survey":"mace","page":6,"trial_type":"survey-mace","trial_index":14,"time_elapsed":728110,"internal_node_id":"0.0-14.0","task_version":"prescreen-v0.3","browser_interactions":0},{"responses":{"01":"No","02":"No","03":"No","04":"No","05":"No","06":"No","07":"No"},"rt":14956.09999999404,"item_order":[0,1,2,3,4,5,6],"radio_events":[4210.799999982119,5543.699999988079,10542.09999999404,11722.199999988079,12638,13432.90000000596,14333.699999988079],"checkbox_events":[],"key_events":[],"mouse_events":[4210.799999982119,5543.699999988079,6628.699999988079,7222.4000000059605,9224,10542.09999999404,11722.199999988079,12638,13432.90000000596,14333.699999988079,14951.90000000596],"honeypot":0,"survey":"mace","page":7,"trial_type":"survey-mace","trial_index":15,"time_elapsed":743073,"internal_node_id":"0.0-15.0","task_version":"prescreen-v0.3","browser_interactions":0},{"responses":{"01":"Yes","01_ages_13":"13","01_ages_14":"14","01_ages_15":"15","01_ages_16":"16","01_ages_17":"17","01_ages_18":"18","02":"Yes","02_ages_1":"1","02_ages_2":"2","02_ages_3":"3","02_ages_4":"4","02_ages_5":"5","02_ages_6":"6","02_ages_7":"7","02_ages_8":"8","02_ages_9":"9","02_ages_10":"10","02_ages_11":"11","02_ages_12":"12","02_ages_13":"13","02_ages_14":"14","02_ages_15":"15","02_ages_16":"16","02_ages_17":"17","02_ages_18":"18","03":"Yes","03_ages_10":"10","03_ages_11":"11","03_ages_12":"12","03_ages_13":"13","03_ages_14":"14","03_ages_15":"15","03_ages_16":"16","03_ages_17":"17","03_ages_18":"18","04":"Yes","04_ages_10":"10","04_ages_11":"11","04_ages_12":"12","04_ages_13":"13","04_ages_14":"14","04_ages_15":"15","04_ages_16":"16","04_ages_17":"17","04_ages_18":"18"},"rt":97299,"item_order":[0,1,2,3],"radio_events":[5908.4000000059605,27590.40000000596,44782,67927],"checkbox_events":[8077.199999988079,8750.90000000596,9298.40000000596,9756.199999988079,10302.90000000596,11025.59999999404,11620.199999988079,12061.699999988079,12970.09999999404,13347.299999982119,14456.199999988079,14889.59999999404,15620.699999988079,16109.5,16745.29999998212,17322.59999999404,18219.29999998212,18586,19541,20842.5,21204.09999999404,21629.09999999404,22240.19999998808,22674.19999998808,29189.29999998212,29607.09999999404,30185.09999999404,30690.19999998808,31816.09999999404,32353.29999998212,32876.59999999404,34354.5,34869.19999998808,35454,35993.40000000596,36474.09999999404,37046,37687.69999998808,38210.19999998808,39021.59999999404,39568.19999998808,40114,56590,57008.29999998212,57852,58269,59321.79999998212,59763.09999999404,60349.79999998212,62648.09999999404,63106.69999998808,63603.29999998212,64094.5,64672.79999998212,76876.40000000596,77261.79999998212,77904.5,78812.29999998212,80161.69999998808,80643.90000000596,81117.59999999404,81873.19999998808,82547,86813.69999998808,88171.09999999404,90484.79999998212,92252.40000000596,94822.29999998212,95231.69999998808,95714.40000000596],"key_events":[],"mouse_events":[5908.4000000059605,7049,8077.199999988079,8422.40000000596,8750.90000000596,9298.40000000596,9756.199999988079,10302.90000000596,11025.59999999404,11620.199999988079,12061.699999988079,12526.699999988079,12970.09999999404,13347.299999982119,14456.199999988079,14889.59999999404,15315.40000000596,15620.699999988079,16109.5,16745.29999998212,17322.59999999404,18219.29999998212,18586,19541,19982.59999999404,20528.79999998212,20842.5,21204.09999999404,21629.09999999404,22240.19999998808,22674.19999998808,26689.69999998808,27590.40000000596,29189.29999998212,29607.09999999404,30185.09999999404,30690.19999998808,31222.09999999404,31816.09999999404,32353.29999998212,32876.59999999404,33493.79999998212,34354.5,34869.19999998808,35454,35993.40000000596,36474.09999999404,37046,37687.69999998808,38210.19999998808,39021.59999999404,39568.19999998808,40114,40506.59999999404,44782,50316.79999998212,55593.59999999404,55979.79999998212,56590,57008.29999998212,57432.5,57852,58269,59321.79999998212,59763.09999999404,60349.79999998212,60904.29999998212,61450.90000000596,62648.09999999404,63106.69999998808,63603.29999998212,64094.5,64672.79999998212,65186.5,67927,70015.19999998808,76876.40000000596,77261.79999998212,77904.5,78345.59999999404,78812.29999998212,79198.09999999404,79583.69999998808,80161.69999998808,80643.90000000596,81117.59999999404,81873.19999998808,82547,86162.59999999404,86813.69999998808,88171.09999999404,90484.79999998212,92252.40000000596,94822.29999998212,95231.69999998808,95714.40000000596,96605.09999999404,97296.5],"honeypot":0,"survey":"mace","page":8,"trial_type":"survey-mace","trial_index":16,"time_elapsed":840376,"internal_node_id":"0.0-16.0","task_version":"prescreen-v0.3","browser_interactions":0},{"responses":{"01":"Yes","01_ages_1":"1","01_ages_2":"2","01_ages_3":"3","01_ages_4":"4","02":"No","03":"No","04":"No"},"rt":50366.09999999404,"item_order":[0,1,2,3],"radio_events":[22630,36192.70000001788,39181,46941],"checkbox_events":[29813.80000001192,30207.59999999404,30641.40000000596,31220.20000001788,31845.59999999404,32716.80000001192],"key_events":[],"mouse_events":[22630,29813.80000001192,30207.59999999404,30641.40000000596,31220.20000001788,31845.59999999404,32716.80000001192,36192.70000001788,39181,46322,46941,50363.20000001788],"honeypot":0,"survey":"mace","page":9,"trial_type":"survey-mace","trial_index":17,"time_elapsed":890747,"internal_node_id":"0.0-17.0","task_version":"prescreen-v0.3","browser_interactions":0},{"responses":{"01":"No","02":"No","03":"No","04":"No","05":"No","06":"Yes","06_ages_17":"17","07":"No","08":"No"},"rt":20451.09999999404,"item_order":[0,1,2,3,4,5,6,7],"radio_events":[2096.0999999940395,3099.2999999821186,4649.5999999940395,8651.299999982119,10683.90000000596,12764.299999982119,18644.69999998808,19762],"checkbox_events":[15263.59999999404],"key_events":[],"mouse_events":[2096.0999999940395,3099.2999999821186,4649.5999999940395,5099.5999999940395,8651.299999982119,10683.90000000596,12764.299999982119,15263.59999999404,15736.699999988079,18644.69999998808,19762,20445.40000000596],"honeypot":0,"survey":"mace","page":10,"trial_type":"survey-mace","trial_index":18,"time_elapsed":911204,"internal_node_id":"0.0-18.0","task_version":"prescreen-v0.3","browser_interactions":0,"instructed":0},{"rt":6855.5,"trial_type":"mental-health-alert","trial_index":19,"time_elapsed":918061,"internal_node_id":"0.0-19.0","task_version":"prescreen-v0.3","interactions":"[]"}]