[{"view_history":[{"page_index":0,"viewing_time":295523.7000000477},{"page_index":1,"viewing_time":1602},{"page_index":2,"viewing_time":2756.1999999284744},{"page_index":3,"viewing_time":1443.1000000238419}],"rt":301325.60000002384,"trial_type":"instructions","trial_index":0,"time_elapsed":301337,"internal_node_id":"0.0-0.0","task_version":"prescreen-v0.3"},{"rt":11790.200000047684,"responses":{"age":"35","gender-categorical":"Male","gender-free-response":"","ethnicity":"Not Hispanic or Latino","race":["White"],"education":"High school","siblings":"1"},"trial_type":"survey-demo","trial_index":1,"time_elapsed":313132,"internal_node_id":"0.0-1.0","task_version":"prescreen-v0.3"},{"responses":{"Q16":"1","Q19":"2","Q06":"1","Q03":"0","Q17":"1","Q08":"1","Q02":"1","Q14":"2","Q05":"2","Q10":"2","Q07":"0","Q21":"3","Q11":"3","Q04":"2","Q13":"2","Q20":"0","Q12":"1","Q09":"2","Q18":"1","Q01":"1","Q15":"3"},"rt":880442.3999999762,"item_order":[15,18,5,2,16,7,1,13,4,9,6,20,10,3,12,19,11,8,17,0,14],"radio_events":[78048,82838.60000002384,91595.29999995232,115241.5,788017.3999999762,790618.7999999523,798374.5,800271.5,802191.6999999285,808234.2999999523,821558.1000000238,824120.5,827020.7999999523,828118.7999999523,866257.1000000238,867608.1000000238,871009.5,874729.8999999762,875636.7999999523,877823,879634.1999999285],"key_events":[],"mouse_events":[77413.69999992847,78048,82838.60000002384,90218.5,90784.10000002384,91239,91595.29999995232,113501,114081.79999995232,115241.5,787150.1000000238,788017.3999999762,790618.7999999523,798374.5,800271.5,802191.6999999285,805032.5,806190.5,808234.2999999523,820496.5,821558.1000000238,822821.6999999285,823303.5,824120.5,825018.8999999762,826629.6000000238,827020.7999999523,828118.7999999523,865860.1000000238,866257.1000000238,867608.1000000238,871009.5,873010.1000000238,874366,874729.8999999762,875636.7999999523,877823,879634.1999999285,880440.8999999762],"straightlining":0.38095238095238093,"zigzagging":0.5,"honeypot":0,"survey":"sns","trial_type":"survey-template","trial_index":2,"time_elapsed":1193579,"internal_node_id":"0.0-2.0","task_version":"prescreen-v0.3","browser_interactions":24,"infrequency":0},{"responses":{"Q11":"1","Q01":"3","Q08":"2","Q12":"0","Q04":"3","Q06":"2","Q02":"2","Q05":"2","Q13":"0","Q09":"1","Q10":"2","Q03":"2","Q07":"2"},"rt":48776.5,"item_order":[10,0,7,11,3,5,1,4,12,8,9,2,6],"radio_events":[4155.299999952316,7100.600000023842,10257.799999952316,11292.799999952316,15281.200000047684,30950.799999952316,32117.399999976158,35919,38703.200000047684,40583.799999952316,41895.39999997616,44643.89999997616,47933.89999997616],"key_events":[],"mouse_events":[4155.299999952316,6487.700000047684,7100.600000023842,8684.899999976158,9637.799999952316,10257.799999952316,11013.899999976158,11292.799999952316,15281.200000047684,25882.200000047684,30950.799999952316,32117.399999976158,35919,38703.200000047684,40583.799999952316,41895.39999997616,44643.89999997616,46950.10000002384,47543,47933.89999997616,48775.39999997616],"straightlining":0.5384615384615384,"zigzagging":0.4166666666666667,"honeypot":0,"survey":"bisbas","trial_type":"survey-template","trial_index":3,"time_elapsed":1242360,"internal_node_id":"0.0-3.0","task_version":"prescreen-v0.3","browser_interactions":0,"infrequency":0},{"responses":{"Q01":"2","Q02":"2","Q03":"2"},"rt":13188.100000023842,"radio_events":[3783,8211.200000047684,11591.5],"key_events":[],"mouse_events":[3333.7000000476837,3783,7496.200000047684,8211.200000047684,11591.5,13187.299999952316],"survey":"map","page":1,"trial_type":"survey-map","trial_index":4,"time_elapsed":1255551,"internal_node_id":"0.0-4.0","task_version":"prescreen-v0.3","browser_interactions":0},{"responses":{"Q04":"3","Q05":"3","Q06":"3"},"rt":11024.299999952316,"radio_events":[4942.100000023842,8888.5,10185.899999976158],"key_events":[],"mouse_events":[4942.100000023842,8888.5,10185.899999976158,11023.899999976158],"survey":"map","page":2,"trial_type":"survey-map","trial_index":5,"time_elapsed":1266578,"internal_node_id":"0.0-5.0","task_version":"prescreen-v0.3","browser_interactions":0},{"responses":{"Q07":"4","Q08":"2","Q09":"2"},"rt":12388.300000071526,"radio_events":[5699.300000071526,10394.600000023842,11559],"key_events":[],"mouse_events":[3980.4000000953674,5699.300000071526,10394.600000023842,11559,12387.900000095367],"survey":"map","page":3,"trial_type":"survey-map","trial_index":6,"time_elapsed":1278967,"internal_node_id":"0.0-6.0","task_version":"prescreen-v0.3","browser_interactions":0},{"responses":{"Q10":"1","Q11":"2","Q12":"1","Q13":"2","Q16":"0","Q14":"3","Q15":"3"},"rt":130494.20000004768,"radio_events":[82350.39999997616,99882.10000002384,114900.60000002384,118038.39999997616,121230.20000004768,125725.80000007153,128431.70000004768],"key_events":[],"mouse_events":[82350.39999997616,97387.39999997616,98085.20000004768,98575,98978,99361.30000007153,99882.10000002384,114900.60000002384,117604,118038.39999997616,121230.20000004768,125725.80000007153,128431.70000004768,130493.5],"survey":"map","page":4,"trial_type":"survey-map","trial_index":7,"time_elapsed":1409464,"internal_node_id":"0.0-7.0","task_version":"prescreen-v0.3","browser_interactions":8,"infrequency":0},{"view_history":[{"page_index":0,"viewing_time":2861.5},{"page_index":1,"viewing_time":2905.3000000715256}],"rt":5767.399999976158,"trial_type":"instructions","trial_index":8,"time_elapsed":1415233,"internal_node_id":"0.0-8.0","task_version":"prescreen-v0.3"},{"responses":{"01":"No","02":"No","03":"No","04":"No","05":"No","06":"Yes","06_ages_8":"8","06_ages_9":"9","06_ages_10":"10","06_ages_11":"11","06_ages_12":"12","06_ages_13":"13"},"rt":31867.200000047684,"item_order":[0,1,2,3,4,5],"radio_events":[11954.300000071526,13124.200000047684,14003.200000047684,18966.600000023842,19395.899999976158,20404.899999976158],"checkbox_events":[26603.399999976158,27248.399999976158,28651.200000047684,29384.5,29762.5,30882.5],"key_events":[],"mouse_events":[1.8000000715255737,10942.5,11954.300000071526,13124.200000047684,14003.200000047684,15717.700000047684,16613.700000047684,17164.700000047684,17923.800000071526,18966.600000023842,19395.899999976158,20404.899999976158,26603.399999976158,27248.399999976158,27675.800000071526,28299.700000047684,28651.200000047684,29058.600000023842,29384.5,29762.5,30588.899999976158,30882.5,31865.300000071526],"honeypot":0,"survey":"mace","page":1,"trial_type":"survey-mace","trial_index":9,"time_elapsed":1447106,"internal_node_id":"0.0-9.0","task_version":"prescreen-v0.3","browser_interactions":0},{"responses":{"01":"Yes","01_ages_8":"8","01_ages_9":"9","01_ages_10":"10","01_ages_11":"11","01_ages_12":"12","01_ages_13":"13","02":"No","03":"Yes","03_ages_7":"7","03_ages_8":"8","03_ages_9":"9","03_ages_10":"10","04":"No","05":"Yes","05_ages_7":"7","05_ages_8":"8","05_ages_9":"9","05_ages_10":"10","06":"No","07":"No","08":"No"},"rt":36132.39999997616,"item_order":[0,1,2,3,4,5,6,7],"radio_events":[5391.099999904633,14728.5,16212.599999904633,25197.399999976158,26760.699999928474,32761.299999952316,34272.5,35320.299999952316],"checkbox_events":[7213,7791,8185,8643.199999928474,10045.299999952316,10520.299999952316,17724,18605.099999904633,19003,19912.5,27624.699999928474,27973.699999928474,28305.599999904633,28756.899999976158],"key_events":[],"mouse_events":[5391.099999904633,7213,7791,8185,8643.199999928474,9358.799999952316,10045.299999952316,10520.299999952316,14728.5,15466.199999928474,16212.599999904633,17724,18605.099999904633,19003,19912.5,23767.799999952316,25197.399999976158,26760.699999928474,27624.699999928474,27973.699999928474,28305.599999904633,28756.899999976158,31268.699999928474,32761.299999952316,33388.59999990463,33718.39999997616,34272.5,34990.799999952316,35320.299999952316,36129.799999952316],"honeypot":0,"survey":"mace","page":2,"trial_type":"survey-mace","trial_index":10,"time_elapsed":1483241,"internal_node_id":"0.0-10.0","task_version":"prescreen-v0.3","browser_interactions":0},{"responses":{"01":"No","02":"No","03":"No","04":"No"},"rt":10490.100000023842,"item_order":[0,1,2,3],"radio_events":[7117,7697,8666.200000047684,9432.100000023842],"checkbox_events":[],"key_events":[],"mouse_events":[7117,7697,8666.200000047684,9432.100000023842,10488.600000023842],"honeypot":0,"survey":"mace","page":3,"trial_type":"survey-mace","trial_index":11,"time_elapsed":1493733,"internal_node_id":"0.0-11.0","task_version":"prescreen-v0.3","browser_interactions":0},{"responses":{"01":"No","02":"No"},"rt":4848.899999976158,"item_order":[0,1],"radio_events":[2669.6999999284744,4207.899999976158],"checkbox_events":[],"key_events":[],"mouse_events":[1895.6999999284744,2669.6999999284744,3379.7999999523163,4207.899999976158,4848.199999928474],"honeypot":0,"survey":"mace","page":4,"trial_type":"survey-mace","trial_index":12,"time_elapsed":1498584,"internal_node_id":"0.0-12.0","task_version":"prescreen-v0.3","browser_interactions":0},{"responses":{"01":"No","02":"No","03":"No","04":"No","05":"No"},"rt":10514.5,"item_order":[0,1,2,3,4],"radio_events":[2717.2999999523163,3956.399999976158,4941.299999952316,7227.399999976158,8687.699999928474],"checkbox_events":[],"key_events":[],"mouse_events":[2717.2999999523163,3554.600000023842,3956.399999976158,4389.600000023842,4941.299999952316,5791.799999952316,6323.600000023842,6824.699999928474,7227.399999976158,8687.699999928474,10512.5],"honeypot":0,"survey":"mace","page":5,"trial_type":"survey-mace","trial_index":13,"time_elapsed":1509101,"internal_node_id":"0.0-13.0","task_version":"prescreen-v0.3","browser_interactions":0},{"responses":{"01":"Yes","01_ages_12":"12","01_ages_13":"13","01_ages_14":"14","02":"Yes","02_ages_12":"12","02_ages_13":"13","02_ages_14":"14","03":"Yes","03_ages_12":"12","03_ages_13":"13","03_ages_14":"14","03_ages_15":"15","04":"No","05":"No"},"rt":27435.5,"item_order":[0,1,2,3,4],"radio_events":[6430.700000047684,13180.400000095367,17889.5,26264.200000047684,26856.400000095367],"checkbox_events":[8105.800000071526,8486.800000071526,9334.800000071526,14605.300000071526,15058.400000095367,16600.800000071526,19096.400000095367,19898.900000095367,20708.900000095367,21793.900000095367],"key_events":[],"mouse_events":[5963.900000095367,6430.700000047684,8105.800000071526,8486.800000071526,8876.100000023842,9334.800000071526,13180.400000095367,14229.700000047684,14605.300000071526,15058.400000095367,15581.600000023842,16600.800000071526,17889.5,19096.400000095367,19580.100000023842,19898.900000095367,20298,20708.900000095367,21793.900000095367,25511.900000095367,26264.200000047684,26856.400000095367,27433.800000071526],"honeypot":0,"survey":"mace","page":6,"trial_type":"survey-mace","trial_index":14,"time_elapsed":1536540,"internal_node_id":"0.0-14.0","task_version":"prescreen-v0.3","browser_interactions":0},{"responses":{"01":"No","02":"No","03":"Yes","03_ages_10":"10","03_ages_11":"11","03_ages_12":"12","03_ages_13":"13","03_ages_14":"14","03_ages_15":"15","04":"Yes","04_ages_12":"12","04_ages_13":"13","04_ages_14":"14","04_ages_15":"15","05":"No","06":"No","07":"No"},"rt":20551.599999904633,"item_order":[0,1,2,3,4,5,6],"radio_events":[5661.699999928474,6320.599999904633,7895.899999976158,12029.299999952316,17725.599999904633,19228.599999904633,19733.5],"checkbox_events":[8532,8935,9289.799999952316,9688.099999904633,10011.699999928474,10419.5,13341.199999928474,14003.099999904633,14534.5,14931.299999952316],"key_events":[],"mouse_events":[4329.199999928474,5203.199999928474,5661.699999928474,6320.599999904633,7895.899999976158,8532,8935,9289.799999952316,9688.099999904633,10011.699999928474,10419.5,12029.299999952316,13341.199999928474,13715,14003.099999904633,14534.5,14931.299999952316,17725.599999904633,18659.299999952316,19228.599999904633,19733.5,20549.299999952316],"honeypot":0,"survey":"mace","page":7,"trial_type":"survey-mace","trial_index":15,"time_elapsed":1557095,"internal_node_id":"0.0-15.0","task_version":"prescreen-v0.3","browser_interactions":0},{"responses":{"01":"No","02":"No","03":"No","04":"No"},"rt":10087,"item_order":[0,1,2,3],"radio_events":[3986.600000023842,6055.100000023842,8936.200000047684,9545.299999952316],"checkbox_events":[],"key_events":[],"mouse_events":[2558.899999976158,3309.899999976158,3986.600000023842,4648.100000023842,6055.100000023842,7767.200000047684,8416.100000023842,8936.200000047684,9545.299999952316,10085.5],"honeypot":0,"survey":"mace","page":8,"trial_type":"survey-mace","trial_index":16,"time_elapsed":1567184,"internal_node_id":"0.0-16.0","task_version":"prescreen-v0.3","browser_interactions":0},{"responses":{"01":"Yes","01_ages_8":"8","01_ages_9":"9","01_ages_10":"10","01_ages_11":"11","01_ages_12":"12","01_ages_13":"13","01_ages_14":"14","01_ages_15":"15","01_ages_16":"16","01_ages_17":"17","01_ages_18":"18","02":"Yes","02_ages_8":"8","02_ages_9":"9","02_ages_10":"10","02_ages_11":"11","02_ages_12":"12","02_ages_13":"13","02_ages_14":"14","02_ages_15":"15","02_ages_16":"16","02_ages_17":"17","02_ages_18":"18","03":"Yes","03_ages_1":"1","03_ages_2":"2","03_ages_3":"3","03_ages_4":"4","03_ages_5":"5","03_ages_6":"6","03_ages_7":"7","03_ages_8":"8","03_ages_9":"9","03_ages_10":"10","03_ages_11":"11","03_ages_12":"12","03_ages_13":"13","03_ages_14":"14","03_ages_15":"15","03_ages_16":"16","03_ages_17":"17","03_ages_18":"18","04":"Yes","04_ages_8":"8"},"rt":55867.60000002384,"item_order":[0,1,2,3],"radio_events":[3227.5,18649.600000023842,32269,50804.5],"checkbox_events":[7004.700000047684,7951.800000071526,8388.5,9217.900000095367,9982.700000047684,10478.900000095367,11187,11550.200000047684,11925.200000047684,12305.800000071526,13377.300000071526,14915.300000071526,15252.600000023842,16238.200000047684,16579.600000023842,19359.600000023842,24817.100000023842,25293.400000095367,25617.100000023842,25932.300000071526,26274.200000047684,26598.300000071526,27621.200000047684,27971.200000047684,29003.5,29412.5,33341,33762.800000071526,34376.200000047684,35107.10000002384,35619.40000009537,36065.200000047684,36423,38053.300000071526,38555.200000047684,40000.5,40372.300000071526,40786.5,41208.700000047684,41580.700000047684,41960.5,42401.60000002384,42789.60000002384,43281.800000071526,54128.700000047684],"key_events":[],"mouse_events":[2886.5,3227.5,7004.700000047684,7951.800000071526,8388.5,8899.800000071526,9217.900000095367,9693,9982.700000047684,10478.900000095367,11187,11550.200000047684,11925.200000047684,12305.800000071526,13377.300000071526,14056,14915.300000071526,15252.600000023842,16238.200000047684,16579.600000023842,18649.600000023842,19359.600000023842,24078.600000023842,24817.100000023842,25293.400000095367,25617.100000023842,25932.300000071526,26274.200000047684,26598.300000071526,26930.300000071526,27250.300000071526,27621.200000047684,27971.200000047684,28489.600000023842,29003.5,29412.5,31824.800000071526,32269,32992.40000009537,33341,33762.800000071526,34376.200000047684,34856,35107.10000002384,35619.40000009537,36065.200000047684,36423,36786.40000009537,37141.40000009537,38053.300000071526,38555.200000047684,39687.800000071526,40000.5,40372.300000071526,40786.5,41208.700000047684,41580.700000047684,41960.5,42401.60000002384,42789.60000002384,43281.800000071526,50804.5,53199.800000071526,53593.60000002384,54128.700000047684,55866.10000002384],"honeypot":0,"survey":"mace","page":9,"trial_type":"survey-mace","trial_index":17,"time_elapsed":1623054,"internal_node_id":"0.0-17.0","task_version":"prescreen-v0.3","browser_interactions":0},{"responses":{"01":"No","02":"No","03":"No","04":"Yes","04_ages_14":"14","04_ages_15":"15","05":"No","06":"Yes","06_ages_17":"17","07":"Yes","07_ages_10":"10","07_ages_11":"11","07_ages_12":"12","07_ages_13":"13","07_ages_14":"14","07_ages_15":"15","07_ages_16":"16","07_ages_17":"17","07_ages_18":"18","08":"Yes","08_ages_14":"14","08_ages_15":"15","08_ages_16":"16","08_ages_17":"17","08_ages_18":"18"},"rt":34914.09999990463,"item_order":[0,1,2,3,4,5,6,7],"radio_events":[2892.7999999523163,3728,6630,7399.099999904633,12917.5,14457.699999928474,18226.899999976158,29020.599999904633],"checkbox_events":[9088.199999928474,9670.099999904633,16161.699999928474,20145,20969.099999904633,22592.5,23201.5,23730.299999952316,24904.399999976158,25443.5,26394.599999904633,27187.899999976158,31107.299999952316,31527.199999928474,31915.199999928474,32669.199999928474,33682.5],"key_events":[],"mouse_events":[1916.5,2892.7999999523163,3728,4851,6264.199999928474,6630,7399.099999904633,8307.799999952316,8805.399999976158,9088.199999928474,9670.099999904633,12917.5,14457.699999928474,16161.699999928474,18226.899999976158,20145,20465.799999952316,20969.099999904633,22113.899999976158,22592.5,23201.5,23730.299999952316,24104,24488.5,24904.399999976158,25443.5,25995,26394.599999904633,27187.899999976158,29020.599999904633,30426.199999928474,31107.299999952316,31527.199999928474,31915.199999928474,32358.299999952316,32669.199999928474,33210.59999990463,33682.5,34911.59999990463],"honeypot":0,"survey":"mace","page":10,"trial_type":"survey-mace","trial_index":18,"time_elapsed":1657973,"internal_node_id":"0.0-18.0","task_version":"prescreen-v0.3","browser_interactions":0,"instructed":0},{"rt":2008.2999999523163,"trial_type":"mental-health-alert","trial_index":19,"time_elapsed":1659982,"internal_node_id":"0.0-19.0","task_version":"prescreen-v0.3","interactions":"[{\"event\":\"blur\",\"trial\":0,\"time\":12190},{\"event\":\"focus\",\"trial\":0,\"time\":207967},{\"event\":\"blur\",\"trial\":0,\"time\":208855},{\"event\":\"focus\",\"trial\":0,\"time\":293244},{\"event\":\"blur\",\"trial\":2,\"time\":320565},{\"event\":\"focus\",\"trial\":2,\"time\":390367},{\"event\":\"blur\",\"trial\":2,\"time\":412312},{\"event\":\"focus\",\"trial\":2,\"time\":426498},{\"event\":\"blur\",\"trial\":2,\"time\":430442},{\"event\":\"focus\",\"trial\":2,\"time\":591642},{\"event\":\"blur\",\"trial\":2,\"time\":593617},{\"event\":\"focus\",\"trial\":2,\"time\":614612},{\"event\":\"blur\",\"trial\":2,\"time\":614613},{\"event\":\"focus\",\"trial\":2,\"time\":619507},{\"event\":\"blur\",\"trial\":2,\"time\":625092},{\"event\":\"focus\",\"trial\":2,\"time\":794566},{\"event\":\"blur\",\"trial\":2,\"time\":814576},{\"event\":\"focus\",\"trial\":2,\"time\":819728},{\"event\":\"blur\",\"trial\":2,\"time\":824088},{\"event\":\"focus\",\"trial\":2,\"time\":1093800},{\"event\":\"blur\",\"trial\":2,\"time\":1095872},{\"event\":\"focus\",\"trial\":2,\"time\":1100132},{\"event\":\"blur\",\"trial\":2,\"time\":1127588},{\"event\":\"focus\",\"trial\":2,\"time\":1133513},{\"event\":\"blur\",\"trial\":2,\"time\":1143846},{\"event\":\"focus\",\"trial\":2,\"time\":1164577},{\"event\":\"blur\",\"trial\":2,\"time\":1164580},{\"event\":\"focus\",\"trial\":2,\"time\":1178853},{\"event\":\"blur\",\"trial\":7,\"time\":1283212},{\"event\":\"focus\",\"trial\":7,\"time\":1286658},{\"event\":\"blur\",\"trial\":7,\"time\":1286665},{\"event\":\"focus\",\"trial\":7,\"time\":1349030},{\"event\":\"blur\",\"trial\":7,\"time\":1366193},{\"event\":\"focus\",\"trial\":7,\"time\":1376250},{\"event\":\"blur\",\"trial\":7,\"time\":1381015},{\"event\":\"focus\",\"trial\":7,\"time\":1388454}]"}]