[{"view_history":[{"page_index":0,"viewing_time":4427.5},{"page_index":1,"viewing_time":2460.399999999907},{"page_index":2,"viewing_time":20142},{"page_index":3,"viewing_time":1568.6999999997206}],"rt":28603.19999999972,"trial_type":"instructions","trial_index":0,"time_elapsed":28620,"internal_node_id":"0.0-0.0","task_version":"prescreen-v0.3"},{"rt":28021.30000000028,"responses":{"age":"27","gender-categorical":"Male","gender-free-response":"","ethnicity":"Hispanic or Latino","race":["Black or African American"],"education":"Master degree or higher","siblings":"1"},"trial_type":"survey-demo","trial_index":1,"time_elapsed":56664,"internal_node_id":"0.0-1.0","task_version":"prescreen-v0.3"},{"responses":{"Q13":"1","Q11":"2","Q05":"1","Q20":"0","Q14":"2","Q15":"0","Q16":"0","Q21":"0","Q17":"0","Q01":"2","Q08":"0","Q07":"0","Q03":"2","Q04":"1","Q18":"0","Q09":"2","Q12":"1","Q10":"0","Q06":"0","Q19":"0","Q02":"1"},"rt":317787.2999999998,"item_order":[12,10,4,19,13,14,15,20,16,0,7,6,2,3,17,8,11,9,5,18,1],"radio_events":[8913,11792.100000000093,20039.5,24860,50039.799999999814,54490.799999999814,60038.799999999814,62700.299999999814,98723.29999999981,188502.2000000002,191901.40000000037,204571.5,207909,218650.2999999998,224939.90000000037,235734.7000000002,238115,272461.7000000002,283539.5,305633.4000000004,308042.9000000004,309636.7999999998,316622.2000000002],"key_events":[],"mouse_events":[4796.700000000186,7475.700000000186,8913,11792.100000000093,20039.5,23431.799999999814,24860,50039.799999999814,52463.89999999991,54490.799999999814,56863.5,57836.299999999814,59119.799999999814,60038.799999999814,61345.5,62700.299999999814,98723.29999999981,188502.2000000002,191901.40000000037,200536.90000000037,202201.2000000002,203164.90000000037,204571.5,206363.7999999998,207909,218650.2999999998,224939.90000000037,234466.5,235734.7000000002,238115,270417.7000000002,272461.7000000002,280406,282187.9000000004,283539.5,305633.4000000004,308042.9000000004,309636.7999999998,316622.2000000002,317782.4000000004],"straightlining":0.5238095238095238,"zigzagging":0.4,"honeypot":0,"survey":"sns","trial_type":"survey-template","trial_index":2,"time_elapsed":374478,"internal_node_id":"0.0-2.0","task_version":"prescreen-v0.3","browser_interactions":2,"infrequency":1},{"responses":{"Q10":"2","Q09":"3","Q06":"2","Q12":"2","Q08":"2","Q02":"1","Q13":"0","Q04":"3","Q05":"2","Q01":"2","Q11":"2","Q07":"2","Q03":"1"},"rt":73712,"item_order":[9,8,5,11,7,1,12,3,4,0,10,6,2],"radio_events":[7810.699999999255,13026.199999999255,18163,20580.39999999944,29299.799999999814,35223.89999999944,38299,45531,57295.09999999963,60942.199999999255,63530.89999999944,68145.79999999981,71345.39999999944,72639],"key_events":[],"mouse_events":[42.39999999944121,7810.699999999255,11178.5,13026.199999999255,18163,20580.39999999944,22704.099999999627,24399,25738.099999999627,27867.599999999627,29299.799999999814,33242.5,35223.89999999944,38299,41750.09999999963,45531,55533.799999999814,57295.09999999963,60942.199999999255,63530.89999999944,64957.799999999814,67127.79999999981,68145.79999999981,71345.39999999944,72639,73702.79999999981],"straightlining":0.6153846153846154,"zigzagging":0.5833333333333334,"honeypot":0,"survey":"bisbas","trial_type":"survey-template","trial_index":3,"time_elapsed":448214,"internal_node_id":"0.0-3.0","task_version":"prescreen-v0.3","browser_interactions":0,"infrequency":0},{"responses":{"Q01":"3","Q02":"2","Q03":"3"},"rt":32539.700000000186,"radio_events":[5676.100000000559,25407.60000000056,28147],"key_events":[],"mouse_events":[4487.5,5676.100000000559,21810.60000000056,23367.299999999814,24264.10000000056,25407.60000000056,28147,32535.799999999814],"survey":"map","page":1,"trial_type":"survey-map","trial_index":4,"time_elapsed":480780,"internal_node_id":"0.0-4.0","task_version":"prescreen-v0.3","browser_interactions":2},{"responses":{"Q04":"3","Q05":"3","Q06":"3"},"rt":11001.299999999814,"radio_events":[3377.9000000003725,7834.799999999814,9710.599999999627],"key_events":[],"mouse_events":[3377.9000000003725,6473.4000000003725,7834.799999999814,9710.599999999627,11000.099999999627],"survey":"map","page":2,"trial_type":"survey-map","trial_index":5,"time_elapsed":491799,"internal_node_id":"0.0-5.0","task_version":"prescreen-v0.3","browser_interactions":0},{"responses":{"Q07":"3","Q08":"2","Q09":"3"},"rt":13235.599999999627,"radio_events":[4150.799999999814,7303.0999999996275,9680.200000000186],"key_events":[],"mouse_events":[4150.799999999814,5860.799999999814,7303.0999999996275,9680.200000000186,13233.5],"survey":"map","page":3,"trial_type":"survey-map","trial_index":6,"time_elapsed":505048,"internal_node_id":"0.0-6.0","task_version":"prescreen-v0.3","browser_interactions":0},{"responses":{"Q10":"3","Q11":"3","Q12":"3","Q13":"4","Q16":"0","Q14":"0","Q15":"1"},"rt":88625.20000000019,"radio_events":[13770.400000000373,17451.700000000186,23691.900000000373,75371.59999999963,83706.79999999981,85524,87223.70000000019],"key_events":[],"mouse_events":[13770.400000000373,17451.700000000186,23691.900000000373,34270.90000000037,36347.5,38580.40000000037,75371.59999999963,78788.29999999981,83706.79999999981,85524,87223.70000000019,88617.29999999981],"survey":"map","page":4,"trial_type":"survey-map","trial_index":7,"time_elapsed":593694,"internal_node_id":"0.0-7.0","task_version":"prescreen-v0.3","browser_interactions":2,"infrequency":0},{"view_history":[{"page_index":0,"viewing_time":2313.399999999441},{"page_index":1,"viewing_time":1596.1000000005588}],"rt":3912.2999999998137,"trial_type":"instructions","trial_index":8,"time_elapsed":597619,"internal_node_id":"0.0-8.0","task_version":"prescreen-v0.3"},{"responses":{"01":"No","01_ages_8":"8","01_ages_9":"9","01_ages_10":"10","01_ages_11":"11","02":"No","02_ages_10":"10","02_ages_11":"11","02_ages_12":"12","03":"No","04":"No","05":"No","06":"No"},"rt":58906.700000000186,"item_order":[0,1,2,3,4,5],"radio_events":[15947.799999999814,30946.900000000373,42530.40000000037,48678.799999999814,51642.09999999963,53728.299999999814,54931.799999999814,57106.200000000186],"checkbox_events":[19759,20710.400000000373,21769,24002.099999999627,34334.09999999963,36608,39059.200000000186],"key_events":[],"mouse_events":[30.40000000037253,3685.5999999996275,10322.200000000186,14136.099999999627,15947.799999999814,19759,20710.400000000373,21769,24002.099999999627,29645.799999999814,30946.900000000373,33043.5,34334.09999999963,36608,37596,39059.200000000186,42530.40000000037,48678.799999999814,51642.09999999963,53728.299999999814,54931.799999999814,57106.200000000186,58898.5],"honeypot":0,"survey":"mace","page":1,"trial_type":"survey-mace","trial_index":9,"time_elapsed":656554,"internal_node_id":"0.0-9.0","task_version":"prescreen-v0.3","browser_interactions":5},{"responses":{"01":"No","02":"No","03":"No","04":"No","05":"No","06":"No","07":"No","08":"No"},"rt":19894.700000000186,"item_order":[0,1,2,3,4,5,6,7],"radio_events":[2721.399999999441,5384.299999999814,6723,8048.299999999814,10426.5,13072.899999999441,14719.200000000186,17914.200000000186],"checkbox_events":[],"key_events":[],"mouse_events":[2721.399999999441,4418.399999999441,5384.299999999814,6723,8048.299999999814,10426.5,13072.899999999441,14719.200000000186,16190.399999999441,17914.200000000186,19886.599999999627],"honeypot":0,"survey":"mace","page":2,"trial_type":"survey-mace","trial_index":10,"time_elapsed":676475,"internal_node_id":"0.0-10.0","task_version":"prescreen-v0.3","browser_interactions":0},{"responses":{"01":"No","02":"No","03":"No","04":"No"},"rt":8331.5,"item_order":[0,1,2,3],"radio_events":[3684.5,5358.800000000745,6353.600000000559,7315.700000000186],"checkbox_events":[],"key_events":[],"mouse_events":[3684.5,5358.800000000745,6353.600000000559,7315.700000000186,8320.800000000745],"honeypot":0,"survey":"mace","page":3,"trial_type":"survey-mace","trial_index":11,"time_elapsed":684828,"internal_node_id":"0.0-11.0","task_version":"prescreen-v0.3","browser_interactions":0},{"responses":{"01":"No","02":"No"},"rt":7771.899999999441,"item_order":[0,1],"radio_events":[4623,6301.5999999996275],"checkbox_events":[],"key_events":[],"mouse_events":[4623,6301.5999999996275,7764.5],"honeypot":0,"survey":"mace","page":4,"trial_type":"survey-mace","trial_index":12,"time_elapsed":692629,"internal_node_id":"0.0-12.0","task_version":"prescreen-v0.3","browser_interactions":0},{"responses":{"01":"No","02":"No","03":"No","04":"No","05":"No"},"rt":13611.799999999814,"item_order":[0,1,2,3,4],"radio_events":[2223.2000000001863,4233.5999999996275,6591.799999999814,9415.5,11709.799999999814],"checkbox_events":[],"key_events":[],"mouse_events":[2223.2000000001863,4233.5999999996275,6591.799999999814,8223.200000000186,9415.5,10647.899999999441,11709.799999999814,13591.899999999441],"honeypot":0,"survey":"mace","page":5,"trial_type":"survey-mace","trial_index":13,"time_elapsed":706290,"internal_node_id":"0.0-13.0","task_version":"prescreen-v0.3","browser_interactions":0},{"responses":{"01":"Yes","01_ages_9":"9","01_ages_10":"10","01_ages_11":"11","01_ages_12":"12","02":"Yes","02_ages_8":"8","02_ages_9":"9","02_ages_12":"12","02_ages_13":"13","03":"Yes","03_ages_13":"13","04":"No","05":"No"},"rt":50361.40000000037,"item_order":[0,1,2,3,4],"radio_events":[6518.9000000003725,18037.299999999814,28287.10000000056,42735.299999999814,45761.299999999814,49259.90000000037],"checkbox_events":[7909,8781.400000000373,9941,12097.299999999814,20306,22454.60000000056,24915.900000000373,25969.5,33412.5],"key_events":[],"mouse_events":[5145.5,6518.9000000003725,7909,8781.400000000373,9941,12097.299999999814,18037.299999999814,20306,22454.60000000056,23824.400000000373,24915.900000000373,25969.5,27297.60000000056,28287.10000000056,30574.400000000373,31995.400000000373,33412.5,42735.299999999814,45761.299999999814,49259.90000000037,50347.5],"honeypot":0,"survey":"mace","page":6,"trial_type":"survey-mace","trial_index":14,"time_elapsed":756692,"internal_node_id":"0.0-14.0","task_version":"prescreen-v0.3","browser_interactions":0},{"responses":{"01":"No","02":"No","03":"No","04":"No","05":"No","06":"No","07":"No"},"rt":27623.60000000056,"item_order":[0,1,2,3,4,5,6],"radio_events":[5013.300000000745,7270.100000000559,8486.600000000559,9893.700000000186,20736.60000000056,22992.200000000186,24284.5],"checkbox_events":[],"key_events":[],"mouse_events":[5013.300000000745,7270.100000000559,8486.600000000559,9893.700000000186,18257.800000000745,20736.60000000056,22992.200000000186,24284.5,27605.700000000186],"honeypot":0,"survey":"mace","page":7,"trial_type":"survey-mace","trial_index":15,"time_elapsed":784360,"internal_node_id":"0.0-15.0","task_version":"prescreen-v0.3","browser_interactions":0},{"responses":{"01":"No","02":"No","03":"No","04":"No"},"rt":17373.099999999627,"item_order":[0,1,2,3],"radio_events":[6545.4000000003725,8885.099999999627,11992.400000000373,14748.200000000186],"checkbox_events":[],"key_events":[],"mouse_events":[6545.4000000003725,8885.099999999627,10581.400000000373,11992.400000000373,14748.200000000186,17360.599999999627],"honeypot":0,"survey":"mace","page":8,"trial_type":"survey-mace","trial_index":16,"time_elapsed":801760,"internal_node_id":"0.0-16.0","task_version":"prescreen-v0.3","browser_interactions":0},{"responses":{"01":"Yes","01_ages_1":"1","01_ages_2":"2","01_ages_3":"3","01_ages_4":"4","01_ages_5":"5","01_ages_6":"6","01_ages_7":"7","01_ages_8":"8","01_ages_9":"9","01_ages_10":"10","01_ages_11":"11","01_ages_12":"12","01_ages_13":"13","01_ages_14":"14","01_ages_15":"15","01_ages_16":"16","01_ages_17":"17","01_ages_18":"18","02":"Yes","02_ages_1":"1","02_ages_2":"2","02_ages_3":"3","02_ages_4":"4","02_ages_5":"5","02_ages_6":"6","02_ages_7":"7","02_ages_8":"8","02_ages_9":"9","02_ages_10":"10","02_ages_11":"11","02_ages_12":"12","02_ages_13":"13","02_ages_14":"14","02_ages_15":"15","02_ages_16":"16","02_ages_17":"17","02_ages_18":"18","03":"Yes","03_ages_1":"1","03_ages_2":"2","03_ages_3":"3","03_ages_4":"4","03_ages_5":"5","03_ages_6":"6","03_ages_7":"7","03_ages_8":"8","03_ages_9":"9","03_ages_10":"10","03_ages_11":"11","03_ages_12":"12","03_ages_13":"13","03_ages_14":"14","03_ages_15":"15","03_ages_16":"16","03_ages_17":"17","03_ages_18":"18","04":"Yes","04_ages_1":"1","04_ages_2":"2","04_ages_3":"3","04_ages_4":"4","04_ages_5":"5","04_ages_6":"6","04_ages_7":"7","04_ages_8":"8","04_ages_9":"9","04_ages_10":"10","04_ages_11":"11","04_ages_12":"12","04_ages_13":"13","04_ages_14":"14","04_ages_15":"15","04_ages_16":"16","04_ages_17":"17","04_ages_18":"18"},"rt":153917.7999999998,"item_order":[0,1,2,3],"radio_events":[5393.4000000003725,39352.90000000037,96627.70000000019,127424.5],"checkbox_events":[8766.299999999814,9035.799999999814,9898.900000000373,12645.200000000186,14299.5,14878.099999999627,16488.900000000373,17338.299999999814,18031.400000000373,21180.700000000186,22664.900000000373,24223.599999999627,25083.700000000186,27033.799999999814,29379.400000000373,30354.299999999814,31179.400000000373,32313,33280.700000000186,35713.90000000037,44365.59999999963,44888.40000000037,46590.799999999814,47316.700000000186,48873,50721.09999999963,51539.299999999814,52556.200000000186,53525,54294,55064.799999999814,56903.90000000037,58130.40000000037,59161.09999999963,61926.200000000186,64725.299999999814,65745.90000000037,68106.40000000037,97985.90000000037,99395.90000000037,100244.5,101015.59999999963,102045.90000000037,103259.09999999963,105903.70000000019,107534.59999999963,108781.29999999981,109655.40000000037,110924.90000000037,111911,113485.29999999981,114312.90000000037,115926.59999999963,116762.29999999981,117763,118548.40000000037,128993.59999999963,130033.79999999981,130700.29999999981,132131,133391.2000000002,135592.7999999998,136677.90000000037,138132.90000000037,138929.5,140017.7000000002,140971.40000000037,143165.09999999963,144709.5,146115.5,147161.09999999963,147859.5,148721.7999999998,151171.2999999998],"key_events":[],"mouse_events":[5393.4000000003725,8766.299999999814,9035.799999999814,9500.200000000186,9898.900000000373,12645.200000000186,13350.799999999814,13889.900000000373,14299.5,14878.099999999627,15636.400000000373,16488.900000000373,17338.299999999814,18031.400000000373,19093.099999999627,20215.400000000373,21180.700000000186,22664.900000000373,24223.599999999627,25083.700000000186,27033.799999999814,29379.400000000373,30354.299999999814,31179.400000000373,32313,33280.700000000186,34498.09999999963,35713.90000000037,39352.90000000037,42547.59999999963,43674,44365.59999999963,44888.40000000037,45499.90000000037,46590.799999999814,47316.700000000186,48873,50721.09999999963,51539.299999999814,52556.200000000186,53525,54294,55064.799999999814,56903.90000000037,58130.40000000037,59161.09999999963,61926.200000000186,63603.59999999963,64725.299999999814,65745.90000000037,68106.40000000037,96627.70000000019,97985.90000000037,98705,99395.90000000037,100244.5,101015.59999999963,102045.90000000037,103259.09999999963,104711.59999999963,105903.70000000019,106537.59999999963,107534.59999999963,108781.29999999981,109655.40000000037,110924.90000000037,111911,113485.29999999981,114312.90000000037,115126,115926.59999999963,116762.29999999981,117763,118548.40000000037,126928.59999999963,127424.5,128993.59999999963,130033.79999999981,130700.29999999981,132131,133391.2000000002,134684,135592.7999999998,136677.90000000037,138132.90000000037,138929.5,140017.7000000002,140971.40000000037,141979.5,143165.09999999963,144709.5,145648.2000000002,146115.5,147161.09999999963,147859.5,148721.7999999998,149856.90000000037,151171.2999999998,153907],"honeypot":0,"survey":"mace","page":9,"trial_type":"survey-mace","trial_index":17,"time_elapsed":955720,"internal_node_id":"0.0-17.0","task_version":"prescreen-v0.3","browser_interactions":0},{"responses":{"01":"No","02":"No","03":"No","04":"No","05":"No","06":"Yes","06_ages_17":"17","07":"Yes","07_ages_1":"1","07_ages_2":"2","07_ages_3":"3","07_ages_4":"4","07_ages_5":"5","07_ages_6":"6","07_ages_7":"7","07_ages_8":"8","07_ages_9":"9","07_ages_10":"10","07_ages_11":"11","07_ages_12":"12","07_ages_13":"13","07_ages_14":"14","07_ages_15":"15","07_ages_16":"16","07_ages_17":"17","07_ages_18":"18","08":"Yes","08_ages_1":"1","08_ages_2":"2","08_ages_3":"3","08_ages_4":"4","08_ages_5":"5","08_ages_6":"6","08_ages_7":"7","08_ages_8":"8","08_ages_9":"9","08_ages_10":"10","08_ages_11":"11","08_ages_12":"12","08_ages_13":"13","08_ages_14":"14","08_ages_15":"15","08_ages_16":"16","08_ages_17":"17","08_ages_18":"18"},"rt":95379,"item_order":[0,1,2,3,4,5,6,7],"radio_events":[2923.7000000001863,3601.100000000559,5348.5,6528.600000000559,9554.799999999814,12459.5,14780.100000000559,33295.799999999814,65230.90000000037],"checkbox_events":[17224.400000000373,36718.60000000056,38282.60000000056,38963.40000000037,39721.799999999814,41319.200000000186,42996.60000000056,44474.5,46346.40000000037,47139.700000000186,48178.5,50415.700000000186,51220,52404.10000000056,53169.40000000037,53965.200000000186,56265.40000000037,57480.60000000056,59546.40000000037,67238,69011.10000000056,69803.90000000037,71264.60000000056,72602.40000000037,73735.40000000037,74543.70000000019,75495.60000000056,76570.29999999981,77488.90000000037,78762.40000000037,79466.79999999981,80391.70000000019,81573.40000000037,82650.60000000056,83466.60000000056,84568.20000000019,85461.90000000037],"key_events":[],"mouse_events":[2923.7000000001863,3601.100000000559,4416.4000000003725,5348.5,6528.600000000559,7630.299999999814,9554.799999999814,12459.5,14383.299999999814,14780.100000000559,17224.400000000373,33295.799999999814,35037,35591.60000000056,36718.60000000056,37537.200000000186,38282.60000000056,38963.40000000037,39721.799999999814,41319.200000000186,42996.60000000056,44474.5,46346.40000000037,47139.700000000186,48178.5,49318.40000000037,50415.700000000186,51220,52404.10000000056,53169.40000000037,53965.200000000186,55220.10000000056,56265.40000000037,57480.60000000056,58569.299999999814,59546.40000000037,63815.40000000037,65230.90000000037,67238,68371.10000000056,69011.10000000056,69803.90000000037,71264.60000000056,72602.40000000037,73735.40000000037,74543.70000000019,75495.60000000056,76570.29999999981,77488.90000000037,78762.40000000037,79466.79999999981,80391.70000000019,81573.40000000037,82650.60000000056,83466.60000000056,84568.20000000019,85461.90000000037,89800.10000000056,91693.10000000056,95358.40000000037],"honeypot":0,"survey":"mace","page":10,"trial_type":"survey-mace","trial_index":18,"time_elapsed":1051153,"internal_node_id":"0.0-18.0","task_version":"prescreen-v0.3","browser_interactions":0,"instructed":0},{"rt":1849.5999999996275,"trial_type":"mental-health-alert","trial_index":19,"time_elapsed":1053027,"internal_node_id":"0.0-19.0","task_version":"prescreen-v0.3","interactions":"[{\"event\":\"blur\",\"trial\":2,\"time\":89843},{\"event\":\"focus\",\"trial\":2,\"time\":92562},{\"event\":\"blur\",\"trial\":4,\"time\":455902},{\"event\":\"focus\",\"trial\":4,\"time\":466677},{\"event\":\"blur\",\"trial\":7,\"time\":545797},{\"event\":\"focus\",\"trial\":7,\"time\":572079},{\"event\":\"blur\",\"trial\":9,\"time\":604524},{\"event\":\"focus\",\"trial\":9,\"time\":605772},{\"event\":\"blur\",\"trial\":9,\"time\":606374},{\"event\":\"focus\",\"trial\":9,\"time\":607779},{\"event\":\"focus\",\"trial\":9,\"time\":607779}]"}]