[{"view_history":[{"page_index":0,"viewing_time":3802.100000023842},{"page_index":1,"viewing_time":1740.7999999821186},{"page_index":2,"viewing_time":4285},{"page_index":3,"viewing_time":1142.7000000178814}],"rt":10971.700000017881,"trial_type":"instructions","trial_index":0,"time_elapsed":10985,"internal_node_id":"0.0-0.0","task_version":"prescreen-v0.3"},{"rt":20928.5,"responses":{"age":"22","gender-categorical":"Female","gender-free-response":"","ethnicity":"Not Hispanic or Latino","race":["White"],"education":"Some college"},"trial_type":"survey-demo","trial_index":1,"time_elapsed":31921,"internal_node_id":"0.0-1.0","task_version":"prescreen-v0.3"},{"responses":{"Q02":"1","Q17":"1","Q01":"1","Q15":"3","Q07":"1","Q03":"0","Q13":"2","Q21":"3","Q04":"2","Q20":"3","Q19":"2","Q16":"3","Q10":"2","Q05":"1","Q11":"1","Q06":"2","Q09":"3","Q14":"3","Q18":"3","Q08":"2","Q12":"3"},"rt":129356,"item_order":[1,16,0,14,6,2,12,20,3,19,18,15,9,4,10,5,8,13,17,7,11],"radio_events":[4814,15887.700000017881,20304.40000000596,26468.59999999404,32387.70000001788,35025.90000000596,38429.80000001192,41725.80000001192,48114.59999999404,51381.59999999404,57838.09999999404,63027.90000000596,67273.90000000596,75276.30000001192,79772.59999999404,88709.70000001788,92184.90000000596,96385.09999999404,106263.70000001788,125261.90000000596,128694],"key_events":[],"mouse_events":[4814,15887.700000017881,20304.40000000596,26468.59999999404,32387.70000001788,35025.90000000596,37356.59999999404,38429.80000001192,41725.80000001192,48114.59999999404,51381.59999999404,57838.09999999404,63027.90000000596,67273.90000000596,74155.80000001192,75276.30000001192,79772.59999999404,88709.70000001788,92184.90000000596,96385.09999999404,106263.70000001788,125261.90000000596,128694,129350.5],"straightlining":0.38095238095238093,"zigzagging":0.6,"honeypot":0,"survey":"sns","trial_type":"survey-template","trial_index":2,"time_elapsed":161279,"internal_node_id":"0.0-2.0","task_version":"prescreen-v0.3","browser_interactions":0,"infrequency":0},{"responses":{"Q07":"3","Q09":"1","Q03":"3","Q11":"1","Q01":"3","Q04":"3","Q10":"1","Q02":"2","Q06":"3","Q13":"0","Q12":"1","Q05":"2","Q08":"2"},"rt":94970.09999999404,"item_order":[6,8,2,10,0,3,9,1,5,12,11,4,7],"radio_events":[13951.800000011921,15328.59999999404,18495.59999999404,26859.90000000596,30227.59999999404,32068.69999998808,34404,36452.40000000596,48094.69999998808,50613.69999998808,87410.30000001192,88365.19999998808,93723.30000001192],"key_events":[],"mouse_events":[11561,13951.800000011921,15328.59999999404,18495.59999999404,26859.90000000596,30227.59999999404,32068.69999998808,34404,36452.40000000596,48094.69999998808,50613.69999998808,87410.30000001192,88365.19999998808,93723.30000001192,94967.40000000596],"straightlining":0.38461538461538464,"zigzagging":0.4166666666666667,"honeypot":0,"survey":"bisbas","trial_type":"survey-template","trial_index":3,"time_elapsed":256249,"internal_node_id":"0.0-3.0","task_version":"prescreen-v0.3","browser_interactions":6,"infrequency":0},{"responses":{"Q01":"4","Q02":"1","Q03":"4"},"rt":21303.600000023842,"radio_events":[5241.4000000059605,6995.5,13117.90000000596,20583],"key_events":[],"mouse_events":[5241.4000000059605,6995.5,13117.90000000596,20583,21302.70000001788],"survey":"map","page":1,"trial_type":"survey-map","trial_index":4,"time_elapsed":277555,"internal_node_id":"0.0-4.0","task_version":"prescreen-v0.3","browser_interactions":0},{"responses":{"Q04":"2","Q05":"2","Q06":"1"},"rt":16214.299999982119,"radio_events":[4902.5,11221.199999988079,15172.09999999404],"key_events":[],"mouse_events":[4902.5,11221.199999988079,15172.09999999404,16213.299999982119],"survey":"map","page":2,"trial_type":"survey-map","trial_index":5,"time_elapsed":293770,"internal_node_id":"0.0-5.0","task_version":"prescreen-v0.3","browser_interactions":0},{"responses":{"Q07":"3","Q08":"3","Q09":"3"},"rt":42350.70000001788,"radio_events":[31590.90000000596,36181.09999999404,39496.09999999404],"key_events":[],"mouse_events":[31590.90000000596,36181.09999999404,39496.09999999404,42349.40000000596],"survey":"map","page":3,"trial_type":"survey-map","trial_index":6,"time_elapsed":336121,"internal_node_id":"0.0-6.0","task_version":"prescreen-v0.3","browser_interactions":0},{"responses":{"Q10":"0","Q11":"3","Q12":"3","Q13":"4","Q16":"0","Q14":"1","Q15":"3"},"rt":55727.5,"radio_events":[5069.800000011921,9341.700000017881,16235.40000000596,24265.30000001192,29845.70000001788,32015.90000000596,32975.80000001192,39266.20000001788,54933.5],"key_events":[],"mouse_events":[5069.800000011921,9341.700000017881,16235.40000000596,24265.30000001192,29845.70000001788,32015.90000000596,32975.80000001192,39266.20000001788,54933.5,55725.90000000596],"survey":"map","page":4,"trial_type":"survey-map","trial_index":7,"time_elapsed":391849,"internal_node_id":"0.0-7.0","task_version":"prescreen-v0.3","browser_interactions":0,"infrequency":0},{"view_history":[{"page_index":0,"viewing_time":3563.100000023842},{"page_index":1,"viewing_time":4774.699999988079}],"rt":8338.200000017881,"trial_type":"instructions","trial_index":8,"time_elapsed":400189,"internal_node_id":"0.0-8.0","task_version":"prescreen-v0.3"},{"responses":{"01":"Yes","01_ages_10":"10","01_ages_11":"11","01_ages_12":"12","01_ages_13":"13","01_ages_14":"14","01_ages_15":"15","01_ages_16":"16","02":"Yes","02_ages_8":"8","02_ages_9":"9","02_ages_10":"10","02_ages_11":"11","02_ages_12":"12","02_ages_13":"13","02_ages_14":"14","02_ages_15":"15","02_ages_16":"16","02_ages_17":"17","03":"No","04":"Yes","04_ages_14":"14","04_ages_15":"15","04_ages_16":"16","05":"No","06":"Yes","06_ages_5":"5","06_ages_6":"6","06_ages_7":"7"},"rt":88392.09999999404,"item_order":[0,1,2,3,4,5],"radio_events":[8589.59999999404,33887.09999999404,62064.59999999404,65543.59999999404,72564.90000000596,78343.30000001192],"checkbox_events":[17294.19999998808,20196.40000000596,26592,27629.19999998808,28823.09999999404,29561.19999998808,30135.40000000596,36630.59999999404,37349.80000001192,37913.90000000596,38664,40404.90000000596,40965,41497.19999998808,42054.40000000596,42606.90000000596,43240.09999999404,43847.59999999404,52964.09999999404,67721.80000001192,68265.59999999404,68883.09999999404,79985.19999998808,82023.09999999404,84827],"key_events":[],"mouse_events":[0.09999999403953552,8589.59999999404,17294.19999998808,20196.40000000596,26592,27629.19999998808,28197.40000000596,28823.09999999404,29561.19999998808,30135.40000000596,33887.09999999404,36630.59999999404,37349.80000001192,37913.90000000596,38664,40404.90000000596,40965,41497.19999998808,42054.40000000596,42606.90000000596,43240.09999999404,43847.59999999404,52964.09999999404,62064.59999999404,65543.59999999404,67721.80000001192,68265.59999999404,68883.09999999404,72564.90000000596,78343.30000001192,79985.19999998808,82023.09999999404,84827,88386.59999999404],"honeypot":0,"survey":"mace","page":1,"trial_type":"survey-mace","trial_index":9,"time_elapsed":488583,"internal_node_id":"0.0-9.0","task_version":"prescreen-v0.3","browser_interactions":0},{"responses":{"01":"Yes","01_ages_6":"6","02":"No","03":"Yes","03_ages_5":"5","03_ages_6":"6","03_ages_7":"7","04":"No","05":"No","06":"No","07":"No","08":"No"},"rt":39413.20000001788,"item_order":[0,1,2,3,4,5,6,7],"radio_events":[4463.300000011921,13255.800000011921,15878.800000011921,22100.40000000596,28714.600000023842,33338.30000001192,34127.20000001788,38615.60000002384],"checkbox_events":[6766,17204.80000001192,17908,18565.20000001788],"key_events":[],"mouse_events":[4463.300000011921,6766,12154.90000000596,13255.800000011921,15878.800000011921,17204.80000001192,17908,18565.20000001788,22100.40000000596,27537.600000023842,28714.600000023842,33338.30000001192,34127.20000001788,38615.60000002384,39402],"honeypot":0,"survey":"mace","page":2,"trial_type":"survey-mace","trial_index":10,"time_elapsed":527999,"internal_node_id":"0.0-10.0","task_version":"prescreen-v0.3","browser_interactions":0},{"responses":{"01":"No","02":"No","03":"No","04":"No"},"rt":23562.69999998808,"item_order":[0,1,2,3],"radio_events":[13050.59999999404,20999.09999999404,22104.80000001192,22917.40000000596],"checkbox_events":[],"key_events":[],"mouse_events":[13050.59999999404,20999.09999999404,22104.80000001192,22917.40000000596,23559.19999998808],"honeypot":0,"survey":"mace","page":3,"trial_type":"survey-mace","trial_index":11,"time_elapsed":551565,"internal_node_id":"0.0-11.0","task_version":"prescreen-v0.3","browser_interactions":0},{"responses":{"01":"No","02":"No"},"rt":8993.59999999404,"item_order":[0,1],"radio_events":[7366.5,8232],"checkbox_events":[],"key_events":[],"mouse_events":[7366.5,8232,8991.700000017881],"honeypot":0,"survey":"mace","page":4,"trial_type":"survey-mace","trial_index":12,"time_elapsed":560561,"internal_node_id":"0.0-12.0","task_version":"prescreen-v0.3","browser_interactions":0},{"responses":{"01":"Yes","01_ages_8":"8","01_ages_9":"9","01_ages_10":"10","01_ages_11":"11","01_ages_12":"12","02":"Yes","02_ages_8":"8","02_ages_9":"9","02_ages_10":"10","02_ages_11":"11","02_ages_12":"12","03":"Yes","03_ages_8":"8","03_ages_9":"9","03_ages_10":"10","03_ages_11":"11","03_ages_12":"12","04":"No","05":"No"},"rt":61841.40000000596,"item_order":[0,1,2,3,4],"radio_events":[11831.300000011921,26997.5,44204.90000000596,45053.5,47948.40000000596,52508.40000000596,56877],"checkbox_events":[14005.5,17378.600000023842,18117.30000001192,18870.20000001788,19678.80000001192,28764.30000001192,29700,53615.10000002384,54142.40000000596,54696.10000002384,55303,55979.90000000596,57797.90000000596,58398.40000000596,58966.70000001788,59542.80000001192,60115.70000001788],"key_events":[],"mouse_events":[11831.300000011921,14005.5,17378.600000023842,18117.30000001192,18870.20000001788,19678.80000001192,26997.5,28764.30000001192,29700,44204.90000000596,45053.5,47948.40000000596,52508.40000000596,53615.10000002384,54142.40000000596,54696.10000002384,55303,55979.90000000596,56877,57797.90000000596,58398.40000000596,58966.70000001788,59542.80000001192,60115.70000001788,61836.60000002384],"honeypot":0,"survey":"mace","page":5,"trial_type":"survey-mace","trial_index":13,"time_elapsed":622404,"internal_node_id":"0.0-13.0","task_version":"prescreen-v0.3","browser_interactions":0},{"responses":{"01":"Yes","01_ages_10":"10","01_ages_11":"11","01_ages_12":"12","01_ages_13":"13","01_ages_14":"14","01_ages_15":"15","01_ages_16":"16","02":"Yes","02_ages_9":"9","02_ages_10":"10","02_ages_11":"11","02_ages_12":"12","02_ages_13":"13","02_ages_14":"14","02_ages_15":"15","02_ages_16":"16","03":"Yes","03_ages_9":"9","03_ages_10":"10","03_ages_11":"11","03_ages_12":"12","03_ages_13":"13","03_ages_14":"14","03_ages_15":"15","03_ages_16":"16","04":"Yes","04_ages_7":"7","04_ages_8":"8","04_ages_9":"9","04_ages_10":"10","04_ages_11":"11","04_ages_12":"12","04_ages_13":"13","04_ages_14":"14","04_ages_15":"15","04_ages_16":"16","05":"No"},"rt":72501.89999997616,"item_order":[0,1,2,3,4],"radio_events":[6264.399999976158,13022.299999982119,35430.5,57140.19999998808,71608.09999999404],"checkbox_events":[8189.199999988079,8806.399999976158,9486.5,14763.59999999404,15348.799999982119,15869.799999982119,16374.09999999404,16878.899999976158,17943.5,19134.29999998212,20422.29999998212,26152.69999998808,26965.69999998808,29970.19999998808,39838.59999999404,41264.59999999404,42138.89999997616,42873.69999998808,43562.59999999404,44231.5,46450.09999999404,47921.79999998212,53738,58389.69999998808,59702,61339.29999998212,61860.19999998808,62524.59999999404,63855.89999997616,64518.09999999404,65059.59999999404,65892.69999998808,66500.89999997616],"key_events":[],"mouse_events":[6264.399999976158,8189.199999988079,8806.399999976158,9486.5,13022.299999982119,14763.59999999404,15348.799999982119,15869.799999982119,16374.09999999404,16878.899999976158,17406.69999998808,17943.5,18536.59999999404,19134.29999998212,20422.29999998212,26152.69999998808,26965.69999998808,29970.19999998808,35430.5,39838.59999999404,41264.59999999404,42138.89999997616,42873.69999998808,43562.59999999404,44231.5,46450.09999999404,47921.79999998212,52849.09999999404,53738,57140.19999998808,58389.69999998808,59702,60667.19999998808,61339.29999998212,61860.19999998808,62524.59999999404,63270.19999998808,63855.89999997616,64518.09999999404,65059.59999999404,65892.69999998808,66500.89999997616,71608.09999999404,72496.59999999404],"honeypot":0,"survey":"mace","page":6,"trial_type":"survey-mace","trial_index":14,"time_elapsed":694908,"internal_node_id":"0.0-14.0","task_version":"prescreen-v0.3","browser_interactions":0},{"responses":{"01":"No","02":"Yes","02_ages_10":"10","02_ages_11":"11","02_ages_12":"12","02_ages_13":"13","02_ages_14":"14","02_ages_15":"15","02_ages_16":"16","03":"Yes","03_ages_9":"9","03_ages_10":"10","03_ages_11":"11","04":"No","05":"No","06":"No","07":"No"},"rt":36955.80000001192,"item_order":[0,1,2,3,4,5,6],"radio_events":[11086.600000023842,12064.300000011921,20763.100000023842,28100.40000000596,33171.10000002384,35509.60000002384,36285.20000001788],"checkbox_events":[13501.40000000596,14008.800000011921,14534.700000017881,15175.700000017881,15824.600000023842,16361.5,16906.80000001192,22544.600000023842,23473.5,24251.20000001788],"key_events":[],"mouse_events":[10270.100000023842,11086.600000023842,12064.300000011921,13501.40000000596,14008.800000011921,14534.700000017881,15175.700000017881,15824.600000023842,16361.5,16906.80000001192,20763.100000023842,22544.600000023842,23473.5,24251.20000001788,28100.40000000596,33171.10000002384,34153.30000001192,34919.20000001788,35509.60000002384,36285.20000001788,36949.10000002384],"honeypot":0,"survey":"mace","page":7,"trial_type":"survey-mace","trial_index":15,"time_elapsed":731867,"internal_node_id":"0.0-15.0","task_version":"prescreen-v0.3","browser_interactions":0},{"responses":{"01":"Yes","01_ages_14":"14","01_ages_15":"15","02":"No","03":"Yes","03_ages_14":"14","03_ages_15":"15","03_ages_16":"16","03_ages_17":"17","03_ages_18":"18","04":"Yes","04_ages_14":"14","04_ages_15":"15","04_ages_16":"16","04_ages_17":"17","04_ages_18":"18"},"rt":60842.5,"item_order":[0,1,2,3],"radio_events":[12790.199999988079,29835.40000000596,33829,50873.5],"checkbox_events":[17752.40000000596,18510.69999998808,36219.40000000596,36730.5,37283.19999998808,55757,56301.19999998808,57314.09999999404,57912.30000001192,58431.80000001192,58984.30000001192,59578.90000000596],"key_events":[],"mouse_events":[12790.199999988079,17752.40000000596,18510.69999998808,29835.40000000596,33829,36219.40000000596,36730.5,37283.19999998808,50873.5,55757,56301.19999998808,57314.09999999404,57912.30000001192,58431.80000001192,58984.30000001192,59578.90000000596,60838.19999998808],"honeypot":0,"survey":"mace","page":8,"trial_type":"survey-mace","trial_index":16,"time_elapsed":792820,"internal_node_id":"0.0-16.0","task_version":"prescreen-v0.3","browser_interactions":0},{"responses":{"01":"Yes","01_ages_1":"1","01_ages_2":"2","01_ages_3":"3","01_ages_4":"4","01_ages_5":"5","01_ages_6":"6","01_ages_7":"7","01_ages_8":"8","01_ages_9":"9","01_ages_10":"10","01_ages_11":"11","01_ages_12":"12","01_ages_13":"13","01_ages_14":"14","01_ages_15":"15","01_ages_16":"16","01_ages_17":"17","01_ages_18":"18","02":"Yes","02_ages_4":"4","02_ages_5":"5","02_ages_6":"6","02_ages_7":"7","02_ages_8":"8","02_ages_9":"9","02_ages_10":"10","02_ages_11":"11","02_ages_12":"12","02_ages_13":"13","02_ages_14":"14","02_ages_15":"15","02_ages_16":"16","02_ages_17":"17","02_ages_18":"18","03":"Yes","03_ages_1":"1","03_ages_2":"2","03_ages_3":"3","03_ages_4":"4","03_ages_5":"5","03_ages_6":"6","03_ages_7":"7","03_ages_8":"8","03_ages_9":"9","03_ages_10":"10","03_ages_11":"11","03_ages_12":"12","03_ages_13":"13","03_ages_14":"14","03_ages_15":"15","03_ages_16":"16","03_ages_17":"17","03_ages_18":"18","04":"Yes","04_ages_1":"1","04_ages_2":"2","04_ages_3":"3","04_ages_4":"4","04_ages_5":"5","04_ages_6":"6","04_ages_7":"7","04_ages_8":"8","04_ages_9":"9","04_ages_10":"10","04_ages_11":"11","04_ages_12":"12","04_ages_13":"13"},"rt":126313.09999999404,"item_order":[0,1,2,3],"radio_events":[4438.9000000059605,58919.59999999404,75145.70000001788,108067.70000001788],"checkbox_events":[31118.30000001192,31641.5,32115,32652.90000000596,33523.20000001788,34276.09999999404,34756.20000001788,36442,36890,37892,38339.59999999404,38787.59999999404,40390.59999999404,40845.90000000596,41410.59999999404,42690.90000000596,43180.20000001788,54807.90000000596,61251,61841.40000000596,62355,62854.59999999404,63352.70000001788,63879.09999999404,64327.80000001192,64993.5,65546.59999999404,66009.40000000596,66475.5,67091.30000001192,67626.70000001788,68088.70000001788,68777.09999999404,77175.09999999404,77896.09999999404,79841.80000001192,80414.80000001192,81976.09999999404,83073,83649.90000000596,84855,85456.20000001788,91441.80000001192,92081.90000000596,92783.90000000596,93406.90000000596,93976.5,100155.09999999404,100711.5,101794.20000001788,102338.20000001788,113939.40000000596,115099.59999999404,115796.5,116283.59999999404,116861,118275.5,118850.5,119459,120092.20000001788,120592.30000001192,121309.40000000596,121809.70000001788,122314.09999999404],"key_events":[],"mouse_events":[3479,4438.9000000059605,31118.30000001192,31641.5,32115,32652.90000000596,33523.20000001788,34276.09999999404,34756.20000001788,36442,36890,37427,37892,38339.59999999404,38787.59999999404,39893.20000001788,40390.59999999404,40845.90000000596,41410.59999999404,42690.90000000596,43180.20000001788,47854.70000001788,54807.90000000596,58919.59999999404,61251,61841.40000000596,62355,62854.59999999404,63352.70000001788,63879.09999999404,64327.80000001192,64993.5,65546.59999999404,66009.40000000596,66475.5,67091.30000001192,67626.70000001788,68088.70000001788,68777.09999999404,75145.70000001788,77175.09999999404,77896.09999999404,79841.80000001192,80414.80000001192,81976.09999999404,83073,83649.90000000596,84239.40000000596,84855,85456.20000001788,91441.80000001192,92081.90000000596,92783.90000000596,93406.90000000596,93976.5,100155.09999999404,100711.5,101320.20000001788,101794.20000001788,102338.20000001788,103587,108067.70000001788,113939.40000000596,114651,115099.59999999404,115796.5,116283.59999999404,116861,118275.5,118850.5,119459,120092.20000001788,120592.30000001192,121309.40000000596,121809.70000001788,122314.09999999404,126309.59999999404],"honeypot":0,"survey":"mace","page":9,"trial_type":"survey-mace","trial_index":17,"time_elapsed":919133,"internal_node_id":"0.0-17.0","task_version":"prescreen-v0.3","browser_interactions":0},{"responses":{"01":"Yes","01_ages_7":"7","01_ages_8":"8","01_ages_9":"9","01_ages_10":"10","01_ages_11":"11","01_ages_12":"12","01_ages_13":"13","01_ages_14":"14","01_ages_15":"15","01_ages_16":"16","02":"No","03":"Yes","03_ages_12":"12","03_ages_13":"13","03_ages_14":"14","03_ages_15":"15","03_ages_16":"16","03_ages_17":"17","03_ages_18":"18","04":"Yes","04_ages_7":"7","04_ages_8":"8","04_ages_9":"9","04_ages_10":"10","04_ages_11":"11","04_ages_12":"12","04_ages_13":"13","04_ages_14":"14","04_ages_15":"15","04_ages_16":"16","04_ages_17":"17","04_ages_18":"18","05":"Yes","05_ages_14":"14","05_ages_15":"15","05_ages_16":"16","06":"Yes","06_ages_17":"17","07":"Yes","07_ages_4":"4","07_ages_5":"5","07_ages_6":"6","07_ages_7":"7","07_ages_8":"8","07_ages_9":"9","07_ages_10":"10","07_ages_11":"11","07_ages_12":"12","07_ages_13":"13","07_ages_14":"14","07_ages_15":"15","07_ages_16":"16","07_ages_17":"17","07_ages_18":"18","08":"Yes","08_ages_7":"7","08_ages_8":"8","08_ages_9":"9","08_ages_10":"10","08_ages_11":"11","08_ages_12":"12","08_ages_13":"13","08_ages_14":"14","08_ages_15":"15","08_ages_16":"16","08_ages_17":"17","08_ages_18":"18"},"rt":110491.80000001192,"item_order":[0,1,2,3,4,5,6,7],"radio_events":[5367.5999999940395,10737.59999999404,12751.300000011921,37059.40000000596,53749.70000001788,60494,73726.59999999404,94473.20000001788],"checkbox_events":[15226.200000017881,15738.09999999404,16342.5,17312.30000001192,17831.70000001788,18960.70000001788,19475.30000001192,21943.30000001192,22593.09999999404,23290.30000001192,23795.59999999404,24998.70000001788,25487.5,28450.40000000596,29476.70000001788,29985.70000001788,30672.09999999404,38714.5,39252.40000000596,39668.40000000596,40994.30000001192,41449.5,42066.80000001192,43411.09999999404,44696.5,45296.59999999404,45865.40000000596,46458.90000000596,47010.70000001788,55703.5,56267.90000000596,56853.40000000596,63390.20000001788,77930.40000000596,78353.59999999404,78766.20000001788,79216,79646.90000000596,80143.5,81841.59999999404,82273.40000000596,83254.09999999404,83670.90000000596,84047.59999999404,84496.40000000596,84889.09999999404,85296.70000001788,86457.20000001788,100199.40000000596,100717.90000000596,101143,101590.70000001788,102039.09999999404,102916.09999999404,103777.5,104765.80000001192,106671.20000001788,107736.70000001788,108169.20000001788,108640.80000001192],"key_events":[],"mouse_events":[5367.5999999940395,10737.59999999404,11777.5,12751.300000011921,15226.200000017881,15738.09999999404,16342.5,17312.30000001192,17831.70000001788,18960.70000001788,19475.30000001192,21943.30000001192,22593.09999999404,23290.30000001192,23795.59999999404,24998.70000001788,25487.5,28450.40000000596,29034.30000001192,29476.70000001788,29985.70000001788,30672.09999999404,37059.40000000596,38714.5,39252.40000000596,39668.40000000596,40994.30000001192,41449.5,42066.80000001192,42475.40000000596,42954.20000001788,43411.09999999404,44696.5,45296.59999999404,45865.40000000596,46458.90000000596,47010.70000001788,53749.70000001788,55703.5,56267.90000000596,56853.40000000596,60494,63390.20000001788,73726.59999999404,77930.40000000596,78353.59999999404,78766.20000001788,79216,79646.90000000596,80143.5,81841.59999999404,82273.40000000596,82721.80000001192,83254.09999999404,83670.90000000596,84047.59999999404,84496.40000000596,84889.09999999404,85296.70000001788,86457.20000001788,93514.70000001788,94473.20000001788,96717.90000000596,100199.40000000596,100717.90000000596,101143,101590.70000001788,102039.09999999404,102916.09999999404,103777.5,104178.09999999404,104765.80000001192,106671.20000001788,107736.70000001788,108169.20000001788,108640.80000001192,110480.5],"honeypot":0,"survey":"mace","page":10,"trial_type":"survey-mace","trial_index":18,"time_elapsed":1029628,"internal_node_id":"0.0-18.0","task_version":"prescreen-v0.3","browser_interactions":0,"instructed":0},{"rt":5955.4000000059605,"trial_type":"mental-health-alert","trial_index":19,"time_elapsed":1035586,"internal_node_id":"0.0-19.0","task_version":"prescreen-v0.3","interactions":"[{\"event\":\"blur\",\"trial\":3,\"time\":220819},{\"event\":\"focus\",\"trial\":3,\"time\":221082},{\"event\":\"blur\",\"trial\":3,\"time\":221088},{\"event\":\"focus\",\"trial\":3,\"time\":225116},{\"event\":\"blur\",\"trial\":3,\"time\":231818},{\"event\":\"focus\",\"trial\":3,\"time\":244102}]"}]