[{"view_history":[{"page_index":0,"viewing_time":2771},{"page_index":1,"viewing_time":1959.699999988079},{"page_index":2,"viewing_time":2036.5},{"page_index":3,"viewing_time":1107.800000011921}],"rt":7875.799999982119,"trial_type":"instructions","trial_index":0,"time_elapsed":7898,"internal_node_id":"0.0-0.0","task_version":"prescreen-v0.3"},{"rt":12885.799999982119,"responses":{"age":"31","gender-categorical":"Female","gender-free-response":"","ethnicity":"Not Hispanic or Latino","race":["White"],"education":"Bachelor degree"},"trial_type":"survey-demo","trial_index":1,"time_elapsed":20792,"internal_node_id":"0.0-1.0","task_version":"prescreen-v0.3"},{"responses":{"Q11":"1","Q09":"1","Q21":"3","Q19":"0","Q20":"0","Q12":"0","Q01":"2","Q05":"0","Q02":"1","Q07":"0","Q16":"2","Q13":"1","Q04":"1","Q18":"1","Q14":"2","Q17":"0","Q15":"2","Q06":"0","Q03":"1","Q08":"1","Q10":"1"},"rt":101492.70000001788,"item_order":[10,8,20,18,19,11,0,4,1,6,15,12,3,17,13,16,14,5,2,7,9],"radio_events":[3602.800000011921,7822.800000011921,12654.800000011921,17462.600000023842,20874.80000001192,25530.70000001788,29302.90000000596,37778.5,41246.90000000596,50326.90000000596,54494.80000001192,59222.90000000596,62171.10000002384,65854.80000001192,72055.90000000596,77462.70000001788,83955.80000001192,89882.90000000596,92055.20000001788,97543,100642.40000000596],"key_events":[],"mouse_events":[3602.800000011921,7822.800000011921,12654.800000011921,17462.600000023842,20874.80000001192,25530.70000001788,28710.90000000596,29302.90000000596,37778.5,41246.90000000596,50326.90000000596,54494.80000001192,59222.90000000596,62171.10000002384,65854.80000001192,72055.90000000596,76146.80000001192,77462.70000001788,83955.80000001192,89146.70000001788,89882.90000000596,92055.20000001788,97543,100642.40000000596,101490.70000001788],"straightlining":0.42857142857142855,"zigzagging":0.3,"honeypot":0,"survey":"sns","trial_type":"survey-template","trial_index":2,"time_elapsed":122300,"internal_node_id":"0.0-2.0","task_version":"prescreen-v0.3","browser_interactions":0,"infrequency":0},{"responses":{"Q04":"3","Q01":"3","Q10":"2","Q09":"2","Q12":"1","Q06":"2","Q05":"3","Q02":"3","Q13":"0","Q07":"2","Q11":"2","Q03":"3","Q08":"2"},"rt":45020.79999998212,"item_order":[3,0,9,8,11,5,4,1,12,6,10,2,7],"radio_events":[5315.699999988079,7647.4000000059605,12195.90000000596,14303.59999999404,18067.59999999404,20007.59999999404,22187.69999998808,24411.59999999404,27231.5,30579.69999998808,33211.59999999404,36703.59999999404,40183.5,44203.69999998808],"key_events":[],"mouse_events":[5315.699999988079,7647.4000000059605,10955.699999988079,12195.90000000596,14303.59999999404,18067.59999999404,20007.59999999404,22187.69999998808,23403.69999998808,24411.59999999404,27231.5,30579.69999998808,33211.59999999404,36703.59999999404,40183.5,44203.69999998808,45019.69999998808],"straightlining":0.46153846153846156,"zigzagging":0.5833333333333334,"honeypot":0,"survey":"bisbas","trial_type":"survey-template","trial_index":3,"time_elapsed":167329,"internal_node_id":"0.0-3.0","task_version":"prescreen-v0.3","browser_interactions":0,"infrequency":0},{"responses":{"Q01":"3","Q02":"3","Q03":"4"},"rt":17515.5,"radio_events":[9031.09999999404,13234.90000000596,16906.90000000596],"key_events":[],"mouse_events":[9031.09999999404,13234.90000000596,16906.90000000596,17514.90000000596],"survey":"map","page":1,"trial_type":"survey-map","trial_index":4,"time_elapsed":184853,"internal_node_id":"0.0-4.0","task_version":"prescreen-v0.3","browser_interactions":0},{"responses":{"Q04":"3","Q05":"2","Q06":"2"},"rt":12183.09999999404,"radio_events":[3938.699999988079,9530.699999988079,11558.699999988079],"key_events":[],"mouse_events":[3938.699999988079,9530.699999988079,11558.699999988079,12182.5],"survey":"map","page":2,"trial_type":"survey-map","trial_index":5,"time_elapsed":197044,"internal_node_id":"0.0-5.0","task_version":"prescreen-v0.3","browser_interactions":0},{"responses":{"Q07":"4","Q08":"4","Q09":"3"},"rt":13687.799999982119,"radio_events":[5779.199999988079,10468.40000000596,12839.299999982119],"key_events":[],"mouse_events":[5779.199999988079,9347.90000000596,10468.40000000596,12839.299999982119,13687.199999988079],"survey":"map","page":3,"trial_type":"survey-map","trial_index":6,"time_elapsed":210736,"internal_node_id":"0.0-6.0","task_version":"prescreen-v0.3","browser_interactions":0},{"responses":{"Q10":"1","Q11":"0","Q12":"2","Q13":"3","Q16":"0","Q14":"2","Q15":"2"},"rt":34244.09999999404,"radio_events":[5219,6235.199999988079,10123,13567.09999999404,17979,25967.09999999404,29427,33139],"key_events":[],"mouse_events":[5219,6235.199999988079,10123,13567.09999999404,17979,25967.09999999404,29427,31855.09999999404,33139,34243],"survey":"map","page":4,"trial_type":"survey-map","trial_index":7,"time_elapsed":244985,"internal_node_id":"0.0-7.0","task_version":"prescreen-v0.3","browser_interactions":0,"infrequency":0},{"view_history":[{"page_index":0,"viewing_time":3644.5999999940395},{"page_index":1,"viewing_time":2899.800000011921}],"rt":6544.800000011921,"trial_type":"instructions","trial_index":8,"time_elapsed":251536,"internal_node_id":"0.0-8.0","task_version":"prescreen-v0.3"},{"responses":{"01":"Yes","01_ages_1":"1","01_ages_2":"2","01_ages_3":"3","01_ages_4":"4","01_ages_5":"5","01_ages_6":"6","01_ages_7":"7","01_ages_8":"8","01_ages_9":"9","01_ages_10":"10","01_ages_11":"11","01_ages_12":"12","01_ages_13":"13","01_ages_14":"14","01_ages_15":"15","01_ages_16":"16","01_ages_17":"17","01_ages_18":"18","02":"Yes","02_ages_1":"1","02_ages_2":"2","02_ages_3":"3","02_ages_4":"4","02_ages_5":"5","02_ages_6":"6","02_ages_7":"7","02_ages_8":"8","02_ages_9":"9","02_ages_10":"10","02_ages_11":"11","02_ages_12":"12","02_ages_13":"13","02_ages_14":"14","02_ages_15":"15","02_ages_16":"16","02_ages_17":"17","02_ages_18":"18","03":"Yes","03_ages_1":"1","03_ages_2":"2","03_ages_3":"3","03_ages_4":"4","03_ages_5":"5","03_ages_6":"6","03_ages_7":"7","03_ages_8":"8","03_ages_9":"9","03_ages_10":"10","03_ages_11":"11","03_ages_12":"12","03_ages_13":"13","03_ages_14":"14","03_ages_15":"15","03_ages_16":"16","03_ages_17":"17","03_ages_18":"18","04":"No","05":"No","06":"Yes","06_ages_9":"9","06_ages_10":"10","06_ages_11":"11","06_ages_12":"12","06_ages_13":"13","06_ages_14":"14","06_ages_15":"15","06_ages_16":"16","06_ages_17":"17","06_ages_18":"18"},"rt":71948.5,"item_order":[0,1,2,3,4,5],"radio_events":[7297.800000011921,27589.40000000596,42105.70000001788,57317.5,60483.60000002384,63565.5],"checkbox_events":[11245.5,11899.600000023842,12329.600000023842,12921.600000023842,13718.90000000596,14581.40000000596,15173.600000023842,15622.5,16405.40000000596,17793.40000000596,20157.70000001788,20701.5,21237.30000001192,22125.20000001788,22561.5,23265.5,23745.5,24257.5,29209.30000001192,29657.40000000596,30145.600000023842,30545.40000000596,31605.5,32037.40000000596,32485.100000023842,32901.60000002384,33277.5,34309.30000001192,35937.5,36689.40000000596,37121.5,37781.5,38213.40000000596,38713.40000000596,39141.5,39669.60000002384,43641.5,44029.10000002384,45709.40000000596,46141.5,46629.40000000596,47113.30000001192,47561.5,47977.5,48521.40000000596,49049.40000000596,49673.30000001192,50189.30000001192,50959.10000002384,51357.5,51901.5,52461.5,53649.90000000596,54401.40000000596,66553.5,67281.40000000596,67865.40000000596,68365.40000000596,68845.40000000596,69341.40000000596,69765.30000001192,70181.40000000596,70789.40000000596,71466.5],"key_events":[],"mouse_events":[0.20000001788139343,7297.800000011921,11245.5,11899.600000023842,12329.600000023842,12921.600000023842,13349.40000000596,13718.90000000596,14581.40000000596,15173.600000023842,15622.5,16405.40000000596,16985.40000000596,17793.40000000596,18401.40000000596,20157.70000001788,20701.5,21237.30000001192,22125.20000001788,22561.5,23265.5,23745.5,24257.5,27589.40000000596,29209.30000001192,29657.40000000596,30145.600000023842,30545.40000000596,30993.40000000596,31605.5,32037.40000000596,32485.100000023842,32901.60000002384,33277.5,33685.5,34309.30000001192,35121.30000001192,35937.5,36689.40000000596,37121.5,37781.5,38213.40000000596,38713.40000000596,39141.5,39669.60000002384,42105.70000001788,43641.5,44029.10000002384,44877.10000002384,45709.40000000596,46141.5,46629.40000000596,47113.30000001192,47561.5,47977.5,48521.40000000596,49049.40000000596,49673.30000001192,50189.30000001192,50621.30000001192,50959.10000002384,51357.5,51901.5,52461.5,53009.40000000596,53649.90000000596,54401.40000000596,57317.5,60483.60000002384,63565.5,66553.5,67281.40000000596,67865.40000000596,68365.40000000596,68845.40000000596,69341.40000000596,69765.30000001192,70181.40000000596,70789.40000000596,71466.5,71945.80000001192],"honeypot":0,"survey":"mace","page":1,"trial_type":"survey-mace","trial_index":9,"time_elapsed":323499,"internal_node_id":"0.0-9.0","task_version":"prescreen-v0.3","browser_interactions":0},{"responses":{"01":"Yes","01_ages_9":"9","01_ages_10":"10","01_ages_13":"13","01_ages_14":"14","01_ages_15":"15","02":"Yes","02_ages_10":"10","03":"Yes","03_ages_4":"4","03_ages_5":"5","03_ages_6":"6","03_ages_7":"7","03_ages_8":"8","03_ages_9":"9","03_ages_10":"10","03_ages_11":"11","03_ages_12":"12","03_ages_13":"13","03_ages_14":"14","03_ages_15":"15","03_ages_16":"16","03_ages_17":"17","04":"Yes","04_ages_10":"10","04_ages_11":"11","05":"Yes","05_ages_8":"8","05_ages_9":"9","05_ages_10":"10","05_ages_11":"11","06":"No","07":"No","08":"No"},"rt":64520.30000001192,"item_order":[0,1,2,3,4,5,6,7],"radio_events":[2762.5999999940395,16990.59999999404,24814.59999999404,40266.80000001192,50178.80000001192,59094.70000001788,61958.59999999404,63339.90000000596],"checkbox_events":[4530.5999999940395,5174.700000017881,8458.5,9770.800000011921,10618.59999999404,17902.80000001192,27386.5,28538.70000001788,29670.59999999404,30054.5,30646.70000001788,31350.5,31834.5,32234.59999999404,32602.5,33018.5,35006.90000000596,35614.59999999404,36174.5,36670.40000000596,37102.90000000596,37826.90000000596,42006.59999999404,42534.59999999404,52202.80000001192,52602.59999999404,53038.40000000596,53582.59999999404],"key_events":[],"mouse_events":[2762.5999999940395,4530.5999999940395,5174.700000017881,8458.5,9194.59999999404,9770.800000011921,10618.59999999404,16990.59999999404,17902.80000001192,23990.5,24814.59999999404,27386.5,28538.70000001788,29670.59999999404,30054.5,30646.70000001788,31350.5,31834.5,32234.59999999404,32602.5,33018.5,33482.59999999404,34282.59999999404,35006.90000000596,35614.59999999404,36174.5,36670.40000000596,37102.90000000596,37826.90000000596,38498.30000001192,40266.80000001192,42006.59999999404,42534.59999999404,50178.80000001192,52202.80000001192,52602.59999999404,53038.40000000596,53582.59999999404,59094.70000001788,61958.59999999404,63339.90000000596,63786.70000001788,64517.09999999404],"honeypot":0,"survey":"mace","page":2,"trial_type":"survey-mace","trial_index":10,"time_elapsed":388026,"internal_node_id":"0.0-10.0","task_version":"prescreen-v0.3","browser_interactions":0},{"responses":{"01":"No","02":"No","03":"No","04":"No"},"rt":10599.09999999404,"item_order":[0,1,2,3],"radio_events":[3941.0999999940395,7321.5999999940395,8813,10005.09999999404],"checkbox_events":[],"key_events":[],"mouse_events":[3941.0999999940395,7321.5999999940395,8813,10005.09999999404,10597.200000017881],"honeypot":0,"survey":"mace","page":3,"trial_type":"survey-mace","trial_index":11,"time_elapsed":398630,"internal_node_id":"0.0-11.0","task_version":"prescreen-v0.3","browser_interactions":0},{"responses":{"01":"No","02":"No"},"rt":8670.199999988079,"item_order":[0,1],"radio_events":[2893.199999988079,7477.5],"checkbox_events":[],"key_events":[],"mouse_events":[2893.199999988079,7477.5,8669.199999988079],"honeypot":0,"survey":"mace","page":4,"trial_type":"survey-mace","trial_index":12,"time_elapsed":407304,"internal_node_id":"0.0-12.0","task_version":"prescreen-v0.3","browser_interactions":0},{"responses":{"01":"Yes","01_ages_1":"1","01_ages_2":"2","01_ages_3":"3","01_ages_4":"4","01_ages_5":"5","01_ages_6":"6","01_ages_7":"7","01_ages_8":"8","01_ages_9":"9","01_ages_10":"10","01_ages_11":"11","01_ages_12":"12","01_ages_13":"13","01_ages_14":"14","01_ages_15":"15","01_ages_16":"16","01_ages_17":"17","01_ages_18":"18","02":"Yes","02_ages_1":"1","02_ages_2":"2","02_ages_3":"3","02_ages_4":"4","02_ages_5":"5","02_ages_6":"6","02_ages_7":"7","02_ages_8":"8","02_ages_9":"9","02_ages_10":"10","02_ages_11":"11","02_ages_12":"12","02_ages_13":"13","03":"Yes","03_ages_8":"8","03_ages_10":"10","03_ages_13":"13","04":"No","05":"No"},"rt":59616.40000000596,"item_order":[0,1,2,3,4],"radio_events":[10338.199999988079,28002.19999998808,41110.09999999404,55970.09999999404,58830.30000001192],"checkbox_events":[11910.09999999404,12598.199999988079,13750.199999988079,14350.40000000596,14762.199999988079,15226.59999999404,15850.300000011921,16234.09999999404,16794.09999999404,17162,18406.30000001192,18838.5,19270.09999999404,22915,23446.40000000596,24095.19999998808,24606,25294.19999998808,29542.30000001192,29942,30982.19999998808,31654.30000001192,32058.30000001192,32490.19999998808,33210,34409.90000000596,35150,35678.19999998808,37845.80000001192,42630.19999998808,44038.30000001192,44826,47278.19999998808,47950.09999999404],"key_events":[],"mouse_events":[10338.199999988079,11910.09999999404,12598.199999988079,13094,13750.199999988079,14350.40000000596,14762.199999988079,15226.59999999404,15850.300000011921,16234.09999999404,16794.09999999404,17162,17534.09999999404,18406.30000001192,18838.5,19270.09999999404,22915,23446.40000000596,24095.19999998808,24606,25294.19999998808,28002.19999998808,29542.30000001192,29942,30534.30000001192,30982.19999998808,31654.30000001192,32058.30000001192,32490.19999998808,33210,33546.30000001192,34409.90000000596,35150,35678.19999998808,37845.80000001192,41110.09999999404,42630.19999998808,44038.30000001192,44826,47278.19999998808,47950.09999999404,55970.09999999404,58830.30000001192,59614.19999998808],"honeypot":0,"survey":"mace","page":5,"trial_type":"survey-mace","trial_index":13,"time_elapsed":466926,"internal_node_id":"0.0-13.0","task_version":"prescreen-v0.3","browser_interactions":0},{"responses":{"01":"Yes","01_ages_7":"7","01_ages_8":"8","01_ages_9":"9","01_ages_10":"10","01_ages_11":"11","01_ages_12":"12","01_ages_13":"13","01_ages_14":"14","01_ages_15":"15","01_ages_16":"16","01_ages_17":"17","01_ages_18":"18","02":"Yes","02_ages_7":"7","02_ages_8":"8","02_ages_9":"9","02_ages_10":"10","02_ages_11":"11","02_ages_12":"12","02_ages_13":"13","02_ages_14":"14","02_ages_15":"15","02_ages_16":"16","02_ages_17":"17","02_ages_18":"18","03":"Yes","03_ages_7":"7","03_ages_8":"8","03_ages_9":"9","03_ages_10":"10","03_ages_11":"11","03_ages_12":"12","03_ages_13":"13","03_ages_14":"14","03_ages_15":"15","03_ages_16":"16","03_ages_17":"17","03_ages_18":"18","04":"Yes","04_ages_7":"7","04_ages_8":"8","04_ages_9":"9","04_ages_10":"10","04_ages_11":"11","04_ages_12":"12","04_ages_13":"13","04_ages_14":"14","04_ages_15":"15","04_ages_16":"16","04_ages_17":"17","04_ages_18":"18","05":"Yes","05_ages_11":"11","05_ages_12":"12","05_ages_13":"13","05_ages_14":"14","05_ages_15":"15","05_ages_16":"16","05_ages_17":"17","05_ages_18":"18"},"rt":67818.80000001192,"item_order":[0,1,2,3,4],"radio_events":[4736.600000023842,21604.5,32812.5,45228.30000001192,57684.60000002384],"checkbox_events":[7076.600000023842,7588.5,8100.600000023842,8612.300000011921,10068.300000011921,10696.5,11352.700000017881,11944.600000023842,12640.300000011921,14260.40000000596,14804.600000023842,15492.700000017881,15924.5,16400.70000001788,17968.40000000596,18528.600000023842,22904.5,23736.40000000596,25000.30000001192,25480.40000000596,26140.5,26964.20000001788,27636.600000023842,28068.5,28564.70000001788,29160.5,30168.40000000596,30920.600000023842,34720.5,35696.5,36272.40000000596,36736.5,37168.20000001788,37584.40000000596,38020.5,38933.80000001192,40196.40000000596,40788.5,41912.5,42680.30000001192,46812.30000001192,47200.60000002384,48176.5,48592.5,49664.60000002384,50228.30000001192,50644.80000001192,51132.40000000596,51932.70000001788,52524.70000001788,53296.70000001788,54704.40000000596,60752.60000002384,61760.70000001788,62596.5,63252.40000000596,63748.5,64596.30000001192,65060.60000002384,65688.40000000596,66232.40000000596,66840.5],"key_events":[],"mouse_events":[4736.600000023842,7076.600000023842,7588.5,8100.600000023842,8612.300000011921,9268.40000000596,10068.300000011921,10696.5,11352.700000017881,11944.600000023842,12640.300000011921,13348.40000000596,14260.40000000596,14804.600000023842,15492.700000017881,15924.5,16400.70000001788,16896.40000000596,17968.40000000596,18528.600000023842,20724.5,21604.5,22904.5,23736.40000000596,24424.80000001192,25000.30000001192,25480.40000000596,26140.5,26964.20000001788,27636.600000023842,28068.5,28564.70000001788,29160.5,30168.40000000596,30920.600000023842,32812.5,34720.5,35136.5,35696.5,36272.40000000596,36736.5,37168.20000001788,37584.40000000596,38020.5,38933.80000001192,39316.60000002384,40196.40000000596,40788.5,41912.5,42680.30000001192,44332.40000000596,45228.30000001192,46812.30000001192,47200.60000002384,47840.5,48176.5,48592.5,49024.5,49664.60000002384,50228.30000001192,50644.80000001192,51132.40000000596,51932.70000001788,52524.70000001788,53296.70000001788,54704.40000000596,57684.60000002384,60752.60000002384,61760.70000001788,62596.5,63252.40000000596,63748.5,64596.30000001192,65060.60000002384,65688.40000000596,66232.40000000596,66840.5,67816.60000002384],"honeypot":0,"survey":"mace","page":6,"trial_type":"survey-mace","trial_index":14,"time_elapsed":534751,"internal_node_id":"0.0-14.0","task_version":"prescreen-v0.3","browser_interactions":0},{"responses":{"01":"No","02":"No","03":"Yes","03_ages_12":"12","03_ages_13":"13","03_ages_14":"14","03_ages_15":"15","04":"Yes","04_ages_12":"12","04_ages_13":"13","04_ages_14":"14","04_ages_15":"15","05":"Yes","05_ages_13":"13","05_ages_14":"14","06":"No","07":"No"},"rt":37588.89999997616,"item_order":[0,1,2,3,4,5,6],"radio_events":[7073.399999976158,10917.59999999404,12262.799999982119,25937.69999998808,32185.19999998808,35773.39999997616,36961.29999998212],"checkbox_events":[14121.5,14617.5,15485.199999988079,16205.699999988079,17069.5,19481.5,21193.59999999404,22525.399999976158,26785.399999976158,27217.79999998212,27781.399999976158,28293.59999999404,33305.39999997616,33741.5],"key_events":[],"mouse_events":[7073.399999976158,10917.59999999404,11765.399999976158,12262.799999982119,14121.5,14617.5,15485.199999988079,16205.699999988079,17069.5,19481.5,20153.5,21193.59999999404,21854.19999998808,22525.399999976158,25937.69999998808,26785.399999976158,27217.79999998212,27781.399999976158,28293.59999999404,32185.19999998808,33305.39999997616,33741.5,35773.39999997616,36961.29999998212,37585.69999998808],"honeypot":0,"survey":"mace","page":7,"trial_type":"survey-mace","trial_index":15,"time_elapsed":572347,"internal_node_id":"0.0-15.0","task_version":"prescreen-v0.3","browser_interactions":0},{"responses":{"01":"No","02":"Yes","02_ages_1":"1","02_ages_2":"2","02_ages_3":"3","02_ages_4":"4","02_ages_5":"5","02_ages_6":"6","02_ages_7":"7","02_ages_8":"8","02_ages_9":"9","02_ages_10":"10","02_ages_11":"11","02_ages_12":"12","02_ages_13":"13","03":"Yes","03_ages_7":"7","03_ages_8":"8","03_ages_9":"9","03_ages_10":"10","03_ages_11":"11","03_ages_12":"12","03_ages_13":"13","03_ages_14":"14","03_ages_15":"15","03_ages_16":"16","03_ages_17":"17","03_ages_18":"18","04":"Yes","04_ages_13":"13","04_ages_14":"14","04_ages_15":"15","04_ages_16":"16","04_ages_17":"17","04_ages_18":"18"},"rt":44125.19999998808,"item_order":[0,1,2,3],"radio_events":[6007.300000011921,10287.09999999404,24596.19999998808,38371.19999998808],"checkbox_events":[13187.199999988079,13795,14515.199999988079,15355.09999999404,15743.300000011921,16639.09999999404,17055,17455,18159.19999998808,18571.30000001192,19043.09999999404,20131.40000000596,21155.19999998808,26579.30000001192,26995.40000000596,27959.30000001192,28407.19999998808,29335.30000001192,30375.30000001192,30827.30000001192,31595.19999998808,33067.09999999404,33647.09999999404,34159.09999999404,34847.19999998808,39283.80000001192,40199.5,40807.19999998808,41575,42103.90000000596,43004.69999998808],"key_events":[],"mouse_events":[6007.300000011921,10287.09999999404,13187.199999988079,13795,14515.199999988079,15355.09999999404,15743.300000011921,16175.59999999404,16639.09999999404,17055,17455,18159.19999998808,18571.30000001192,19043.09999999404,19491.09999999404,20131.40000000596,20563.5,21155.19999998808,24596.19999998808,26579.30000001192,26995.40000000596,27495.19999998808,27959.30000001192,28407.19999998808,29335.30000001192,29815.19999998808,30375.30000001192,30827.30000001192,31595.19999998808,32282.90000000596,33067.09999999404,33647.09999999404,34159.09999999404,34847.19999998808,38371.19999998808,39283.80000001192,40199.5,40807.19999998808,41575,42103.90000000596,43004.69999998808,44123.40000000596],"honeypot":0,"survey":"mace","page":8,"trial_type":"survey-mace","trial_index":16,"time_elapsed":616479,"internal_node_id":"0.0-16.0","task_version":"prescreen-v0.3","browser_interactions":0},{"responses":{"01":"Yes","01_ages_1":"1","01_ages_2":"2","01_ages_3":"3","01_ages_4":"4","01_ages_5":"5","01_ages_6":"6","01_ages_7":"7","01_ages_8":"8","01_ages_9":"9","01_ages_10":"10","01_ages_11":"11","01_ages_12":"12","01_ages_13":"13","01_ages_14":"14","01_ages_15":"15","01_ages_16":"16","01_ages_17":"17","01_ages_18":"18","02":"Yes","02_ages_1":"1","02_ages_2":"2","02_ages_3":"3","02_ages_4":"4","02_ages_5":"5","02_ages_6":"6","02_ages_7":"7","02_ages_8":"8","02_ages_9":"9","02_ages_10":"10","02_ages_11":"11","02_ages_12":"12","02_ages_13":"13","02_ages_14":"14","02_ages_15":"15","02_ages_16":"16","02_ages_17":"17","02_ages_18":"18","03":"Yes","03_ages_1":"1","03_ages_2":"2","03_ages_3":"3","03_ages_4":"4","03_ages_5":"5","03_ages_6":"6","03_ages_7":"7","03_ages_8":"8","03_ages_9":"9","03_ages_10":"10","03_ages_11":"11","03_ages_12":"12","03_ages_13":"13","03_ages_14":"14","03_ages_15":"15","03_ages_16":"16","03_ages_17":"17","03_ages_18":"18","04":"Yes","04_ages_1":"1","04_ages_2":"2","04_ages_3":"3","04_ages_4":"4","04_ages_5":"5","04_ages_6":"6","04_ages_7":"7","04_ages_8":"8","04_ages_9":"9","04_ages_10":"10","04_ages_11":"11","04_ages_12":"12","04_ages_13":"13","04_ages_14":"14","04_ages_15":"15","04_ages_16":"16","04_ages_17":"17","04_ages_18":"18"},"rt":62566.69999998808,"item_order":[0,1,2,3],"radio_events":[3676.699999988079,19828.69999998808,21940.5,25212.69999998808],"checkbox_events":[5120.5999999940395,5984.5999999940395,6496.800000011921,7264.9000000059605,7876.800000011921,8980.59999999404,9460.800000011921,10376.800000011921,10840.59999999404,11256.90000000596,11720.800000011921,12184.800000011921,12632.699999988079,13416.699999988079,14253.800000011921,15244.90000000596,15692.90000000596,17672.80000001192,26580.90000000596,27636.90000000596,28376.69999998808,28776.80000001192,29592.80000001192,30264.80000001192,30664.80000001192,31052.59999999404,32094,32893,33292.69999998808,33724.80000001192,34184.69999998808,35640.90000000596,36248.90000000596,36953,37500.59999999404,38220.59999999404,39196.69999998808,39852.69999998808,40464.69999998808,41040.69999998808,41792.59999999404,42432.80000001192,43364.80000001192,44052.80000001192,44628.69999998808,45252.69999998808,45700.69999998808,46392.90000000596,46904.69999998808,47433,48280.69999998808,48728.80000001192,49388.80000001192,49964.90000000596,51292.69999998808,51788.5,52316.59999999404,53072.80000001192,53760.69999998808,54257,54928.80000001192,55524.80000001192,56180.69999998808,56868.40000000596,57452.80000001192,57948.80000001192,58816.80000001192,59472.80000001192,60273,60817.80000001192,61392.5,62052.90000000596],"key_events":[],"mouse_events":[3676.699999988079,5120.5999999940395,5984.5999999940395,6496.800000011921,7264.9000000059605,7876.800000011921,8324.800000011921,8980.59999999404,9460.800000011921,9876.699999988079,10376.800000011921,10840.59999999404,11256.90000000596,11720.800000011921,12184.800000011921,12632.699999988079,13416.699999988079,13804.800000011921,14253.800000011921,15244.90000000596,15692.90000000596,16720.5,17672.80000001192,18600.59999999404,19828.69999998808,21940.5,25212.69999998808,26580.90000000596,27636.90000000596,28376.69999998808,28776.80000001192,29592.80000001192,30264.80000001192,30664.80000001192,31052.59999999404,32094,32462.90000000596,32893,33292.69999998808,33724.80000001192,34184.69999998808,34984.80000001192,35640.90000000596,36248.90000000596,36953,37500.59999999404,38220.59999999404,39196.69999998808,39852.69999998808,40464.69999998808,41040.69999998808,41792.59999999404,42432.80000001192,42912.80000001192,43364.80000001192,44052.80000001192,44628.69999998808,45252.69999998808,45700.69999998808,46392.90000000596,46904.69999998808,47433,48280.69999998808,48728.80000001192,49388.80000001192,49964.90000000596,51292.69999998808,51788.5,52316.59999999404,53072.80000001192,53760.69999998808,54257,54928.80000001192,55524.80000001192,56180.69999998808,56868.40000000596,57452.80000001192,57948.80000001192,58816.80000001192,59472.80000001192,60273,60817.80000001192,61392.5,62052.90000000596,62564.90000000596],"honeypot":0,"survey":"mace","page":9,"trial_type":"survey-mace","trial_index":17,"time_elapsed":679050,"internal_node_id":"0.0-17.0","task_version":"prescreen-v0.3","browser_interactions":0},{"responses":{"01":"No","02":"No","03":"Yes","03_ages_8":"8","03_ages_9":"9","03_ages_10":"10","03_ages_11":"11","03_ages_12":"12","03_ages_13":"13","03_ages_14":"14","03_ages_15":"15","03_ages_16":"16","03_ages_17":"17","03_ages_18":"18","04":"Yes","04_ages_4":"4","04_ages_5":"5","04_ages_6":"6","04_ages_7":"7","04_ages_8":"8","04_ages_9":"9","04_ages_10":"10","04_ages_11":"11","04_ages_12":"12","04_ages_13":"13","04_ages_14":"14","04_ages_15":"15","05":"Yes","05_ages_3":"3","05_ages_4":"4","05_ages_5":"5","05_ages_6":"6","05_ages_7":"7","05_ages_8":"8","05_ages_9":"9","06":"Yes","06_ages_17":"17","07":"Yes","07_ages_1":"1","07_ages_2":"2","07_ages_3":"3","07_ages_4":"4","07_ages_5":"5","07_ages_6":"6","07_ages_7":"7","07_ages_8":"8","07_ages_9":"9","07_ages_10":"10","07_ages_11":"11","07_ages_12":"12","07_ages_13":"13","07_ages_14":"14","07_ages_15":"15","07_ages_16":"16","07_ages_17":"17","07_ages_18":"18","08":"Yes","08_ages_1":"1","08_ages_2":"2","08_ages_3":"3","08_ages_4":"4","08_ages_5":"5","08_ages_6":"6","08_ages_7":"7","08_ages_8":"8","08_ages_9":"9","08_ages_10":"10","08_ages_11":"11","08_ages_12":"12","08_ages_13":"13","08_ages_14":"14","08_ages_15":"15","08_ages_16":"16","08_ages_17":"17","08_ages_18":"18"},"rt":84419.69999998808,"item_order":[0,1,2,3,4,5,6,7],"radio_events":[2908.199999988079,5744.4000000059605,7784.300000011921,20692.30000001192,35704.40000000596,47292.19999998808,51828.30000001192,69132.30000001192],"checkbox_events":[10380.40000000596,11312.59999999404,11872.40000000596,12464.199999988079,13152.300000011921,14032.199999988079,14884.40000000596,15796.09999999404,17140.40000000596,17688.30000001192,18488.30000001192,22404.09999999404,23012.19999998808,23673.19999998808,24760.30000001192,25736.40000000596,27548.09999999404,28013.69999998808,28540.5,28972.30000001192,29468.30000001192,30128.19999998808,32804.5,38264.19999998808,39068.40000000596,39660.30000001192,40260.90000000596,40980.19999998808,41428.19999998808,42544.30000001192,48576.30000001192,53412.19999998808,54136.19999998808,54600.40000000596,55032.19999998808,55552.30000001192,56000.40000000596,56432.19999998808,57724.30000001192,58140.09999999404,58572.40000000596,59436.40000000596,59904.09999999404,60416.09999999404,61120.19999998808,61712.30000001192,62804.40000000596,63612.40000000596,66024.30000001192,71516.30000001192,72080.30000001192,72832.40000000596,73328,73712.30000001192,74416.19999998808,75072,76004.19999998808,76692.40000000596,77187.90000000596,77620.09999999404,78068.30000001192,78584.30000001192,79112.40000000596,79768.5,80584.09999999404,82924.19999998808,83628.19999998808],"key_events":[],"mouse_events":[2908.199999988079,5744.4000000059605,7784.300000011921,10380.40000000596,11312.59999999404,11872.40000000596,12464.199999988079,13152.300000011921,14032.199999988079,14884.40000000596,15796.09999999404,16356.09999999404,17140.40000000596,17688.30000001192,18488.30000001192,20692.30000001192,22404.09999999404,23012.19999998808,23673.19999998808,24760.30000001192,25736.40000000596,27548.09999999404,28013.69999998808,28540.5,28972.30000001192,29468.30000001192,30128.19999998808,32804.5,34486.19999998808,35704.40000000596,38264.19999998808,39068.40000000596,39660.30000001192,40260.90000000596,40980.19999998808,41428.19999998808,42544.30000001192,47292.19999998808,48576.30000001192,51828.30000001192,53412.19999998808,54136.19999998808,54600.40000000596,55032.19999998808,55552.30000001192,56000.40000000596,56432.19999998808,56932.19999998808,57724.30000001192,58140.09999999404,58572.40000000596,59036.30000001192,59436.40000000596,59904.09999999404,60416.09999999404,61120.19999998808,61712.30000001192,62804.40000000596,63612.40000000596,64348.19999998808,66024.30000001192,68104.40000000596,69132.30000001192,70972.30000001192,71516.30000001192,72080.30000001192,72832.40000000596,73328,73712.30000001192,74416.19999998808,75072,75556.30000001192,76004.19999998808,76692.40000000596,77187.90000000596,77620.09999999404,78068.30000001192,78584.30000001192,79112.40000000596,79768.5,80584.09999999404,82924.19999998808,83628.19999998808,84416.19999998808],"honeypot":0,"survey":"mace","page":10,"trial_type":"survey-mace","trial_index":18,"time_elapsed":763477,"internal_node_id":"0.0-18.0","task_version":"prescreen-v0.3","browser_interactions":0,"instructed":0},{"rt":11162.90000000596,"trial_type":"mental-health-alert","trial_index":19,"time_elapsed":774644,"internal_node_id":"0.0-19.0","task_version":"prescreen-v0.3","interactions":"[]"}]