[{"view_history":[{"page_index":0,"viewing_time":3561.5},{"page_index":1,"viewing_time":4640.5999999940395},{"page_index":2,"viewing_time":3609.800000011921},{"page_index":3,"viewing_time":1295.5}],"rt":13108.299999982119,"trial_type":"instructions","trial_index":0,"time_elapsed":13139,"internal_node_id":"0.0-0.0","task_version":"prescreen-v0.3"},{"rt":20175.399999976158,"responses":{"age":"22","gender-categorical":"Female","gender-free-response":"","ethnicity":"Not Hispanic or Latino","race":["White"],"education":"Some college"},"trial_type":"survey-demo","trial_index":1,"time_elapsed":33321,"internal_node_id":"0.0-1.0","task_version":"prescreen-v0.3"},{"responses":{"Q15":"3","Q10":"1","Q09":"0","Q17":"1","Q13":"2","Q03":"3","Q14":"3","Q02":"1","Q01":"1","Q19":"1","Q18":"2","Q06":"1","Q05":"1","Q21":"3","Q11":"1","Q04":"3","Q12":"3","Q16":"3","Q07":"1","Q08":"2","Q20":"3"},"rt":110003.70000001788,"item_order":[14,9,8,16,12,2,13,1,0,18,17,5,4,20,10,3,11,15,6,7,19],"radio_events":[10168.800000011921,18157.600000023842,21686.90000000596,27840.20000001788,33313.80000001192,36839.40000000596,40680.60000002384,45753.30000001192,50862.10000002384,65604.20000001788,70414.60000002384,75112.40000000596,81395.10000002384,86119.90000000596,89388,93260.60000002384,96966,99986.30000001192,104182.40000000596,106508.20000001788,109109.90000000596],"key_events":[],"mouse_events":[10168.800000011921,18157.600000023842,21686.90000000596,27840.20000001788,33313.80000001192,36839.40000000596,39965.10000002384,40680.60000002384,45753.30000001192,50862.10000002384,65604.20000001788,70414.60000002384,75112.40000000596,81395.10000002384,86119.90000000596,89388,92784.40000000596,93260.60000002384,96966,99986.30000001192,104182.40000000596,106508.20000001788,109109.90000000596,110001.70000001788],"straightlining":0.42857142857142855,"zigzagging":0.4,"honeypot":0,"survey":"sns","trial_type":"survey-template","trial_index":2,"time_elapsed":143331,"internal_node_id":"0.0-2.0","task_version":"prescreen-v0.3","browser_interactions":0,"infrequency":0},{"responses":{"Q05":"2","Q01":"3","Q06":"2","Q03":"3","Q13":"0","Q12":"2","Q11":"2","Q08":"2","Q10":"2","Q04":"3","Q09":"2","Q02":"2","Q07":"2"},"rt":76634.40000000596,"item_order":[4,0,5,2,12,11,10,7,9,3,8,1,6],"radio_events":[14179.40000000596,16854,20403.29999998212,31007.79999998212,34449.90000000596,45174.90000000596,53299.40000000596,57930.19999998808,60962.29999998212,64614.69999998808,71062,74249.69999998808,75914.90000000596],"key_events":[],"mouse_events":[14179.40000000596,16854,20403.29999998212,31007.79999998212,34449.90000000596,45174.90000000596,48298.09999999404,53299.40000000596,57930.19999998808,60962.29999998212,64149.5,64614.69999998808,71062,74249.69999998808,75914.90000000596,76633.29999998212],"straightlining":0.6923076923076923,"zigzagging":0.5,"honeypot":0,"survey":"bisbas","trial_type":"survey-template","trial_index":3,"time_elapsed":219970,"internal_node_id":"0.0-3.0","task_version":"prescreen-v0.3","browser_interactions":0,"infrequency":0},{"responses":{"Q01":"3","Q02":"2","Q03":"1"},"rt":23737.80000001192,"radio_events":[9624,15704.90000000596,22442.40000000596],"key_events":[],"mouse_events":[9624,15704.90000000596,22442.40000000596,23736.30000001192],"survey":"map","page":1,"trial_type":"survey-map","trial_index":4,"time_elapsed":243713,"internal_node_id":"0.0-4.0","task_version":"prescreen-v0.3","browser_interactions":0},{"responses":{"Q04":"1","Q05":"1","Q06":"2"},"rt":27358.5,"radio_events":[4032.199999988079,6935.5999999940395,7859.4000000059605,22413.90000000596,26416],"key_events":[],"mouse_events":[4032.199999988079,6935.5999999940395,7859.4000000059605,22413.90000000596,26416,27358],"survey":"map","page":2,"trial_type":"survey-map","trial_index":5,"time_elapsed":271075,"internal_node_id":"0.0-5.0","task_version":"prescreen-v0.3","browser_interactions":0},{"responses":{"Q07":"1","Q08":"4","Q09":"1"},"rt":24041.19999998808,"radio_events":[15546.699999988079,16205.799999982119,20000.09999999404,22817.90000000596],"key_events":[],"mouse_events":[14921.299999982119,15546.699999988079,16205.799999982119,20000.09999999404,22817.90000000596,24040.59999999404],"survey":"map","page":3,"trial_type":"survey-map","trial_index":6,"time_elapsed":295119,"internal_node_id":"0.0-6.0","task_version":"prescreen-v0.3","browser_interactions":0},{"responses":{"Q10":"0","Q11":"0","Q12":"0","Q13":"1","Q16":"0","Q14":"2","Q15":"1"},"rt":36552.80000001192,"radio_events":[9147.199999988079,12850.90000000596,15669,20965.69999998808,26407.80000001192,29968.5,35093.80000001192],"key_events":[],"mouse_events":[9147.199999988079,12850.90000000596,15669,20965.69999998808,26407.80000001192,29968.5,35093.80000001192,36551.90000000596],"survey":"map","page":4,"trial_type":"survey-map","trial_index":7,"time_elapsed":331675,"internal_node_id":"0.0-7.0","task_version":"prescreen-v0.3","browser_interactions":0,"infrequency":0},{"view_history":[{"page_index":0,"viewing_time":1839.7000000178814},{"page_index":1,"viewing_time":2853.699999988079}],"rt":4693.800000011921,"trial_type":"instructions","trial_index":8,"time_elapsed":336370,"internal_node_id":"0.0-8.0","task_version":"prescreen-v0.3"},{"responses":{"01":"Yes","01_ages_7":"7","01_ages_8":"8","01_ages_9":"9","01_ages_10":"10","01_ages_11":"11","01_ages_12":"12","01_ages_13":"13","01_ages_14":"14","01_ages_15":"15","01_ages_16":"16","01_ages_17":"17","01_ages_18":"18","02":"Yes","02_ages_5":"5","02_ages_6":"6","02_ages_7":"7","02_ages_8":"8","02_ages_9":"9","02_ages_10":"10","02_ages_11":"11","02_ages_12":"12","02_ages_13":"13","02_ages_14":"14","02_ages_15":"15","02_ages_16":"16","02_ages_17":"17","02_ages_18":"18","03":"Yes","03_ages_5":"5","03_ages_6":"6","03_ages_7":"7","03_ages_8":"8","03_ages_9":"9","03_ages_10":"10","03_ages_11":"11","03_ages_12":"12","03_ages_13":"13","03_ages_14":"14","03_ages_15":"15","03_ages_16":"16","03_ages_17":"17","03_ages_18":"18","04":"Yes","04_ages_5":"5","04_ages_6":"6","04_ages_7":"7","04_ages_8":"8","04_ages_9":"9","04_ages_10":"10","04_ages_11":"11","04_ages_12":"12","04_ages_13":"13","04_ages_14":"14","04_ages_15":"15","04_ages_16":"16","04_ages_17":"17","04_ages_18":"18","05":"Yes","05_ages_9":"9","05_ages_10":"10","05_ages_11":"11","05_ages_12":"12","06":"Yes","06_ages_7":"7","06_ages_8":"8","06_ages_9":"9","06_ages_10":"10","06_ages_11":"11","06_ages_12":"12","06_ages_13":"13","06_ages_14":"14","06_ages_15":"15","06_ages_16":"16","06_ages_17":"17","06_ages_18":"18"},"rt":93076.80000001192,"item_order":[0,1,2,3,4,5],"radio_events":[6576.200000017881,31798.70000001788,44778.20000001788,57786.80000001192,68072.80000001192,81542],"checkbox_events":[22770.09999999404,23293.59999999404,23737.40000000596,24164.5,24569.5,24962,25450.5,25865.5,26294.20000001788,26677.40000000596,27190.30000001192,27606.5,36201.30000001192,36702.20000001788,37181.20000001788,37623.5,37991.90000000596,38327.40000000596,38673.09999999404,39041.5,39399,39949.30000001192,40284.40000000596,40761.90000000596,41168.09999999404,41502.5,46909.40000000596,47231.59999999404,47600.30000001192,48020.30000001192,48388.40000000596,48760.30000001192,49106.59999999404,49464.09999999404,49868.80000001192,50261.30000001192,50654.5,51081.59999999404,51451.40000000596,51843.70000001788,59775.80000001192,60143.40000000596,60548.09999999404,60917.40000000596,61275.5,61656.20000001788,62012.59999999404,62540.40000000596,62921.59999999404,63302.40000000596,63706.59999999404,64122.90000000596,64565.30000001192,65027.59999999404,76348.80000001192,77473.40000000596,78262.5,78763.30000001192,85228.80000001192,85657.40000000596,86015.80000001192,86431.20000001788,86885.80000001192,87251.40000000596,87693.5,88097.40000000596,90283,90690.09999999404,91094.5,91559.40000000596],"key_events":[],"mouse_events":[0.30000001192092896,6576.200000017881,22770.09999999404,23293.59999999404,23737.40000000596,24164.5,24569.5,24962,25450.5,25865.5,26294.20000001788,26677.40000000596,27190.30000001192,27606.5,31798.70000001788,36201.30000001192,36702.20000001788,37181.20000001788,37623.5,37991.90000000596,38327.40000000596,38673.09999999404,39041.5,39399,39949.30000001192,40284.40000000596,40761.90000000596,41168.09999999404,41502.5,44778.20000001788,46909.40000000596,47231.59999999404,47600.30000001192,48020.30000001192,48388.40000000596,48760.30000001192,49106.59999999404,49464.09999999404,49868.80000001192,50261.30000001192,50654.5,51081.59999999404,51451.40000000596,51843.70000001788,52766.09999999404,57786.80000001192,59775.80000001192,60143.40000000596,60548.09999999404,60917.40000000596,61275.5,61656.20000001788,62012.59999999404,62540.40000000596,62921.59999999404,63302.40000000596,63706.59999999404,64122.90000000596,64565.30000001192,65027.59999999404,65638.59999999404,68072.80000001192,76348.80000001192,77473.40000000596,78262.5,78763.30000001192,81542,85228.80000001192,85657.40000000596,86015.80000001192,86431.20000001788,86885.80000001192,87251.40000000596,87693.5,88097.40000000596,89782.40000000596,90283,90690.09999999404,91094.5,91559.40000000596,93074.20000001788],"honeypot":0,"survey":"mace","page":1,"trial_type":"survey-mace","trial_index":9,"time_elapsed":429457,"internal_node_id":"0.0-9.0","task_version":"prescreen-v0.3","browser_interactions":0},{"responses":{"01":"Yes","01_ages_7":"7","01_ages_8":"8","01_ages_9":"9","01_ages_10":"10","01_ages_11":"11","01_ages_12":"12","01_ages_13":"13","01_ages_14":"14","01_ages_15":"15","01_ages_16":"16","01_ages_17":"17","01_ages_18":"18","02":"No","03":"Yes","03_ages_4":"4","03_ages_5":"5","03_ages_6":"6","03_ages_7":"7","03_ages_8":"8","03_ages_9":"9","03_ages_10":"10","03_ages_11":"11","03_ages_12":"12","03_ages_13":"13","03_ages_14":"14","03_ages_15":"15","03_ages_16":"16","03_ages_17":"17","03_ages_18":"18","04":"Yes","04_ages_4":"4","04_ages_5":"5","04_ages_6":"6","04_ages_7":"7","04_ages_8":"8","04_ages_9":"9","05":"Yes","05_ages_5":"5","05_ages_6":"6","05_ages_7":"7","05_ages_8":"8","06":"Yes","06_ages_12":"12","06_ages_13":"13","06_ages_14":"14","06_ages_15":"15","06_ages_16":"16","06_ages_17":"17","06_ages_18":"18","07":"No","08":"No"},"rt":78343.79999998212,"item_order":[0,1,2,3,4,5,6,7],"radio_events":[3406.2999999821186,16756.40000000596,19079.19999998808,30874.90000000596,51067.79999998212,58918.90000000596,74732.90000000596,77549.90000000596],"checkbox_events":[6178.5,6612.199999988079,6945.9000000059605,7287.699999988079,7623,7990.799999982119,8347.799999982119,8681.799999982119,9039.799999982119,9384.59999999404,9743,10064.699999988079,10377,11128.799999982119,22437.90000000596,22747.79999998212,23162.5,23484.79999998212,23868.79999998212,24191.79999998212,24549,24894.40000000596,25263.59999999404,25668.09999999404,26024.69999998808,26463.79999998212,26821.79999998212,27260.79999998212,27738.79999998212,32239.79999998212,32537,32883.09999999404,33263.79999998212,33644.90000000596,34099.09999999404,34472.90000000596,34856.69999998808,35213.79999998212,35583.5,36033.69999998808,44149.09999999404,44496,44817,45236.90000000596,45643.79999998212,54926.59999999404,55328.69999998808,55829.69999998808,56187.90000000596,61469.19999998808,61837.90000000596,62195,62896.79999998212,63289,63670.19999998808,64039.5],"key_events":[],"mouse_events":[3406.2999999821186,6178.5,6612.199999988079,6945.9000000059605,7287.699999988079,7623,7990.799999982119,8347.799999982119,8681.799999982119,9039.799999982119,9384.59999999404,9743,10064.699999988079,10377,11128.799999982119,16756.40000000596,19079.19999998808,22437.90000000596,22747.79999998212,23162.5,23484.79999998212,23868.79999998212,24191.79999998212,24549,24894.40000000596,25263.59999999404,25668.09999999404,26024.69999998808,26463.79999998212,26821.79999998212,27260.79999998212,27738.79999998212,30874.90000000596,32239.79999998212,32537,32883.09999999404,33263.79999998212,33644.90000000596,34099.09999999404,34472.90000000596,34856.69999998808,35213.79999998212,35583.5,36033.69999998808,44149.09999999404,44496,44817,45236.90000000596,45643.79999998212,51067.79999998212,54926.59999999404,55328.69999998808,55829.69999998808,56187.90000000596,58918.90000000596,61469.19999998808,61837.90000000596,62195,62896.79999998212,63289,63670.19999998808,64039.5,74732.90000000596,77549.90000000596,78340.5],"honeypot":0,"survey":"mace","page":2,"trial_type":"survey-mace","trial_index":10,"time_elapsed":507808,"internal_node_id":"0.0-10.0","task_version":"prescreen-v0.3","browser_interactions":0},{"responses":{"01":"Yes","01_ages_14":"14","01_ages_15":"15","01_ages_16":"16","01_ages_17":"17","01_ages_18":"18","02":"No","03":"Yes","03_ages_18":"18","04":"No"},"rt":35442,"item_order":[0,1,2,3],"radio_events":[8426.5,26426.29999998212,28992.40000000596,34844.29999998212],"checkbox_events":[17305.79999998212,17664.90000000596,17975.29999998212,18305.79999998212,18709.40000000596,19117.69999998808,20592.29999998212,31811.79999998212],"key_events":[],"mouse_events":[8426.5,17305.79999998212,17664.90000000596,17975.29999998212,18305.79999998212,18709.40000000596,19117.69999998808,20592.29999998212,26426.29999998212,28992.40000000596,31811.79999998212,34844.29999998212,35440.19999998808],"honeypot":0,"survey":"mace","page":3,"trial_type":"survey-mace","trial_index":11,"time_elapsed":543253,"internal_node_id":"0.0-11.0","task_version":"prescreen-v0.3","browser_interactions":0},{"responses":{"01":"Yes","01_ages_15":"15","01_ages_16":"16","01_ages_17":"17","01_ages_18":"18","02":"Yes","02_ages_15":"15","02_ages_16":"16","02_ages_17":"17","02_ages_18":"18"},"rt":35874.30000001192,"item_order":[0,1],"radio_events":[12112.5,25563.80000001192],"checkbox_events":[20171.30000001192,20663.100000023842,20986.100000023842,21270.100000023842,34499.10000002384,34809,35132.10000002384,35418.10000002384],"key_events":[],"mouse_events":[12112.5,20171.30000001192,20663.100000023842,20986.100000023842,21270.100000023842,25563.80000001192,34499.10000002384,34809,35132.10000002384,35418.10000002384,35873.30000001192],"honeypot":0,"survey":"mace","page":4,"trial_type":"survey-mace","trial_index":12,"time_elapsed":579130,"internal_node_id":"0.0-12.0","task_version":"prescreen-v0.3","browser_interactions":0},{"responses":{"01":"Yes","01_ages_7":"7","01_ages_8":"8","01_ages_9":"9","01_ages_10":"10","01_ages_11":"11","01_ages_12":"12","01_ages_13":"13","01_ages_14":"14","01_ages_15":"15","01_ages_16":"16","01_ages_17":"17","02":"Yes","02_ages_15":"15","03":"No","04":"No","05":"No"},"rt":55229.59999999404,"item_order":[0,1,2,3,4],"radio_events":[8574.09999999404,30613.19999998808,34823.5,38755.59999999404,51765.90000000596,54761.40000000596],"checkbox_events":[11588.699999988079,14141.40000000596,14711.90000000596,15069.59999999404,15379.799999982119,15748.699999988079,16118.799999982119,16677.79999998212,16999.79999998212,17408.79999998212,17761.79999998212,18193.59999999404,18526.40000000596,41966.09999999404,42360.69999998808,44826.40000000596,44953.40000000596,45863.29999998212],"key_events":[],"mouse_events":[8574.09999999404,11588.699999988079,14141.40000000596,14711.90000000596,15069.59999999404,15379.799999982119,15748.699999988079,16118.799999982119,16677.79999998212,16999.79999998212,17408.79999998212,17761.79999998212,18193.59999999404,18526.40000000596,30613.19999998808,34823.5,38755.59999999404,41966.09999999404,42360.69999998808,44826.40000000596,44953.40000000596,45863.29999998212,51765.90000000596,54761.40000000596,55227.29999998212],"honeypot":0,"survey":"mace","page":5,"trial_type":"survey-mace","trial_index":13,"time_elapsed":634364,"internal_node_id":"0.0-13.0","task_version":"prescreen-v0.3","browser_interactions":0},{"responses":{"01":"Yes","01_ages_8":"8","01_ages_9":"9","01_ages_10":"10","01_ages_11":"11","01_ages_12":"12","01_ages_13":"13","01_ages_14":"14","01_ages_15":"15","01_ages_16":"16","01_ages_17":"17","02":"Yes","02_ages_7":"7","02_ages_8":"8","02_ages_9":"9","02_ages_10":"10","02_ages_11":"11","02_ages_12":"12","02_ages_13":"13","02_ages_14":"14","02_ages_15":"15","02_ages_16":"16","02_ages_17":"17","02_ages_18":"18","03":"Yes","03_ages_10":"10","03_ages_11":"11","03_ages_12":"12","03_ages_13":"13","03_ages_14":"14","03_ages_15":"15","03_ages_16":"16","03_ages_17":"17","04":"Yes","04_ages_4":"4","04_ages_5":"5","04_ages_6":"6","04_ages_7":"7","04_ages_8":"8","04_ages_9":"9","04_ages_10":"10","04_ages_11":"11","04_ages_12":"12","04_ages_13":"13","04_ages_14":"14","04_ages_15":"15","04_ages_16":"16","04_ages_17":"17","04_ages_18":"18","05":"Yes","05_ages_8":"8","05_ages_9":"9","05_ages_10":"10","05_ages_11":"11","05_ages_12":"12","05_ages_13":"13","05_ages_14":"14","05_ages_15":"15","05_ages_16":"16","05_ages_17":"17"},"rt":69581.30000001192,"item_order":[0,1,2,3,4],"radio_events":[8762.300000011921,28114,39466.40000000596,46626.59999999404,57003.69999998808],"checkbox_events":[14640.09999999404,15415.699999988079,15845.59999999404,16180.5,16513.40000000596,16859.69999998808,17204.59999999404,17539.69999998808,17920.80000001192,18818.59999999404,30010,30292.69999998808,30672.80000001192,30982.5,31305.5,31673.30000001192,32094.30000001192,32400.69999998808,32808.5,33200.69999998808,33593.40000000596,33997.59999999404,41083.30000001192,41537.69999998808,41905.5,42240.5,42643.69999998808,43001.09999999404,43443.69999998808,43850.59999999404,48654,49011.09999999404,49379.80000001192,49822.69999998808,50168,50599.5,50979.59999999404,51363.59999999404,51736.30000001192,52119.59999999404,52550.69999998808,52946.80000001192,53367.09999999404,53843.59999999404,54250.5,62412,65637.09999999404,66029.69999998808,66362.5,66711.80000001192,67069.59999999404,67570.40000000596,67926.5,68226.40000000596,69122.30000001192],"key_events":[],"mouse_events":[8762.300000011921,14640.09999999404,15415.699999988079,15845.59999999404,16180.5,16513.40000000596,16859.69999998808,17204.59999999404,17539.69999998808,17920.80000001192,18243,18818.59999999404,28114,30010,30292.69999998808,30672.80000001192,30982.5,31305.5,31673.30000001192,32094.30000001192,32400.69999998808,32808.5,33200.69999998808,33593.40000000596,33997.59999999404,39466.40000000596,41083.30000001192,41537.69999998808,41905.5,42240.5,42643.69999998808,43001.09999999404,43443.69999998808,43850.59999999404,46626.59999999404,48654,49011.09999999404,49379.80000001192,49822.69999998808,50168,50599.5,50979.59999999404,51363.59999999404,51736.30000001192,52119.59999999404,52550.69999998808,52946.80000001192,53367.09999999404,53843.59999999404,54250.5,57003.69999998808,62412,65637.09999999404,66029.69999998808,66362.5,66711.80000001192,67069.59999999404,67570.40000000596,67926.5,68226.40000000596,69122.30000001192,69579.09999999404],"honeypot":0,"survey":"mace","page":6,"trial_type":"survey-mace","trial_index":14,"time_elapsed":703950,"internal_node_id":"0.0-14.0","task_version":"prescreen-v0.3","browser_interactions":0},{"responses":{"01":"Yes","01_ages_8":"8","01_ages_9":"9","02":"No","03":"Yes","03_ages_10":"10","03_ages_11":"11","04":"No","05":"No","06":"Yes","06_ages_15":"15","06_ages_16":"16","06_ages_17":"17","07":"Yes","07_ages_15":"15","07_ages_16":"16","07_ages_17":"17"},"rt":44578.20000001788,"item_order":[0,1,2,3,4,5,6],"radio_events":[6983.100000023842,12372.90000000596,14906.90000000596,22390.30000001192,23888.600000023842,28228.5,41201.90000000596],"checkbox_events":[7990.100000023842,8249.600000023842,15710.100000023842,16162.40000000596,17949.70000001788,18631,32762,33144.5,36811,43487.30000001192,43890.70000001788,44177.30000001192],"key_events":[],"mouse_events":[6983.100000023842,7990.100000023842,8249.600000023842,12372.90000000596,14906.90000000596,15710.100000023842,16162.40000000596,17949.70000001788,18631,19289.20000001788,19969,22390.30000001192,23888.600000023842,28228.5,32762,33144.5,36811,41201.90000000596,43487.30000001192,43890.70000001788,44177.30000001192,44574.80000001192],"honeypot":0,"survey":"mace","page":7,"trial_type":"survey-mace","trial_index":15,"time_elapsed":748533,"internal_node_id":"0.0-15.0","task_version":"prescreen-v0.3","browser_interactions":0},{"responses":{"01":"Yes","01_ages_6":"6","01_ages_7":"7","01_ages_8":"8","01_ages_9":"9","01_ages_10":"10","01_ages_11":"11","01_ages_12":"12","01_ages_13":"13","01_ages_14":"14","01_ages_15":"15","01_ages_16":"16","01_ages_17":"17","01_ages_18":"18","02":"Yes","02_ages_1":"1","02_ages_2":"2","02_ages_3":"3","02_ages_4":"4","02_ages_5":"5","02_ages_6":"6","02_ages_7":"7","02_ages_8":"8","02_ages_9":"9","02_ages_10":"10","02_ages_11":"11","02_ages_12":"12","02_ages_13":"13","02_ages_14":"14","02_ages_15":"15","02_ages_16":"16","02_ages_17":"17","02_ages_18":"18","03":"Yes","03_ages_4":"4","03_ages_5":"5","03_ages_6":"6","03_ages_7":"7","03_ages_8":"8","03_ages_9":"9","03_ages_10":"10","03_ages_11":"11","03_ages_12":"12","03_ages_13":"13","03_ages_14":"14","03_ages_15":"15","03_ages_16":"16","03_ages_17":"17","03_ages_18":"18","04":"Yes","04_ages_4":"4","04_ages_5":"5","04_ages_6":"6","04_ages_7":"7","04_ages_8":"8","04_ages_9":"9","04_ages_10":"10","04_ages_11":"11","04_ages_12":"12","04_ages_13":"13","04_ages_14":"14","04_ages_15":"15","04_ages_16":"16","04_ages_17":"17","04_ages_18":"18"},"rt":62655.79999998212,"item_order":[0,1,2,3],"radio_events":[7836,22551.899999976158,26989,44305.19999998808,54902.5],"checkbox_events":[11862.299999982119,12280.59999999404,12542.799999982119,12807.899999976158,13168.299999982119,13467.5,13802.699999988079,14112.5,14435.799999982119,14757.59999999404,15173.199999988079,15507.799999982119,15911.5,34892.79999998212,35334.39999997616,35633.5,35956.5,36263.69999998808,36679.79999998212,36977.59999999404,37323.39999997616,37646.69999998808,38030.69999998808,38582.79999998212,38889.69999998808,39269.5,39639.5,40007.69999998808,40497.59999999404,40866.39999997616,41188.69999998808,46980.09999999404,47262.69999998808,47568.39999997616,47903.19999998808,48248.59999999404,48559.29999998212,48892.09999999404,49191.69999998808,49514.29999998212,49872.5,50252.39999997616,50679.59999999404,51033.69999998808,51387,51768.5,56539.09999999404,56871.39999997616,57240.29999998212,57609.69999998808,57919.89999997616,58288.59999999404,58636,58992.39999997616,59376.69999998808,60095.79999998212,60487.79999998212,60794.69999998808,61129.5,61447.19999998808,61707.79999998212],"key_events":[],"mouse_events":[7836,11862.299999982119,12280.59999999404,12542.799999982119,12807.899999976158,13168.299999982119,13467.5,13802.699999988079,14112.5,14435.799999982119,14757.59999999404,15173.199999988079,15507.799999982119,15911.5,22551.899999976158,26989,34892.79999998212,35334.39999997616,35633.5,35956.5,36263.69999998808,36679.79999998212,36977.59999999404,37323.39999997616,37646.69999998808,38030.69999998808,38582.79999998212,38889.69999998808,39269.5,39639.5,40007.69999998808,40497.59999999404,40866.39999997616,41188.69999998808,44305.19999998808,46980.09999999404,47262.69999998808,47568.39999997616,47903.19999998808,48248.59999999404,48559.29999998212,48892.09999999404,49191.69999998808,49514.29999998212,49872.5,50252.39999997616,50679.59999999404,51033.69999998808,51387,51768.5,54902.5,56539.09999999404,56871.39999997616,57240.29999998212,57609.69999998808,57919.89999997616,58288.59999999404,58636,58992.39999997616,59376.69999998808,60095.79999998212,60487.79999998212,60794.69999998808,61129.5,61447.19999998808,61707.79999998212,62105,62654],"honeypot":0,"survey":"mace","page":8,"trial_type":"survey-mace","trial_index":16,"time_elapsed":811192,"internal_node_id":"0.0-16.0","task_version":"prescreen-v0.3","browser_interactions":0},{"responses":{"01":"Yes","01_ages_1":"1","01_ages_2":"2","01_ages_3":"3","01_ages_4":"4","01_ages_5":"5","01_ages_6":"6","01_ages_7":"7","01_ages_8":"8","01_ages_9":"9","01_ages_10":"10","01_ages_11":"11","01_ages_12":"12","01_ages_13":"13","01_ages_14":"14","01_ages_15":"15","01_ages_16":"16","01_ages_17":"17","01_ages_18":"18","02":"Yes","02_ages_1":"1","02_ages_2":"2","02_ages_3":"3","02_ages_4":"4","02_ages_5":"5","02_ages_6":"6","02_ages_7":"7","02_ages_8":"8","02_ages_9":"9","02_ages_10":"10","02_ages_11":"11","02_ages_12":"12","02_ages_13":"13","02_ages_14":"14","02_ages_15":"15","02_ages_16":"16","02_ages_17":"17","02_ages_18":"18","03":"Yes","03_ages_1":"1","03_ages_2":"2","03_ages_3":"3","03_ages_4":"4","03_ages_5":"5","03_ages_6":"6","03_ages_7":"7","03_ages_8":"8","03_ages_9":"9","03_ages_10":"10","03_ages_11":"11","03_ages_12":"12","03_ages_13":"13","03_ages_14":"14","03_ages_15":"15","03_ages_16":"16","03_ages_17":"17","03_ages_18":"18","04":"Yes","04_ages_1":"1","04_ages_2":"2","04_ages_3":"3","04_ages_4":"4","04_ages_5":"5","04_ages_6":"6","04_ages_7":"7","04_ages_8":"8","04_ages_9":"9","04_ages_10":"10","04_ages_11":"11","04_ages_12":"12","04_ages_13":"13","04_ages_14":"14","04_ages_15":"15","04_ages_16":"16","04_ages_17":"17","04_ages_18":"18"},"rt":49912.10000002384,"item_order":[0,1,2,3],"radio_events":[4097.100000023842,14749.200000017881,24213.70000001788,41025.70000001788],"checkbox_events":[6665.200000017881,6982.800000011921,7329,7638.700000017881,7974,8292,8615.100000023842,8922.300000011921,9244.200000017881,9570.5,9966,10299,10648.200000017881,11018.300000011921,11340,11675.5,12021,12315.90000000596,15778.600000023842,16341.100000023842,16624,16943.100000023842,17338.20000001788,17746,18141.600000023842,18453.30000001192,18763.100000023842,19098.5,19419.100000023842,19800.100000023842,20121.100000023842,20445.40000000596,20789.90000000596,21086.20000001788,21536,21824.5,26742.70000001788,27168,27514,27821.100000023842,28202,28571,28889.20000001788,29284.70000001788,29704.90000000596,30089.30000001192,30508.100000023842,30826.100000023842,31327.30000001192,31769.100000023842,32140.70000001788,32511.40000000596,32868,33175.70000001788,41933.40000000596,42329.10000002384,42870.20000001788,43331.90000000596,43701.10000002384,44069.90000000596,44427.20000001788,44846.5,45203.80000001192,45554.30000001192,45923.30000001192,46305.20000001788,46817.20000001788,47221,47589.70000001788,47943.5,48266.30000001192,48539],"key_events":[],"mouse_events":[4097.100000023842,6665.200000017881,6982.800000011921,7329,7638.700000017881,7974,8292,8615.100000023842,8922.300000011921,9244.200000017881,9570.5,9966,10299,10648.200000017881,11018.300000011921,11340,11675.5,12021,12315.90000000596,14749.200000017881,15778.600000023842,16341.100000023842,16624,16943.100000023842,17338.20000001788,17746,18141.600000023842,18453.30000001192,18763.100000023842,19098.5,19419.100000023842,19800.100000023842,20121.100000023842,20445.40000000596,20789.90000000596,21086.20000001788,21536,21824.5,24213.70000001788,26742.70000001788,27168,27514,27821.100000023842,28202,28571,28889.20000001788,29284.70000001788,29704.90000000596,30089.30000001192,30508.100000023842,30826.100000023842,31327.30000001192,31769.100000023842,32140.70000001788,32511.40000000596,32868,33175.70000001788,41025.70000001788,41933.40000000596,42329.10000002384,42870.20000001788,43331.90000000596,43701.10000002384,44069.90000000596,44427.20000001788,44846.5,45203.80000001192,45554.30000001192,45923.30000001192,46305.20000001788,46817.20000001788,47221,47589.70000001788,47943.5,48266.30000001192,48539,49910.30000001192],"honeypot":0,"survey":"mace","page":9,"trial_type":"survey-mace","trial_index":17,"time_elapsed":861109,"internal_node_id":"0.0-17.0","task_version":"prescreen-v0.3","browser_interactions":0},{"responses":{"01":"No","02":"No","03":"Yes","03_ages_7":"7","03_ages_8":"8","03_ages_9":"9","03_ages_10":"10","03_ages_11":"11","03_ages_12":"12","03_ages_13":"13","03_ages_14":"14","03_ages_15":"15","03_ages_16":"16","03_ages_17":"17","03_ages_18":"18","04":"Yes","04_ages_1":"1","04_ages_2":"2","04_ages_3":"3","04_ages_4":"4","04_ages_5":"5","04_ages_6":"6","04_ages_7":"7","04_ages_8":"8","04_ages_9":"9","04_ages_10":"10","04_ages_11":"11","04_ages_12":"12","04_ages_13":"13","04_ages_14":"14","04_ages_15":"15","04_ages_16":"16","04_ages_17":"17","04_ages_18":"18","05":"Yes","05_ages_4":"4","05_ages_5":"5","05_ages_6":"6","05_ages_7":"7","05_ages_8":"8","05_ages_9":"9","05_ages_10":"10","05_ages_11":"11","05_ages_12":"12","05_ages_13":"13","06":"Yes","06_ages_17":"17","07":"Yes","07_ages_1":"1","07_ages_2":"2","07_ages_3":"3","07_ages_4":"4","07_ages_5":"5","07_ages_6":"6","07_ages_7":"7","07_ages_8":"8","07_ages_9":"9","07_ages_10":"10","07_ages_11":"11","07_ages_12":"12","07_ages_13":"13","07_ages_14":"14","07_ages_15":"15","07_ages_16":"16","07_ages_17":"17","07_ages_18":"18","08":"No"},"rt":108326.59999999404,"item_order":[0,1,2,3,4,5,6,7],"radio_events":[44096.59999999404,47226.19999998808,51466.59999999404,62227.5,79252.69999998808,89284.59999999404,96518.29999998212,107664.39999997616],"checkbox_events":[55965.39999997616,56314,56601.39999997616,56924,57305.09999999404,57720.29999998212,58100.79999998212,58411.09999999404,58757.19999998808,59090.09999999404,59510.39999997616,59797.79999998212,63692.89999997616,63991.5,64313.09999999404,64658.89999997616,65315.09999999404,65706.59999999404,66424,66769.89999997616,67154.5,67583.69999998808,67895,68193.89999997616,68539.29999998212,68872.89999997616,69171.29999998212,69637.29999998212,70018,70300.89999997616,80763.59999999404,81092,81426.79999998212,81709.89999997616,82475,83468,83731.79999998212,84078.09999999404,84376,84938.89999997616,91174.79999998212,91662.29999998212,91957,97307.79999998212,97685.89999997616,97982,98291.79999998212,98627.19999998808,98947.29999998212,99307.79999998212,99618,99964,100394.09999999404,100778,101146.09999999404,101504.19999998808,101907.79999998212,102311,102657.09999999404,103012.69999998808,103347.09999999404],"key_events":[],"mouse_events":[44096.59999999404,47226.19999998808,51466.59999999404,55965.39999997616,56314,56601.39999997616,56924,57305.09999999404,57720.29999998212,58100.79999998212,58411.09999999404,58757.19999998808,59090.09999999404,59510.39999997616,59797.79999998212,60385.39999997616,62227.5,63692.89999997616,63991.5,64313.09999999404,64658.89999997616,65315.09999999404,65706.59999999404,66424,66769.89999997616,67154.5,67583.69999998808,67895,68193.89999997616,68539.29999998212,68872.89999997616,69171.29999998212,69637.29999998212,70018,70300.89999997616,79252.69999998808,80763.59999999404,81092,81426.79999998212,81709.89999997616,82475,83468,83731.79999998212,84078.09999999404,84376,84938.89999997616,89284.59999999404,91174.79999998212,91662.29999998212,91957,96518.29999998212,97307.79999998212,97685.89999997616,97982,98291.79999998212,98627.19999998808,98947.29999998212,99307.79999998212,99618,99964,100394.09999999404,100778,101146.09999999404,101504.19999998808,101907.79999998212,102311,102657.09999999404,103012.69999998808,103347.09999999404,107664.39999997616,108320.89999997616],"honeypot":0,"survey":"mace","page":10,"trial_type":"survey-mace","trial_index":18,"time_elapsed":969441,"internal_node_id":"0.0-18.0","task_version":"prescreen-v0.3","browser_interactions":0,"instructed":0},{"rt":13135.40000000596,"trial_type":"mental-health-alert","trial_index":19,"time_elapsed":982578,"internal_node_id":"0.0-19.0","task_version":"prescreen-v0.3","interactions":"[]"}]