[{"view_history":[{"page_index":0,"viewing_time":6110.329999995884},{"page_index":1,"viewing_time":6200.305000005756},{"page_index":2,"viewing_time":8264.114999998128},{"page_index":3,"viewing_time":2038.1449999986216}],"rt":22614.8749999993,"trial_type":"instructions","trial_index":0,"time_elapsed":22635,"internal_node_id":"0.0-0.0","task_version":"prescreen-v0.3"},{"rt":34189.2050000024,"responses":{"age":"28","gender-categorical":"Male","gender-free-response":"","ethnicity":"Not Hispanic or Latino","race":["Black or African American"],"education":"Bachelor degree","siblings":"3"},"trial_type":"survey-demo","trial_index":1,"time_elapsed":56837,"internal_node_id":"0.0-1.0","task_version":"prescreen-v0.3"},{"responses":{"Q17":"2","Q14":"1","Q20":"1","Q08":"3","Q21":"3","Q04":"1","Q03":"0","Q19":"1","Q05":"2","Q01":"3","Q16":"0","Q06":"2","Q13":"0","Q12":"0","Q10":"0","Q02":"0","Q11":"2","Q09":"0","Q15":"0","Q18":"0","Q07":"0"},"rt":291407.1949999925,"item_order":[16,13,19,7,20,3,2,18,4,0,15,5,12,11,9,1,10,8,14,17,6],"radio_events":[9551.259999992908,20202.154999991762,21926.37499999546,27792.089999988093,31414.93499999342,39598.64999999991,43982.32499998994,53261.49499999883,57242.70499999693,70333.96499999799,79119.37999998918,82750.8600000001,92854.22999999719,104733.3149999904,111692.90999999794,126722.14999998687,131892.6899999933,136615.64999999246,139512.12999998825,146916.6799999948,196814.96999999217,203192.8149999876,208462.7649999893,210412.67499999958,217559.3200000003,229056.58499999845,236657.81999999308,261120.20499999926],"key_events":[],"mouse_events":[8588.084999995772,9551.259999992908,20202.154999991762,21926.37499999546,27792.089999988093,31414.93499999342,39598.64999999991,43982.32499998994,52083.19999999367,53261.49499999883,57242.70499999693,69360.82499999611,70333.96499999799,79119.37999998918,80715.82499999204,82750.8600000001,92854.22999999719,102900.2049999981,103699.17999999598,104733.3149999904,111692.90999999794,126722.14999998687,131892.6899999933,136615.64999999246,139512.12999998825,146916.6799999948,195858.89499999757,196814.96999999217,203192.8149999876,207617.0349999884,208462.7649999893,210412.67499999958,217559.3200000003,229056.58499999845,236657.81999999308,261120.20499999926,291400.40499999304],"straightlining":0.47619047619047616,"zigzagging":0.3,"honeypot":0,"survey":"sns","trial_type":"survey-template","trial_index":2,"time_elapsed":348256,"internal_node_id":"0.0-2.0","task_version":"prescreen-v0.3","browser_interactions":0,"infrequency":0},{"responses":{"Q08":"3","Q01":"0","Q04":"0","Q09":"3","Q13":"0","Q02":"0","Q05":"3","Q11":"3","Q12":"2","Q07":"2","Q10":"3","Q06":"3","Q03":"1"},"rt":241451.95499999681,"item_order":[7,0,3,8,12,1,4,10,11,6,9,5,2],"radio_events":[154337.20500000345,159357.81000000134,162480.98500000197,167231.1849999969,169778.69500000088,171877.98000000475,175726.2650000048,187289.18500000145,193052.73999999918,197893.60999999917,205091.61499999755,214187.34999999288,232787.6499999984,235168.3800000028,238991.9249999948],"key_events":[],"mouse_events":[147977.65000000072,153452.42499999586,154337.20500000345,158084.91499999946,159357.81000000134,162480.98500000197,167231.1849999969,169778.69500000088,171877.98000000475,175726.2650000048,186453.3950000041,187289.18500000145,193052.73999999918,196703.03999999305,197893.60999999917,205091.61499999755,214187.34999999288,232787.6499999984,235168.3800000028,238991.9249999948,241449.34999999532],"straightlining":0.46153846153846156,"zigzagging":0.5,"honeypot":0,"survey":"bisbas","trial_type":"survey-template","trial_index":3,"time_elapsed":589715,"internal_node_id":"0.0-3.0","task_version":"prescreen-v0.3","browser_interactions":0,"infrequency":0},{"responses":{"Q01":"3","Q02":"2","Q03":"3"},"rt":27163.019999992684,"radio_events":[8518.639999994775,19131.469999992987,26186.730000001262],"key_events":[],"mouse_events":[7539.6899999905145,8518.639999994775,19131.469999992987,26186.730000001262,27160.250000000815],"survey":"map","page":1,"trial_type":"survey-map","trial_index":4,"time_elapsed":616885,"internal_node_id":"0.0-4.0","task_version":"prescreen-v0.3","browser_interactions":0},{"responses":{"Q04":"4","Q05":"3","Q06":"3"},"rt":56187.235000004875,"radio_events":[36140.64499999222,48489.025000002584,54801.56999999599],"key_events":[],"mouse_events":[34955.589999997756,36140.64499999222,47655.59999999823,48489.025000002584,54801.56999999599,56185.920000003534],"survey":"map","page":2,"trial_type":"survey-map","trial_index":5,"time_elapsed":673078,"internal_node_id":"0.0-5.0","task_version":"prescreen-v0.3","browser_interactions":0},{"responses":{"Q07":"2","Q08":"2","Q09":"3"},"rt":29198.480000006384,"radio_events":[17045.209999996587,22134.22000000719,28144.905000008293],"key_events":[],"mouse_events":[15842.810000001919,17045.209999996587,22134.22000000719,28144.905000008293,29196.179999999003],"survey":"map","page":3,"trial_type":"survey-map","trial_index":6,"time_elapsed":702282,"internal_node_id":"0.0-6.0","task_version":"prescreen-v0.3","browser_interactions":0},{"responses":{"Q10":"3","Q11":"2","Q12":"3","Q13":"3","Q16":"0","Q14":"4","Q15":"3"},"rt":54567.324999996345,"radio_events":[4928.669999993872,10082.699999999022,18925.33500000718,30765.864999993937,40200.244999999995,47999.44499999401,49048.259999995935,53195.9349999961],"key_events":[],"mouse_events":[4928.669999993872,10082.699999999022,18925.33500000718,30049.13499999384,30765.864999993937,40200.244999999995,47021.9700000016,47999.44499999401,49048.259999995935,53195.9349999961,54564.67999999586],"survey":"map","page":4,"trial_type":"survey-map","trial_index":7,"time_elapsed":756856,"internal_node_id":"0.0-7.0","task_version":"prescreen-v0.3","browser_interactions":0,"infrequency":0},{"view_history":[{"page_index":0,"viewing_time":2934.9249999941094},{"page_index":1,"viewing_time":6690.235000001849}],"rt":9625.599999999395,"trial_type":"instructions","trial_index":8,"time_elapsed":766483,"internal_node_id":"0.0-8.0","task_version":"prescreen-v0.3"},{"responses":{"01":"Yes","01_ages_8":"8","01_ages_9":"9","01_ages_10":"10","01_ages_11":"11","01_ages_12":"12","02":"No","03":"Yes","03_ages_8":"8","03_ages_9":"9","03_ages_10":"10","03_ages_11":"11","03_ages_12":"12","04":"No","05":"No","06":"No"},"rt":72769.38499999233,"item_order":[0,1,2,3,4,5],"radio_events":[14518.259999997099,19605.77999999805,38089.81499999936,47676.699999996345,50120.0450000033,58194.00999999198,61351.73500000383],"checkbox_events":[26518.150000003516,27765.83999999275,28851.834999994026,29580.415000003995,30738.19000000367,65208.35499999521,66310.7799999998,67183.83999999787,68641.32500000414,69453.89000000432],"key_events":[],"mouse_events":[0.3799999976763502,12503.71499999892,14518.259999997099,19605.77999999805,26518.150000003516,27765.83999999275,28851.834999994026,29580.415000003995,30738.19000000367,38089.81499999936,47676.699999996345,50120.0450000033,58194.00999999198,61351.73500000383,65208.35499999521,66310.7799999998,67183.83999999787,68641.32500000414,69453.89000000432,72763.0599999975],"honeypot":0,"survey":"mace","page":1,"trial_type":"survey-mace","trial_index":9,"time_elapsed":839266,"internal_node_id":"0.0-9.0","task_version":"prescreen-v0.3","browser_interactions":0},{"responses":{"01":"No","02":"No","03":"Yes","03_ages_8":"8","03_ages_9":"9","03_ages_10":"10","03_ages_11":"11","03_ages_12":"12","04":"No","05":"Yes","05_ages_8":"8","05_ages_9":"9","05_ages_10":"10","05_ages_11":"11","05_ages_12":"12","06":"No","07":"No","08":"No"},"rt":49827.87000000826,"item_order":[0,1,2,3,4,5,6,7],"radio_events":[4264.324999996461,8977.490000004764,11704.970000006142,29700.035000001662,33132.299999997485,42607.889999999315,45609.16000000725,47750.55500000599],"checkbox_events":[14876.390000004903,15632.385000004433,16410.384999995586,17141.62999999826,18081.355000002077,35166.754999998375,35816.56999999541,37578.754999995,38543.82500000065,39293.12000000209],"key_events":[],"mouse_events":[4264.324999996461,8977.490000004764,11704.970000006142,14876.390000004903,15632.385000004433,16410.384999995586,17141.62999999826,18081.355000002077,29700.035000001662,33132.299999997485,34448.91999999527,35166.754999998375,35816.56999999541,36474.62999999698,37578.754999995,38543.82500000065,39293.12000000209,42607.889999999315,45609.16000000725,47750.55500000599,49820.72000000335],"honeypot":0,"survey":"mace","page":2,"trial_type":"survey-mace","trial_index":10,"time_elapsed":889102,"internal_node_id":"0.0-10.0","task_version":"prescreen-v0.3","browser_interactions":0},{"responses":{"01":"No","02":"No","03":"No","04":"No"},"rt":13542.084999993676,"item_order":[0,1,2,3],"radio_events":[4768.054999993183,8315.310000005411,11720.220000002882,12752.989999993588],"checkbox_events":[],"key_events":[],"mouse_events":[4768.054999993183,8315.310000005411,11720.220000002882,12752.989999993588,13536.489999998594],"honeypot":0,"survey":"mace","page":3,"trial_type":"survey-mace","trial_index":11,"time_elapsed":902652,"internal_node_id":"0.0-11.0","task_version":"prescreen-v0.3","browser_interactions":0},{"responses":{"01":"No","02":"No"},"rt":12041.31500000949,"item_order":[0,1],"radio_events":[2851.1600000056205,5041.895000002114],"checkbox_events":[],"key_events":[],"mouse_events":[2851.1600000056205,5041.895000002114,12037.215000003926],"honeypot":0,"survey":"mace","page":4,"trial_type":"survey-mace","trial_index":12,"time_elapsed":914700,"internal_node_id":"0.0-12.0","task_version":"prescreen-v0.3","browser_interactions":0},{"responses":{"01":"Yes","01_ages_8":"8","01_ages_9":"9","01_ages_10":"10","01_ages_11":"11","01_ages_12":"12","01_ages_13":"13","01_ages_14":"14","01_ages_15":"15","01_ages_16":"16","01_ages_17":"17","02":"Yes","02_ages_8":"8","02_ages_9":"9","02_ages_10":"10","02_ages_11":"11","02_ages_12":"12","02_ages_13":"13","02_ages_14":"14","02_ages_15":"15","02_ages_16":"16","02_ages_17":"17","02_ages_18":"18","03":"No","04":"No","05":"No"},"rt":69989.96000000625,"item_order":[0,1,2,3,4],"radio_events":[7311.860000001616,30952.840000012657,58114.58500000299,60258.27500000014,66675.73500001163],"checkbox_events":[8662.36500001105,9401.010000001406,10402.990000002319,11091.415000002598,11835.795000006328,12822.240000008605,13648.31000000413,14678.5200000013,16229.990000007092,17491.045000002487,18267.40000001155,20884.030000001076,32583.47500000673,33436.10000000626,34488.94999999902,35204.200000007404,36888.27999999921,38002.845000009984,38674.78500001016,39454.70000000205,40165.26000000886,40906.91499999957,41584.24500000547],"key_events":[],"mouse_events":[7311.860000001616,8662.36500001105,9401.010000001406,10402.990000002319,11091.415000002598,11835.795000006328,12822.240000008605,13648.31000000413,14678.5200000013,15468.26000000874,16229.990000007092,17491.045000002487,18267.40000001155,20884.030000001076,30952.840000012657,32583.47500000673,33436.10000000626,34488.94999999902,35204.200000007404,35978.845000005094,36888.27999999921,38002.845000009984,38674.78500001016,39454.70000000205,40165.26000000886,40906.91499999957,41584.24500000547,58114.58500000299,60258.27500000014,66675.73500001163,69983.33000000275],"honeypot":0,"survey":"mace","page":5,"trial_type":"survey-mace","trial_index":13,"time_elapsed":984698,"internal_node_id":"0.0-13.0","task_version":"prescreen-v0.3","browser_interactions":0},{"responses":{"01":"Yes","01_ages_8":"8","01_ages_9":"9","01_ages_10":"10","01_ages_11":"11","01_ages_12":"12","01_ages_13":"13","01_ages_14":"14","01_ages_15":"15","02":"No","03":"Yes","03_ages_13":"13","03_ages_14":"14","03_ages_15":"15","03_ages_16":"16","03_ages_17":"17","03_ages_18":"18","04":"No","05":"No"},"rt":54001.85500000953,"item_order":[0,1,2,3,4],"radio_events":[8682.235000000219,23746.259999999893,30644.834999999148,43671.05000000447,48228.92000000866],"checkbox_events":[10044.350000011036,10809.529999998631,11626.290000000154,12370.79500000982,13041.700000001583,13756.200000003446,16964.710000000196,17860.59500000556,35529.30000000924,36271.25000000524,37937.25000000268,38668.88500000641,39364.17500000971,40481.33000000962],"key_events":[],"mouse_events":[8682.235000000219,10044.350000011036,10809.529999998631,11626.290000000154,12370.79500000982,13041.700000001583,13756.200000003446,16964.710000000196,17860.59500000556,23746.259999999893,30644.834999999148,35529.30000000924,36271.25000000524,37058.98000000161,37937.25000000268,38668.88500000641,39364.17500000971,40481.33000000962,43671.05000000447,48228.92000000866,53998.319999998785],"honeypot":0,"survey":"mace","page":6,"trial_type":"survey-mace","trial_index":14,"time_elapsed":1038707,"internal_node_id":"0.0-14.0","task_version":"prescreen-v0.3","browser_interactions":0},{"responses":{"01":"Yes","01_ages_11":"11","01_ages_12":"12","01_ages_13":"13","01_ages_14":"14","01_ages_15":"15","02":"No","03":"Yes","03_ages_11":"11","03_ages_12":"12","03_ages_13":"13","03_ages_14":"14","03_ages_15":"15","03_ages_16":"16","03_ages_17":"17","04":"No","05":"No","06":"No","07":"No"},"rt":57005.57999999728,"item_order":[0,1,2,3,4,5,6],"radio_events":[4238.8950000022305,26518.880000003148,29283.5699999996,43604.46499999659,48399.25000000233,53706.65500000166,55981.41999999643],"checkbox_events":[13323.885000005364,14199.3150000053,15790.09999999823,16657.090000007767,18811.725000006845,19039.120000001276,19947.24999999744,32732.45500000473,33448.820000004955,34330.50999999978,35083.06000000448,35869.99000000651,37077.10500000394,37995.510000007926],"key_events":[],"mouse_events":[4238.8950000022305,13323.885000005364,14199.3150000053,14886.129999998957,15790.09999999823,16657.090000007767,17875.895000004675,18811.725000006845,19039.120000001276,19947.24999999744,26518.880000003148,29283.5699999996,31873.06500000693,32732.45500000473,33448.820000004955,34330.50999999978,35083.06000000448,35869.99000000651,37077.10500000394,37995.510000007926,43604.46499999659,48399.25000000233,53706.65500000166,55981.41999999643,56996.18000000203],"honeypot":0,"survey":"mace","page":7,"trial_type":"survey-mace","trial_index":15,"time_elapsed":1095723,"internal_node_id":"0.0-15.0","task_version":"prescreen-v0.3","browser_interactions":0},{"responses":{"01":"No","02":"No","03":"No","04":"No"},"rt":48070.439999995986,"item_order":[0,1,2,3],"radio_events":[20899.36999999918,28600.955000001937,42110.28999999701,47305.49499999336],"checkbox_events":[],"key_events":[],"mouse_events":[20899.36999999918,28600.955000001937,42110.28999999701,46408.244999998715,47305.49499999336,48065.10500000161],"honeypot":0,"survey":"mace","page":8,"trial_type":"survey-mace","trial_index":16,"time_elapsed":1143801,"internal_node_id":"0.0-16.0","task_version":"prescreen-v0.3","browser_interactions":0},{"responses":{"01":"Yes","01_ages_5":"5","01_ages_6":"6","01_ages_7":"7","01_ages_8":"8","01_ages_9":"9","01_ages_10":"10","01_ages_11":"11","01_ages_12":"12","01_ages_13":"13","01_ages_14":"14","01_ages_15":"15","01_ages_16":"16","01_ages_17":"17","01_ages_18":"18","02":"Yes","02_ages_5":"5","02_ages_6":"6","02_ages_7":"7","02_ages_8":"8","02_ages_9":"9","02_ages_10":"10","02_ages_11":"11","02_ages_12":"12","02_ages_13":"13","02_ages_14":"14","02_ages_15":"15","02_ages_16":"16","02_ages_17":"17","02_ages_18":"18","03":"Yes","03_ages_5":"5","03_ages_6":"6","03_ages_7":"7","03_ages_8":"8","03_ages_9":"9","03_ages_10":"10","03_ages_11":"11","03_ages_12":"12","03_ages_13":"13","03_ages_14":"14","03_ages_15":"15","03_ages_16":"16","03_ages_17":"17","03_ages_18":"18","04":"Yes","04_ages_5":"5","04_ages_6":"6","04_ages_7":"7","04_ages_8":"8","04_ages_9":"9","04_ages_10":"10","04_ages_11":"11","04_ages_12":"12","04_ages_13":"13","04_ages_14":"14","04_ages_15":"15","04_ages_16":"16","04_ages_17":"17","04_ages_18":"18"},"rt":112521.9749999959,"item_order":[0,1,2,3],"radio_events":[7040.8600000082515,37825.24000000558,60001.04499999713,64376.63500000769],"checkbox_events":[11685.584999999264,12704.880000004778,13447.140000003856,14182.704999999143,15206.814999997616,16653.030000001192,17363.57500001043,18257.42500000354,19203.22000001045,20418.395000000484,22238.454999998678,23159.719999996014,24136.024999999907,25822.794999999925,26552.60999999894,27373.195000007283,28115.485000002198,29438.26999999862,30231.435000008903,31145.220000005793,32205.18499999889,33119.06500000623,41869.669999999925,42555.72499999823,43292.56499999622,44111.48500000127,44932.80000000959,45799.635000003036,46536.52500000317,48074.07499999693,48990.91500000213,49688.82500000484,50705.41000000946,51607.71999999997,52728.69000000367,53837.010000003036,66012.97999999952,67272.83499999624,68097.30500000296,69846.29500001017,70814.84500000067,71555.09999999776,72346.42000000179,73107.58500000509,73850.9100000083,74808.59500000952,76347.41000000201,94584.10500000184,95575.49499999732,96371.24999999651,97094.64000001037,98331.0550000025,99704.15000000503,101343.58000000054,102293.57999999775,103114.0699999961,104644.82000000123,105635.30999999773,106690.97999999952,107595.34500000882,108466.12500000629,109246.39000000013,110192.00999999885,111035.36999999778],"key_events":[],"mouse_events":[7040.8600000082515,9714.76000000257,11685.584999999264,12704.880000004778,13447.140000003856,14182.704999999143,15206.814999997616,16653.030000001192,17363.57500001043,18257.42500000354,19203.22000001045,20418.395000000484,21124.06499999622,22238.454999998678,23159.719999996014,24136.024999999907,24922.059999997262,25822.794999999925,26552.60999999894,27373.195000007283,28115.485000002198,29438.26999999862,30231.435000008903,31145.220000005793,32205.18499999889,33119.06500000623,37825.24000000558,41869.669999999925,42555.72499999823,43292.56499999622,44111.48500000127,44932.80000000959,45799.635000003036,46536.52500000317,47361.83000000892,48074.07499999693,48990.91500000213,49688.82500000484,50705.41000000946,51607.71999999997,52728.69000000367,53837.010000003036,60001.04499999713,64376.63500000769,66012.97999999952,67272.83499999624,68097.30500000296,69846.29500001017,70814.84500000067,71555.09999999776,72346.42000000179,73107.58500000509,73850.9100000083,74808.59500000952,76347.41000000201,94584.10500000184,95575.49499999732,96371.24999999651,97094.64000001037,98331.0550000025,99704.15000000503,100515.40000000386,101343.58000000054,102293.57999999775,103114.0699999961,103887.35000000452,104644.82000000123,105635.30999999773,106690.97999999952,107595.34500000882,108466.12500000629,109246.39000000013,110192.00999999885,111035.36999999778,112515.42999999947],"honeypot":0,"survey":"mace","page":9,"trial_type":"survey-mace","trial_index":17,"time_elapsed":1256330,"internal_node_id":"0.0-17.0","task_version":"prescreen-v0.3","browser_interactions":0},{"responses":{"01":"Yes","01_ages_10":"10","01_ages_11":"11","01_ages_12":"12","01_ages_13":"13","01_ages_14":"14","01_ages_15":"15","01_ages_16":"16","01_ages_17":"17","01_ages_18":"18","02":"No","03":"No","04":"Yes","04_ages_10":"10","04_ages_11":"11","04_ages_12":"12","04_ages_13":"13","04_ages_14":"14","04_ages_15":"15","04_ages_16":"16","04_ages_17":"17","04_ages_18":"18","05":"Yes","05_ages_12":"12","05_ages_13":"13","05_ages_14":"14","05_ages_15":"15","05_ages_16":"16","05_ages_17":"17","05_ages_18":"18","06":"Yes","06_ages_17":"17","07":"Yes","07_ages_9":"9","07_ages_10":"10","07_ages_11":"11","07_ages_12":"12","07_ages_13":"13","07_ages_14":"14","07_ages_15":"15","07_ages_16":"16","07_ages_17":"17","07_ages_18":"18","08":"Yes","08_ages_5":"5","08_ages_6":"6","08_ages_7":"7","08_ages_8":"8","08_ages_9":"9","08_ages_10":"10","08_ages_11":"11","08_ages_12":"12","08_ages_13":"13","08_ages_14":"14","08_ages_15":"15","08_ages_16":"16","08_ages_17":"17","08_ages_18":"18"},"rt":119444.30499999714,"item_order":[0,1,2,3,4,5,6,7],"radio_events":[6378.119999993825,8170.409999991301,12705.209999999963,19711.92999999039,28225.724999996368,67973.4399999869,85283.45999999135,93591.75499998662,104650.47499998752],"checkbox_events":[38279.604999988806,39077.49499999033,40039.559999990044,40823.894999993965,41666.20499998657,42481.244999988005,43329.07999999588,44128.689999997616,44930.459999988554,50554.04499999713,52830.21499999426,53824.48999999883,54602.39999998873,55391.08999999007,57367.39499999373,58060.45999999321,59095.48499999801,60086.634999999544,73157.41999998852,74637.59999998705,75473.54499998596,76306.3949999921,77205.93499999074,80512.32499998854,81705.81999998819,87505.50999998813,94947.12499999139,95557.30999998911,96276.25999999861,97069.91500000004,97842.40499998839,98605.03999999491,99650.21499998681,100328.32999998936,101364.81499999342,102063.27499999292,105874.00999999931,106550.35499999928,107112.24499999639,107255.43999999342,108529.7399999979,109209.99499999732,109914.37999998732,110592.12999998988,111621.8200000003,112305.36999998707,113020.41499999166,113791.20999999577,114655.41499998653,115490.37999998825,116439.92499999865,117323.87999999616],"key_events":[],"mouse_events":[6378.119999993825,8170.409999991301,12705.209999999963,19711.92999999039,28225.724999996368,37350.99499998614,38279.604999988806,39077.49499999033,40039.559999990044,40823.894999993965,41666.20499998657,42481.244999988005,43329.07999999588,44128.689999997616,44930.459999988554,50554.04499999713,51569.354999999516,52830.21499999426,53824.48999999883,54602.39999998873,55391.08999999007,56282.62999998685,57367.39499999373,58060.45999999321,59095.48499999801,60086.634999999544,67973.4399999869,71495.53999998886,73157.41999998852,74637.59999998705,75473.54499998596,76306.3949999921,77205.93499999074,80512.32499998854,81705.81999998819,85283.45999999135,87505.50999998813,93591.75499998662,94947.12499999139,95557.30999998911,96276.25999999861,97069.91500000004,97842.40499998839,98605.03999999491,99650.21499998681,100328.32999998936,101364.81499999342,102063.27499999292,104650.47499998752,105874.00999999931,106550.35499999928,107112.24499999639,107255.43999999342,108529.7399999979,109209.99499999732,109914.37999998732,110592.12999998988,111621.8200000003,112305.36999998707,113020.41499999166,113791.20999999577,114655.41499998653,115490.37999998825,116439.92499999865,117323.87999999616,119436.81999998796],"honeypot":0,"survey":"mace","page":10,"trial_type":"survey-mace","trial_index":18,"time_elapsed":1375787,"internal_node_id":"0.0-18.0","task_version":"prescreen-v0.3","browser_interactions":0,"instructed":0},{"rt":14661.949999994133,"trial_type":"mental-health-alert","trial_index":19,"time_elapsed":1390453,"internal_node_id":"0.0-19.0","task_version":"prescreen-v0.3","interactions":"[]"}]