[{"view_history":[{"page_index":0,"viewing_time":2262.9200000083074},{"page_index":1,"viewing_time":792.0699999667704},{"page_index":2,"viewing_time":3758.0849999794737},{"page_index":3,"viewing_time":1001.5800000401214}],"rt":7816.200000001118,"trial_type":"instructions","trial_index":0,"time_elapsed":7835,"internal_node_id":"0.0-0.0","task_version":"prescreen-v0.3"},{"rt":9862.479999894276,"responses":{"age":"21","gender-categorical":"Female","gender-free-response":"","ethnicity":"Not Hispanic or Latino","race":["White"],"education":"Associate degree"},"trial_type":"survey-demo","trial_index":1,"time_elapsed":17718,"internal_node_id":"0.0-1.0","task_version":"prescreen-v0.3"},{"responses":{"Q12":"1","Q18":"1","Q04":"1","Q11":"1","Q03":"1","Q20":"2","Q10":"1","Q06":"1","Q13":"2","Q08":"2","Q07":"0","Q09":"2","Q01":"2","Q16":"2","Q14":"2","Q17":"1","Q19":"1","Q05":"0","Q21":"3","Q02":"1","Q15":"2"},"rt":111374.71000000369,"item_order":[11,17,3,10,2,19,9,5,12,7,6,8,0,15,13,16,18,4,20,1,14],"radio_events":[4509.964999975637,8717.03499997966,12009.689999977127,15759.289999958128,18860.14499992598,21062.99000000581,26678.98999992758,28641.784999985248,34174.679999938235,38577.61999999639,40292.53500001505,44743.67999995593,48794.96999992989,50146.459999959916,53738.98000002373,59854.88999995869,62278.86500000022,74621.28999992274,79199.3149999762,83196.57000002917,84718.55999995023,89140.62999992166,110728.38500002399],"key_events":[],"mouse_events":[4509.964999975637,8717.03499997966,12009.689999977127,15759.289999958128,18860.14499992598,20350.56499997154,21062.99000000581,26678.98999992758,28641.784999985248,34174.679999938235,38577.61999999639,40292.53500001505,44743.67999995593,48794.96999992989,50146.459999959916,53738.98000002373,58077.074999921024,59854.88999995869,62278.86500000022,74621.28999992274,79199.3149999762,83196.57000002917,84718.55999995023,89140.62999992166,110728.38500002399,111369.51999994926],"straightlining":0.47619047619047616,"zigzagging":0.35,"honeypot":0,"survey":"sns","trial_type":"survey-template","trial_index":2,"time_elapsed":129113,"internal_node_id":"0.0-2.0","task_version":"prescreen-v0.3","browser_interactions":0,"infrequency":0},{"responses":{"Q05":"2","Q12":"1","Q08":"2","Q03":"2","Q10":"2","Q11":"2","Q02":"2","Q04":"2","Q06":"2","Q09":"1","Q01":"2","Q07":"3","Q13":"0"},"rt":66305.61499996111,"item_order":[4,11,7,2,9,10,1,3,5,8,0,6,12],"radio_events":[22733.87500003446,26339.374999981374,30815.479999990202,33764.25000000745,37617.440000060014,41223.14000001643,43408.88000000268,48031.135000055656,50918.30000001937,55559.854999999516,59241.26999999862,62205.33999998588,64648.509999969974],"key_events":[],"mouse_events":[22733.87500003446,26339.374999981374,30815.479999990202,33764.25000000745,37617.440000060014,41223.14000001643,43408.88000000268,48031.135000055656,50918.30000001937,55559.854999999516,59241.26999999862,61316.62000005599,62205.33999998588,64648.509999969974,66302.64000000898],"straightlining":0.6923076923076923,"zigzagging":0.5,"honeypot":0,"survey":"bisbas","trial_type":"survey-template","trial_index":3,"time_elapsed":195429,"internal_node_id":"0.0-3.0","task_version":"prescreen-v0.3","browser_interactions":0,"infrequency":0},{"responses":{"Q01":"2","Q02":"2","Q03":"3"},"rt":14773.694999981672,"radio_events":[7659.754999913275,11052.219999954104,13939.0349999303],"key_events":[],"mouse_events":[7659.754999913275,11052.219999954104,13939.0349999303,14772.164999973029],"survey":"map","page":1,"trial_type":"survey-map","trial_index":4,"time_elapsed":210210,"internal_node_id":"0.0-4.0","task_version":"prescreen-v0.3","browser_interactions":0},{"responses":{"Q04":"1","Q05":"2","Q06":"2"},"rt":29690.150000038557,"radio_events":[22151.809999952093,25411.62999998778,28719.819999998435],"key_events":[],"mouse_events":[15417.140000034124,16049.029999994673,22151.809999952093,25411.62999998778,28719.819999998435,29688.80500004161],"survey":"map","page":2,"trial_type":"survey-map","trial_index":5,"time_elapsed":239907,"internal_node_id":"0.0-5.0","task_version":"prescreen-v0.3","browser_interactions":0},{"responses":{"Q07":"1","Q08":"2","Q09":"2"},"rt":13164.344999939203,"radio_events":[6177.754999953322,9557.915000012144,12369.83500001952],"key_events":[],"mouse_events":[6177.754999953322,9557.915000012144,12369.83500001952,13162.959999986924],"survey":"map","page":3,"trial_type":"survey-map","trial_index":6,"time_elapsed":253076,"internal_node_id":"0.0-6.0","task_version":"prescreen-v0.3","browser_interactions":0},{"responses":{"Q10":"2","Q11":"2","Q12":"0","Q13":"1","Q16":"0","Q14":"2","Q15":"2"},"rt":33583.99499999359,"radio_events":[5569.284999975935,8789.660000009462,12202.264999970794,13948.299999930896,18530.264999950305,21738.29999996815,29303.300000028685,32298.859999980778],"key_events":[],"mouse_events":[5569.284999975935,8789.660000009462,12202.264999970794,13948.299999930896,17609.33499992825,18530.264999950305,21738.29999996815,29303.300000028685,32298.859999980778,33581.3049999997],"survey":"map","page":4,"trial_type":"survey-map","trial_index":7,"time_elapsed":286668,"internal_node_id":"0.0-7.0","task_version":"prescreen-v0.3","browser_interactions":0,"infrequency":0},{"view_history":[{"page_index":0,"viewing_time":1938.5750000365078},{"page_index":1,"viewing_time":3134.5750000327826}],"rt":5074.350000009872,"trial_type":"instructions","trial_index":8,"time_elapsed":291746,"internal_node_id":"0.0-8.0","task_version":"prescreen-v0.3"},{"responses":{"01":"No","02":"No","03":"No","04":"No","05":"No","06":"No"},"rt":13486.460000043735,"item_order":[0,1,2,3,4,5],"radio_events":[3806.6000000108033,8748.239999986254,10242.139999987558,11195.430000079796,11996.500000008382,12837.49499998521],"checkbox_events":[],"key_events":[],"mouse_events":[0.49000000581145287,3806.6000000108033,4430.655000032857,4983.485000091605,8748.239999986254,10242.139999987558,11195.430000079796,11996.500000008382,12837.49499998521,13479.14499999024],"honeypot":0,"survey":"mace","page":1,"trial_type":"survey-mace","trial_index":9,"time_elapsed":305251,"internal_node_id":"0.0-9.0","task_version":"prescreen-v0.3","browser_interactions":0},{"responses":{"01":"No","02":"No","03":"No","04":"No","05":"No","06":"No","07":"No","08":"No"},"rt":11606.189999962226,"item_order":[0,1,2,3,4,5,6,7],"radio_events":[2016.6699999244884,3226.299999980256,4371.924999984913,5356.934999930672,6470.369999995455,8985.235000029206,10242.42999998387,11068.085000035353],"checkbox_events":[],"key_events":[],"mouse_events":[2016.6699999244884,3226.299999980256,4371.924999984913,5356.934999930672,6470.369999995455,7255.254999967292,8985.235000029206,10242.42999998387,11068.085000035353,11596.684999996796],"honeypot":0,"survey":"mace","page":2,"trial_type":"survey-mace","trial_index":10,"time_elapsed":316869,"internal_node_id":"0.0-10.0","task_version":"prescreen-v0.3","browser_interactions":0},{"responses":{"01":"No","02":"No","03":"No","04":"No"},"rt":8404.125000000931,"item_order":[0,1,2,3],"radio_events":[2046.8400000827387,3552.8700000140816,5611.3599999807775,7293.750000069849],"checkbox_events":[],"key_events":[],"mouse_events":[2046.8400000827387,3552.8700000140816,5611.3599999807775,7293.750000069849,8399.27500009071],"honeypot":0,"survey":"mace","page":3,"trial_type":"survey-mace","trial_index":11,"time_elapsed":325282,"internal_node_id":"0.0-11.0","task_version":"prescreen-v0.3","browser_interactions":0},{"responses":{"01":"No","02":"No"},"rt":10411.695000017062,"item_order":[0,1],"radio_events":[2287.3900000704452,3937.635000096634],"checkbox_events":[],"key_events":[],"mouse_events":[2287.3900000704452,3937.635000096634,10409.184999996796],"honeypot":0,"survey":"mace","page":4,"trial_type":"survey-mace","trial_index":12,"time_elapsed":335699,"internal_node_id":"0.0-12.0","task_version":"prescreen-v0.3","browser_interactions":0},{"responses":{"01":"No","02":"No","03":"No","04":"No","05":"No"},"rt":14633.685000007972,"item_order":[0,1,2,3,4],"radio_events":[9220.74999997858,9917.85000008531,10670.705000055023,12096.100000082515,12800.909999990836],"checkbox_events":[],"key_events":[],"mouse_events":[9220.74999997858,9917.85000008531,10670.705000055023,11327.440000022762,12096.100000082515,12800.909999990836,14627.715000067838],"honeypot":0,"survey":"mace","page":5,"trial_type":"survey-mace","trial_index":13,"time_elapsed":350342,"internal_node_id":"0.0-13.0","task_version":"prescreen-v0.3","browser_interactions":0},{"responses":{"01":"No","02":"No","03":"No","04":"No","05":"No"},"rt":10670.060000033118,"item_order":[0,1,2,3,4],"radio_events":[2100.0050000147894,3429.619999951683,7403.174999984913,8091.595000005327,8844.670000020415],"checkbox_events":[],"key_events":[],"mouse_events":[2100.0050000147894,3429.619999951683,4214.670000015758,5440.410000039265,6337.635000003502,6930.155000067316,7403.174999984913,8091.595000005327,8844.670000020415,10663.565000053495],"honeypot":0,"survey":"mace","page":6,"trial_type":"survey-mace","trial_index":14,"time_elapsed":361021,"internal_node_id":"0.0-14.0","task_version":"prescreen-v0.3","browser_interactions":0},{"responses":{"01":"No","02":"No","03":"No","04":"No","05":"No","06":"No","07":"No"},"rt":15167.989999987185,"item_order":[0,1,2,3,4,5,6],"radio_events":[4697.599999955855,6531.549999956042,7684.974999981932,8839.324999949895,10504.644999979064,12394.9249999132,14429.644999909215],"checkbox_events":[],"key_events":[],"mouse_events":[4697.599999955855,6531.549999956042,7684.974999981932,8839.324999949895,10504.644999979064,12394.9249999132,14429.644999909215,15159.319999977015],"honeypot":0,"survey":"mace","page":7,"trial_type":"survey-mace","trial_index":15,"time_elapsed":376201,"internal_node_id":"0.0-15.0","task_version":"prescreen-v0.3","browser_interactions":0},{"responses":{"01":"No","02":"No","03":"No","04":"No"},"rt":16566.32000009995,"item_order":[0,1,2,3],"radio_events":[8339.559999993071,10906.115000019781,12452.250000089407,15047.320000012405],"checkbox_events":[],"key_events":[],"mouse_events":[8339.559999993071,10906.115000019781,12452.250000089407,15047.320000012405,16561.625000089407],"honeypot":0,"survey":"mace","page":8,"trial_type":"survey-mace","trial_index":16,"time_elapsed":392777,"internal_node_id":"0.0-16.0","task_version":"prescreen-v0.3","browser_interactions":0},{"responses":{"01":"Yes","01_ages_1":"1","01_ages_2":"2","01_ages_3":"3","01_ages_4":"4","01_ages_5":"5","01_ages_6":"6","01_ages_7":"7","01_ages_8":"8","01_ages_9":"9","01_ages_10":"10","01_ages_11":"11","01_ages_12":"12","01_ages_13":"13","01_ages_14":"14","01_ages_15":"15","01_ages_16":"16","01_ages_17":"17","01_ages_18":"18","02":"Yes","02_ages_1":"1","02_ages_2":"2","02_ages_3":"3","02_ages_4":"4","02_ages_5":"5","02_ages_6":"6","02_ages_7":"7","02_ages_8":"8","02_ages_9":"9","02_ages_10":"10","02_ages_11":"11","02_ages_12":"12","02_ages_13":"13","02_ages_14":"14","02_ages_15":"15","02_ages_16":"16","02_ages_17":"17","02_ages_18":"18","03":"Yes","03_ages_1":"1","03_ages_2":"2","03_ages_3":"3","03_ages_4":"4","03_ages_5":"5","03_ages_6":"6","03_ages_7":"7","03_ages_8":"8","03_ages_9":"9","03_ages_10":"10","03_ages_11":"11","03_ages_12":"12","03_ages_13":"13","03_ages_14":"14","03_ages_15":"15","03_ages_16":"16","03_ages_17":"17","03_ages_18":"18","04":"Yes","04_ages_1":"1","04_ages_2":"2","04_ages_3":"3","04_ages_4":"4","04_ages_5":"5","04_ages_6":"6","04_ages_7":"7","04_ages_8":"8","04_ages_9":"9","04_ages_10":"10","04_ages_11":"11","04_ages_12":"12","04_ages_13":"13","04_ages_14":"14","04_ages_15":"15","04_ages_16":"16","04_ages_17":"17","04_ages_18":"18"},"rt":64627.929999958724,"item_order":[0,1,2,3],"radio_events":[4210.800000000745,22887.359999935143,24994.130000006407,27573.484999942593,30953.645000001416],"checkbox_events":[7932.849999982864,8332.194999908097,8990.029999986291,9406.205000006594,10502.949999994598,11744.794999947771,12354.289999930188,12826.384999905713,13347.314999904484,13804.084999952465,14252.97499995213,15148.889999953099,16495.599999907427,16992.36499995459,17440.68499992136,18001.7499999376,18434.159999946132,19146.329999901354,32427.76499991305,32877.42499995511,33277.89499994833,33981.729999999516,34987.86499991547,35451.589999953285,35924.50500000268,36340.73999989778,36805.584999965504,37318.129999912344,37758.58999998309,38214.990000007674,38704.604999977164,39781.32999991067,40261.99499994982,40718.70999992825,41263.4099998977,41719.97499989811,42416.8499999214,42881.5600000089,43298.004999989644,43762.62999989558,44139.429999981076,44555.859999964014,44964.74500000477,45432.77499999385,45897.77499996126,46819.52999997884,47179.84999995679,47636.08500000555,48060.54499989841,48549.139999900945,48965.839999960735,49502.43499991484,49903.16999994684,51401.33499994408,52619.16999996174,53749.10499993712,54246.114999987185,54734.71999994945,55959.654999896884,56433.19499993231,57489.729999913834,59068.32999992184,59636.90499996301,60277.2549999645,60781.914999941364,61267.06999994349,61795.39499990642,62324.21499991324,62748.655000003055,63237.75999993086,63710.22499992978,64134.17999993544],"key_events":[],"mouse_events":[4210.800000000745,7932.849999982864,8332.194999908097,8990.029999986291,9406.205000006594,9982.159999897704,10502.949999994598,11016.519999946468,11744.794999947771,12354.289999930188,12826.384999905713,13347.314999904484,13804.084999952465,14252.97499995213,14692.869999911636,15148.889999953099,15966.734999907203,16495.599999907427,16992.36499995459,17440.68499992136,18001.7499999376,18434.159999946132,19146.329999901354,22887.359999935143,24994.130000006407,27573.484999942593,30953.645000001416,32427.76499991305,32877.42499995511,33277.89499994833,33981.729999999516,34486.60999990534,34987.86499991547,35451.589999953285,35924.50500000268,36340.73999989778,36805.584999965504,37318.129999912344,37758.58999998309,38214.990000007674,38704.604999977164,39160.994999925606,39781.32999991067,40261.99499994982,40718.70999992825,41263.4099998977,41719.97499989811,42416.8499999214,42881.5600000089,43298.004999989644,43762.62999989558,44139.429999981076,44555.859999964014,44964.74500000477,45432.77499999385,45897.77499996126,46290.3599999845,46819.52999997884,47179.84999995679,47636.08500000555,48060.54499989841,48549.139999900945,48965.839999960735,49502.43499991484,49903.16999994684,50335.525000002235,51401.33499994408,52619.16999996174,53132.45999999344,53749.10499993712,54246.114999987185,54734.71999994945,55119.324999977835,55959.654999896884,56433.19499993231,56801.70499999076,57489.729999913834,57963.234999915585,58443.585000000894,59068.32999992184,59636.90499996301,60277.2549999645,60781.914999941364,61267.06999994349,61795.39499990642,62324.21499991324,62748.655000003055,63237.75999993086,63710.22499992978,64134.17999993544,64623.17499995697],"honeypot":0,"survey":"mace","page":9,"trial_type":"survey-mace","trial_index":17,"time_elapsed":457416,"internal_node_id":"0.0-17.0","task_version":"prescreen-v0.3","browser_interactions":0},{"responses":{"01":"No","02":"No","03":"No","04":"No","05":"No","06":"Yes","06_ages_17":"17","07":"Yes","07_ages_1":"1","07_ages_2":"2","07_ages_3":"3","07_ages_4":"4","07_ages_5":"5","07_ages_6":"6","07_ages_7":"7","07_ages_8":"8","07_ages_9":"9","07_ages_10":"10","07_ages_11":"11","07_ages_12":"12","07_ages_13":"13","07_ages_14":"14","07_ages_15":"15","07_ages_16":"16","07_ages_17":"17","07_ages_18":"18","08":"Yes","08_ages_1":"1","08_ages_2":"2","08_ages_3":"3","08_ages_4":"4","08_ages_5":"5","08_ages_6":"6","08_ages_7":"7","08_ages_8":"8","08_ages_9":"9","08_ages_10":"10","08_ages_11":"11","08_ages_12":"12","08_ages_13":"13","08_ages_14":"14","08_ages_15":"15","08_ages_16":"16","08_ages_17":"17","08_ages_18":"18"},"rt":43116.20499996934,"item_order":[0,1,2,3,4,5,6,7],"radio_events":[3180.8100000489503,4591.024999972433,5680.010000010952,7785.834999987856,8554.649999947287,10028.599999961443,13520.675000036135,17909.259999985807,32690.12499996461],"checkbox_events":[14906.244999961928,21385.615000035614,22339.034999953583,22859.169999952428,23404.424999956973,24316.759999957867,24805.59500004165,25294.46000000462,26359.885000041686,26880.28000004124,27320.614999975078,27793.43499999959,28281.964999972843,28657.82500000205,29254.515000036918,29719.795000040904,30936.029999982566,31393.530000001192,31808.97500005085,34092.689999961294,34532.804999966174,34949.54000005964,35349.90499995183,35742.65000002924,36198.45000002533,36815.8800000092,37208.42999999877,37600.734999985434,38009.23500000499,39114.35499996878,39578.53499997873,40194.8450000491,40735.794999985956,41184.18500002008,41728.92000002321,42242.03500000294,42713.965000002645],"key_events":[],"mouse_events":[3180.8100000489503,4591.024999972433,5680.010000010952,7785.834999987856,8554.649999947287,9420.299999997951,10028.599999961443,13520.675000036135,14906.244999961928,17909.259999985807,21385.615000035614,22339.034999953583,22859.169999952428,23404.424999956973,23869.01999998372,24316.759999957867,24805.59500004165,25294.46000000462,25702.644999953918,26359.885000041686,26880.28000004124,27320.614999975078,27793.43499999959,28281.964999972843,28657.82500000205,29254.515000036918,29719.795000040904,30304.04499999713,30936.029999982566,31393.530000001192,31808.97500005085,32690.12499996461,34092.689999961294,34532.804999966174,34949.54000005964,35349.90499995183,35742.65000002924,36198.45000002533,36815.8800000092,37208.42999999877,37600.734999985434,38009.23500000499,38601.98000003584,39114.35499996878,39578.53499997873,40194.8450000491,40735.794999985956,41184.18500002008,41728.92000002321,42242.03500000294,42713.965000002645,43106.90500005148],"honeypot":0,"survey":"mace","page":10,"trial_type":"survey-mace","trial_index":18,"time_elapsed":500545,"internal_node_id":"0.0-18.0","task_version":"prescreen-v0.3","browser_interactions":0,"instructed":0},{"rt":2355.1649999571964,"trial_type":"mental-health-alert","trial_index":19,"time_elapsed":502904,"internal_node_id":"0.0-19.0","task_version":"prescreen-v0.3","interactions":"[]"}]