[{"view_history":[{"page_index":0,"viewing_time":20022.599999964237},{"page_index":1,"viewing_time":1973.800000011921},{"page_index":2,"viewing_time":1028.199999988079},{"page_index":1,"viewing_time":2351.900000035763},{"page_index":2,"viewing_time":3566},{"page_index":3,"viewing_time":898.0999999642372}],"rt":29841.099999964237,"trial_type":"instructions","trial_index":0,"time_elapsed":29858,"internal_node_id":"0.0-0.0","task_version":"prescreen-v0.3"},{"rt":11099.399999976158,"responses":{"age":"30","gender-categorical":"Male","gender-free-response":"","ethnicity":"Not Hispanic or Latino","race":["Asian"],"education":"Bachelor degree","siblings":"1"},"trial_type":"survey-demo","trial_index":1,"time_elapsed":40961,"internal_node_id":"0.0-1.0","task_version":"prescreen-v0.3"},{"responses":{"Q19":"2","Q01":"2","Q13":"1","Q14":"1","Q08":"2","Q09":"2","Q20":"0","Q02":"2","Q16":"2","Q15":"2","Q10":"1","Q17":"2","Q04":"1","Q03":"2","Q18":"2","Q07":"2","Q12":"2","Q06":"2","Q21":"3","Q05":"2","Q11":"1"},"rt":77956.89999997616,"item_order":[18,0,12,13,7,8,19,1,15,14,9,16,3,2,17,6,11,5,20,4,10],"radio_events":[9145.599999964237,13283.299999952316,18953.399999976158,21528.19999998808,23985.399999976158,25489.899999976158,27613.399999976158,35607.59999996424,36268,39539.59999996424,41211.59999996424,43891.5,46039.59999996424,50371.69999998808,52171.59999996424,54835.5,55681.59999996424,62027.69999998808,62603.69999998808,67765.59999996424,75557.69999998808,77239.69999998808],"key_events":[],"mouse_events":[9145.599999964237,11161.699999988079,13283.299999952316,15129.299999952316,16371.299999952316,17983.5,18659.599999964237,18953.399999976158,19763.599999964237,21528.19999998808,23647.5,23985.399999976158,25489.899999976158,27233.5,27613.399999976158,32363.5,33137.5,35607.59999996424,36268,39539.59999996424,41211.59999996424,43891.5,46039.59999996424,50371.69999998808,52171.59999996424,54835.5,55681.59999996424,62027.69999998808,62603.69999998808,67765.59999996424,75557.69999998808,76989.79999995232,77239.69999998808,77955.69999998808],"straightlining":0.6666666666666666,"zigzagging":0.45,"honeypot":0,"survey":"sns","trial_type":"survey-template","trial_index":2,"time_elapsed":118923,"internal_node_id":"0.0-2.0","task_version":"prescreen-v0.3","browser_interactions":0,"infrequency":0},{"responses":{"Q09":"2","Q13":"0","Q06":"2","Q03":"2","Q12":"2","Q02":"2","Q01":"2","Q11":"2","Q04":"2","Q05":"2","Q07":"2","Q10":"2","Q08":"2"},"rt":42124.10000002384,"item_order":[8,12,5,2,11,1,0,10,3,4,6,9,7],"radio_events":[4778.800000011921,7615.399999976158,11406.800000011921,15017.100000023842,18320.899999976158,23034.899999976158,24296.899999976158,29579,30787,31620.80000001192,36408.89999997616,38481.10000002384,41627],"key_events":[],"mouse_events":[4778.800000011921,7615.399999976158,11406.800000011921,15017.100000023842,18320.899999976158,23034.899999976158,24296.899999976158,29579,30787,31620.80000001192,35986.89999997616,36408.89999997616,38481.10000002384,39511.10000002384,41170.89999997616,41627,42123.19999998808],"straightlining":0.9230769230769231,"zigzagging":0,"honeypot":0,"survey":"bisbas","trial_type":"survey-template","trial_index":3,"time_elapsed":161051,"internal_node_id":"0.0-3.0","task_version":"prescreen-v0.3","browser_interactions":0,"infrequency":0},{"responses":{"Q01":"3","Q02":"2","Q03":"1"},"rt":16554,"radio_events":[7163.699999988079,10351.599999964237,15501.899999976158,15927.5],"key_events":[],"mouse_events":[7163.699999988079,10351.599999964237,15501.899999976158,15927.5,16553.599999964237],"survey":"map","page":1,"trial_type":"survey-map","trial_index":4,"time_elapsed":177608,"internal_node_id":"0.0-4.0","task_version":"prescreen-v0.3","browser_interactions":0},{"responses":{"Q04":"2","Q05":"2","Q06":"1"},"rt":12416.699999988079,"radio_events":[5600.199999988079,9188,11584.100000023842],"key_events":[],"mouse_events":[5600.199999988079,9188,11584.100000023842,12416.300000011921],"survey":"map","page":2,"trial_type":"survey-map","trial_index":5,"time_elapsed":190027,"internal_node_id":"0.0-5.0","task_version":"prescreen-v0.3","browser_interactions":0},{"responses":{"Q07":"1","Q08":"3","Q09":"2"},"rt":13255,"radio_events":[5838.5,9328.399999976158,12710.799999952316],"key_events":[],"mouse_events":[5838.5,8892.5,9328.399999976158,10404.899999976158,12144.599999964237,12710.799999952316,13254.599999964237],"survey":"map","page":3,"trial_type":"survey-map","trial_index":6,"time_elapsed":203285,"internal_node_id":"0.0-6.0","task_version":"prescreen-v0.3","browser_interactions":0},{"responses":{"Q10":"1","Q11":"1","Q12":"3","Q13":"2","Q16":"0","Q14":"2","Q15":"3"},"rt":70467.39999997616,"radio_events":[36460.59999996424,40456.59999996424,44304.89999997616,51048.5,53276.69999998808,57922.69999998808,61860.69999998808,64652.80000001192,69859.09999996424],"key_events":[],"mouse_events":[36460.59999996424,39974.69999998808,40456.59999996424,44304.89999997616,51048.5,52587.5,53276.69999998808,57922.69999998808,61032.80000001192,61860.69999998808,64652.80000001192,67860.59999996424,69537.39999997616,69859.09999996424,70466.80000001192],"survey":"map","page":4,"trial_type":"survey-map","trial_index":7,"time_elapsed":273757,"internal_node_id":"0.0-7.0","task_version":"prescreen-v0.3","browser_interactions":0,"infrequency":0},{"view_history":[{"page_index":0,"viewing_time":4002.199999988079},{"page_index":1,"viewing_time":4768}],"rt":8770.600000023842,"trial_type":"instructions","trial_index":8,"time_elapsed":282530,"internal_node_id":"0.0-8.0","task_version":"prescreen-v0.3"},{"responses":{"01":"Yes","01_ages_7":"7","01_ages_8":"8","01_ages_9":"9","01_ages_10":"10","01_ages_11":"11","01_ages_12":"12","01_ages_13":"13","01_ages_14":"14","01_ages_15":"15","01_ages_16":"16","01_ages_17":"17","01_ages_18":"18","02":"Yes","02_ages_5":"5","02_ages_6":"6","02_ages_7":"7","02_ages_8":"8","02_ages_9":"9","02_ages_10":"10","02_ages_11":"11","02_ages_12":"12","02_ages_13":"13","02_ages_14":"14","02_ages_15":"15","02_ages_16":"16","02_ages_17":"17","02_ages_18":"18","03":"No","04":"No","05":"No","06":"No"},"rt":43794.69999998808,"item_order":[0,1,2,3,4,5],"radio_events":[11424.699999988079,25801.5,36188.69999998808,38062.69999998808,39616.69999998808,43324.799999952316],"checkbox_events":[16583.299999952316,16914.5,17905.399999976158,18558.599999964237,18928.69999998808,19302.799999952316,19814.599999964237,20528.899999976158,20891,21942.69999998808,23078.799999952316,23438.69999998808,27662.69999998808,28482.69999998808,28764.599999964237,29069,29534.599999964237,29914.899999976158,30317.19999998808,30651,30986.69999998808,31344.69999998808,31998.899999976158,33064.5,33485.299999952316,33818.69999998808],"key_events":[],"mouse_events":[0,11424.699999988079,16583.299999952316,16914.5,17268.899999976158,17905.399999976158,18198.5,18558.599999964237,18928.69999998808,19302.799999952316,19814.599999964237,20130.69999998808,20528.899999976158,20891,21254.599999964237,21942.69999998808,22677.19999998808,23078.799999952316,23438.69999998808,25801.5,27662.69999998808,27936.5,28482.69999998808,28764.599999964237,29069,29534.599999964237,29914.899999976158,30317.19999998808,30651,30986.69999998808,31344.69999998808,31678.899999976158,31998.899999976158,32746.69999998808,33064.5,33485.299999952316,33818.69999998808,35850.799999952316,36188.69999998808,37725,38062.69999998808,39616.69999998808,42596.59999996424,43324.799999952316,43793.09999996424],"honeypot":0,"survey":"mace","page":1,"trial_type":"survey-mace","trial_index":9,"time_elapsed":326328,"internal_node_id":"0.0-9.0","task_version":"prescreen-v0.3","browser_interactions":0},{"responses":{"01":"No","02":"No","03":"Yes","03_ages_3":"3","03_ages_4":"4","03_ages_5":"5","03_ages_6":"6","03_ages_7":"7","04":"No","05":"Yes","05_ages_3":"3","05_ages_4":"4","05_ages_5":"5","05_ages_6":"6","05_ages_7":"7","06":"No","07":"No","08":"No"},"rt":25274.30000001192,"item_order":[0,1,2,3,4,5,6,7],"radio_events":[3692.100000023842,7570.399999976158,8447.899999976158,9108,14678.100000023842,16596.19999998808,21460.100000023842,23165.899999976158,24652.100000023842],"checkbox_events":[10672.199999988079,11131.899999976158,11474.399999976158,11989.800000011921,12264,17942.19999998808,18220.5,18902.399999976158,19422.30000001192,19663.899999976158],"key_events":[],"mouse_events":[3079.800000011921,3692.100000023842,5530,7570.399999976158,8447.899999976158,9108,10318.199999988079,10672.199999988079,11131.899999976158,11474.399999976158,11989.800000011921,12264,14678.100000023842,16596.19999998808,17942.19999998808,18220.5,18902.399999976158,19422.30000001192,19663.899999976158,21460.100000023842,22544.100000023842,23165.899999976158,24290.30000001192,24652.100000023842,25272.19999998808],"honeypot":0,"survey":"mace","page":2,"trial_type":"survey-mace","trial_index":10,"time_elapsed":351606,"internal_node_id":"0.0-10.0","task_version":"prescreen-v0.3","browser_interactions":0},{"responses":{"01":"No","02":"No","03":"No","04":"No"},"rt":9615.699999988079,"item_order":[0,1,2,3],"radio_events":[6724.399999976158,7378.300000011921,8578.599999964237,9142.300000011921],"checkbox_events":[],"key_events":[],"mouse_events":[6032.199999988079,6724.399999976158,7378.300000011921,7732.199999988079,8578.599999964237,9142.300000011921,9614.5],"honeypot":0,"survey":"mace","page":3,"trial_type":"survey-mace","trial_index":11,"time_elapsed":361225,"internal_node_id":"0.0-11.0","task_version":"prescreen-v0.3","browser_interactions":0},{"responses":{"01":"No","02":"No"},"rt":5600,"item_order":[0,1],"radio_events":[3423.699999988079,5019.699999988079],"checkbox_events":[],"key_events":[],"mouse_events":[3423.699999988079,3971.5,5019.699999988079,5599.399999976158],"honeypot":0,"survey":"mace","page":4,"trial_type":"survey-mace","trial_index":12,"time_elapsed":366828,"internal_node_id":"0.0-12.0","task_version":"prescreen-v0.3","browser_interactions":0},{"responses":{"01":"No","02":"No","03":"No","04":"No","05":"No"},"rt":8657.800000011921,"item_order":[0,1,2,3,4],"radio_events":[2950.600000023842,3382.199999988079,6250.300000011921,7000.400000035763,7948.699999988079],"checkbox_events":[],"key_events":[],"mouse_events":[2950.600000023842,3382.199999988079,4180.199999988079,4938.699999988079,5388.5,5808.199999988079,6250.300000011921,6758.300000011921,7000.400000035763,7588.800000011921,7948.699999988079,8656.300000011921],"honeypot":0,"survey":"mace","page":5,"trial_type":"survey-mace","trial_index":13,"time_elapsed":375489,"internal_node_id":"0.0-13.0","task_version":"prescreen-v0.3","browser_interactions":0},{"responses":{"01":"Yes","01_ages_6":"6","01_ages_7":"7","01_ages_8":"8","01_ages_9":"9","01_ages_10":"10","01_ages_11":"11","01_ages_12":"12","01_ages_13":"13","01_ages_14":"14","01_ages_15":"15","01_ages_16":"16","01_ages_17":"17","02":"No","03":"Yes","03_ages_12":"12","03_ages_13":"13","03_ages_14":"14","03_ages_15":"15","03_ages_16":"16","03_ages_17":"17","04":"Yes","04_ages_13":"13","04_ages_14":"14","04_ages_15":"15","04_ages_16":"16","04_ages_17":"17","05":"No"},"rt":32866.90000003576,"item_order":[0,1,2,3,4],"radio_events":[5991.800000011921,15765.699999988079,17167.600000023842,24313.400000035763,32485.69999998808],"checkbox_events":[7750.300000011921,8035.600000023842,8349.5,8679.699999988079,9027.699999988079,9317.600000023842,9703.400000035763,10019.5,10803.300000011921,11103.199999988079,11485.699999988079,11779.400000035763,19445.30000001192,19910.19999998808,20311.69999998808,21264,21585.5,21867.5,25092.30000001192,26005.400000035763,26445.600000023842,26719.600000023842,27117.80000001192,27529.5,27827.600000023842],"key_events":[],"mouse_events":[5991.800000011921,7750.300000011921,8035.600000023842,8349.5,8679.699999988079,9027.699999988079,9317.600000023842,9703.400000035763,10019.5,10305.600000023842,10803.300000011921,11103.199999988079,11485.699999988079,11779.400000035763,15765.699999988079,17167.600000023842,18075.900000035763,18302.100000023842,18619.600000023842,19135.600000023842,19445.30000001192,19910.19999998808,20311.69999998808,20565.80000001192,20839.80000001192,21264,21585.5,21867.5,23935.69999998808,24313.400000035763,25092.30000001192,26005.400000035763,26445.600000023842,26719.600000023842,27117.80000001192,27529.5,27827.600000023842,32485.69999998808,32865.69999998808],"honeypot":0,"survey":"mace","page":6,"trial_type":"survey-mace","trial_index":14,"time_elapsed":408360,"internal_node_id":"0.0-14.0","task_version":"prescreen-v0.3","browser_interactions":0},{"responses":{"01":"No","02":"No","03":"No","04":"No","05":"No","06":"No","07":"No"},"rt":13774.700000047684,"item_order":[0,1,2,3,4,5,6],"radio_events":[2886.900000035763,5987.700000047684,7027,8791.200000047684,9941.100000023842,12129.100000023842,12652.900000035763],"checkbox_events":[],"key_events":[],"mouse_events":[2886.900000035763,5490.800000011921,5987.700000047684,7027,7587,8791.200000047684,9941.100000023842,10807.200000047684,12129.100000023842,12652.900000035763,13773],"honeypot":0,"survey":"mace","page":7,"trial_type":"survey-mace","trial_index":15,"time_elapsed":422139,"internal_node_id":"0.0-15.0","task_version":"prescreen-v0.3","browser_interactions":0},{"responses":{"01":"No","02":"No","03":"No","04":"No"},"rt":12546.5,"item_order":[0,1,2,3],"radio_events":[4783.199999988079,6555.099999964237,11529.199999988079,12201.599999964237],"checkbox_events":[],"key_events":[],"mouse_events":[4783.199999988079,6065.5,6555.099999964237,7933.199999988079,8337.099999964237,11001.300000011921,11529.199999988079,11859.199999988079,12201.599999964237,12545.300000011921],"honeypot":0,"survey":"mace","page":8,"trial_type":"survey-mace","trial_index":16,"time_elapsed":434688,"internal_node_id":"0.0-16.0","task_version":"prescreen-v0.3","browser_interactions":0},{"responses":{"01":"Yes","01_ages_14":"14","01_ages_15":"15","01_ages_16":"16","01_ages_17":"17","02":"No","03":"Yes","03_ages_1":"1","03_ages_2":"2","03_ages_3":"3","03_ages_4":"4","03_ages_5":"5","03_ages_6":"6","03_ages_7":"7","03_ages_8":"8","03_ages_9":"9","03_ages_10":"10","03_ages_11":"11","03_ages_12":"12","03_ages_13":"13","03_ages_14":"14","03_ages_15":"15","03_ages_16":"16","03_ages_17":"17","04":"Yes","04_ages_1":"1","04_ages_2":"2","04_ages_3":"3","04_ages_4":"4","04_ages_5":"5","04_ages_6":"6","04_ages_7":"7","04_ages_8":"8","04_ages_9":"9","04_ages_10":"10","04_ages_11":"11","04_ages_12":"12","04_ages_13":"13","04_ages_14":"14","04_ages_15":"15","04_ages_16":"16","04_ages_17":"17","04_ages_18":"18"},"rt":36978.80000001192,"item_order":[0,1,2,3],"radio_events":[5595.699999988079,11543.599999964237,12087.800000011921,15565.699999988079,27373.69999998808],"checkbox_events":[6398.199999988079,6861.5,7441.800000011921,7813.699999988079,16967.899999976158,17569.80000001192,18085.599999964237,18451.69999998808,18842.19999998808,19115.80000001192,19413.899999976158,19881.599999964237,20167.80000001192,20531.899999976158,20830.099999964237,21151.69999998808,22017.899999976158,22353.69999998808,22731.599999964237,23057.69999998808,23359.69999998808,28961.80000001192,29208.099999964237,29482,29815.80000001192,30105.599999964237,30681.80000001192,30967.80000001192,31839.69999998808,32114.099999964237,32649.80000001192,32948,33273.80000001192,34003.89999997616,34285.89999997616,34631.69999998808,35041.80000001192,35361.80000001192,35675.80000001192],"key_events":[],"mouse_events":[4512.199999988079,5321.5,5595.699999988079,6398.199999988079,6861.5,7167.899999976158,7441.800000011921,7813.699999988079,11543.599999964237,12087.800000011921,15331.699999988079,15565.699999988079,16967.899999976158,17569.80000001192,18085.599999964237,18451.69999998808,18842.19999998808,19115.80000001192,19413.899999976158,19881.599999964237,20167.80000001192,20531.899999976158,20830.099999964237,21151.69999998808,21477.399999976158,22017.899999976158,22353.69999998808,22731.599999964237,23057.69999998808,23359.69999998808,26987.80000001192,27373.69999998808,28294.30000001192,28961.80000001192,29208.099999964237,29482,29815.80000001192,30105.599999964237,30423.69999998808,30681.80000001192,30967.80000001192,31255.5,31511.69999998808,31839.69999998808,32114.099999964237,32649.80000001192,32948,33273.80000001192,34003.89999997616,34285.89999997616,34631.69999998808,35041.80000001192,35361.80000001192,35675.80000001192,36977.80000001192],"honeypot":0,"survey":"mace","page":9,"trial_type":"survey-mace","trial_index":17,"time_elapsed":471670,"internal_node_id":"0.0-17.0","task_version":"prescreen-v0.3","browser_interactions":0},{"responses":{"01":"No","02":"No","03":"No","04":"No","05":"No","06":"Yes","06_ages_17":"17","07":"Yes","07_ages_1":"1","07_ages_2":"2","07_ages_3":"3","07_ages_4":"4","07_ages_5":"5","07_ages_6":"6","07_ages_7":"7","07_ages_8":"8","07_ages_9":"9","07_ages_10":"10","07_ages_11":"11","07_ages_12":"12","07_ages_13":"13","07_ages_14":"14","07_ages_15":"15","07_ages_16":"16","07_ages_17":"17","07_ages_18":"18","08":"Yes","08_ages_1":"1","08_ages_2":"2","08_ages_3":"3","08_ages_4":"4","08_ages_5":"5","08_ages_6":"6","08_ages_7":"7","08_ages_8":"8","08_ages_9":"9","08_ages_10":"10","08_ages_11":"11","08_ages_12":"12","08_ages_13":"13","08_ages_14":"14","08_ages_15":"15","08_ages_16":"16","08_ages_17":"17","08_ages_18":"18"},"rt":41707.69999998808,"item_order":[0,1,2,3,4,5,6,7],"radio_events":[1731.2999999523163,2731.7999999523163,5039.399999976158,7445.399999976158,10121.699999988079,11265.699999988079,15541.599999964237,29861.799999952316],"checkbox_events":[12391.599999964237,17399.5,17678,18887.69999998808,19201.5,19527.399999976158,19837.69999998808,20145.799999952316,20983.5,21571.69999998808,21905.799999952316,22607.69999998808,23103.599999964237,23385.599999964237,23699.899999976158,24025.799999952316,24339.69999998808,25129.5,25525.599999964237,31615.599999964237,32433.69999998808,32923.59999996424,34070,34729.799999952316,35563.89999997616,36103.89999997616,36657.799999952316,36999.799999952316,37322,37707.69999998808,38583.69999998808,39017.69999998808,39521.89999997616,40041.69999998808,40541.5,41014,41287.89999997616],"key_events":[],"mouse_events":[1731.2999999523163,2731.7999999523163,5039.399999976158,6722.399999976158,7119.599999964237,7445.399999976158,8485.299999952316,10121.699999988079,10903.899999976158,11265.699999988079,12391.599999964237,15541.599999964237,16533.599999964237,17399.5,17678,18081.69999998808,18364,18887.69999998808,19201.5,19527.399999976158,19837.69999998808,20145.799999952316,20487.69999998808,20983.5,21571.69999998808,21905.799999952316,22607.69999998808,23103.599999964237,23385.599999964237,23699.899999976158,24025.799999952316,24339.69999998808,24767.599999964237,25129.5,25525.599999964237,29445.69999998808,29861.799999952316,31615.599999964237,31922.399999976158,32433.69999998808,32923.59999996424,33689.69999998808,34070,34729.799999952316,35563.89999997616,36103.89999997616,36420,36657.799999952316,36999.799999952316,37322,37707.69999998808,38111.799999952316,38365.69999998808,38583.69999998808,39017.69999998808,39521.89999997616,40041.69999998808,40541.5,41014,41287.89999997616,41705.799999952316],"honeypot":0,"survey":"mace","page":10,"trial_type":"survey-mace","trial_index":18,"time_elapsed":513382,"internal_node_id":"0.0-18.0","task_version":"prescreen-v0.3","browser_interactions":0,"instructed":0},{"rt":6330.899999976158,"trial_type":"mental-health-alert","trial_index":19,"time_elapsed":519715,"internal_node_id":"0.0-19.0","task_version":"prescreen-v0.3","interactions":"[{\"event\":\"focus\",\"trial\":0,\"time\":15918}]"}]