[{"view_history":[{"page_index":0,"viewing_time":13483},{"page_index":1,"viewing_time":7255},{"page_index":2,"viewing_time":6272},{"page_index":3,"viewing_time":2169}],"rt":29182,"trial_type":"instructions","trial_index":0,"time_elapsed":29226,"internal_node_id":"0.0-0.0","task_version":"prescreen-v0.3"},{"rt":22548,"responses":{"age":"62","gender-categorical":"Male","gender-free-response":"","ethnicity":"Not Hispanic or Latino","race":["White"],"education":"High school","siblings":"1"},"trial_type":"survey-demo","trial_index":1,"time_elapsed":51792,"internal_node_id":"0.0-1.0","task_version":"prescreen-v0.3"},{"responses":{"Q19":"1","Q17":"0","Q08":"0","Q05":"3","Q07":"0","Q15":"0","Q12":"2","Q14":"0","Q02":"0","Q10":"0","Q18":"0","Q03":"0","Q09":"2","Q01":"0","Q21":"3","Q20":"0","Q16":"0","Q04":"0","Q06":"0","Q11":"0","Q13":"0"},"rt":282484,"item_order":[18,16,7,4,6,14,11,13,1,9,17,2,8,0,20,19,15,3,5,10,12],"radio_events":[87914,99949,103269,112093,122973,129813,137269,152126,225205,228238,231109,235008,238869,243341,245845,251538,254629,272269,275381,278253,279830,280813],"key_events":[],"mouse_events":[87914,99949,103269,112093,122973,129813,137269,152126,225205,228238,231109,235008,238869,241998,243341,245845,251538,254629,272269,275381,277281,278253,279830,280813,282481],"straightlining":0.7619047619047619,"zigzagging":0.25,"honeypot":0,"survey":"sns","trial_type":"survey-template","trial_index":2,"time_elapsed":334286,"internal_node_id":"0.0-2.0","task_version":"prescreen-v0.3","browser_interactions":0,"infrequency":0},{"responses":{"Q11":"3","Q08":"3","Q05":"3","Q02":"2","Q03":"2","Q10":"0","Q13":"0","Q12":"3","Q09":"3","Q01":"3","Q04":"3","Q06":"3","Q07":"3"},"rt":61146,"item_order":[10,7,4,1,2,9,12,11,8,0,3,5,6],"radio_events":[7352,11624,14704,19282,45160,47464,50680,53792,54744,56000,57792,58632,60376],"key_events":[],"mouse_events":[6592,7352,11624,14704,19282,45160,47464,50680,53792,54744,56000,56729,57792,58632,59408,60376,61144],"straightlining":0.6923076923076923,"zigzagging":0.16666666666666666,"honeypot":0,"survey":"bisbas","trial_type":"survey-template","trial_index":3,"time_elapsed":395443,"internal_node_id":"0.0-3.0","task_version":"prescreen-v0.3","browser_interactions":0,"infrequency":0},{"responses":{"Q01":"0","Q02":"0","Q03":"0"},"rt":6145,"radio_events":[2732,3813,4814],"key_events":[],"mouse_events":[2732,3813,4814,6144],"survey":"map","page":1,"trial_type":"survey-map","trial_index":4,"time_elapsed":401596,"internal_node_id":"0.0-4.0","task_version":"prescreen-v0.3","browser_interactions":0},{"responses":{"Q04":"0","Q05":"0","Q06":"0"},"rt":5962,"radio_events":[2246,3311,4528],"key_events":[],"mouse_events":[2246,3311,4528,5961],"survey":"map","page":2,"trial_type":"survey-map","trial_index":5,"time_elapsed":407562,"internal_node_id":"0.0-5.0","task_version":"prescreen-v0.3","browser_interactions":0},{"responses":{"Q07":"0","Q08":"0","Q09":"0"},"rt":7665,"radio_events":[2072,3120,4244],"key_events":[],"mouse_events":[2072,3120,4244,7664],"survey":"map","page":3,"trial_type":"survey-map","trial_index":6,"time_elapsed":415231,"internal_node_id":"0.0-6.0","task_version":"prescreen-v0.3","browser_interactions":0},{"responses":{"Q10":"2","Q11":"2","Q12":"0","Q13":"2","Q16":"0","Q14":"2","Q15":"2"},"rt":57228,"radio_events":[28003,37315,40291,43755,46067,48095,53595,55995],"key_events":[],"mouse_events":[28003,37315,40291,43755,46067,48095,53595,55995,57227],"survey":"map","page":4,"trial_type":"survey-map","trial_index":7,"time_elapsed":472465,"internal_node_id":"0.0-7.0","task_version":"prescreen-v0.3","browser_interactions":2,"infrequency":0},{"view_history":[{"page_index":0,"viewing_time":2909},{"page_index":1,"viewing_time":7432}],"rt":10343,"trial_type":"instructions","trial_index":8,"time_elapsed":482809,"internal_node_id":"0.0-8.0","task_version":"prescreen-v0.3"},{"responses":{"01":"No","02":"No","03":"No","04":"No","05":"No","06":"No"},"rt":22852,"item_order":[0,1,2,3,4,5],"radio_events":[11499,13935,16439,18999,20912,21993],"checkbox_events":[],"key_events":[],"mouse_events":[0,11499,13935,16439,18999,20912,21993,22847],"honeypot":0,"survey":"mace","page":1,"trial_type":"survey-mace","trial_index":9,"time_elapsed":505677,"internal_node_id":"0.0-9.0","task_version":"prescreen-v0.3","browser_interactions":0},{"responses":{"01":"No","02":"No","03":"Yes","03_ages_8":"8","03_ages_9":"9","03_ages_10":"10","04":"No","05":"No","06":"No","07":"No","08":"No"},"rt":83401,"item_order":[0,1,2,3,4,5,6,7],"radio_events":[36291,43281,61761,69241,71099,73964,75617,78705],"checkbox_events":[53786,55897,56619],"key_events":[],"mouse_events":[36291,38274,43281,53786,55897,56619,61761,69241,71099,73964,75617,76289,78705,83395],"honeypot":0,"survey":"mace","page":2,"trial_type":"survey-mace","trial_index":10,"time_elapsed":589089,"internal_node_id":"0.0-10.0","task_version":"prescreen-v0.3","browser_interactions":0},{"responses":{"01":"No","02":"No","03":"No","04":"No"},"rt":9349,"item_order":[0,1,2,3],"radio_events":[5067,6128,7575,8623],"checkbox_events":[],"key_events":[],"mouse_events":[5067,6128,7575,8623,9342],"honeypot":0,"survey":"mace","page":3,"trial_type":"survey-mace","trial_index":11,"time_elapsed":598444,"internal_node_id":"0.0-11.0","task_version":"prescreen-v0.3","browser_interactions":0},{"responses":{"01":"No","02":"No"},"rt":5363,"item_order":[0,1],"radio_events":[3414,4238],"checkbox_events":[],"key_events":[],"mouse_events":[2133,3414,4238,5361],"honeypot":0,"survey":"mace","page":4,"trial_type":"survey-mace","trial_index":12,"time_elapsed":603811,"internal_node_id":"0.0-12.0","task_version":"prescreen-v0.3","browser_interactions":0},{"responses":{"01":"No","02":"No","03":"No","04":"No","05":"No"},"rt":13779,"item_order":[0,1,2,3,4],"radio_events":[5166,7608,10974,11998,12942],"checkbox_events":[],"key_events":[],"mouse_events":[5166,6992,7608,8381,10974,11998,12942,13774],"honeypot":0,"survey":"mace","page":5,"trial_type":"survey-mace","trial_index":13,"time_elapsed":617596,"internal_node_id":"0.0-13.0","task_version":"prescreen-v0.3","browser_interactions":0},{"responses":{"01":"No","02":"No","03":"No","04":"No","05":"No"},"rt":8268,"item_order":[0,1,2,3,4],"radio_events":[3137,4165,4972,6485,7318],"checkbox_events":[],"key_events":[],"mouse_events":[3137,4165,4972,5844,6485,7318,8260],"honeypot":0,"survey":"mace","page":6,"trial_type":"survey-mace","trial_index":14,"time_elapsed":625871,"internal_node_id":"0.0-14.0","task_version":"prescreen-v0.3","browser_interactions":0},{"responses":{"01":"No","02":"No","03":"No","04":"No","05":"No","06":"No","07":"No"},"rt":32295,"item_order":[0,1,2,3,4,5,6],"radio_events":[21035,22914,26498,27338,28210,30299,31186],"checkbox_events":[],"key_events":[],"mouse_events":[21035,22914,24626,26498,27338,28210,30299,31186,32290],"honeypot":0,"survey":"mace","page":7,"trial_type":"survey-mace","trial_index":15,"time_elapsed":658175,"internal_node_id":"0.0-15.0","task_version":"prescreen-v0.3","browser_interactions":0},{"responses":{"01":"No","02":"No","03":"No","04":"No"},"rt":20078,"item_order":[0,1,2,3],"radio_events":[6202,10449,16649,18218],"checkbox_events":[],"key_events":[],"mouse_events":[6202,10449,16649,18218,20075],"honeypot":0,"survey":"mace","page":8,"trial_type":"survey-mace","trial_index":16,"time_elapsed":678260,"internal_node_id":"0.0-16.0","task_version":"prescreen-v0.3","browser_interactions":0},{"responses":{"01":"No","02":"No","03":"No","04":"No"},"rt":9825,"item_order":[0,1,2,3],"radio_events":[3741,4470,7902,8756],"checkbox_events":[],"key_events":[],"mouse_events":[3741,4470,5412,6580,7902,8756,9822],"honeypot":0,"survey":"mace","page":9,"trial_type":"survey-mace","trial_index":17,"time_elapsed":688091,"internal_node_id":"0.0-17.0","task_version":"prescreen-v0.3","browser_interactions":0},{"responses":{"01":"No","02":"No","03":"No","04":"No","05":"No","06":"No","07":"No","08":"No"},"rt":40212,"item_order":[0,1,2,3,4,5,6,7],"radio_events":[27821,29685,30957,33365,34749,35541,36925,37885],"checkbox_events":[],"key_events":[],"mouse_events":[27821,28957,29685,30957,33365,34749,35541,36925,37885,40205],"honeypot":0,"survey":"mace","page":10,"trial_type":"survey-mace","trial_index":18,"time_elapsed":728311,"internal_node_id":"0.0-18.0","task_version":"prescreen-v0.3","browser_interactions":0,"instructed":1},{"rt":4363,"trial_type":"mental-health-alert","trial_index":19,"time_elapsed":732677,"internal_node_id":"0.0-19.0","task_version":"prescreen-v0.3","interactions":"[{\"event\":\"blur\",\"trial\":7,\"time\":421310},{\"event\":\"focus\",\"trial\":7,\"time\":421681}]"}]