[{"view_history":[{"page_index":0,"viewing_time":6542},{"page_index":1,"viewing_time":6041},{"page_index":2,"viewing_time":9720},{"page_index":3,"viewing_time":1502.0000000000036}],"rt":23806,"trial_type":"instructions","trial_index":0,"time_elapsed":23810,"internal_node_id":"0.0-0.0","task_version":"prescreen-v0.3"},{"rt":19529.999999999996,"responses":{"age":"18","gender-categorical":"Female","gender-free-response":"","ethnicity":"Not Hispanic or Latino","race":["White"],"education":"High school"},"trial_type":"survey-demo","trial_index":1,"time_elapsed":43365,"internal_node_id":"0.0-1.0","task_version":"prescreen-v0.3"},{"responses":{"Q12":"2","Q08":"1","Q01":"2","Q15":"2","Q09":"2","Q07":"2","Q04":"0","Q02":"2","Q13":"1","Q16":"2","Q20":"3","Q03":"1","Q21":"3","Q10":"2","Q18":"2","Q19":"2","Q11":"1","Q17":"1","Q14":"2","Q06":"2","Q05":"1"},"rt":132610,"item_order":[11,7,0,14,8,6,3,1,12,15,19,2,20,9,17,18,10,16,13,5,4],"radio_events":[20960.000000000007,27855,31269,36885,42767,54627.000000000015,61515,68896,72336,76843,79788,82543,90616,95952,100324,107939,112121,115478,120567,126571,131463],"key_events":[],"mouse_events":[20960.000000000007,27855,31269,36885,42767,54627.000000000015,61515,68896,72336,76843,79788,82543,90616,95952,100324,107939,112121,115478,120567,125499,126571,131463,132592],"straightlining":0.5714285714285714,"zigzagging":0.45,"honeypot":0,"survey":"sns","trial_type":"survey-template","trial_index":2,"time_elapsed":176007,"internal_node_id":"0.0-2.0","task_version":"prescreen-v0.3","browser_interactions":0,"infrequency":0},{"responses":{"Q07":"2","Q04":"3","Q05":"2","Q06":"2","Q03":"1","Q01":"2","Q12":"1","Q08":"1","Q02":"3","Q10":"2","Q13":"0","Q09":"2","Q11":"2"},"rt":107231,"item_order":[6,3,4,5,2,0,11,7,1,9,12,8,10],"radio_events":[6393,16034,29099,33743,35937,40259,56983.00000000003,63465.00000000003,67143,71790,78201,87198,94001,100797],"key_events":[],"mouse_events":[6393,15003,16034,19804.00000000003,27730,29099,33743,34832,35937,40259,56983.00000000003,63465.00000000003,67143,71790,78201,87198,92871,94001,95107,99403.00000000006,100797,107220],"straightlining":0.5384615384615384,"zigzagging":0.5,"honeypot":0,"survey":"bisbas","trial_type":"survey-template","trial_index":3,"time_elapsed":283239,"internal_node_id":"0.0-3.0","task_version":"prescreen-v0.3","browser_interactions":0,"infrequency":0},{"responses":{"Q01":"3","Q02":"2","Q03":"3"},"rt":39324,"radio_events":[19049,28821,38148],"key_events":[],"mouse_events":[19049,28821,37332,38148,39319],"survey":"map","page":1,"trial_type":"survey-map","trial_index":4,"time_elapsed":322566,"internal_node_id":"0.0-4.0","task_version":"prescreen-v0.3","browser_interactions":0},{"responses":{"Q04":"1","Q05":"1","Q06":"3"},"rt":17691.00000000006,"radio_events":[8194,11352.000000000058,16813],"key_events":[],"mouse_events":[6626.000000000058,7426,8194,10264,11352.000000000058,14106,15063,16813,17686],"survey":"map","page":2,"trial_type":"survey-map","trial_index":5,"time_elapsed":340260,"internal_node_id":"0.0-5.0","task_version":"prescreen-v0.3","browser_interactions":0},{"responses":{"Q07":"0","Q08":"1","Q09":"3"},"rt":19239,"radio_events":[7429,13444,17403],"key_events":[],"mouse_events":[7429,13444,17403,19233.00000000006],"survey":"map","page":3,"trial_type":"survey-map","trial_index":6,"time_elapsed":359503,"internal_node_id":"0.0-6.0","task_version":"prescreen-v0.3","browser_interactions":0},{"responses":{"Q10":"3","Q11":"3","Q12":"1","Q13":"3","Q16":"0","Q14":"2","Q15":"2"},"rt":48132,"radio_events":[8090,15520,20154,23346,30323,36539,47317.00000000006],"key_events":[],"mouse_events":[8090,15520,20154,23346,30323,36539,47317.00000000006,48125],"survey":"map","page":4,"trial_type":"survey-map","trial_index":7,"time_elapsed":407638,"internal_node_id":"0.0-7.0","task_version":"prescreen-v0.3","browser_interactions":0,"infrequency":0},{"view_history":[{"page_index":0,"viewing_time":3495},{"page_index":1,"viewing_time":5203}],"rt":8698,"trial_type":"instructions","trial_index":8,"time_elapsed":416338,"internal_node_id":"0.0-8.0","task_version":"prescreen-v0.3"},{"responses":{"01":"No","02":"No","03":"Yes","03_ages_11":"11","04":"No","05":"No","06":"Yes","06_ages_7":"7","06_ages_11":"11"},"rt":65266.99999999994,"item_order":[0,1,2,3,4,5],"radio_events":[16503.99999999994,22003.99999999994,25665.99999999994,31034.99999999994,39851.99999999994,46020.99999999994,49022.99999999994,54185],"checkbox_events":[41533.99999999994,56469.99999999994,57879.99999999994,62976.99999999994,63942],"key_events":[],"mouse_events":[0,16503.99999999994,22003.99999999994,25665.99999999994,31034.99999999994,36452.99999999994,39851.99999999994,41533.99999999994,46020.99999999994,49022.99999999994,54185,56469.99999999994,57879.99999999994,62976.99999999994,63942,65253.99999999994],"honeypot":0,"survey":"mace","page":1,"trial_type":"survey-mace","trial_index":9,"time_elapsed":481612,"internal_node_id":"0.0-9.0","task_version":"prescreen-v0.3","browser_interactions":0},{"responses":{"01":"No","02":"No","03":"No","04":"No","05":"No","06":"Yes","06_ages_14":"14","06_ages_15":"15","06_ages_16":"16","07":"No","08":"No"},"rt":38366.99999999994,"item_order":[0,1,2,3,4,5,6,7],"radio_events":[3642,8574,15741,17935,20599,22932,35156.00000000006,37209.00000000006],"checkbox_events":[28813,30034,31279],"key_events":[],"mouse_events":[3642,8574,15741,17935,20599,22932,28813,30034,31279,35156.00000000006,37209.00000000006,38355],"honeypot":0,"survey":"mace","page":2,"trial_type":"survey-mace","trial_index":10,"time_elapsed":519983,"internal_node_id":"0.0-10.0","task_version":"prescreen-v0.3","browser_interactions":0},{"responses":{"01":"Yes","01_ages_8":"8","02":"No","03":"No","04":"No"},"rt":19143,"item_order":[0,1,2,3],"radio_events":[3984,13534,16602,18210],"checkbox_events":[8387],"key_events":[],"mouse_events":[3984,8387,13534,16602,18210,19134],"honeypot":0,"survey":"mace","page":3,"trial_type":"survey-mace","trial_index":11,"time_elapsed":539129,"internal_node_id":"0.0-11.0","task_version":"prescreen-v0.3","browser_interactions":0},{"responses":{"01":"No","02":"No"},"rt":16847,"item_order":[0,1],"radio_events":[13016,15069],"checkbox_events":[],"key_events":[],"mouse_events":[13016,15069,16842],"honeypot":0,"survey":"mace","page":4,"trial_type":"survey-mace","trial_index":12,"time_elapsed":555981,"internal_node_id":"0.0-12.0","task_version":"prescreen-v0.3","browser_interactions":0},{"responses":{"01":"No","02":"No","03":"No","04":"No","05":"No"},"rt":31784.000000000116,"item_order":[0,1,2,3,4],"radio_events":[15138,18633,24023,26579,30703],"checkbox_events":[],"key_events":[],"mouse_events":[15138,18633,24023,26579,30703,31775],"honeypot":0,"survey":"mace","page":5,"trial_type":"survey-mace","trial_index":13,"time_elapsed":587769,"internal_node_id":"0.0-13.0","task_version":"prescreen-v0.3","browser_interactions":0},{"responses":{"01":"No","02":"No","03":"Yes","03_ages_16":"16","04":"Yes","04_ages_11":"11","04_ages_12":"12","04_ages_13":"13","04_ages_14":"14","04_ages_15":"15","04_ages_16":"16","04_ages_17":"17","04_ages_18":"18","05":"No"},"rt":53579,"item_order":[0,1,2,3,4],"radio_events":[13130,18622,21796,27635,38512,52728],"checkbox_events":[35354,44697.00000000012,45504,46197.00000000012,47013,48531,49198,49825,50460],"key_events":[],"mouse_events":[13130,18622,21796,27635,35354,38512,44697.00000000012,45504,46197.00000000012,47013,48531,49198,49825,50460,52728,53569],"honeypot":0,"survey":"mace","page":6,"trial_type":"survey-mace","trial_index":14,"time_elapsed":641352,"internal_node_id":"0.0-14.0","task_version":"prescreen-v0.3","browser_interactions":0},{"responses":{"01":"No","02":"No","03":"No","04":"No","05":"No","06":"No","07":"No"},"rt":22528,"item_order":[0,1,2,3,4,5,6],"radio_events":[4271,6860,9499,12839,15304.000000000116,17869,20730],"checkbox_events":[],"key_events":[],"mouse_events":[4271,6860,9499,12839,15304.000000000116,17869,20730,22520],"honeypot":0,"survey":"mace","page":7,"trial_type":"survey-mace","trial_index":15,"time_elapsed":663885,"internal_node_id":"0.0-15.0","task_version":"prescreen-v0.3","browser_interactions":0},{"responses":{"01":"Yes","01_ages_7":"7","01_ages_8":"8","01_ages_9":"9","01_ages_10":"10","01_ages_11":"11","01_ages_12":"12","01_ages_13":"13","01_ages_14":"14","01_ages_15":"15","01_ages_16":"16","01_ages_17":"17","01_ages_18":"18","02":"Yes","02_ages_12":"12","02_ages_13":"13","02_ages_14":"14","02_ages_15":"15","02_ages_16":"16","02_ages_17":"17","02_ages_18":"18","03":"Yes","03_ages_11":"11","03_ages_12":"12","03_ages_13":"13","03_ages_14":"14","03_ages_15":"15","03_ages_16":"16","03_ages_17":"17","03_ages_18":"18","04":"Yes","04_ages_7":"7","04_ages_8":"8","04_ages_9":"9","04_ages_10":"10","04_ages_11":"11","04_ages_12":"12","04_ages_13":"13","04_ages_14":"14","04_ages_15":"15","04_ages_16":"16","04_ages_17":"17","04_ages_18":"18"},"rt":86688,"item_order":[0,1,2,3],"radio_events":[7220,40463,54780,73730],"checkbox_events":[11699.000000000116,12885,13521.000000000116,14279,14980,16654,17272,18015,18740,19450,20653,21454.000000000116,22105,22732,24274,24909,25594,26369,27663,28224,29485,30081,30995,31902,44959,45560,46409,47119,47894,48529,49279,61435,62069.00000000012,62671,63306,64585,66151.00000000012,66720,67488,76468.00000000012,77045.00000000012,77656,78381,79074.00000000012,80838,81506,82924,83501,84639,85249,85786],"key_events":[],"mouse_events":[7220,11699.000000000116,12275,12885,13521.000000000116,14279,14980,15837,16654,17272,18015,18740,19450,20150,20653,21454.000000000116,22105,22732,23795.000000000116,24274,24909,25594,26369,27663,28224,28917,29485,30081,30995,31902,40463,44959,45560,46409,47119,47894,48529,49279,54780,61435,62069.00000000012,62671,63306,64032,64585,65195,66151.00000000012,66720,67488,72759,73730,76468.00000000012,77045.00000000012,77656,78381,79074.00000000012,79824.00000000012,80838,81506,82331,82924,83501,84639,85249,85786,86676],"honeypot":0,"survey":"mace","page":8,"trial_type":"survey-mace","trial_index":16,"time_elapsed":750574,"internal_node_id":"0.0-16.0","task_version":"prescreen-v0.3","browser_interactions":0},{"responses":{"01":"No","02":"No","03":"No","04":"Yes","04_ages_1":"1","04_ages_2":"2","04_ages_3":"3","04_ages_4":"4","04_ages_5":"5","04_ages_6":"6","04_ages_7":"7","04_ages_8":"8","04_ages_9":"9","04_ages_10":"10","04_ages_11":"11","04_ages_12":"12","04_ages_13":"13","04_ages_14":"14","04_ages_15":"15","04_ages_16":"16","04_ages_17":"17","04_ages_18":"18"},"rt":39140.99999999988,"item_order":[0,1,2,3],"radio_events":[6187.999999999884,12651.999999999884,15224.999999999884,19843.999999999884],"checkbox_events":[25063.999999999884,25640.999999999884,26341.999999999884,27050.999999999884,27801.999999999884,28387.999999999884,29120.999999999884,30828.999999999884,31339.999999999884,31974.999999999884,32674.999999999884,33277.99999999988,34960.99999999988,35529.99999999988,36263.99999999988,36881.99999999988,37656.99999999988,38284],"key_events":[],"mouse_events":[6187.999999999884,12651.999999999884,15224.999999999884,19843.999999999884,23868.999999999884,25063.999999999884,25640.999999999884,26341.999999999884,27050.999999999884,27801.999999999884,28387.999999999884,29120.999999999884,29830.999999999884,30828.999999999884,31339.999999999884,31974.999999999884,32674.999999999884,33277.99999999988,34011.99999999988,34960.99999999988,35529.99999999988,36263.99999999988,36881.99999999988,37656.99999999988,38284,39133.99999999988],"honeypot":0,"survey":"mace","page":9,"trial_type":"survey-mace","trial_index":17,"time_elapsed":789721,"internal_node_id":"0.0-17.0","task_version":"prescreen-v0.3","browser_interactions":0},{"responses":{"01":"No","02":"No","03":"No","04":"No","05":"No","06":"Yes","06_ages_17":"17","07":"No","08":"No"},"rt":39261,"item_order":[0,1,2,3,4,5,6,7],"radio_events":[3335,5743,8274,10032,12613.000000000116,16944,36258,38575],"checkbox_events":[18699.000000000116],"key_events":[],"mouse_events":[3335,5743,8274,10032,12613.000000000116,16944,18699.000000000116,19441,36258,37586,38105,38575,39251],"honeypot":0,"survey":"mace","page":10,"trial_type":"survey-mace","trial_index":18,"time_elapsed":828987,"internal_node_id":"0.0-18.0","task_version":"prescreen-v0.3","browser_interactions":0,"instructed":0},{"rt":15376,"trial_type":"mental-health-alert","trial_index":19,"time_elapsed":844366,"internal_node_id":"0.0-19.0","task_version":"prescreen-v0.3","interactions":"[]"}]