[{"view_history":[{"page_index":0,"viewing_time":4725.255000055768},{"page_index":1,"viewing_time":9841.47500002291},{"page_index":2,"viewing_time":4237.049999996088},{"page_index":3,"viewing_time":1270.1699999161065}],"rt":20075.02500002738,"trial_type":"instructions","trial_index":0,"time_elapsed":20086,"internal_node_id":"0.0-0.0","task_version":"prescreen-v0.3"},{"rt":34492.07000003662,"responses":{"age":"21","gender-categorical":"Female","gender-free-response":"","ethnicity":"Not Hispanic or Latino","race":["White"],"education":"High school"},"trial_type":"survey-demo","trial_index":1,"time_elapsed":54585,"internal_node_id":"0.0-1.0","task_version":"prescreen-v0.3"},{"responses":{"Q15":"3","Q11":"2","Q08":"1","Q02":"1","Q10":"2","Q03":"0","Q16":"3","Q19":"1","Q14":"3","Q20":"1","Q07":"0","Q21":"3","Q09":"1","Q13":"2","Q06":"0","Q01":"0","Q18":"1","Q12":"1","Q04":"1","Q17":"1","Q05":"1"},"rt":196148.47999997437,"item_order":[14,10,7,1,9,2,15,18,13,19,6,20,8,12,5,0,17,11,3,16,4],"radio_events":[8309.404999949038,16476.74499999266,20438.47499997355,25575.730000040494,30727.15499997139,34185.380000039004,38893.65999994334,48267.34999998007,53564.28499997128,55209.484999999404,59928.225000039674,65179.05999999493,69395.19499999005,75244.19999995735,81108.14000002574,90237.7400000114,97936.27499998547,107721.39500000048,122469.11499998532,145001.98499998078,157236.8499999866,194874.99000004027],"key_events":[],"mouse_events":[8309.404999949038,16476.74499999266,20438.47499997355,25575.730000040494,30727.15499997139,34185.380000039004,38893.65999994334,48267.34999998007,53564.28499997128,55209.484999999404,59928.225000039674,65179.05999999493,69395.19499999005,75244.19999995735,81108.14000002574,90237.7400000114,97936.27499998547,107721.39500000048,122469.11499998532,145001.98499998078,157236.8499999866,194874.99000004027,196145.66999999806],"straightlining":0.47619047619047616,"zigzagging":0.4,"honeypot":0,"survey":"sns","trial_type":"survey-template","trial_index":2,"time_elapsed":250740,"internal_node_id":"0.0-2.0","task_version":"prescreen-v0.3","browser_interactions":0,"infrequency":0},{"responses":{"Q10":"2","Q01":"3","Q11":"2","Q03":"3","Q12":"1","Q06":"2","Q05":"3","Q08":"3","Q07":"3","Q02":"3","Q13":"0","Q04":"3","Q09":"2"},"rt":162430.86000008043,"item_order":[9,0,10,2,11,5,4,7,6,1,12,3,8],"radio_events":[46648.065000073984,49220.19999998156,56301.534999976866,64478.89500006568,76601.94500000216,83858.86999999639,87840.56000004057,128577.82000000589,143130.72000001557,145552.21500003245,149028.63000007346,153209.9300000118,161462.3750000028],"key_events":[],"mouse_events":[46648.065000073984,49220.19999998156,56301.534999976866,64478.89500006568,76601.94500000216,83858.86999999639,87840.56000004057,128577.82000000589,143130.72000001557,145552.21500003245,149028.63000007346,153209.9300000118,161462.3750000028,162429.04499999713],"straightlining":0.5384615384615384,"zigzagging":0.6666666666666666,"honeypot":0,"survey":"bisbas","trial_type":"survey-template","trial_index":3,"time_elapsed":413175,"internal_node_id":"0.0-3.0","task_version":"prescreen-v0.3","browser_interactions":0,"infrequency":0},{"responses":{"Q01":"4","Q02":"2","Q03":"4"},"rt":143052.00000002515,"radio_events":[23696.1949999677,40596.279999939725,142303.25500003528],"key_events":[],"mouse_events":[23696.1949999677,40596.279999939725,142303.25500003528,143051.01499997545],"survey":"map","page":1,"trial_type":"survey-map","trial_index":4,"time_elapsed":556232,"internal_node_id":"0.0-4.0","task_version":"prescreen-v0.3","browser_interactions":0},{"responses":{"Q04":"2","Q05":"1","Q06":"2"},"rt":135037.1199999936,"radio_events":[11457.509999978356,79188.46500001382,80771.64499997161,134135.44500002172],"key_events":[],"mouse_events":[11457.509999978356,79188.46500001382,80771.64499997161,134135.44500002172,135036.2599999644],"survey":"map","page":2,"trial_type":"survey-map","trial_index":5,"time_elapsed":691272,"internal_node_id":"0.0-5.0","task_version":"prescreen-v0.3","browser_interactions":0},{"responses":{"Q07":"4","Q08":"4","Q09":"2"},"rt":53877.785000018775,"radio_events":[29477.190000005066,30459.649999975227,43083.12500000466,52853.09500002768],"key_events":[],"mouse_events":[29477.190000005066,30459.649999975227,43083.12500000466,52853.09500002768,53876.87999999616],"survey":"map","page":3,"trial_type":"survey-map","trial_index":6,"time_elapsed":745152,"internal_node_id":"0.0-6.0","task_version":"prescreen-v0.3","browser_interactions":0},{"responses":{"Q10":"2","Q11":"2","Q12":"0","Q13":"0","Q16":"0","Q14":"1","Q15":"1"},"rt":208334.81499995105,"radio_events":[103777.90499990806,153073.42999998946,163302.91999992914,169022.30499999132,173961.50999993552,194233.27999992762,207372.18499998562],"key_events":[],"mouse_events":[103777.90499990806,153073.42999998946,163302.91999992914,169022.30499999132,173961.50999993552,194233.27999992762,207372.18499998562,208333.01499998197],"survey":"map","page":4,"trial_type":"survey-map","trial_index":7,"time_elapsed":953492,"internal_node_id":"0.0-7.0","task_version":"prescreen-v0.3","browser_interactions":0,"infrequency":0},{"view_history":[{"page_index":0,"viewing_time":15515.23499994073},{"page_index":1,"viewing_time":5877.085000043735}],"rt":21392.539999913424,"trial_type":"instructions","trial_index":8,"time_elapsed":974885,"internal_node_id":"0.0-8.0","task_version":"prescreen-v0.3"},{"responses":{"01":"No","02":"No","03":"No","04":"No","05":"No","06":"No"},"rt":77965.33000003546,"item_order":[0,1,2,3,4,5],"radio_events":[37908.06499996688,61625.15500001609,66384.82499995735,69965.24499997031,72267.54000002984,75157.40000002552,77314.29999996908],"checkbox_events":[],"key_events":[],"mouse_events":[0.0700000673532486,37908.06499996688,61625.15500001609,66384.82499995735,69965.24499997031,72267.54000002984,75157.40000002552,77314.29999996908,77961.51000005193],"honeypot":0,"survey":"mace","page":1,"trial_type":"survey-mace","trial_index":9,"time_elapsed":1052856,"internal_node_id":"0.0-9.0","task_version":"prescreen-v0.3","browser_interactions":0},{"responses":{"01":"No","02":"No","03":"No","04":"No","05":"No","06":"No","07":"No","08":"No"},"rt":23423.414999968372,"item_order":[0,1,2,3,4,5,6,7],"radio_events":[4387.430000002496,11843.024999951012,13563.849999918602,15207.434999989346,16471.98999999091,18995.984999928623,20675.53000000771,22494.209999917075],"checkbox_events":[],"key_events":[],"mouse_events":[4387.430000002496,11843.024999951012,13563.849999918602,15207.434999989346,16471.98999999091,18995.984999928623,20675.53000000771,22494.209999917075,23418.349999934435],"honeypot":0,"survey":"mace","page":2,"trial_type":"survey-mace","trial_index":10,"time_elapsed":1076284,"internal_node_id":"0.0-10.0","task_version":"prescreen-v0.3","browser_interactions":0},{"responses":{"01":"No","02":"No","03":"No","04":"No"},"rt":24922.059999895282,"item_order":[0,1,2,3],"radio_events":[9487.289999960922,10518.44999997411,21689.78499993682,23449.640000006184],"checkbox_events":[],"key_events":[],"mouse_events":[9487.289999960922,10518.44999997411,21689.78499993682,23449.640000006184,24919.20999996364],"honeypot":0,"survey":"mace","page":3,"trial_type":"survey-mace","trial_index":11,"time_elapsed":1101209,"internal_node_id":"0.0-11.0","task_version":"prescreen-v0.3","browser_interactions":0},{"responses":{"01":"No","02":"No"},"rt":5271.950000082143,"item_order":[0,1],"radio_events":[3515.415000030771,4575.445000082254],"checkbox_events":[],"key_events":[],"mouse_events":[3515.415000030771,4575.445000082254,5270.340000046417],"honeypot":0,"survey":"mace","page":4,"trial_type":"survey-mace","trial_index":12,"time_elapsed":1106483,"internal_node_id":"0.0-12.0","task_version":"prescreen-v0.3","browser_interactions":0},{"responses":{"01":"No","02":"No","03":"No","04":"No","05":"No"},"rt":44402.924999943934,"item_order":[0,1,2,3,4],"radio_events":[25219.444999936968,37503.410000004806,39130.58999995701,40318.684999947436,41336.4049999509],"checkbox_events":[],"key_events":[],"mouse_events":[25219.444999936968,37503.410000004806,39130.58999995701,40318.684999947436,41336.4049999509,44399.52999993693],"honeypot":0,"survey":"mace","page":5,"trial_type":"survey-mace","trial_index":13,"time_elapsed":1150891,"internal_node_id":"0.0-13.0","task_version":"prescreen-v0.3","browser_interactions":0},{"responses":{"01":"Yes","01_ages_10":"10","01_ages_11":"11","01_ages_12":"12","01_ages_13":"13","01_ages_14":"14","01_ages_15":"15","01_ages_16":"16","02":"Yes","02_ages_10":"10","02_ages_11":"11","02_ages_12":"12","02_ages_13":"13","02_ages_14":"14","02_ages_15":"15","02_ages_16":"16","03":"No","04":"No","05":"No"},"rt":124299.05999999028,"item_order":[0,1,2,3,4],"radio_events":[24520.350000006147,61222.04999998212,118733.73999993782,120936.97000003885,123631.77999993786],"checkbox_events":[31717.730000033043,34869.97999995947,35674.235000042245,36390.954999951646,37161.33000003174,37843.3649999788,38521.48999995552,63291.51499993168,64498.29999997746,65228.05499995593,65801.35500000324,66380.81999996211,66948.91000003554,67511.5999999689],"key_events":[],"mouse_events":[24520.350000006147,31717.730000033043,34869.97999995947,35674.235000042245,36390.954999951646,37161.33000003174,37843.3649999788,38521.48999995552,61222.04999998212,63291.51499993168,64498.29999997746,65228.05499995593,65801.35500000324,66380.81999996211,66948.91000003554,67511.5999999689,118733.73999993782,120936.97000003885,123631.77999993786,124295.73499993421],"honeypot":0,"survey":"mace","page":6,"trial_type":"survey-mace","trial_index":14,"time_elapsed":1275195,"internal_node_id":"0.0-14.0","task_version":"prescreen-v0.3","browser_interactions":0},{"responses":{"01":"No","02":"No","03":"No","04":"No","05":"No","06":"No","07":"No"},"rt":67800.4850000143,"item_order":[0,1,2,3,4,5,6],"radio_events":[14241.875000065193,24947.640000027604,27931.90000008326,37263.42500001192,38616.51000007987,64610.80999998376,66290.34000006504],"checkbox_events":[],"key_events":[],"mouse_events":[14241.875000065193,24947.640000027604,27931.90000008326,37263.42500001192,38616.51000007987,64610.80999998376,66290.34000006504,67796.01000004914],"honeypot":0,"survey":"mace","page":7,"trial_type":"survey-mace","trial_index":15,"time_elapsed":1343001,"internal_node_id":"0.0-15.0","task_version":"prescreen-v0.3","browser_interactions":0},{"responses":{"01":"No","02":"No","03":"Yes","03_ages_14":"14","03_ages_15":"15","03_ages_16":"16","03_ages_17":"17","03_ages_18":"18","04":"No"},"rt":46087.48999994714,"item_order":[0,1,2,3],"radio_events":[14050.79000000842,20209.810000029393,24609.805000014603,43776.6399999382],"checkbox_events":[28410.810000030324,28941.035000025295,29517.54999998957,30764.480000012554,31288.96999999415],"key_events":[],"mouse_events":[14050.79000000842,20209.810000029393,24609.805000014603,28410.810000030324,28941.035000025295,29517.54999998957,30008.855000021867,30764.480000012554,31288.96999999415,43258.79500003066,43776.6399999382,46085.0700000301],"honeypot":0,"survey":"mace","page":8,"trial_type":"survey-mace","trial_index":16,"time_elapsed":1389092,"internal_node_id":"0.0-16.0","task_version":"prescreen-v0.3","browser_interactions":0},{"responses":{"01":"Yes","01_ages_1":"1","01_ages_2":"2","01_ages_3":"3","01_ages_4":"4","01_ages_5":"5","01_ages_6":"6","01_ages_7":"7","01_ages_8":"8","01_ages_9":"9","01_ages_10":"10","01_ages_11":"11","01_ages_12":"12","01_ages_13":"13","01_ages_14":"14","01_ages_15":"15","01_ages_16":"16","01_ages_17":"17","01_ages_18":"18","02":"Yes","02_ages_1":"1","02_ages_2":"2","02_ages_3":"3","02_ages_4":"4","02_ages_5":"5","02_ages_6":"6","02_ages_7":"7","02_ages_8":"8","02_ages_9":"9","02_ages_10":"10","02_ages_11":"11","02_ages_12":"12","02_ages_13":"13","02_ages_14":"14","02_ages_15":"15","02_ages_16":"16","02_ages_17":"17","02_ages_18":"18","03":"Yes","03_ages_1":"1","03_ages_2":"2","03_ages_3":"3","03_ages_4":"4","03_ages_5":"5","03_ages_6":"6","03_ages_7":"7","03_ages_8":"8","03_ages_9":"9","03_ages_10":"10","03_ages_11":"11","03_ages_12":"12","03_ages_13":"13","03_ages_14":"14","03_ages_15":"15","03_ages_16":"16","03_ages_17":"17","03_ages_18":"18","04":"Yes","04_ages_1":"1","04_ages_2":"2","04_ages_3":"3","04_ages_4":"4","04_ages_5":"5","04_ages_6":"6","04_ages_7":"7","04_ages_8":"8","04_ages_9":"9","04_ages_10":"10","04_ages_11":"11","04_ages_12":"12","04_ages_13":"13","04_ages_14":"14","04_ages_15":"15","04_ages_16":"16","04_ages_17":"17","04_ages_18":"18"},"rt":97456.3199999975,"item_order":[0,1,2,3],"radio_events":[25014.039999921806,46598.354999907315,64902.97999989707,81268.98999989498],"checkbox_events":[26807.01999994926,27445.899999933317,28009.999999892898,28544.04499998782,29068.084999918938,29617.214999976568,30183.40499990154,34786.954999901354,35482.25000000093,36620.06999994628,37181.59499997273,37735.75999995228,38210.6049999129,39249.849999905564,39798.27499995008,40488.59500000253,41495.999999926426,42462.184999953024,47832.58499996737,48368.62999992445,49025.62999993097,49745.77999999747,51678.52999991737,52358.42999990564,52817.30999995489,53425.01499992795,54039.39499997068,55105.34499993082,55701.76499988884,56239.17499999516,56879.384999978356,57545.79499992542,58158.04999996908,58887.979999999516,59486.745000001974,60198.149999952875,66178.42499993276,66678.0499999877,67793.5099999886,68335.13499994297,68947.77499989141,69528.56499992777,70129.31999994908,70751.39999995008,71767.47500000056,72283.96499995142,72955.7049999712,73504.41499997396,74068.26999993064,75142.03499990981,75697.6999999024,76306.89499992877,76879.29499999154,77502.05499993172,83628.93999996595,84238.43499994837,84851.53499990702,85433.45499993302,86293.68999996223,86865.14499993064,87374.32499998249,88005.88999991305,88964.72999989055,89627.32999993023,90208.09999993071,90797.52999998163,91445.9949999582,92724.84499996062,93297.37499996554,93912.46499994304,94480.59999989346,95026.74000000115],"key_events":[],"mouse_events":[25014.039999921806,26807.01999994926,27445.899999933317,28009.999999892898,28544.04499998782,29068.084999918938,29617.214999976568,30183.40499990154,34786.954999901354,35482.25000000093,36147.81999995466,36620.06999994628,37181.59499997273,37735.75999995228,38210.6049999129,38758.36999993771,39249.849999905564,39798.27499995008,40488.59500000253,41495.999999926426,42462.184999953024,46598.354999907315,47832.58499996737,48368.62999992445,49025.62999993097,49745.77999999747,51678.52999991737,52358.42999990564,52817.30999995489,53425.01499992795,54039.39499997068,54653.349999920465,55105.34499993082,55701.76499988884,56239.17499999516,56879.384999978356,57545.79499992542,58158.04999996908,58887.979999999516,59486.745000001974,60198.149999952875,64902.97999989707,66178.42499993276,66678.0499999877,67793.5099999886,68335.13499994297,68947.77499989141,69528.56499992777,70129.31999994908,70751.39999995008,71767.47500000056,72283.96499995142,72955.7049999712,73504.41499997396,74068.26999993064,74634.46999993175,75142.03499990981,75697.6999999024,76306.89499992877,76879.29499999154,77502.05499993172,81268.98999989498,83628.93999996595,84238.43499994837,84851.53499990702,85433.45499993302,86293.68999996223,86865.14499993064,87374.32499998249,88005.88999991305,88964.72999989055,89627.32999993023,90208.09999993071,90797.52999998163,91445.9949999582,92724.84499996062,93297.37499996554,93912.46499994304,94480.59999989346,95026.74000000115,97453.68499995675],"honeypot":0,"survey":"mace","page":9,"trial_type":"survey-mace","trial_index":17,"time_elapsed":1486553,"internal_node_id":"0.0-17.0","task_version":"prescreen-v0.3","browser_interactions":0},{"responses":{"01":"No","02":"No","03":"No","04":"Yes","04_ages_15":"15","04_ages_16":"16","04_ages_17":"17","04_ages_18":"18","05":"Yes","05_ages_8":"8","05_ages_9":"9","05_ages_10":"10","05_ages_11":"11","05_ages_12":"12","05_ages_13":"13","05_ages_14":"14","05_ages_15":"15","05_ages_16":"16","05_ages_17":"17","05_ages_18":"18","06":"Yes","06_ages_17":"17","07":"Yes","07_ages_1":"1","07_ages_2":"2","07_ages_3":"3","07_ages_4":"4","07_ages_5":"5","07_ages_6":"6","07_ages_7":"7","07_ages_8":"8","07_ages_9":"9","07_ages_10":"10","07_ages_11":"11","07_ages_12":"12","07_ages_13":"13","07_ages_14":"14","07_ages_15":"15","07_ages_16":"16","07_ages_17":"17","07_ages_18":"18","08":"Yes","08_ages_1":"1","08_ages_2":"2","08_ages_3":"3","08_ages_4":"4","08_ages_5":"5","08_ages_6":"6","08_ages_7":"7","08_ages_8":"8","08_ages_9":"9","08_ages_10":"10","08_ages_11":"11","08_ages_12":"12","08_ages_13":"13","08_ages_14":"14","08_ages_15":"15","08_ages_16":"16","08_ages_17":"17","08_ages_18":"18"},"rt":89236.90000001807,"item_order":[0,1,2,3,4,5,6,7],"radio_events":[24575.754999998026,26336.24500001315,28173.605000018142,30880.825000000186,31895.284999976866,39114.53499994241,50165.21999996621,57401.60999994259,76393.24499992654],"checkbox_events":[34321.41999993473,34885.215000016615,35403.13500002958,35910.894999979064,40081.40000002459,41089.62500002235,41662.3649999965,42293.87499997392,42851.17999999784,43612.33499995433,44225.57000000961,44815.80500002019,45358.174999943,45918.37500000838,46652.92000002228,51681.484999950044,58884.03499999549,59455.59999998659,60036.15499997977,60684.42499998491,61333.884999970905,62120.05499994848,65457.88499992341,66037.47500001919,66643.28999991994,67338.83000002243,67953.5100000212,68584.6100000199,70051.45499994978,71042.90000000037,71664.50499999337,72334.73000000231,72944.06999996863,73597.75499999523,77955.37500001956,78455.60999994632,79094.67000002041,79669.81999995187,80283.73999998439,80890.53500001319,81535.87000002153,82233.7599999737,82855.05000001285,83388.88500002213,83969.77500000503,84527.82499999739,85101.13999992609,85691.28999998793,86264.31999995839,86879.4549999293,87491.91500002053,88058.92999994103],"key_events":[],"mouse_events":[24575.754999998026,26336.24500001315,28173.605000018142,30880.825000000186,31895.284999976866,34321.41999993473,34885.215000016615,35403.13500002958,35910.894999979064,39114.53499994241,40081.40000002459,40662.75499993935,41089.62500002235,41662.3649999965,42293.87499997392,42851.17999999784,43612.33499995433,44225.57000000961,44815.80500002019,45358.174999943,45918.37500000838,46652.92000002228,50165.21999996621,51681.484999950044,57401.60999994259,58884.03499999549,59455.59999998659,60036.15499997977,60684.42499998491,61333.884999970905,62120.05499994848,65457.88499992341,66037.47500001919,66643.28999991994,67338.83000002243,67953.5100000212,68584.6100000199,70051.45499994978,71042.90000000037,71664.50499999337,72334.73000000231,72944.06999996863,73597.75499999523,76393.24499992654,77955.37500001956,78455.60999994632,79094.67000002041,79669.81999995187,80283.73999998439,80890.53500001319,81535.87000002153,82233.7599999737,82855.05000001285,83388.88500002213,83969.77500000503,84527.82499999739,85101.13999992609,85691.28999998793,86264.31999995839,86879.4549999293,87491.91500002053,88058.92999994103,89231.8100000266],"honeypot":0,"survey":"mace","page":10,"trial_type":"survey-mace","trial_index":18,"time_elapsed":1575797,"internal_node_id":"0.0-18.0","task_version":"prescreen-v0.3","browser_interactions":0,"instructed":0},{"rt":8174.14000001736,"trial_type":"mental-health-alert","trial_index":19,"time_elapsed":1583972,"internal_node_id":"0.0-19.0","task_version":"prescreen-v0.3","interactions":"[]"}]