[{"view_history":[{"page_index":0,"viewing_time":3185.7000000178814},{"page_index":1,"viewing_time":2993.5999999940395},{"page_index":2,"viewing_time":2434.199999988079},{"page_index":3,"viewing_time":1084.4000000059605}],"rt":9702.700000017881,"trial_type":"instructions","trial_index":0,"time_elapsed":9715,"internal_node_id":"0.0-0.0","task_version":"prescreen-v0.3"},{"rt":16545.30000001192,"responses":{"age":"19","gender-categorical":"Female","gender-free-response":"","ethnicity":"Not Hispanic or Latino","race":["White"],"education":"High school"},"trial_type":"survey-demo","trial_index":1,"time_elapsed":26276,"internal_node_id":"0.0-1.0","task_version":"prescreen-v0.3"},{"responses":{"Q13":"1","Q10":"1","Q14":"1","Q19":"0","Q07":"1","Q12":"0","Q01":"1","Q18":"0","Q02":"0","Q04":"0","Q08":"2","Q06":"1","Q03":"0","Q09":"0","Q05":"0","Q11":"0","Q16":"1","Q20":"1","Q15":"2","Q21":"3","Q17":"1"},"rt":132214.20000001788,"item_order":[12,9,13,18,6,11,0,17,1,3,7,5,2,8,4,10,15,19,14,20,16],"radio_events":[7621.800000011921,15691,22799.59999999404,30204.5,40996.40000000596,46074.90000000596,48906.20000001788,52291.90000000596,58243.90000000596,61451.40000000596,64732.30000001192,71643.70000001788,83600,85903.20000001788,88986.59999999404,96699,98991.80000001192,105799.59999999404,108628.09999999404,120690.90000000596,127186.20000001788,131090.5],"key_events":[],"mouse_events":[7621.800000011921,15691,22799.59999999404,30204.5,39867.20000001788,40996.40000000596,46074.90000000596,48906.20000001788,52291.90000000596,58243.90000000596,61451.40000000596,64732.30000001192,68886.40000000596,71643.70000001788,82669.40000000596,83600,85903.20000001788,88986.59999999404,96699,98991.80000001192,105799.59999999404,108628.09999999404,120690.90000000596,127186.20000001788,131090.5,132201.80000001192],"straightlining":0.42857142857142855,"zigzagging":0.5,"honeypot":0,"survey":"sns","trial_type":"survey-template","trial_index":2,"time_elapsed":158517,"internal_node_id":"0.0-2.0","task_version":"prescreen-v0.3","browser_interactions":4,"infrequency":0},{"responses":{"Q11":"2","Q02":"3","Q10":"2","Q01":"3","Q05":"3","Q07":"3","Q08":"2","Q06":"2","Q12":"2","Q03":"3","Q13":"0","Q09":"2","Q04":"3"},"rt":80412.69999998808,"item_order":[10,1,9,0,4,6,7,5,11,2,12,8,3],"radio_events":[10251.199999988079,23183.59999999404,27231.899999976158,31680.09999999404,32457.899999976158,35201,40928.19999998808,44785.09999999404,55859,63620.19999998808,67462.29999998212,75195.19999998808,79663.79999998212],"key_events":[],"mouse_events":[8958,10251.199999988079,23183.59999999404,27231.899999976158,29294.79999998212,31680.09999999404,32457.899999976158,35201,40928.19999998808,44785.09999999404,55859,63620.19999998808,67462.29999998212,75195.19999998808,79663.79999998212,80403.09999999404],"straightlining":0.46153846153846156,"zigzagging":0.5833333333333334,"honeypot":0,"survey":"bisbas","trial_type":"survey-template","trial_index":3,"time_elapsed":238942,"internal_node_id":"0.0-3.0","task_version":"prescreen-v0.3","browser_interactions":0,"infrequency":0},{"responses":{"Q01":"2","Q02":"3","Q03":"3"},"rt":20931.19999998808,"radio_events":[9391.799999982119,12519.40000000596,15535.699999988079,19623.69999998808],"key_events":[],"mouse_events":[9391.799999982119,12519.40000000596,15535.699999988079,19623.69999998808,20919.29999998212],"survey":"map","page":1,"trial_type":"survey-map","trial_index":4,"time_elapsed":259890,"internal_node_id":"0.0-4.0","task_version":"prescreen-v0.3","browser_interactions":0},{"responses":{"Q04":"1","Q05":"1","Q06":"2"},"rt":93336,"radio_events":[82778,87130.90000000596,92073.90000000596],"key_events":[],"mouse_events":[82778,87130.90000000596,92073.90000000596,93331.60000002384],"survey":"map","page":2,"trial_type":"survey-map","trial_index":5,"time_elapsed":353245,"internal_node_id":"0.0-5.0","task_version":"prescreen-v0.3","browser_interactions":4},{"responses":{"Q07":"1","Q08":"0","Q09":"2"},"rt":13643.90000000596,"radio_events":[4161.800000011921,7545.700000017881,12572.40000000596],"key_events":[],"mouse_events":[4161.800000011921,7545.700000017881,10820.90000000596,11623.90000000596,12572.40000000596,13639.5],"survey":"map","page":3,"trial_type":"survey-map","trial_index":6,"time_elapsed":366898,"internal_node_id":"0.0-6.0","task_version":"prescreen-v0.3","browser_interactions":0},{"responses":{"Q10":"1","Q11":"2","Q12":"3","Q13":"2","Q16":"0","Q14":"2","Q15":"2"},"rt":40399.59999999404,"radio_events":[5359.299999982119,8289.90000000596,13842.799999982119,18738.79999998212,28271.29999998212,31488.59999999404,39408.79999998212],"key_events":[],"mouse_events":[5359.299999982119,8289.90000000596,13842.799999982119,18738.79999998212,27085.69999998808,28271.29999998212,31488.59999999404,39408.79999998212,40397.09999999404],"survey":"map","page":4,"trial_type":"survey-map","trial_index":7,"time_elapsed":407306,"internal_node_id":"0.0-7.0","task_version":"prescreen-v0.3","browser_interactions":0,"infrequency":0},{"view_history":[{"page_index":0,"viewing_time":2879.0999999940395},{"page_index":1,"viewing_time":5067.699999988079}],"rt":7950.199999988079,"trial_type":"instructions","trial_index":8,"time_elapsed":415258,"internal_node_id":"0.0-8.0","task_version":"prescreen-v0.3"},{"responses":{"01":"Yes","01_ages_12":"12","01_ages_13":"13","01_ages_14":"14","01_ages_15":"15","01_ages_16":"16","01_ages_17":"17","01_ages_18":"18","02":"Yes","02_ages_16":"16","02_ages_17":"17","03":"Yes","03_ages_6":"6","03_ages_7":"7","03_ages_8":"8","03_ages_9":"9","03_ages_10":"10","03_ages_11":"11","04":"No","05":"No","06":"Yes","06_ages_6":"6","06_ages_7":"7","06_ages_8":"8","06_ages_9":"9","06_ages_10":"10","06_ages_11":"11","06_ages_12":"12","06_ages_13":"13","06_ages_14":"14"},"rt":68782,"item_order":[0,1,2,3,4,5],"radio_events":[7677.200000017881,25836.30000001192,35040.30000001192,47902.70000001788,51606.40000000596,53934.5],"checkbox_events":[15019.600000023842,16772.20000001788,17502.600000023842,18440.70000001788,19283,19997.90000000596,20662.80000001192,30929.70000001788,31692.30000001192,39290.5,40092.60000002384,40788.5,41382.10000002384,41937.70000001788,42660.70000001788,59998.30000001192,60695.90000000596,61335,62926.30000001192,63874.60000002384,64581.5,65209.10000002384,65823.20000001788,67099.10000002384],"key_events":[],"mouse_events":[0.6000000238418579,7677.200000017881,15019.600000023842,16000.40000000596,16772.20000001788,17502.600000023842,18440.70000001788,19283,19997.90000000596,20662.80000001192,25203.30000001192,25836.30000001192,30929.70000001788,31692.30000001192,35040.30000001192,39290.5,40092.60000002384,40788.5,41382.10000002384,41937.70000001788,42660.70000001788,46457.60000002384,47902.70000001788,51606.40000000596,53934.5,59998.30000001192,60695.90000000596,61335,62926.30000001192,63874.60000002384,64581.5,65209.10000002384,65823.20000001788,67099.10000002384,68777.5],"honeypot":0,"survey":"mace","page":1,"trial_type":"survey-mace","trial_index":9,"time_elapsed":484069,"internal_node_id":"0.0-9.0","task_version":"prescreen-v0.3","browser_interactions":0},{"responses":{"01":"No","02":"No","03":"Yes","03_ages_7":"7","03_ages_8":"8","03_ages_9":"9","03_ages_10":"10","03_ages_11":"11","03_ages_12":"12","03_ages_13":"13","03_ages_14":"14","03_ages_15":"15","04":"No","05":"Yes","05_ages_9":"9","05_ages_10":"10","05_ages_11":"11","05_ages_12":"12","05_ages_13":"13","05_ages_14":"14","05_ages_15":"15","06":"No","07":"No","08":"No"},"rt":69280.5,"item_order":[0,1,2,3,4,5,6,7],"radio_events":[4066.4000000059605,8209.200000017881,14628.59999999404,15749.800000011921,40329.20000001788,49922.59999999404,53511.5,63002.40000000596,65214.30000001192,68283.59999999404],"checkbox_events":[17516,18780.20000001788,19390.09999999404,20000.5,20698.80000001192,21308.5,22637.30000001192,23522.30000001192,24585.59999999404,25814.09999999404,26778.09999999404,32378.30000001192,37818.80000001192,55794.5,56382.40000000596,56953.30000001192,57559.40000000596,58196.5,58798.70000001788,59401.09999999404,60000.20000001788,60790.40000000596],"key_events":[],"mouse_events":[2992.2000000178814,4066.4000000059605,8209.200000017881,13268.09999999404,14628.59999999404,15749.800000011921,17516,18162.09999999404,18780.20000001788,19390.09999999404,20000.5,20698.80000001192,21308.5,21867.5,21987.40000000596,22637.30000001192,23522.30000001192,24585.59999999404,25814.09999999404,26778.09999999404,32378.30000001192,37818.80000001192,38857.80000001192,40329.20000001788,49922.59999999404,53511.5,55794.5,56382.40000000596,56953.30000001192,57559.40000000596,58196.5,58798.70000001788,59401.09999999404,60000.20000001788,60790.40000000596,63002.40000000596,65214.30000001192,68283.59999999404,69272.30000001192],"honeypot":0,"survey":"mace","page":2,"trial_type":"survey-mace","trial_index":10,"time_elapsed":553357,"internal_node_id":"0.0-10.0","task_version":"prescreen-v0.3","browser_interactions":2},{"responses":{"01":"Yes","01_ages_10":"10","01_ages_11":"11","01_ages_12":"12","01_ages_13":"13","01_ages_14":"14","01_ages_15":"15","01_ages_16":"16","02":"No","03":"No","04":"No"},"rt":19315.80000001192,"item_order":[0,1,2,3],"radio_events":[5423.9000000059605,15314.100000023842,17451.600000023842,18450.90000000596],"checkbox_events":[7567.200000017881,8157.300000011921,8720,10113.40000000596,10857.700000017881,11423.200000017881,12549.700000017881],"key_events":[],"mouse_events":[4335.5,5423.9000000059605,7567.200000017881,8157.300000011921,8720,10113.40000000596,10857.700000017881,11423.200000017881,12549.700000017881,15314.100000023842,17451.600000023842,18450.90000000596,19302.80000001192],"honeypot":0,"survey":"mace","page":3,"trial_type":"survey-mace","trial_index":11,"time_elapsed":572682,"internal_node_id":"0.0-11.0","task_version":"prescreen-v0.3","browser_interactions":0},{"responses":{"01":"No","02":"No"},"rt":9699.40000000596,"item_order":[0,1],"radio_events":[6315,9023.5],"checkbox_events":[],"key_events":[],"mouse_events":[6315,7982.4000000059605,9023.5,9690.90000000596],"honeypot":0,"survey":"mace","page":4,"trial_type":"survey-mace","trial_index":12,"time_elapsed":582389,"internal_node_id":"0.0-12.0","task_version":"prescreen-v0.3","browser_interactions":0},{"responses":{"01":"No","02":"No","03":"No","04":"No","05":"No"},"rt":18725.90000000596,"item_order":[0,1,2,3,4],"radio_events":[7270.800000011921,12090.700000017881,14629.700000017881,15640.40000000596,17823.90000000596],"checkbox_events":[],"key_events":[],"mouse_events":[7270.800000011921,10639.100000023842,12090.700000017881,13377.40000000596,14629.700000017881,15640.40000000596,17823.90000000596,18707.20000001788],"honeypot":0,"survey":"mace","page":5,"trial_type":"survey-mace","trial_index":13,"time_elapsed":601130,"internal_node_id":"0.0-13.0","task_version":"prescreen-v0.3","browser_interactions":0},{"responses":{"01":"Yes","01_ages_8":"8","01_ages_9":"9","01_ages_10":"10","01_ages_11":"11","01_ages_12":"12","01_ages_13":"13","01_ages_14":"14","01_ages_15":"15","01_ages_16":"16","02":"Yes","02_ages_9":"9","02_ages_10":"10","02_ages_11":"11","02_ages_12":"12","02_ages_13":"13","02_ages_14":"14","02_ages_15":"15","02_ages_16":"16","03":"Yes","03_ages_9":"9","03_ages_10":"10","03_ages_11":"11","03_ages_12":"12","03_ages_13":"13","03_ages_14":"14","03_ages_15":"15","03_ages_16":"16","04":"Yes","04_ages_8":"8","04_ages_9":"9","04_ages_10":"10","04_ages_11":"11","04_ages_12":"12","04_ages_13":"13","04_ages_14":"14","04_ages_15":"15","04_ages_16":"16","04_ages_17":"17","05":"No"},"rt":66820,"item_order":[0,1,2,3,4],"radio_events":[7027.4000000059605,25863.59999999404,37610.09999999404,46683.80000001192,65570.09999999404],"checkbox_events":[8561.59999999404,9332.40000000596,10118.40000000596,11139.199999988079,11981.300000011921,13856.199999988079,16133.09999999404,21832,23038,26967.40000000596,27550.40000000596,28096.19999998808,28643.30000001192,29206.69999998808,30297.30000001192,30901.09999999404,31917.19999998808,38541.19999998808,39429.5,40034.40000000596,40637.30000001192,41717.30000001192,42397.19999998808,43567.90000000596,44166.40000000596,50430.69999998808,51284,53100.40000000596,53733.5,55286,55915.69999998808,57775.40000000596,58831.59999999404,59590.40000000596,60296.5],"key_events":[],"mouse_events":[5971.800000011921,7027.4000000059605,8561.59999999404,9332.40000000596,10118.40000000596,11139.199999988079,11981.300000011921,13044.699999988079,13856.199999988079,16133.09999999404,21832,23038,24070.90000000596,25863.59999999404,26967.40000000596,27550.40000000596,28096.19999998808,28643.30000001192,29206.69999998808,30297.30000001192,30901.09999999404,31917.19999998808,36375,37610.09999999404,38541.19999998808,39429.5,40034.40000000596,40637.30000001192,41717.30000001192,42397.19999998808,42993,43567.90000000596,44166.40000000596,46683.80000001192,49335.09999999404,50430.69999998808,51284,51909,52491.19999998808,53100.40000000596,53733.5,54451.40000000596,55286,55915.69999998808,56901.19999998808,57775.40000000596,58831.59999999404,59590.40000000596,60296.5,63789.59999999404,65570.09999999404,66802.09999999404],"honeypot":0,"survey":"mace","page":6,"trial_type":"survey-mace","trial_index":14,"time_elapsed":667962,"internal_node_id":"0.0-14.0","task_version":"prescreen-v0.3","browser_interactions":0},{"responses":{"01":"No","02":"No","03":"No","04":"No","05":"No","06":"No","07":"No"},"rt":17900.70000001788,"item_order":[0,1,2,3,4,5,6],"radio_events":[4677.700000017881,6870.200000017881,9001.200000017881,10860.90000000596,12393.300000011921,16085.200000017881,16864.70000001788],"checkbox_events":[],"key_events":[],"mouse_events":[4677.700000017881,6870.200000017881,9001.200000017881,10860.90000000596,12393.300000011921,14601.800000011921,16085.200000017881,16864.70000001788,17893.70000001788],"honeypot":0,"survey":"mace","page":7,"trial_type":"survey-mace","trial_index":15,"time_elapsed":685872,"internal_node_id":"0.0-15.0","task_version":"prescreen-v0.3","browser_interactions":0},{"responses":{"01":"No","02":"No","03":"Yes","03_ages_12":"12","03_ages_13":"13","03_ages_14":"14","03_ages_15":"15","03_ages_16":"16","03_ages_17":"17","03_ages_18":"18","04":"Yes","04_ages_13":"13","04_ages_14":"14","04_ages_15":"15","04_ages_16":"16","04_ages_17":"17","04_ages_18":"18"},"rt":42037.5,"item_order":[0,1,2,3],"radio_events":[6248.299999982119,12281.199999988079,17167.09999999404,30665.09999999404],"checkbox_events":[18858.19999998808,21448.19999998808,22400.399999976158,23265,24075.69999998808,24836.19999998808,25534.09999999404,26411.399999976158,27341.5,34725.79999998212,35394.79999998212,36455.39999997616,38713.39999997616,40350.5,41159],"key_events":[],"mouse_events":[6248.299999982119,12281.199999988079,17167.09999999404,18858.19999998808,21448.19999998808,22400.399999976158,23265,24075.69999998808,24836.19999998808,25534.09999999404,26411.399999976158,27341.5,30665.09999999404,34725.79999998212,35394.79999998212,36455.39999997616,38713.39999997616,39494.59999999404,40350.5,41159,41997.89999997616],"honeypot":0,"survey":"mace","page":8,"trial_type":"survey-mace","trial_index":16,"time_elapsed":727924,"internal_node_id":"0.0-16.0","task_version":"prescreen-v0.3","browser_interactions":0},{"responses":{"01":"Yes","01_ages_4":"4","01_ages_5":"5","01_ages_6":"6","01_ages_7":"7","01_ages_8":"8","01_ages_9":"9","01_ages_10":"10","01_ages_11":"11","01_ages_12":"12","01_ages_13":"13","01_ages_14":"14","01_ages_15":"15","01_ages_16":"16","01_ages_17":"17","01_ages_18":"18","02":"Yes","02_ages_4":"4","02_ages_5":"5","02_ages_6":"6","02_ages_7":"7","02_ages_8":"8","02_ages_9":"9","02_ages_10":"10","02_ages_11":"11","02_ages_12":"12","02_ages_13":"13","02_ages_14":"14","02_ages_15":"15","02_ages_16":"16","02_ages_17":"17","03":"Yes","03_ages_4":"4","03_ages_5":"5","03_ages_6":"6","03_ages_7":"7","03_ages_8":"8","03_ages_9":"9","03_ages_10":"10","03_ages_11":"11","03_ages_12":"12","03_ages_13":"13","03_ages_14":"14","03_ages_15":"15","03_ages_16":"16","03_ages_17":"17","03_ages_18":"18","04":"Yes","04_ages_1":"1","04_ages_2":"2","04_ages_3":"3","04_ages_4":"4","04_ages_5":"5","04_ages_6":"6","04_ages_7":"7","04_ages_8":"8","04_ages_9":"9","04_ages_10":"10","04_ages_11":"11","04_ages_12":"12","04_ages_13":"13","04_ages_14":"14","04_ages_15":"15","04_ages_16":"16","04_ages_17":"17","04_ages_18":"18"},"rt":110484.39999997616,"item_order":[0,1,2,3],"radio_events":[4018.7999999821186,29900.69999998808,65186.89999997616,90074.29999998212],"checkbox_events":[7341.5,8234.399999976158,9517.899999976158,10088.59999999404,10665.299999982119,11274.699999988079,11965.799999982119,12593,13177.399999976158,14476.59999999404,15092.699999988079,19051.79999998212,19732.5,21182.09999999404,22053.79999998212,23320.5,24083,24778.29999998212,25500.899999976158,26202,26951.29999998212,27632.29999998212,34136,34800.59999999404,35500.19999998808,36281.69999998808,38849.89999997616,39683,40452.5,42182.09999999404,42888.59999999404,45106.5,46538,48022.69999998808,48780.79999998212,49499.39999997616,50229.5,50910.59999999404,52068.79999998212,53631.69999998808,54756.89999997616,55881.89999997616,56688.89999997616,57589.29999998212,58224.39999997616,59583,60423.79999998212,62329,67457.59999999404,68321,68995.69999998808,72333,73081.19999998808,74217.09999999404,75047.79999998212,75747.5,76484.89999997616,77998.59999999404,78706.69999998808,79649.19999998808,81236.89999997616,83563.59999999404,84271.89999997616,86824.09999999404,87483.89999997616,88198.79999998212,92671.89999997616,94510.89999997616,95142.29999998212,96419.79999998212,97117.69999998808,98476.5,99181.19999998808,100009,100691.39999997616,101439.89999997616,102439.89999997616,103462.09999999404,104987.29999998212,105708.89999997616,106861.09999999404,107658.39999997616,108732,109499.29999998212],"key_events":[],"mouse_events":[3280.199999988079,4018.7999999821186,7341.5,8234.399999976158,8899.5,9517.899999976158,10088.59999999404,10665.299999982119,11274.699999988079,11965.799999982119,12593,13177.399999976158,13782.09999999404,14476.59999999404,15092.699999988079,19051.79999998212,19732.5,21182.09999999404,22053.79999998212,23320.5,24083,24778.29999998212,25500.899999976158,26202,26951.29999998212,27632.29999998212,29900.69999998808,34136,34800.59999999404,35500.19999998808,36281.69999998808,38849.89999997616,39683,40452.5,42182.09999999404,42888.59999999404,45106.5,46538,48022.69999998808,48780.79999998212,49499.39999997616,50229.5,50910.59999999404,52068.79999998212,52768.29999998212,53631.69999998808,54756.89999997616,55881.89999997616,56688.89999997616,57589.29999998212,58224.39999997616,58926.19999998808,59583,60423.79999998212,62329,64262.59999999404,65186.89999997616,67457.59999999404,68321,68995.69999998808,72333,73081.19999998808,74217.09999999404,75047.79999998212,75747.5,76484.89999997616,77303,77998.59999999404,78706.69999998808,79649.19999998808,80422.79999998212,81236.89999997616,82020.19999998808,83563.59999999404,84271.89999997616,86824.09999999404,87483.89999997616,88198.79999998212,90074.29999998212,92671.89999997616,94510.89999997616,95142.29999998212,95782.29999998212,96419.79999998212,97117.69999998808,97937.39999997616,98476.5,99181.19999998808,100009,100691.39999997616,101439.89999997616,102439.89999997616,103462.09999999404,104987.29999998212,105708.89999997616,106861.09999999404,107658.39999997616,108732,109499.29999998212,110456],"honeypot":0,"survey":"mace","page":9,"trial_type":"survey-mace","trial_index":17,"time_elapsed":838429,"internal_node_id":"0.0-17.0","task_version":"prescreen-v0.3","browser_interactions":0},{"responses":{"01":"No","02":"No","03":"No","04":"No","05":"Yes","05_ages_6":"6","05_ages_7":"7","05_ages_8":"8","05_ages_9":"9","05_ages_10":"10","05_ages_11":"11","05_ages_12":"12","05_ages_13":"13","05_ages_14":"14","05_ages_15":"15","05_ages_16":"16","05_ages_17":"17","05_ages_18":"18","06":"Yes","06_ages_17":"17","07":"Yes","07_ages_1":"1","07_ages_2":"2","07_ages_3":"3","07_ages_4":"4","07_ages_5":"5","07_ages_6":"6","07_ages_7":"7","07_ages_8":"8","07_ages_9":"9","07_ages_10":"10","07_ages_11":"11","07_ages_12":"12","07_ages_13":"13","07_ages_14":"14","07_ages_15":"15","07_ages_16":"16","07_ages_17":"17","07_ages_18":"18","08":"Yes","08_ages_9":"9","08_ages_10":"10","08_ages_11":"11","08_ages_12":"12","08_ages_13":"13","08_ages_14":"14","08_ages_15":"15","08_ages_16":"16","08_ages_17":"17","08_ages_18":"18"},"rt":123441.20000001788,"item_order":[0,1,2,3,4,5,6,7],"radio_events":[50358.30000001192,52413.40000000596,55079.60000002384,57609.60000002384,61704.5,77754.80000001192,83444.30000001192,106024.30000001192],"checkbox_events":[64145.10000002384,65428.20000001788,66031.70000001788,66560.5,67151.60000002384,70594.90000000596,71671,73500.10000002384,74153,74944.40000000596,75500.5,76074.70000001788,76735.70000001788,79533.30000001192,85896.20000001788,86685.20000001788,88005.20000001788,88567.20000001788,89684,90968.10000002384,91755,92394.10000002384,93153.30000001192,94195.40000000596,95453,96041.90000000596,96647.70000001788,97219.70000001788,98365.10000002384,99043.90000000596,101406.80000001192,102129.40000000596,107608,108271.10000002384,109911.90000000596,110964.40000000596,112207.30000001192,113242.60000002384,114140.5,114919.70000001788,116283.30000001192,117274.70000001788],"key_events":[],"mouse_events":[50358.30000001192,52413.40000000596,55079.60000002384,57609.60000002384,61704.5,64145.10000002384,65428.20000001788,66031.70000001788,66560.5,67151.60000002384,68078.70000001788,69103.30000001192,70594.90000000596,71671,72535.60000002384,73500.10000002384,74153,74944.40000000596,75500.5,76074.70000001788,76735.70000001788,77754.80000001192,79533.30000001192,83444.30000001192,85896.20000001788,86685.20000001788,87376.90000000596,88005.20000001788,88567.20000001788,89684,90368.40000000596,90968.10000002384,91755,92394.10000002384,93153.30000001192,94195.40000000596,94869.70000001788,95453,96041.90000000596,96647.70000001788,97219.70000001788,98365.10000002384,99043.90000000596,101406.80000001192,102129.40000000596,103031.70000001788,106024.30000001192,107608,108271.10000002384,109911.90000000596,110964.40000000596,112207.30000001192,113242.60000002384,114140.5,114919.70000001788,115639.30000001192,116283.30000001192,117274.70000001788,123419.10000002384],"honeypot":0,"survey":"mace","page":10,"trial_type":"survey-mace","trial_index":18,"time_elapsed":961902,"internal_node_id":"0.0-18.0","task_version":"prescreen-v0.3","browser_interactions":6,"instructed":0},{"rt":5420.799999982119,"trial_type":"mental-health-alert","trial_index":19,"time_elapsed":967329,"internal_node_id":"0.0-19.0","task_version":"prescreen-v0.3","interactions":"[{\"event\":\"blur\",\"trial\":2,\"time\":28437},{\"event\":\"focus\",\"trial\":2,\"time\":29705},{\"event\":\"blur\",\"trial\":2,\"time\":30254},{\"event\":\"focus\",\"trial\":2,\"time\":30811},{\"event\":\"blur\",\"trial\":5,\"time\":299984},{\"event\":\"focus\",\"trial\":5,\"time\":304679},{\"event\":\"blur\",\"trial\":5,\"time\":317629},{\"event\":\"focus\",\"trial\":5,\"time\":337463},{\"event\":\"blur\",\"trial\":10,\"time\":528214},{\"event\":\"focus\",\"trial\":10,\"time\":529712},{\"event\":\"blur\",\"trial\":18,\"time\":839573},{\"event\":\"focus\",\"trial\":18,\"time\":846186},{\"event\":\"blur\",\"trial\":18,\"time\":849201},{\"event\":\"focus\",\"trial\":18,\"time\":872782},{\"event\":\"blur\",\"trial\":18,\"time\":956724},{\"event\":\"focus\",\"trial\":18,\"time\":959939}]"}]