[{"view_history":[{"page_index":0,"viewing_time":5459},{"page_index":1,"viewing_time":3866},{"page_index":2,"viewing_time":4556},{"page_index":3,"viewing_time":2016}],"rt":15897,"trial_type":"instructions","trial_index":0,"time_elapsed":15898,"internal_node_id":"0.0-0.0","task_version":"prescreen-v0.3"},{"rt":13649,"responses":{"age":"30","gender-categorical":"Male","gender-free-response":"","ethnicity":"Not Hispanic or Latino","race":["White"],"education":"Associate degree"},"trial_type":"survey-demo","trial_index":1,"time_elapsed":29552,"internal_node_id":"0.0-1.0","task_version":"prescreen-v0.3"},{"responses":{"Q02":"1","Q12":"2","Q18":"0","Q16":"3","Q10":"2","Q05":"2","Q21":"3","Q19":"1","Q17":"0","Q08":"3","Q13":"2","Q20":"1","Q14":"3","Q15":"2","Q06":"1","Q09":"3","Q01":"2","Q03":"1","Q04":"0","Q07":"0","Q11":"3"},"rt":80067,"item_order":[1,11,17,15,9,4,20,18,16,7,12,19,13,14,5,8,0,2,3,6,10],"radio_events":[3899,6825,10382,14240,17395,25676,28022,34926,40304,42568,45564,47653,56333,59692,63912,66340,67864,70366,73818,76942,78712],"key_events":[],"mouse_events":[3899,6825,10382,14240,16798,17395,25676,28022,34926,40304,42568,45564,47653,56333,59692,63912,66340,67864,70366,73229,73818,76352,76942,78712,80067],"straightlining":0.2857142857142857,"zigzagging":0.7,"honeypot":0,"survey":"sns","trial_type":"survey-template","trial_index":2,"time_elapsed":109621,"internal_node_id":"0.0-2.0","task_version":"prescreen-v0.3","browser_interactions":0,"infrequency":0},{"responses":{"Q09":"3","Q06":"3","Q11":"3","Q04":"3","Q03":"3","Q02":"3","Q12":"2","Q13":"0","Q07":"2","Q05":"3","Q08":"3","Q10":"2","Q01":"3"},"rt":52639,"item_order":[8,5,10,3,2,1,11,12,6,4,7,9,0],"radio_events":[10933,13854,18384,21847,26637,28206,31534,34376,36694,39316,43140,46378,51466],"key_events":[],"mouse_events":[1470,9278,10933,13854,18384,21847,26637,28206,31534,34376,36694,38851,39316,43140,46378,51466,52639],"straightlining":0.6923076923076923,"zigzagging":0.3333333333333333,"honeypot":0,"survey":"bisbas","trial_type":"survey-template","trial_index":3,"time_elapsed":162262,"internal_node_id":"0.0-3.0","task_version":"prescreen-v0.3","browser_interactions":0,"infrequency":0},{"responses":{"Q01":"4","Q02":"3","Q03":"3"},"rt":15628,"radio_events":[5759,8981,12937],"key_events":[],"mouse_events":[5355,5759,8553,8981,12937,15628],"survey":"map","page":1,"trial_type":"survey-map","trial_index":4,"time_elapsed":177891,"internal_node_id":"0.0-4.0","task_version":"prescreen-v0.3","browser_interactions":0},{"responses":{"Q04":"3","Q05":"2","Q06":"2"},"rt":14050,"radio_events":[5034,7675,13514],"key_events":[],"mouse_events":[1167,5034,7675,13514,14050],"survey":"map","page":2,"trial_type":"survey-map","trial_index":5,"time_elapsed":191942,"internal_node_id":"0.0-5.0","task_version":"prescreen-v0.3","browser_interactions":0},{"responses":{"Q07":"4","Q08":"4","Q09":"4"},"rt":13114,"radio_events":[3741,7120,10854,12629],"key_events":[],"mouse_events":[3256,3741,7120,10854,12629,13114],"survey":"map","page":3,"trial_type":"survey-map","trial_index":6,"time_elapsed":205058,"internal_node_id":"0.0-6.0","task_version":"prescreen-v0.3","browser_interactions":0},{"responses":{"Q10":"4","Q11":"4","Q12":"1","Q13":"2","Q16":"0","Q14":"3","Q15":"2"},"rt":41867,"radio_events":[3290,5396,10754,14353,18854,38196,41055],"key_events":[],"mouse_events":[3290,5396,10754,13846,14353,18854,35588,38196,41055,41867],"survey":"map","page":4,"trial_type":"survey-map","trial_index":7,"time_elapsed":246926,"internal_node_id":"0.0-7.0","task_version":"prescreen-v0.3","browser_interactions":4,"infrequency":0},{"view_history":[{"page_index":0,"viewing_time":3168},{"page_index":1,"viewing_time":3197}],"rt":6365,"trial_type":"instructions","trial_index":8,"time_elapsed":253293,"internal_node_id":"0.0-8.0","task_version":"prescreen-v0.3"},{"responses":{"01":"No","02":"Yes","02_ages_8":"8","02_ages_9":"9","02_ages_10":"10","02_ages_11":"11","02_ages_12":"12","02_ages_13":"13","02_ages_14":"14","02_ages_15":"15","02_ages_16":"16","03":"No","04":"No","05":"No","06":"No"},"rt":31770,"item_order":[0,1,2,3,4,5],"radio_events":[6301,7845,21639,22914,24152,26178],"checkbox_events":[13759,16349,16739,17099,17481,17870,18238,18664,19109],"key_events":[],"mouse_events":[0,6301,7845,13759,16349,16739,17099,17481,17870,18238,18664,19109,21639,22914,24152,26178,31770],"honeypot":0,"survey":"mace","page":1,"trial_type":"survey-mace","trial_index":9,"time_elapsed":285067,"internal_node_id":"0.0-9.0","task_version":"prescreen-v0.3","browser_interactions":0},{"responses":{"01":"No","02":"No","03":"Yes","03_ages_4":"4","03_ages_5":"5","03_ages_6":"6","03_ages_7":"7","03_ages_8":"8","04":"No","05":"No","06":"No","07":"No","08":"No"},"rt":22584,"item_order":[0,1,2,3,4,5,6,7],"radio_events":[2541,4777,6935,16367,17646,18996,20465,21487],"checkbox_events":[10473,11465,11803,12149,12552],"key_events":[],"mouse_events":[2541,4777,6935,10473,11465,11803,12149,12552,15811,16367,17646,18996,20465,21487,22584],"honeypot":0,"survey":"mace","page":2,"trial_type":"survey-mace","trial_index":10,"time_elapsed":307655,"internal_node_id":"0.0-10.0","task_version":"prescreen-v0.3","browser_interactions":0},{"responses":{"01":"No","02":"No","03":"No","04":"No"},"rt":13745,"item_order":[0,1,2,3],"radio_events":[3087,5003,9329,10361],"checkbox_events":[],"key_events":[],"mouse_events":[1047,3087,5003,9329,10361,13745],"honeypot":0,"survey":"mace","page":3,"trial_type":"survey-mace","trial_index":11,"time_elapsed":321403,"internal_node_id":"0.0-11.0","task_version":"prescreen-v0.3","browser_interactions":0},{"responses":{"01":"No","02":"No"},"rt":5871,"item_order":[0,1],"radio_events":[3429,5065],"checkbox_events":[],"key_events":[],"mouse_events":[3429,4634,5065,5871],"honeypot":0,"survey":"mace","page":4,"trial_type":"survey-mace","trial_index":12,"time_elapsed":327275,"internal_node_id":"0.0-12.0","task_version":"prescreen-v0.3","browser_interactions":0},{"responses":{"01":"No","02":"No","03":"No","04":"No","05":"No"},"rt":19117,"item_order":[0,1,2,3,4],"radio_events":[7058,10009,11201,12119,14653],"checkbox_events":[],"key_events":[],"mouse_events":[7058,8538,9488,10009,11201,12119,14653,19117],"honeypot":0,"survey":"mace","page":5,"trial_type":"survey-mace","trial_index":13,"time_elapsed":346395,"internal_node_id":"0.0-13.0","task_version":"prescreen-v0.3","browser_interactions":0},{"responses":{"01":"No","01_ages_13":"13","01_ages_14":"14","01_ages_15":"15","01_ages_16":"16","02":"Yes","02_ages_12":"12","02_ages_13":"13","02_ages_14":"14","02_ages_15":"15","02_ages_16":"16","03":"No","04":"No","05":"No"},"rt":29730,"item_order":[0,1,2,3,4],"radio_events":[6547,14618,15748,24364,28176,28924],"checkbox_events":[8516,10078,10441,10825,19190,19622,20932,21336,21766],"key_events":[],"mouse_events":[1582,6547,8516,8874,9746,10078,10441,10825,14618,15748,19190,19622,19994,20516,20932,21336,21766,24364,28176,28924,29730],"honeypot":0,"survey":"mace","page":6,"trial_type":"survey-mace","trial_index":14,"time_elapsed":376128,"internal_node_id":"0.0-14.0","task_version":"prescreen-v0.3","browser_interactions":0},{"responses":{"01":"No","02":"No","03":"No","04":"No","05":"No","06":"No","07":"No"},"rt":13673,"item_order":[0,1,2,3,4,5,6],"radio_events":[2440,7206,8158,9788,10990,12088,12981],"checkbox_events":[],"key_events":[],"mouse_events":[2440,7206,8158,9091,9788,10990,12088,12981,13673],"honeypot":0,"survey":"mace","page":7,"trial_type":"survey-mace","trial_index":15,"time_elapsed":389805,"internal_node_id":"0.0-15.0","task_version":"prescreen-v0.3","browser_interactions":0},{"responses":{"01":"Yes","01_ages_7":"7","01_ages_8":"8","01_ages_9":"9","01_ages_10":"10","01_ages_11":"11","01_ages_12":"12","01_ages_13":"13","01_ages_14":"14","01_ages_15":"15","01_ages_16":"16","01_ages_17":"17","01_ages_18":"18","02":"Yes","02_ages_7":"7","02_ages_8":"8","02_ages_9":"9","02_ages_10":"10","02_ages_11":"11","02_ages_12":"12","02_ages_13":"13","02_ages_14":"14","02_ages_15":"15","02_ages_16":"16","02_ages_17":"17","02_ages_18":"18","03":"Yes","03_ages_7":"7","03_ages_8":"8","03_ages_9":"9","03_ages_10":"10","03_ages_11":"11","03_ages_12":"12","03_ages_13":"13","03_ages_14":"14","03_ages_15":"15","03_ages_16":"16","03_ages_17":"17","03_ages_18":"18","04":"No"},"rt":52434,"item_order":[0,1,2,3],"radio_events":[10187,23042,33896,49395],"checkbox_events":[12611,13418,13723,14072,14433,14791,15129,16000,16380,17547,17995,18415,24464,25238,25629,26367,26792,27744,28109,28454,28800,29581,30335,31071,35026,35755,36440,36811,37299,38113,38503,38935,40107,40979,41895,42583],"key_events":[],"mouse_events":[10187,12611,13019,13418,13723,14072,14433,14791,15129,15485,16000,16380,16852,17547,17995,18415,23042,24464,24883,25238,25629,26367,26792,27401,27744,28109,28454,28800,29179,29581,29996,30335,31071,33896,35026,35337,35755,36115,36440,36811,37299,37721,38113,38503,38935,39655,40107,40979,41895,42583,49395,51115,52434],"honeypot":0,"survey":"mace","page":8,"trial_type":"survey-mace","trial_index":16,"time_elapsed":442242,"internal_node_id":"0.0-16.0","task_version":"prescreen-v0.3","browser_interactions":0},{"responses":{"01":"Yes","01_ages_7":"7","01_ages_8":"8","01_ages_9":"9","01_ages_10":"10","01_ages_11":"11","01_ages_12":"12","01_ages_13":"13","01_ages_14":"14","01_ages_15":"15","01_ages_16":"16","01_ages_17":"17","01_ages_18":"18","02":"No","03":"Yes","03_ages_1":"1","03_ages_2":"2","03_ages_3":"3","03_ages_4":"4","03_ages_5":"5","03_ages_6":"6","03_ages_7":"7","03_ages_8":"8","03_ages_9":"9","03_ages_10":"10","03_ages_11":"11","04":"Yes","04_ages_1":"1","04_ages_2":"2","04_ages_3":"3","04_ages_4":"4","04_ages_5":"5","04_ages_6":"6","04_ages_7":"7","04_ages_8":"8","04_ages_9":"9","04_ages_10":"10","04_ages_11":"11"},"rt":62324,"item_order":[0,1,2,3],"radio_events":[3874,21914,35109,48865,52453],"checkbox_events":[7266,7750,8135,8552,8914,9712,10082,11010,12639,13274,14486,14986,36896,38176,39662,40674,41089,42261,42748,43180,44787,45372,46099,53379,55123,55527,55961,56587,57439,57855,58681,59222,60203,60719],"key_events":[],"mouse_events":[3874,7266,7750,8135,8552,8914,9268,9712,10082,10597,11010,11622,12639,13274,13842,14486,14986,21914,35109,36896,37418,38176,39662,40041,40344,40674,41089,41882,42261,42748,43180,43640,44243,44787,45372,46099,46862,48865,49677,52453,53379,53859,54217,55123,55527,55961,56587,57066,57439,57855,58307,58681,59222,60203,60719,61313,62324],"honeypot":0,"survey":"mace","page":9,"trial_type":"survey-mace","trial_index":17,"time_elapsed":504569,"internal_node_id":"0.0-17.0","task_version":"prescreen-v0.3","browser_interactions":0},{"responses":{"01":"No","02":"No","03":"Yes","03_ages_13":"13","03_ages_14":"14","03_ages_15":"15","03_ages_16":"16","03_ages_17":"17","03_ages_18":"18","04":"No","05":"No","06":"Yes","06_ages_17":"17","07":"No","08":"No"},"rt":48486,"item_order":[0,1,2,3,4,5,6,7],"radio_events":[23525,24358,26683,31684,33817,35243,41074,44772],"checkbox_events":[27817,28220,28619,29079,29747,30339,36112],"key_events":[],"mouse_events":[1211,21948,23525,24358,26683,27817,28220,28619,29079,29747,30339,30979,31684,33167,33817,35243,36112,41074,44772,45404,48486],"honeypot":0,"survey":"mace","page":10,"trial_type":"survey-mace","trial_index":18,"time_elapsed":553059,"internal_node_id":"0.0-18.0","task_version":"prescreen-v0.3","browser_interactions":2,"instructed":0},{"rt":7339,"trial_type":"mental-health-alert","trial_index":19,"time_elapsed":560399,"internal_node_id":"0.0-19.0","task_version":"prescreen-v0.3","interactions":"[{\"event\":\"focus\",\"trial\":0,\"time\":1},{\"event\":\"blur\",\"trial\":7,\"time\":232243},{\"event\":\"focus\",\"trial\":7,\"time\":234681},{\"event\":\"blur\",\"trial\":7,\"time\":235577},{\"event\":\"focus\",\"trial\":7,\"time\":238981},{\"event\":\"blur\",\"trial\":18,\"time\":508818},{\"event\":\"focus\",\"trial\":18,\"time\":525361}]"}]