[{"view_history":[{"page_index":0,"viewing_time":2453},{"page_index":1,"viewing_time":2726.0999999940395},{"page_index":2,"viewing_time":2824.300000011921},{"page_index":3,"viewing_time":1266.5999999940395}],"rt":9271.699999988079,"trial_type":"instructions","trial_index":0,"time_elapsed":9290,"internal_node_id":"0.0-0.0","task_version":"prescreen-v0.3"},{"rt":11972.09999999404,"responses":{"age":"20","gender-categorical":"Female","gender-free-response":"","ethnicity":"Not Hispanic or Latino","race":["White"],"education":"High school"},"trial_type":"survey-demo","trial_index":1,"time_elapsed":21275,"internal_node_id":"0.0-1.0","task_version":"prescreen-v0.3"},{"responses":{"Q19":"0","Q05":"0","Q18":"0","Q09":"0","Q15":"0","Q16":"1","Q04":"0","Q20":"1","Q11":"0","Q14":"0","Q03":"0","Q12":"0","Q01":"2","Q21":"3","Q02":"2","Q17":"1","Q08":"2","Q10":"0","Q07":"0","Q06":"0","Q13":"1"},"rt":86451.69999998808,"item_order":[18,4,17,8,14,15,3,19,10,13,2,11,0,20,1,16,7,9,6,5,12],"radio_events":[6351.199999988079,11907,15207.59999999404,22177.59999999404,25503.5,28941.59999999404,30434.09999999404,36291.5,39801.69999998808,41658,43973.40000000596,49299.59999999404,51422.5,52641.19999998808,55577.79999998212,61275.69999998808,65988.5,69645.69999998808,72985,75768.59999999404,79779.40000000596,81651.59999999404,84071.40000000596,85694],"key_events":[],"mouse_events":[6351.199999988079,11907,15207.59999999404,22177.59999999404,25503.5,28941.59999999404,30434.09999999404,36291.5,39801.69999998808,41658,43973.40000000596,45448.09999999404,49299.59999999404,49782.40000000596,51422.5,52641.19999998808,53552.69999998808,55150.5,55577.79999998212,60670.40000000596,61275.69999998808,65988.5,69645.69999998808,72985,75768.59999999404,79779.40000000596,81651.59999999404,84071.40000000596,85694,86444.69999998808],"straightlining":0.6190476190476191,"zigzagging":0.45,"honeypot":0,"survey":"sns","trial_type":"survey-template","trial_index":2,"time_elapsed":107735,"internal_node_id":"0.0-2.0","task_version":"prescreen-v0.3","browser_interactions":0,"infrequency":0},{"responses":{"Q04":"2","Q01":"2","Q11":"2","Q05":"3","Q03":"2","Q13":"0","Q10":"2","Q06":"2","Q09":"1","Q02":"2","Q08":"1","Q12":"1","Q07":"3"},"rt":59842.39999997616,"item_order":[3,0,10,4,2,12,9,5,8,1,7,11,6],"radio_events":[8471.899999976158,9852,16826.29999998212,20934,24250.29999998212,27970,33917,40033.89999997616,43119.09999999404,44973.79999998212,50751.29999998212,57247.69999998808,59135.29999998212],"key_events":[],"mouse_events":[8471.899999976158,9852,16826.29999998212,20934,24250.29999998212,27970,33917,40033.89999997616,43119.09999999404,44973.79999998212,48716.89999997616,50751.29999998212,57247.69999998808,59135.29999998212,59838.29999998212],"straightlining":0.5384615384615384,"zigzagging":0.4166666666666667,"honeypot":0,"survey":"bisbas","trial_type":"survey-template","trial_index":3,"time_elapsed":167661,"internal_node_id":"0.0-3.0","task_version":"prescreen-v0.3","browser_interactions":0,"infrequency":0},{"responses":{"Q01":"4","Q02":"2","Q03":"3"},"rt":16410.59999999404,"radio_events":[8007.199999988079,11389.90000000596,12147.90000000596,15649.90000000596],"key_events":[],"mouse_events":[6981.799999982119,8007.199999988079,11389.90000000596,12147.90000000596,15649.90000000596,16408.69999998808],"survey":"map","page":1,"trial_type":"survey-map","trial_index":4,"time_elapsed":184079,"internal_node_id":"0.0-4.0","task_version":"prescreen-v0.3","browser_interactions":0},{"responses":{"Q04":"3","Q05":"2","Q06":"2"},"rt":135614.20000001788,"radio_events":[129352.30000001192,132433.40000000596,134781.90000000596],"key_events":[],"mouse_events":[129352.30000001192,132433.40000000596,134781.90000000596,135612.90000000596],"survey":"map","page":2,"trial_type":"survey-map","trial_index":5,"time_elapsed":319694,"internal_node_id":"0.0-5.0","task_version":"prescreen-v0.3","browser_interactions":0},{"responses":{"Q07":"2","Q08":"4","Q09":"3"},"rt":14980.90000000596,"radio_events":[9791.5,11791.800000011921,14390.199999988079],"key_events":[],"mouse_events":[9791.5,11791.800000011921,14390.199999988079,14979.199999988079],"survey":"map","page":3,"trial_type":"survey-map","trial_index":6,"time_elapsed":334681,"internal_node_id":"0.0-6.0","task_version":"prescreen-v0.3","browser_interactions":0},{"responses":{"Q10":"3","Q11":"4","Q12":"1","Q13":"0","Q16":"0","Q14":"2","Q15":"2"},"rt":34600.80000001192,"radio_events":[3744.0999999940395,6374.4000000059605,10474.200000017881,12378,24166.90000000596,30748.20000001788,33411],"key_events":[],"mouse_events":[3744.0999999940395,6374.4000000059605,10474.200000017881,12378,24166.90000000596,30748.20000001788,33411,34597.30000001192],"survey":"map","page":4,"trial_type":"survey-map","trial_index":7,"time_elapsed":369289,"internal_node_id":"0.0-7.0","task_version":"prescreen-v0.3","browser_interactions":0,"infrequency":0},{"view_history":[{"page_index":0,"viewing_time":5149.399999976158},{"page_index":1,"viewing_time":1912.4000000059605}],"rt":7063.299999982119,"trial_type":"instructions","trial_index":8,"time_elapsed":376355,"internal_node_id":"0.0-8.0","task_version":"prescreen-v0.3"},{"responses":{"01":"No","02":"Yes","02_ages_7":"7","02_ages_8":"8","02_ages_9":"9","02_ages_10":"10","02_ages_11":"11","02_ages_12":"12","02_ages_13":"13","02_ages_14":"14","02_ages_15":"15","02_ages_16":"16","02_ages_17":"17","02_ages_18":"18","03":"No","04":"Yes","04_ages_13":"13","04_ages_14":"14","04_ages_15":"15","04_ages_16":"16","04_ages_17":"17","04_ages_18":"18","05":"No","06":"No"},"rt":67519.79999998212,"item_order":[0,1,2,3,4,5],"radio_events":[35507.79999998212,39703,55115,57189.29999998212,64613.39999997616,66913.09999999404],"checkbox_events":[44061.39999997616,44497,44907.79999998212,45327.5,47449.89999997616,47909.5,48385.79999998212,49136.5,49692.69999998808,50354.79999998212,50766.19999998808,52306.69999998808,60005.79999998212,60360.79999998212,60796.59999999404,61175.69999998808,61982.69999998808,62410.29999998212],"key_events":[],"mouse_events":[0.19999998807907104,35507.79999998212,39703,44061.39999997616,44497,44907.79999998212,45327.5,47449.89999997616,47909.5,48385.79999998212,49136.5,49692.69999998808,50354.79999998212,50766.19999998808,51476.79999998212,52306.69999998808,55115,57189.29999998212,58731.09999999404,60005.79999998212,60360.79999998212,60796.59999999404,61175.69999998808,61982.69999998808,62410.29999998212,64613.39999997616,66913.09999999404,67511.29999998212],"honeypot":0,"survey":"mace","page":1,"trial_type":"survey-mace","trial_index":9,"time_elapsed":443889,"internal_node_id":"0.0-9.0","task_version":"prescreen-v0.3","browser_interactions":0},{"responses":{"01":"No","02":"No","03":"No","04":"No","05":"No","06":"No","07":"No","08":"No"},"rt":19420.20000001788,"item_order":[0,1,2,3,4,5,6,7],"radio_events":[7152.800000011921,10864.59999999404,12309.5,13317.5,14165.5,16585.80000001192,17700.30000001192,18644.20000001788],"checkbox_events":[],"key_events":[],"mouse_events":[7152.800000011921,10864.59999999404,12309.5,13317.5,14165.5,16585.80000001192,17700.30000001192,18644.20000001788,19410.59999999404],"honeypot":0,"survey":"mace","page":2,"trial_type":"survey-mace","trial_index":10,"time_elapsed":463317,"internal_node_id":"0.0-10.0","task_version":"prescreen-v0.3","browser_interactions":0},{"responses":{"01":"No","02":"No","03":"No","04":"No"},"rt":9222.600000023842,"item_order":[0,1,2,3],"radio_events":[5672.9000000059605,6648.700000017881,7706.100000023842,8706.90000000596],"checkbox_events":[],"key_events":[],"mouse_events":[5672.9000000059605,6648.700000017881,7706.100000023842,8706.90000000596,9215.600000023842],"honeypot":0,"survey":"mace","page":3,"trial_type":"survey-mace","trial_index":11,"time_elapsed":472546,"internal_node_id":"0.0-11.0","task_version":"prescreen-v0.3","browser_interactions":0},{"responses":{"01":"No","02":"No"},"rt":6129.5,"item_order":[0,1],"radio_events":[4512.699999988079,5253.5],"checkbox_events":[],"key_events":[],"mouse_events":[4512.699999988079,5253.5,6126.5999999940395],"honeypot":0,"survey":"mace","page":4,"trial_type":"survey-mace","trial_index":12,"time_elapsed":478681,"internal_node_id":"0.0-12.0","task_version":"prescreen-v0.3","browser_interactions":0},{"responses":{"01":"No","02":"No","03":"No","04":"No","05":"No"},"rt":18049.40000000596,"item_order":[0,1,2,3,4],"radio_events":[10384.40000000596,13531.09999999404,14491.800000011921,15628.800000011921,16903.30000001192],"checkbox_events":[],"key_events":[],"mouse_events":[10384.40000000596,12352.700000017881,13531.09999999404,14491.800000011921,15628.800000011921,16903.30000001192,18042],"honeypot":0,"survey":"mace","page":5,"trial_type":"survey-mace","trial_index":13,"time_elapsed":496737,"internal_node_id":"0.0-13.0","task_version":"prescreen-v0.3","browser_interactions":0},{"responses":{"01":"No","02":"Yes","02_ages_8":"8","02_ages_9":"9","02_ages_10":"10","02_ages_11":"11","02_ages_12":"12","03":"No","04":"Yes","04_ages_9":"9","04_ages_10":"10","04_ages_11":"11","04_ages_12":"12","05":"No"},"rt":24549.30000001192,"item_order":[0,1,2,3,4],"radio_events":[8490.699999988079,10087.59999999404,17262.19999998808,19127.09999999404,24105.69999998808],"checkbox_events":[12300,12704.800000011921,13128,13575.5,14301.5,20844.80000001192,21257.30000001192,21676.19999998808,22088.59999999404],"key_events":[],"mouse_events":[8490.699999988079,10087.59999999404,12300,12704.800000011921,13128,13575.5,14301.5,17262.19999998808,19127.09999999404,20844.80000001192,21257.30000001192,21676.19999998808,22088.59999999404,24105.69999998808,24542.09999999404],"honeypot":0,"survey":"mace","page":6,"trial_type":"survey-mace","trial_index":14,"time_elapsed":521292,"internal_node_id":"0.0-14.0","task_version":"prescreen-v0.3","browser_interactions":0},{"responses":{"01":"No","02":"No","03":"No","04":"No","05":"No","06":"No","07":"No"},"rt":14046.199999988079,"item_order":[0,1,2,3,4,5,6],"radio_events":[4872,6307.299999982119,8889.40000000596,10196.40000000596,11423.09999999404,12472.199999988079,13448.59999999404],"checkbox_events":[],"key_events":[],"mouse_events":[4872,6307.299999982119,8889.40000000596,10196.40000000596,11423.09999999404,12472.199999988079,13448.59999999404,14037.299999982119],"honeypot":0,"survey":"mace","page":7,"trial_type":"survey-mace","trial_index":15,"time_elapsed":535347,"internal_node_id":"0.0-15.0","task_version":"prescreen-v0.3","browser_interactions":0},{"responses":{"01":"No","02":"Yes","02_ages_12":"12","02_ages_13":"13","02_ages_14":"14","02_ages_15":"15","02_ages_16":"16","02_ages_17":"17","02_ages_18":"18","03":"No","04":"Yes","04_ages_12":"12","04_ages_13":"13","04_ages_14":"14","04_ages_15":"15","04_ages_16":"16","04_ages_17":"17","04_ages_18":"18"},"rt":27956.79999998212,"item_order":[0,1,2,3],"radio_events":[8575.40000000596,9866.199999988079,19541.79999998212,22044],"checkbox_events":[12561.09999999404,12980.90000000596,13400.5,13803.199999988079,14708.699999988079,15119.40000000596,15587.5,23948,25004.5,25433.29999998212,25827.79999998212,26393,26828.19999998808,27215.5],"key_events":[],"mouse_events":[8575.40000000596,9866.199999988079,12561.09999999404,12980.90000000596,13400.5,13803.199999988079,14708.699999988079,15119.40000000596,15587.5,19541.79999998212,22044,23948,24400.19999998808,25004.5,25433.29999998212,25827.79999998212,26393,26828.19999998808,27215.5,27950.79999998212],"honeypot":0,"survey":"mace","page":8,"trial_type":"survey-mace","trial_index":16,"time_elapsed":563309,"internal_node_id":"0.0-16.0","task_version":"prescreen-v0.3","browser_interactions":0},{"responses":{"01":"Yes","01_ages_1":"1","01_ages_2":"2","01_ages_3":"3","01_ages_4":"4","01_ages_5":"5","01_ages_6":"6","01_ages_7":"7","01_ages_8":"8","01_ages_9":"9","01_ages_10":"10","01_ages_11":"11","01_ages_12":"12","01_ages_13":"13","01_ages_14":"14","01_ages_15":"15","01_ages_16":"16","01_ages_17":"17","01_ages_18":"18","02":"Yes","02_ages_1":"1","02_ages_2":"2","02_ages_3":"3","02_ages_4":"4","02_ages_5":"5","02_ages_6":"6","02_ages_7":"7","02_ages_8":"8","02_ages_9":"9","02_ages_10":"10","02_ages_11":"11","02_ages_12":"12","02_ages_13":"13","02_ages_14":"14","02_ages_15":"15","02_ages_16":"16","02_ages_17":"17","02_ages_18":"18","03":"Yes","03_ages_1":"1","03_ages_2":"2","03_ages_3":"3","03_ages_4":"4","03_ages_5":"5","03_ages_6":"6","03_ages_7":"7","03_ages_8":"8","03_ages_9":"9","03_ages_10":"10","03_ages_11":"11","03_ages_12":"12","03_ages_13":"13","03_ages_14":"14","03_ages_15":"15","03_ages_16":"16","03_ages_17":"17","03_ages_18":"18","04":"Yes","04_ages_1":"1","04_ages_2":"2","04_ages_3":"3","04_ages_4":"4","04_ages_5":"5","04_ages_6":"6","04_ages_7":"7","04_ages_8":"8","04_ages_9":"9","04_ages_10":"10","04_ages_11":"11","04_ages_12":"12","04_ages_13":"13","04_ages_14":"14","04_ages_15":"15","04_ages_16":"16","04_ages_17":"17","04_ages_18":"18"},"rt":64692.09999999404,"item_order":[0,1,2,3],"radio_events":[7113.5,19275.30000001192,37994.20000001788,52245.09999999404],"checkbox_events":[9122.200000017881,9510.59999999404,9881.09999999404,10228,10606.59999999404,11179.90000000596,11817.40000000596,12390.700000017881,12987.5,13690.09999999404,14496.40000000596,14916.40000000596,15246.90000000596,16013.700000017881,16368.5,17885.59999999404,18240.59999999404,18625.09999999404,20388,20751.09999999404,21137.70000001788,22106,22759.80000001192,23268,24856.20000001788,24983.30000001192,27746.80000001192,28432.59999999404,29021.90000000596,29925.20000001788,30385.20000001788,30836.59999999404,31410.09999999404,31862.20000001788,32281.40000000596,33266.40000000596,33741.59999999404,34290.5,39358.30000001192,40278.70000001788,40794.90000000596,41221.5,41867.59999999404,42456.5,42924.5,43295.5,44110.90000000596,44473.90000000596,44918.30000001192,45256.90000000596,46265.90000000596,46637.40000000596,48565.70000001788,49001.40000000596,49429,49878,53770.20000001788,54199.30000001192,54585.09999999404,54972.80000001192,55755.59999999404,56102.70000001788,56458.20000001788,57555.40000000596,57910.20000001788,58289.59999999404,59355,59669.09999999404,60331.40000000596,60830.80000001192,61202.20000001788,62122.59999999404,63074.80000001192,63486.59999999404],"key_events":[],"mouse_events":[7113.5,9122.200000017881,9510.59999999404,9881.09999999404,10228,10606.59999999404,11179.90000000596,11817.40000000596,12390.700000017881,12987.5,13690.09999999404,14496.40000000596,14916.40000000596,15246.90000000596,16013.700000017881,16368.5,16723.90000000596,17466.20000001788,17885.59999999404,18240.59999999404,18625.09999999404,19275.30000001192,20388,20751.09999999404,21137.70000001788,21573.40000000596,22106,22461.20000001788,22759.80000001192,23017.09999999404,23268,24852.20000001788,24856.20000001788,24861.30000001192,24983.30000001192,27746.80000001192,28432.59999999404,29021.90000000596,29465.20000001788,29925.20000001788,30385.20000001788,30836.59999999404,31410.09999999404,31862.20000001788,32281.40000000596,33266.40000000596,33741.59999999404,34290.5,37994.20000001788,39358.30000001192,39785.90000000596,40278.70000001788,40794.90000000596,41221.5,41867.59999999404,42456.5,42924.5,43295.5,44110.90000000596,44473.90000000596,44918.30000001192,45256.90000000596,46265.90000000596,46637.40000000596,46991.59999999404,47460,48145.90000000596,48565.70000001788,49001.40000000596,49429,49878,51866.09999999404,52245.09999999404,53141.59999999404,53770.20000001788,54199.30000001192,54585.09999999404,54972.80000001192,55755.59999999404,56102.70000001788,56458.20000001788,56804.59999999404,57555.40000000596,57910.20000001788,58289.59999999404,58668.20000001788,59355,59669.09999999404,59984.30000001192,60331.40000000596,60830.80000001192,61202.20000001788,62122.59999999404,62477.90000000596,63074.80000001192,63486.59999999404,64687.30000001192],"honeypot":0,"survey":"mace","page":9,"trial_type":"survey-mace","trial_index":17,"time_elapsed":628009,"internal_node_id":"0.0-17.0","task_version":"prescreen-v0.3","browser_interactions":2},{"responses":{"01":"No","02":"No","03":"No","04":"No","05":"Yes","05_ages_11":"11","05_ages_12":"12","05_ages_13":"13","05_ages_14":"14","05_ages_15":"15","05_ages_16":"16","05_ages_17":"17","05_ages_18":"18","06":"Yes","06_ages_17":"17","07":"Yes","07_ages_1":"1","07_ages_2":"2","07_ages_3":"3","07_ages_4":"4","07_ages_5":"5","07_ages_6":"6","07_ages_7":"7","07_ages_8":"8","07_ages_9":"9","07_ages_10":"10","07_ages_11":"11","07_ages_12":"12","07_ages_13":"13","07_ages_14":"14","07_ages_15":"15","07_ages_16":"16","07_ages_17":"17","07_ages_18":"18","08":"Yes","08_ages_12":"12","08_ages_13":"13","08_ages_14":"14","08_ages_15":"15","08_ages_16":"16","08_ages_17":"17","08_ages_18":"18"},"rt":46707,"item_order":[0,1,2,3,4,5,6,7],"radio_events":[4858.0999999940395,6536.199999988079,7375.199999988079,9198.899999976158,10151.299999982119,12450,21496.59999999404,25613.399999976158,40798.59999999404],"checkbox_events":[13330.899999976158,13774.5,14661.899999976158,15049.09999999404,15832.299999982119,16639.29999998212,16986.29999998212,17946.59999999404,22828.09999999404,28565,29364.899999976158,29760,30122.79999998212,31268.69999998808,31672.09999999404,32067.69999998808,32543.09999999404,33294.29999998212,34069.29999998212,34465.89999997616,35408.5,36417,37070.09999999404,37546.29999998212,38248.79999998212,38679.09999999404,39184.39999997616,43251.19999998808,43695.19999998808,44130.79999998212,44754,45155.39999997616,45599.39999997616,46051.5],"key_events":[],"mouse_events":[4858.0999999940395,6536.199999988079,7375.199999988079,9198.899999976158,10151.299999982119,12450,13330.899999976158,13774.5,14089.199999988079,14661.899999976158,15049.09999999404,15832.299999982119,16227.59999999404,16639.29999998212,16986.29999998212,17429.69999998808,17946.59999999404,20890.79999998212,21496.59999999404,22828.09999999404,25613.399999976158,28565,28959.899999976158,29364.899999976158,29760,30122.79999998212,30622.399999976158,31268.69999998808,31672.09999999404,32067.69999998808,32543.09999999404,33294.29999998212,33689.89999997616,34069.29999998212,34465.89999997616,34859.59999999404,35408.5,35812,36417,37070.09999999404,37546.29999998212,38248.79999998212,38679.09999999404,39184.39999997616,40798.59999999404,43251.19999998808,43695.19999998808,44130.79999998212,44754,45155.39999997616,45599.39999997616,46051.5,46697.89999997616],"honeypot":0,"survey":"mace","page":10,"trial_type":"survey-mace","trial_index":18,"time_elapsed":674724,"internal_node_id":"0.0-18.0","task_version":"prescreen-v0.3","browser_interactions":0,"instructed":0},{"rt":4941.899999976158,"trial_type":"mental-health-alert","trial_index":19,"time_elapsed":679669,"internal_node_id":"0.0-19.0","task_version":"prescreen-v0.3","interactions":"[{\"event\":\"blur\",\"trial\":17,\"time\":588219},{\"event\":\"focus\",\"trial\":17,\"time\":590030}]"}]