[{"view_history":[{"page_index":0,"viewing_time":6552},{"page_index":1,"viewing_time":3199},{"page_index":2,"viewing_time":3874},{"page_index":3,"viewing_time":2753}],"rt":16381,"trial_type":"instructions","trial_index":0,"time_elapsed":16406,"internal_node_id":"0.0-0.0","task_version":"prescreen-v0.3"},{"rt":32260,"responses":{"age":"54","gender-categorical":"Male","gender-free-response":"","ethnicity":"Not Hispanic or Latino","race":["White"],"education":"Some college"},"trial_type":"survey-demo","trial_index":1,"time_elapsed":48691,"internal_node_id":"0.0-1.0","task_version":"prescreen-v0.3"},{"responses":{"Q20":"3","Q03":"3","Q18":"3","Q19":"3","Q16":"2","Q09":"3","Q02":"3","Q08":"3","Q21":"3","Q14":"3","Q15":"3","Q05":"2","Q01":"3","Q07":"3","Q06":"3","Q11":"2","Q04":"3","Q12":"3","Q10":"3","Q17":"3","Q13":"3"},"rt":202204,"item_order":[19,2,17,18,15,8,1,7,20,13,14,4,0,6,5,10,3,11,9,16,12],"radio_events":[6046,13133,14982,26499,34166,41470,43809,53252,58042,61009,97854,105992,108439,115204,141540,152667,163682,168266,184254,188199,190825,193496,193996,194028,194059,194092,194119,194144,194177,194208,194242,194871,195634],"key_events":[193496,193996,194028,194059,194092,194119,194144,194177,194208,194242,194871,195634],"mouse_events":[6046,10076,13133,14982,26499,34166,41470,43809,45048,53252,58042,61009,97854,105992,108439,113377,115204,116436,141540,152667,157426,163682,168266,181511,184254,188199,190825,197177,202203],"straightlining":0.8571428571428571,"zigzagging":0.3,"honeypot":0,"survey":"sns","trial_type":"survey-template","trial_index":2,"time_elapsed":250919,"internal_node_id":"0.0-2.0","task_version":"prescreen-v0.3","browser_interactions":0,"infrequency":0},{"responses":{"Q11":"0","Q03":"3","Q09":"0","Q10":"0","Q04":"3","Q05":"0","Q02":"3","Q08":"0","Q12":"0","Q07":"1","Q13":"0","Q01":"3","Q06":"2"},"rt":85774,"item_order":[10,2,8,9,3,4,1,7,11,6,12,0,5],"radio_events":[24342,30734,34581,36532,40821,46122,49178,60247,61816,69376,75338,79503,84073],"key_events":[],"mouse_events":[24342,30734,34581,36532,40821,46122,49178,50873,57236,60247,61816,66422,69376,73355,75338,79503,84073,85773],"straightlining":0.5384615384615384,"zigzagging":0.8333333333333334,"honeypot":0,"survey":"bisbas","trial_type":"survey-template","trial_index":3,"time_elapsed":336709,"internal_node_id":"0.0-3.0","task_version":"prescreen-v0.3","browser_interactions":0,"infrequency":0},{"responses":{"Q01":"0","Q02":"0","Q03":"0"},"rt":18384,"radio_events":[7281,10621,16263],"key_events":[],"mouse_events":[7281,10621,16263,18384],"survey":"map","page":1,"trial_type":"survey-map","trial_index":4,"time_elapsed":355105,"internal_node_id":"0.0-4.0","task_version":"prescreen-v0.3","browser_interactions":0},{"responses":{"Q04":"0","Q05":"0","Q06":"0"},"rt":17930,"radio_events":[10178,12238,15965],"key_events":[],"mouse_events":[10178,11435,12238,14422,15317,15965,17928],"survey":"map","page":2,"trial_type":"survey-map","trial_index":5,"time_elapsed":373045,"internal_node_id":"0.0-5.0","task_version":"prescreen-v0.3","browser_interactions":0},{"responses":{"Q07":"0","Q08":"0","Q09":"2"},"rt":21702,"radio_events":[7962,9987,19776],"key_events":[],"mouse_events":[7962,9987,18475,19776,21701],"survey":"map","page":3,"trial_type":"survey-map","trial_index":6,"time_elapsed":394763,"internal_node_id":"0.0-6.0","task_version":"prescreen-v0.3","browser_interactions":0},{"responses":{"Q10":"0","Q11":"1","Q12":"0","Q13":"0","Q16":"0","Q14":"0","Q15":"0"},"rt":42331,"radio_events":[7999,14003,16837,19454,29484,37152,40781],"key_events":[],"mouse_events":[7999,12582,14003,16837,19454,29484,37152,40781,42331],"survey":"map","page":4,"trial_type":"survey-map","trial_index":7,"time_elapsed":437106,"internal_node_id":"0.0-7.0","task_version":"prescreen-v0.3","browser_interactions":0,"infrequency":0},{"view_history":[{"page_index":0,"viewing_time":2738},{"page_index":1,"viewing_time":2740}],"rt":5479,"trial_type":"instructions","trial_index":8,"time_elapsed":442590,"internal_node_id":"0.0-8.0","task_version":"prescreen-v0.3"},{"responses":{"01":"Yes","01_ages_4":"4","01_ages_5":"5","01_ages_6":"6","01_ages_7":"7","01_ages_8":"8","02":"Yes","02_ages_4":"4","02_ages_5":"5","02_ages_6":"6","02_ages_7":"7","02_ages_8":"8","03":"Yes","03_ages_4":"4","03_ages_5":"5","03_ages_6":"6","03_ages_7":"7","03_ages_8":"8","03_ages_9":"9","03_ages_10":"10","04":"Yes","04_ages_5":"5","04_ages_6":"6","04_ages_7":"7","04_ages_8":"8","04_ages_9":"9","04_ages_10":"10","04_ages_11":"11","04_ages_12":"12","05":"No","06":"Yes","06_ages_4":"4","06_ages_5":"5","06_ages_6":"6","06_ages_7":"7","06_ages_8":"8","06_ages_9":"9","06_ages_10":"10","06_ages_11":"11","06_ages_12":"12"},"rt":99395,"item_order":[0,1,2,3,4,5],"radio_events":[10648,27661,43813,66047,82402,84789],"checkbox_events":[17149,18220,20538,21717,23129,32339,34956,36281,38476,40162,55440,57106,58083,59227,60178,61262,63119,73688,74784,75726,76505,77159,77931,78653,79423,86976,88320,89225,90187,91128,92513,93321,94176,94973],"key_events":[],"mouse_events":[1,10648,17149,18220,20538,21717,23129,27661,32339,33771,34956,36281,38476,40162,43813,53880,55440,57106,58083,59227,60178,61262,63119,66047,73688,74784,75726,76505,77159,77931,78653,79423,82402,84789,86976,87658,88320,89225,90187,91128,91894,92513,93321,94176,94973,99394],"honeypot":0,"survey":"mace","page":1,"trial_type":"survey-mace","trial_index":9,"time_elapsed":542034,"internal_node_id":"0.0-9.0","task_version":"prescreen-v0.3","browser_interactions":0},{"responses":{"01":"Yes","01_ages_4":"4","01_ages_5":"5","01_ages_6":"6","01_ages_7":"7","01_ages_8":"8","01_ages_9":"9","01_ages_10":"10","02":"No","03":"Yes","03_ages_4":"4","03_ages_5":"5","03_ages_6":"6","03_ages_7":"7","03_ages_8":"8","04":"Yes","04_ages_4":"4","04_ages_5":"5","04_ages_6":"6","04_ages_7":"7","04_ages_8":"8","05":"Yes","05_ages_4":"4","05_ages_5":"5","05_ages_6":"6","05_ages_7":"7","05_ages_8":"8","06":"No","07":"No","08":"No"},"rt":67710,"item_order":[0,1,2,3,4,5,6,7],"radio_events":[8389,21456,23455,35127,48467,57542,60016,62106],"checkbox_events":[10281,11584,12367,13209,15814,17057,18262,25361,26255,27084,28882,29678,37887,38621,39840,40938,41973,50267,50870,51534,52654,53498],"key_events":[],"mouse_events":[8389,10281,11584,12367,13209,15814,17057,18262,21456,23455,25361,26255,27084,28882,29678,35127,37887,38621,39840,40938,41973,48467,50267,50870,51534,52654,53498,57542,60016,62106,67708],"honeypot":0,"survey":"mace","page":2,"trial_type":"survey-mace","trial_index":10,"time_elapsed":609780,"internal_node_id":"0.0-10.0","task_version":"prescreen-v0.3","browser_interactions":0},{"responses":{"01":"Yes","01_ages_4":"4","01_ages_5":"5","01_ages_6":"6","01_ages_7":"7","01_ages_8":"8","01_ages_9":"9","01_ages_10":"10","02":"No","03":"No","04":"No"},"rt":24164,"item_order":[0,1,2,3],"radio_events":[6522,17072,20109,21930],"checkbox_events":[8428,9090,9765,10429,11598,12236,12984],"key_events":[],"mouse_events":[6522,8428,9090,9765,10429,11046,11598,12236,12984,17072,20109,21930,24163],"honeypot":0,"survey":"mace","page":3,"trial_type":"survey-mace","trial_index":11,"time_elapsed":633967,"internal_node_id":"0.0-11.0","task_version":"prescreen-v0.3","browser_interactions":0},{"responses":{"01":"No","02":"No"},"rt":6084,"item_order":[0,1],"radio_events":[3021,4769],"checkbox_events":[],"key_events":[],"mouse_events":[3021,4769,6083],"honeypot":0,"survey":"mace","page":4,"trial_type":"survey-mace","trial_index":12,"time_elapsed":640064,"internal_node_id":"0.0-12.0","task_version":"prescreen-v0.3","browser_interactions":0},{"responses":{"01":"Yes","01_ages_4":"4","01_ages_5":"5","01_ages_6":"6","01_ages_7":"7","01_ages_8":"8","01_ages_9":"9","01_ages_10":"10","01_ages_11":"11","01_ages_12":"12","01_ages_13":"13","02":"No","03":"No","04":"No","05":"No"},"rt":36249,"item_order":[0,1,2,3,4],"radio_events":[8611,20078,24092,29337,31880],"checkbox_events":[10299,10854,11518,12156,12867,13434,14050,14676,15292,15992],"key_events":[],"mouse_events":[8611,10299,10854,11518,12156,12867,13434,14050,14676,15292,15992,20078,24092,29337,31880,36247],"honeypot":0,"survey":"mace","page":5,"trial_type":"survey-mace","trial_index":13,"time_elapsed":676335,"internal_node_id":"0.0-13.0","task_version":"prescreen-v0.3","browser_interactions":0},{"responses":{"01":"Yes","01_ages_4":"4","01_ages_5":"5","01_ages_6":"6","01_ages_7":"7","01_ages_8":"8","01_ages_9":"9","01_ages_10":"10","01_ages_11":"11","01_ages_12":"12","01_ages_13":"13","01_ages_14":"14","01_ages_15":"15","01_ages_16":"16","01_ages_17":"17","01_ages_18":"18","02":"Yes","02_ages_4":"4","02_ages_5":"5","02_ages_6":"6","02_ages_7":"7","02_ages_8":"8","02_ages_9":"9","02_ages_10":"10","02_ages_11":"11","02_ages_12":"12","02_ages_13":"13","02_ages_14":"14","02_ages_15":"15","02_ages_16":"16","02_ages_17":"17","02_ages_18":"18","03":"Yes","03_ages_4":"4","03_ages_5":"5","03_ages_6":"6","03_ages_7":"7","03_ages_8":"8","03_ages_9":"9","03_ages_10":"10","03_ages_11":"11","03_ages_12":"12","03_ages_13":"13","03_ages_14":"14","03_ages_15":"15","03_ages_16":"16","03_ages_17":"17","03_ages_18":"18","04":"Yes","04_ages_4":"4","04_ages_5":"5","04_ages_6":"6","04_ages_7":"7","04_ages_8":"8","04_ages_9":"9","04_ages_10":"10","04_ages_11":"11","04_ages_12":"12","04_ages_13":"13","04_ages_14":"14","04_ages_15":"15","04_ages_16":"16","04_ages_17":"17","04_ages_18":"18","05":"Yes","05_ages_4":"4","05_ages_5":"5","05_ages_6":"6","05_ages_7":"7","05_ages_8":"8","05_ages_9":"9","05_ages_10":"10","05_ages_11":"11","05_ages_12":"12","05_ages_13":"13","05_ages_14":"14"},"rt":117395,"item_order":[0,1,2,3,4],"radio_events":[10693,27786,46829,72966,99889],"checkbox_events":[12936,14433,15046,15661,17303,17879,18447,19375,20159,21485,22111,23125,24354,25428,26102,30129,31228,32300,33119,33915,34626,35578,36230,36821,37725,38834,39473,41885,42728,43693,48829,49455,51446,53471,55761,56654,57306,58207,59223,60152,62823,64265,65347,66108,66940,75334,77060,77953,78605,80211,80923,82179,83725,84908,87054,87974,89169,89925,90979,92743,102037,103280,104680,105381,107035,107613,108374,109049,109701,111538,112201],"key_events":[],"mouse_events":[10693,12936,13507,14433,15046,15661,16317,16878,17303,17879,18447,19375,20159,21485,22111,23125,23936,24354,25428,26102,27786,30129,30657,31228,32300,33119,33915,34626,35578,36230,36821,37725,38834,39473,41885,42728,43693,46829,48829,49455,50254,51446,52004,53471,55761,56654,57306,58207,59223,60152,62823,64265,65347,66108,66940,72966,75334,76061,77060,77953,78605,79273,80211,80923,81685,82179,82869,83725,84908,87054,87974,89169,89925,90979,92743,99889,102037,102618,103280,103884,104680,105381,107035,107613,108374,109049,109701,110430,111538,112201,117394],"honeypot":0,"survey":"mace","page":6,"trial_type":"survey-mace","trial_index":14,"time_elapsed":793756,"internal_node_id":"0.0-14.0","task_version":"prescreen-v0.3","browser_interactions":0},{"responses":{"01":"No","02":"No","03":"Yes","03_ages_4":"4","03_ages_5":"5","03_ages_6":"6","03_ages_7":"7","03_ages_8":"8","03_ages_9":"9","03_ages_10":"10","03_ages_11":"11","03_ages_12":"12","03_ages_13":"13","03_ages_14":"14","03_ages_15":"15","03_ages_16":"16","04":"No","05":"No","06":"No","07":"No"},"rt":47103,"item_order":[0,1,2,3,4,5,6],"radio_events":[7843,11365,16481,37136,39151,41007,46063],"checkbox_events":[19376,19979,20632,22513,24588,25386,26024,27436,28244,29065,31197,32418,33094],"key_events":[],"mouse_events":[7843,11365,16481,19376,19979,20632,21765,22513,23883,24588,25386,26024,26854,27436,28244,29065,31197,31855,32418,33094,37136,39151,41007,46063,47102],"honeypot":0,"survey":"mace","page":7,"trial_type":"survey-mace","trial_index":15,"time_elapsed":840887,"internal_node_id":"0.0-15.0","task_version":"prescreen-v0.3","browser_interactions":0},{"responses":{"01":"No","02":"Yes","02_ages_1":"1","02_ages_2":"2","02_ages_3":"3","02_ages_4":"4","02_ages_5":"5","02_ages_6":"6","02_ages_7":"7","02_ages_8":"8","02_ages_9":"9","02_ages_10":"10","02_ages_11":"11","02_ages_12":"12","02_ages_13":"13","02_ages_14":"14","02_ages_15":"15","02_ages_16":"16","02_ages_17":"17","02_ages_18":"18","03":"No","04":"Yes","04_ages_4":"4","04_ages_5":"5","04_ages_6":"6","04_ages_7":"7","04_ages_8":"8","04_ages_9":"9","04_ages_10":"10","04_ages_11":"11","04_ages_12":"12","04_ages_13":"13","04_ages_14":"14","04_ages_15":"15","04_ages_16":"16"},"rt":66547,"item_order":[0,1,2,3],"radio_events":[10351,13772,42133,45185],"checkbox_events":[16732,18429,19072,21254,21870,23269,23945,24608,25199,25850,26792,27479,28926,30204,31253,32773,33497,34450,48875,49792,50467,51108,52590,53712,55015,56895,57525,58537,59647,60623,62830],"key_events":[],"mouse_events":[10351,13772,16732,17339,17915,18429,19072,21254,21870,22491,23269,23945,24608,25199,25850,26792,27479,28926,30204,31253,32773,33497,34450,42133,45185,48875,49792,50467,51108,51833,52590,53712,54392,55015,55813,56423,56895,57525,58537,59647,60623,61401,62830,66546],"honeypot":0,"survey":"mace","page":8,"trial_type":"survey-mace","trial_index":16,"time_elapsed":907452,"internal_node_id":"0.0-16.0","task_version":"prescreen-v0.3","browser_interactions":0},{"responses":{"01":"Yes","01_ages_6":"6","01_ages_7":"7","01_ages_8":"8","01_ages_9":"9","01_ages_10":"10","01_ages_11":"11","01_ages_12":"12","01_ages_13":"13","01_ages_14":"14","01_ages_15":"15","01_ages_16":"16","01_ages_17":"17","01_ages_18":"18","02":"Yes","02_ages_6":"6","02_ages_7":"7","02_ages_8":"8","02_ages_9":"9","02_ages_10":"10","02_ages_11":"11","02_ages_12":"12","02_ages_13":"13","02_ages_14":"14","02_ages_15":"15","02_ages_16":"16","02_ages_17":"17","02_ages_18":"18","03":"No","04":"Yes","04_ages_3":"3","04_ages_4":"4","04_ages_5":"5","04_ages_6":"6","04_ages_7":"7","04_ages_8":"8","04_ages_9":"9","04_ages_10":"10","04_ages_11":"11","04_ages_12":"12"},"rt":77974,"item_order":[0,1,2,3],"radio_events":[11953,34943,57232,62512],"checkbox_events":[17986,19372,20735,21906,23124,24317,24921,27019,28285,29106,29902,31060,32449,38080,39191,40166,40829,42674,45352,46376,47436,48339,49134,49922,51003,52334,65239,66024,66854,68072,68664,69375,70544,71366,73197,73850],"key_events":[],"mouse_events":[11953,17986,18688,19372,20735,21906,22639,23124,24317,24921,25462,27019,28285,29106,29902,31060,32449,34943,38080,39191,40166,40829,41481,42674,43330,45352,46376,47436,48339,49134,49922,51003,52334,57232,62512,65239,66024,66854,68072,68664,69375,70544,71366,73197,73850,77974],"honeypot":0,"survey":"mace","page":9,"trial_type":"survey-mace","trial_index":17,"time_elapsed":985448,"internal_node_id":"0.0-17.0","task_version":"prescreen-v0.3","browser_interactions":0},{"responses":{"01":"No","02":"No","03":"No","04":"Yes","04_ages_8":"8","04_ages_9":"9","04_ages_10":"10","04_ages_11":"11","04_ages_12":"12","04_ages_13":"13","04_ages_14":"14","04_ages_15":"15","04_ages_16":"16","04_ages_17":"17","04_ages_18":"18","05":"Yes","05_ages_8":"8","05_ages_9":"9","05_ages_10":"10","05_ages_11":"11","05_ages_12":"12","05_ages_13":"13","05_ages_14":"14","05_ages_15":"15","05_ages_16":"16","05_ages_17":"17","05_ages_18":"18","06":"Yes","06_ages_17":"17","07":"No","08":"No"},"rt":64334,"item_order":[0,1,2,3,4,5,6,7],"radio_events":[7005,8993,15397,18408,33513,51639,59068,60816],"checkbox_events":[21306,22334,23077,23721,25191,25868,26809,27483,28291,30690,31439,35141,35937,36673,37361,38157,38904,40786,42871,43570,44922,46623,54135],"key_events":[],"mouse_events":[7005,8993,12210,15397,18408,21306,22334,23077,23721,24507,25191,25868,26809,27483,28291,30690,31439,33513,35141,35937,36673,37361,38157,38904,39656,40184,40786,42871,43570,44273,44922,46623,51639,54135,59068,60816,64333],"honeypot":0,"survey":"mace","page":10,"trial_type":"survey-mace","trial_index":18,"time_elapsed":1049822,"internal_node_id":"0.0-18.0","task_version":"prescreen-v0.3","browser_interactions":0,"instructed":0},{"rt":7884,"trial_type":"mental-health-alert","trial_index":19,"time_elapsed":1057714,"internal_node_id":"0.0-19.0","task_version":"prescreen-v0.3","interactions":"[{\"event\":\"focus\",\"trial\":0,\"time\":13}]"}]