[{"view_history":[{"page_index":0,"viewing_time":4898.300000000745},{"page_index":1,"viewing_time":9553.699999999255},{"page_index":2,"viewing_time":6047.0999999996275},{"page_index":3,"viewing_time":3006.4000000003725}],"rt":23506.5,"trial_type":"instructions","trial_index":0,"time_elapsed":23519,"internal_node_id":"0.0-0.0","task_version":"prescreen-v0.3"},{"rt":28256.199999999255,"responses":{"age":"72","gender-categorical":"Male","gender-free-response":"","ethnicity":"Not Hispanic or Latino","race":["White"],"education":"Master degree or higher","siblings":"3"},"trial_type":"survey-demo","trial_index":1,"time_elapsed":51780,"internal_node_id":"0.0-1.0","task_version":"prescreen-v0.3"},{"responses":{"Q06":"1","Q15":"1","Q02":"1","Q07":"1","Q17":"1","Q05":"1","Q01":"1","Q03":"1","Q12":"1","Q04":"1","Q20":"0","Q11":"0","Q13":"0","Q21":"3","Q14":"0","Q08":"0","Q18":"0","Q10":"0","Q16":"0","Q19":"0","Q09":"0"},"rt":128754.69999999925,"item_order":[5,14,1,6,16,4,0,2,11,3,19,10,12,20,13,7,17,9,15,18,8],"radio_events":[30115,33023.40000000037,38207.199999999255,45346.79999999888,48017.29999999888,56329,58495,62421.199999999255,70966.79999999888,76991,79891.09999999963,81941.09999999963,84566.79999999888,88219,95425.09999999963,100614.79999999888,106193.09999999963,109543,116269,124287.09999999963,127525.5],"key_events":[],"mouse_events":[30115,33023.40000000037,38207.199999999255,45346.79999999888,48017.29999999888,56329,58495,62421.199999999255,70966.79999999888,76991,79891.09999999963,81941.09999999963,84566.79999999888,88219,95425.09999999963,100614.79999999888,106193.09999999963,109543,116269,124287.09999999963,127525.5,128753.09999999963],"straightlining":0.47619047619047616,"zigzagging":0.15,"honeypot":0,"survey":"sns","trial_type":"survey-template","trial_index":2,"time_elapsed":180539,"internal_node_id":"0.0-2.0","task_version":"prescreen-v0.3","browser_interactions":0,"infrequency":0},{"responses":{"Q09":"2","Q07":"2","Q06":"2","Q01":"1","Q12":"0","Q10":"0","Q04":"2","Q13":"0","Q08":"2","Q02":"2","Q05":"2","Q11":"2","Q03":"2"},"rt":81746.60000000149,"item_order":[8,6,5,0,11,9,3,12,7,1,4,10,2],"radio_events":[6615.10000000149,10027,15169.300000000745,20179.300000000745,26385.400000000373,30149.300000000745,36629.10000000149,43515.40000000037,51679.300000000745,57473.10000000149,61395.300000000745,65625.20000000112,72522.20000000112,79851.30000000075],"key_events":[],"mouse_events":[6615.10000000149,10027,15169.300000000745,20179.300000000745,26385.400000000373,30149.300000000745,36629.10000000149,43515.40000000037,51679.300000000745,57473.10000000149,61395.300000000745,65625.20000000112,72522.20000000112,79851.30000000075,81745.5],"straightlining":0.6923076923076923,"zigzagging":0.16666666666666666,"honeypot":0,"survey":"bisbas","trial_type":"survey-template","trial_index":3,"time_elapsed":262289,"internal_node_id":"0.0-3.0","task_version":"prescreen-v0.3","browser_interactions":0,"infrequency":0},{"responses":{"Q01":"3","Q02":"4","Q03":"3"},"rt":38100.699999999255,"radio_events":[15769.800000000745,24889.900000000373,36571.5],"key_events":[],"mouse_events":[15769.800000000745,24889.900000000373,36571.5,38100],"survey":"map","page":1,"trial_type":"survey-map","trial_index":4,"time_elapsed":300392,"internal_node_id":"0.0-4.0","task_version":"prescreen-v0.3","browser_interactions":0},{"responses":{"Q04":"2","Q05":"2","Q06":"2"},"rt":20904.599999999627,"radio_events":[9672,15226,19550],"key_events":[],"mouse_events":[9672,15226,19550,20904.099999999627],"survey":"map","page":2,"trial_type":"survey-map","trial_index":5,"time_elapsed":321300,"internal_node_id":"0.0-5.0","task_version":"prescreen-v0.3","browser_interactions":0},{"responses":{"Q07":"4","Q08":"0","Q09":"2"},"rt":29233.300000000745,"radio_events":[8638.5,18342.5,28000.300000000745],"key_events":[],"mouse_events":[8638.5,18342.5,28000.300000000745,29232.700000001118],"survey":"map","page":3,"trial_type":"survey-map","trial_index":6,"time_elapsed":350536,"internal_node_id":"0.0-6.0","task_version":"prescreen-v0.3","browser_interactions":0},{"responses":{"Q10":"3","Q11":"2","Q12":"0","Q13":"0","Q16":"0","Q14":"2","Q15":"1"},"rt":46531.90000000037,"radio_events":[6088.799999998882,9823,16188.699999999255,26498.5,32566.799999998882,38896.79999999888,45330.5],"key_events":[],"mouse_events":[6088.799999998882,9823,16188.699999999255,26498.5,32566.799999998882,38896.79999999888,45330.5,46530.90000000037],"survey":"map","page":4,"trial_type":"survey-map","trial_index":7,"time_elapsed":397070,"internal_node_id":"0.0-7.0","task_version":"prescreen-v0.3","browser_interactions":0,"infrequency":0},{"view_history":[{"page_index":0,"viewing_time":3321.300000000745},{"page_index":1,"viewing_time":3655.5}],"rt":6977.5,"trial_type":"instructions","trial_index":8,"time_elapsed":404049,"internal_node_id":"0.0-8.0","task_version":"prescreen-v0.3"},{"responses":{"01":"Yes","01_ages_2":"2","01_ages_3":"3","01_ages_4":"4","01_ages_5":"5","01_ages_6":"6","01_ages_7":"7","01_ages_8":"8","01_ages_9":"9","01_ages_10":"10","01_ages_11":"11","01_ages_12":"12","01_ages_13":"13","01_ages_14":"14","01_ages_15":"15","01_ages_16":"16","01_ages_17":"17","01_ages_18":"18","02":"Yes","02_ages_2":"2","02_ages_3":"3","02_ages_4":"4","02_ages_5":"5","02_ages_6":"6","02_ages_7":"7","02_ages_8":"8","02_ages_9":"9","02_ages_10":"10","02_ages_11":"11","02_ages_12":"12","02_ages_13":"13","02_ages_14":"14","02_ages_15":"15","02_ages_16":"16","02_ages_17":"17","02_ages_18":"18","03":"Yes","03_ages_2":"2","03_ages_3":"3","03_ages_4":"4","03_ages_5":"5","03_ages_6":"6","03_ages_7":"7","03_ages_8":"8","03_ages_9":"9","03_ages_10":"10","03_ages_11":"11","03_ages_12":"12","03_ages_13":"13","03_ages_14":"14","03_ages_15":"15","03_ages_16":"16","03_ages_17":"17","03_ages_18":"18","04":"Yes","04_ages_2":"2","04_ages_3":"3","04_ages_4":"4","04_ages_5":"5","04_ages_6":"6","04_ages_7":"7","04_ages_8":"8","04_ages_9":"9","04_ages_10":"10","04_ages_11":"11","04_ages_12":"12","04_ages_13":"13","04_ages_14":"14","04_ages_15":"15","04_ages_16":"16","04_ages_17":"17","04_ages_18":"18","05":"No","06":"Yes","06_ages_2":"2","06_ages_3":"3","06_ages_4":"4","06_ages_5":"5","06_ages_6":"6","06_ages_7":"7","06_ages_8":"8","06_ages_9":"9","06_ages_10":"10","06_ages_11":"11","06_ages_12":"12","06_ages_13":"13","06_ages_14":"14","06_ages_15":"15","06_ages_16":"16","06_ages_17":"17","06_ages_18":"18"},"rt":130720.30000000075,"item_order":[0,1,2,3,4,5],"radio_events":[11019.699999999255,39035.5,62081.09999999963,86577.30000000075,104577.09999999963,113895.09999999963],"checkbox_events":[17273.800000000745,18047.599999999627,18735,19709.699999999255,20797.199999999255,21571.300000000745,22211.599999999627,23316.900000000373,24397.400000000373,25533.300000000745,26459.199999999255,27453.400000000373,30103,31111.199999999255,31915.300000000745,32813.300000000745,33579.199999999255,42475,43343.09999999963,44279,45189.5,46331,47225.40000000037,48289.199999999255,49335.09999999963,50330.800000000745,51365.199999999255,52194.699999999255,53105.59999999963,53955.09999999963,55013.300000000745,56108.300000000745,56805.40000000037,57777.40000000037,64063.40000000037,64866.90000000037,65620.90000000037,66675.19999999925,67662.69999999925,68319.69999999925,69261,70079.30000000075,71113.80000000075,71983,73023.19999999925,73803.30000000075,74803.30000000075,75447,76469.19999999925,77709.09999999963,78443.19999999925,89492.40000000037,90169.09999999963,90958.59999999963,91896.90000000037,93527.40000000037,94252.80000000075,95089.09999999963,95711,96681.09999999963,97714.69999999925,98477.40000000037,99395,100473.19999999925,101319.19999999925,102125,102975,103707.40000000037,116107.5,116843.09999999963,117641,118373.30000000075,119106.80000000075,120061.5,121123.09999999963,121997.5,122771.09999999963,123791,124527.09999999963,125652.5,126572.59999999963,127438.40000000037,128321.09999999963,129113.09999999963,129987.09999999963],"key_events":[],"mouse_events":[0.09999999962747097,11019.699999999255,17273.800000000745,18047.599999999627,18735,19709.699999999255,20797.199999999255,21571.300000000745,22211.599999999627,23316.900000000373,24397.400000000373,25533.300000000745,26459.199999999255,27453.400000000373,30103,31111.199999999255,31915.300000000745,32813.300000000745,33579.199999999255,39035.5,42475,43343.09999999963,44279,45189.5,46331,47225.40000000037,48289.199999999255,49335.09999999963,50330.800000000745,51365.199999999255,52194.699999999255,53105.59999999963,53955.09999999963,55013.300000000745,56108.300000000745,56805.40000000037,57777.40000000037,62081.09999999963,64063.40000000037,64866.90000000037,65620.90000000037,66675.19999999925,67662.69999999925,68319.69999999925,69261,70079.30000000075,71113.80000000075,71983,73023.19999999925,73803.30000000075,74803.30000000075,75447,76469.19999999925,77709.09999999963,78443.19999999925,86577.30000000075,89492.40000000037,90169.09999999963,90958.59999999963,91896.90000000037,93527.40000000037,94252.80000000075,95089.09999999963,95711,96681.09999999963,97714.69999999925,98477.40000000037,99395,100473.19999999925,101319.19999999925,102125,102975,103707.40000000037,104577.09999999963,113895.09999999963,116107.5,116843.09999999963,117641,118373.30000000075,119106.80000000075,120061.5,121123.09999999963,121997.5,122771.09999999963,123791,124527.09999999963,125652.5,126572.59999999963,127438.40000000037,128321.09999999963,129113.09999999963,129987.09999999963,130718.09999999963],"honeypot":0,"survey":"mace","page":1,"trial_type":"survey-mace","trial_index":9,"time_elapsed":534775,"internal_node_id":"0.0-9.0","task_version":"prescreen-v0.3","browser_interactions":0},{"responses":{"01":"Yes","01_ages_5":"5","01_ages_6":"6","01_ages_7":"7","01_ages_8":"8","01_ages_9":"9","01_ages_10":"10","01_ages_11":"11","01_ages_12":"12","02":"No","03":"Yes","03_ages_2":"2","03_ages_3":"3","03_ages_4":"4","03_ages_5":"5","03_ages_6":"6","03_ages_7":"7","03_ages_8":"8","03_ages_9":"9","03_ages_10":"10","03_ages_11":"11","03_ages_12":"12","04":"No","05":"Yes","05_ages_3":"3","05_ages_4":"4","05_ages_5":"5","05_ages_6":"6","05_ages_7":"7","05_ages_8":"8","05_ages_9":"9","05_ages_10":"10","05_ages_11":"11","05_ages_12":"12","05_ages_13":"13","05_ages_14":"14","05_ages_15":"15","06":"Yes","06_ages_2":"2","06_ages_3":"3","06_ages_4":"4","06_ages_5":"5","06_ages_6":"6","06_ages_7":"7","06_ages_8":"8","06_ages_9":"9","06_ages_10":"10","06_ages_11":"11","06_ages_12":"12","06_ages_13":"13","06_ages_14":"14","06_ages_15":"15","06_ages_16":"16","06_ages_17":"17","06_ages_18":"18","07":"Yes","07_ages_2":"2","07_ages_3":"3","07_ages_4":"4","07_ages_5":"5","07_ages_6":"6","07_ages_7":"7","08":"No"},"rt":101725.79999999888,"item_order":[0,1,2,3,4,5,6,7],"radio_events":[7059.199999999255,22857.299999998882,26175.599999999627,40813.40000000037,46097.40000000037,64539.09999999963,85828.59999999963,100433.09999999963],"checkbox_events":[11775.699999999255,12575.299999998882,13333.400000000373,14005.400000000373,14823.299999998882,15797.199999999255,16779.400000000373,17669.199999999255,28148.900000000373,29377.299999998882,30029.799999998882,31459.299999998882,32171,33167.29999999888,33815.40000000037,34435.29999999888,35055.199999999255,35877.09999999963,36673.40000000037,50095.29999999888,51407.199999999255,52675.199999999255,53730.90000000037,54371.29999999888,55093.199999999255,55913,56815.199999999255,57633.40000000037,58731.199999999255,59735.199999999255,60624.90000000037,61643.29999999888,66077.29999999888,66700.90000000037,67784.40000000037,68357.19999999925,69386.79999999888,70216.90000000037,71067.19999999925,72497.19999999925,73293.40000000037,73925.09999999963,74811.19999999925,75465.19999999925,76297.29999999888,77167.09999999963,78343.09999999963,82575.19999999925,83472.79999999888,91106.69999999925,92115.09999999963,94991.09999999963,95602.90000000037,96254.5,97075.19999999925],"key_events":[],"mouse_events":[7059.199999999255,11775.699999999255,12575.299999998882,13333.400000000373,14005.400000000373,14823.299999998882,15797.199999999255,16779.400000000373,17669.199999999255,22857.299999998882,26175.599999999627,28148.900000000373,29377.299999998882,30029.799999998882,30818.799999998882,31459.299999998882,32171,33167.29999999888,33815.40000000037,34435.29999999888,35055.199999999255,35877.09999999963,36673.40000000037,40813.40000000037,46097.40000000037,50095.29999999888,51407.199999999255,52675.199999999255,53730.90000000037,54371.29999999888,55093.199999999255,55913,56815.199999999255,57633.40000000037,58731.199999999255,59735.199999999255,60624.90000000037,61643.29999999888,64539.09999999963,66077.29999999888,66700.90000000037,67784.40000000037,68357.19999999925,69386.79999999888,70216.90000000037,71067.19999999925,72497.19999999925,73293.40000000037,73925.09999999963,74811.19999999925,75465.19999999925,76297.29999999888,77167.09999999963,78343.09999999963,82575.19999999925,83472.79999999888,85828.59999999963,89822.59999999963,91106.69999999925,92115.09999999963,94991.09999999963,95602.90000000037,96254.5,97075.19999999925,100433.09999999963,101723],"honeypot":0,"survey":"mace","page":2,"trial_type":"survey-mace","trial_index":10,"time_elapsed":636504,"internal_node_id":"0.0-10.0","task_version":"prescreen-v0.3","browser_interactions":0},{"responses":{"01":"No","02":"No","03":"Yes","03_ages_2":"2","03_ages_3":"3","03_ages_4":"4","03_ages_5":"5","03_ages_6":"6","03_ages_7":"7","03_ages_8":"8","03_ages_9":"9","03_ages_10":"10","03_ages_11":"11","03_ages_12":"12","03_ages_13":"13","03_ages_14":"14","03_ages_15":"15","03_ages_16":"16","03_ages_17":"17","03_ages_18":"18","04":"No"},"rt":44729.90000000037,"item_order":[0,1,2,3],"radio_events":[7186.300000000745,13615.900000000373,17240.200000001118,43834.40000000037],"checkbox_events":[20298.300000000745,21082.200000001118,22072.10000000149,22849.900000000373,23840.300000000745,25329.800000000745,26922.200000001118,28044.5,29788.400000000373,32636.300000000745,33666.60000000149,34373.70000000112,35156.20000000112,35874.20000000112,36750.300000000745,39792.20000000112,42372.10000000149],"key_events":[],"mouse_events":[7186.300000000745,13615.900000000373,17240.200000001118,20298.300000000745,21082.200000001118,22072.10000000149,22849.900000000373,23840.300000000745,25329.800000000745,26922.200000001118,28044.5,29788.400000000373,32636.300000000745,33666.60000000149,34373.70000000112,35156.20000000112,35874.20000000112,36750.300000000745,39792.20000000112,40814.20000000112,42372.10000000149,43834.40000000037,44728.40000000037],"honeypot":0,"survey":"mace","page":3,"trial_type":"survey-mace","trial_index":11,"time_elapsed":681237,"internal_node_id":"0.0-11.0","task_version":"prescreen-v0.3","browser_interactions":0},{"responses":{"01":"No","02":"No"},"rt":13683.199999999255,"item_order":[0,1],"radio_events":[10022.099999999627,12632.099999999627],"checkbox_events":[],"key_events":[],"mouse_events":[10022.099999999627,12632.099999999627,13682.299999998882],"honeypot":0,"survey":"mace","page":4,"trial_type":"survey-mace","trial_index":12,"time_elapsed":694922,"internal_node_id":"0.0-12.0","task_version":"prescreen-v0.3","browser_interactions":0},{"responses":{"01":"Yes","01_ages_2":"2","01_ages_3":"3","01_ages_4":"4","01_ages_5":"5","01_ages_6":"6","01_ages_7":"7","01_ages_8":"8","01_ages_9":"9","01_ages_10":"10","01_ages_11":"11","01_ages_12":"12","01_ages_13":"13","01_ages_14":"14","01_ages_15":"15","02":"Yes","02_ages_2":"2","02_ages_3":"3","02_ages_4":"4","02_ages_5":"5","02_ages_6":"6","02_ages_7":"7","02_ages_8":"8","02_ages_9":"9","02_ages_10":"10","02_ages_11":"11","02_ages_12":"12","02_ages_13":"13","02_ages_14":"14","02_ages_15":"15","03":"Yes","03_ages_2":"2","03_ages_3":"3","03_ages_4":"4","03_ages_5":"5","03_ages_6":"6","03_ages_7":"7","03_ages_8":"8","03_ages_9":"9","03_ages_10":"10","03_ages_11":"11","03_ages_12":"12","03_ages_13":"13","03_ages_14":"14","03_ages_15":"15","04":"No","05":"No"},"rt":91877.40000000037,"item_order":[0,1,2,3,4],"radio_events":[14733.599999999627,36079.40000000037,63269.300000000745,86297.40000000037,90735.40000000037],"checkbox_events":[16363.400000000373,17221.599999999627,18167.5,18997.5,19783.5,20395.300000000745,21611.5,22533.5,23277.800000000745,24075,25025.099999999627,26011.599999999627,27111.5,28117.300000000745,38523.5,40553,41619.40000000037,42759.5,43545.5,44321.5,45271.09999999963,47519.59999999963,48787.699999999255,50599.59999999963,52037.300000000745,53057.199999999255,54230.59999999963,55436.699999999255,66039,66952.90000000037,67870.5,68526.69999999925,69364.80000000075,70497,72599.40000000037,73239.59999999963,73991.09999999963,74845.40000000037,75727.40000000037,76347.59999999963,77204.59999999963,78211.5],"key_events":[],"mouse_events":[14733.599999999627,16363.400000000373,17221.599999999627,18167.5,18997.5,19783.5,20395.300000000745,21611.5,22533.5,23277.800000000745,24075,25025.099999999627,26011.599999999627,27111.5,28117.300000000745,36079.40000000037,38523.5,40553,41619.40000000037,42759.5,43545.5,44321.5,45271.09999999963,47519.59999999963,48787.699999999255,50599.59999999963,52037.300000000745,53057.199999999255,54230.59999999963,55436.699999999255,63269.300000000745,66039,66952.90000000037,67870.5,68526.69999999925,69364.80000000075,70497,71253.59999999963,72599.40000000037,73239.59999999963,73991.09999999963,74845.40000000037,75727.40000000037,76347.59999999963,77204.59999999963,78211.5,86297.40000000037,90735.40000000037,91875.5],"honeypot":0,"survey":"mace","page":5,"trial_type":"survey-mace","trial_index":13,"time_elapsed":786803,"internal_node_id":"0.0-13.0","task_version":"prescreen-v0.3","browser_interactions":0},{"responses":{"01":"Yes","01_ages_6":"6","01_ages_7":"7","01_ages_8":"8","01_ages_9":"9","01_ages_10":"10","01_ages_11":"11","01_ages_12":"12","01_ages_13":"13","01_ages_14":"14","01_ages_15":"15","01_ages_16":"16","01_ages_17":"17","01_ages_18":"18","02":"Yes","02_ages_6":"6","02_ages_7":"7","02_ages_8":"8","02_ages_9":"9","02_ages_10":"10","02_ages_11":"11","02_ages_12":"12","02_ages_13":"13","02_ages_14":"14","02_ages_15":"15","02_ages_16":"16","02_ages_17":"17","02_ages_18":"18","03":"Yes","03_ages_6":"6","03_ages_7":"7","03_ages_8":"8","03_ages_9":"9","03_ages_10":"10","03_ages_11":"11","03_ages_12":"12","03_ages_13":"13","03_ages_14":"14","03_ages_15":"15","03_ages_16":"16","03_ages_17":"17","03_ages_18":"18","04":"No","05":"Yes","05_ages_12":"12","05_ages_13":"13","05_ages_14":"14","05_ages_15":"15","05_ages_16":"16","05_ages_17":"17","05_ages_18":"18"},"rt":104208.79999999888,"item_order":[0,1,2,3,4],"radio_events":[14235.099999999627,31603.099999999627,50041,55424.89999999851,86374.89999999851],"checkbox_events":[17074.89999999851,18516.89999999851,19443.099999999627,20457.299999998882,21263.099999999627,22623.099999999627,23243.099999999627,23830.89999999851,25153,25908.699999999255,26553,27648.89999999851,28447.199999999255,33255,35735.09999999963,36490.89999999851,37204.699999999255,37812.79999999888,38589.5,39263,40189.09999999963,41194.89999999851,42176.59999999963,43221.199999999255,43988.699999999255,44667,60133,61448.89999999851,63224.79999999888,63897,64758.29999999888,65580.79999999888,66320.79999999888,91167.09999999963,92274.09999999963,93305.19999999925,93987.09999999963,94591,95465,96225.09999999963,96999.09999999963,98331,99387,100211,101135.19999999925,101999],"key_events":[],"mouse_events":[14235.099999999627,17074.89999999851,18516.89999999851,19443.099999999627,20457.299999998882,21263.099999999627,22623.099999999627,23243.099999999627,23830.89999999851,25153,25908.699999999255,26553,27648.89999999851,28447.199999999255,31603.099999999627,33255,35735.09999999963,36490.89999999851,37204.699999999255,37812.79999999888,38589.5,39263,40189.09999999963,41194.89999999851,42176.59999999963,43221.199999999255,43988.699999999255,44667,50041,55424.89999999851,60133,60883,61448.89999999851,62632.89999999851,63224.79999999888,63897,64758.29999999888,65580.79999999888,66320.79999999888,67119.19999999925,69161.19999999925,71311.09999999963,77508.89999999851,86374.89999999851,91167.09999999963,92274.09999999963,93305.19999999925,93987.09999999963,94591,95465,96225.09999999963,96999.09999999963,98331,99387,100211,101135.19999999925,101999,104207],"honeypot":0,"survey":"mace","page":6,"trial_type":"survey-mace","trial_index":14,"time_elapsed":891015,"internal_node_id":"0.0-14.0","task_version":"prescreen-v0.3","browser_interactions":0},{"responses":{"01":"No","02":"No","03":"Yes","03_ages_16":"16","03_ages_17":"17","03_ages_18":"18","04":"No","05":"No","06":"No","07":"No"},"rt":37819.300000000745,"item_order":[0,1,2,3,4,5,6],"radio_events":[12165.099999999627,15574.900000000373,20879.300000000745,28441.099999999627,31586.800000000745,34385.09999999963,36732.800000000745],"checkbox_events":[23085.199999999255,24301.5,25527.5],"key_events":[],"mouse_events":[11069.300000000745,12165.099999999627,15574.900000000373,20879.300000000745,23085.199999999255,24301.5,25527.5,28441.099999999627,31586.800000000745,34385.09999999963,36732.800000000745,37816.800000000745],"honeypot":0,"survey":"mace","page":7,"trial_type":"survey-mace","trial_index":15,"time_elapsed":928837,"internal_node_id":"0.0-15.0","task_version":"prescreen-v0.3","browser_interactions":0},{"responses":{"01":"No","02":"Yes","02_ages_2":"2","02_ages_3":"3","02_ages_4":"4","02_ages_5":"5","02_ages_6":"6","02_ages_7":"7","02_ages_8":"8","02_ages_9":"9","02_ages_10":"10","02_ages_11":"11","02_ages_12":"12","02_ages_13":"13","02_ages_14":"14","02_ages_15":"15","02_ages_16":"16","02_ages_17":"17","02_ages_18":"18","03":"No","04":"No"},"rt":51462.29999999888,"item_order":[0,1,2,3],"radio_events":[12619.5,17737.299999998882,49383.29999999888,50399.29999999888],"checkbox_events":[20039.199999999255,21170.900000000373,22399.400000000373,23169.199999999255,23877.199999999255,24651.299999998882,25585,26530.599999999627,27251.199999999255,28259.299999998882,29329.400000000373,30271.299999998882,31215.799999998882,32340.5,33155.199999999255,34291.79999999888,35431.29999999888],"key_events":[],"mouse_events":[12619.5,17737.299999998882,20039.199999999255,21170.900000000373,22399.400000000373,23169.199999999255,23877.199999999255,24651.299999998882,25585,26530.599999999627,27251.199999999255,28259.299999998882,29329.400000000373,30271.299999998882,31215.799999998882,32340.5,33155.199999999255,34291.79999999888,35431.29999999888,49383.29999999888,50399.29999999888,51460.699999999255],"honeypot":0,"survey":"mace","page":8,"trial_type":"survey-mace","trial_index":16,"time_elapsed":980302,"internal_node_id":"0.0-16.0","task_version":"prescreen-v0.3","browser_interactions":0},{"responses":{"01":"Yes","01_ages_2":"2","01_ages_3":"3","01_ages_4":"4","01_ages_5":"5","01_ages_6":"6","01_ages_7":"7","01_ages_8":"8","01_ages_9":"9","01_ages_10":"10","01_ages_11":"11","01_ages_12":"12","01_ages_13":"13","01_ages_14":"14","01_ages_15":"15","01_ages_16":"16","01_ages_17":"17","01_ages_18":"18","02":"No","03":"No","04":"Yes","04_ages_2":"2","04_ages_3":"3","04_ages_4":"4","04_ages_5":"5","04_ages_6":"6","04_ages_7":"7","04_ages_8":"8","04_ages_9":"9","04_ages_10":"10","04_ages_11":"11","04_ages_12":"12","04_ages_13":"13","04_ages_14":"14","04_ages_15":"15","04_ages_16":"16","04_ages_17":"17","04_ages_18":"18"},"rt":76240.20000000112,"item_order":[0,1,2,3],"radio_events":[16024.200000001118,46274.20000000112,47517.90000000037,58150.20000000112],"checkbox_events":[25498.300000000745,26562.400000000373,27348.5,28866.5,29864.60000000149,31124.400000000373,32312.10000000149,33222.90000000037,34402.5,35292.40000000037,36312.5,37318.40000000037,38212.40000000037,39432.20000000112,40326.5,41340.60000000149,42408.5,60000.5,60718.40000000037,61592.40000000037,62546.10000000149,63316.300000000745,64124,64986,65852.20000000112,66838.5,68022.40000000037,69006.90000000037,70004,71054.5,71986.30000000075,73032.5,74082.30000000075,75206.30000000075],"key_events":[],"mouse_events":[16024.200000001118,25498.300000000745,26562.400000000373,27348.5,28866.5,29864.60000000149,31124.400000000373,32312.10000000149,33222.90000000037,34402.5,35292.40000000037,36312.5,37318.40000000037,38212.40000000037,39432.20000000112,40326.5,41340.60000000149,42408.5,46274.20000000112,47517.90000000037,58150.20000000112,60000.5,60718.40000000037,61592.40000000037,62546.10000000149,63316.300000000745,64124,64986,65852.20000000112,66838.5,67486.40000000037,68022.40000000037,69006.90000000037,70004,71054.5,71986.30000000075,73032.5,74082.30000000075,75206.30000000075,76238.70000000112],"honeypot":0,"survey":"mace","page":9,"trial_type":"survey-mace","trial_index":17,"time_elapsed":1056544,"internal_node_id":"0.0-17.0","task_version":"prescreen-v0.3","browser_interactions":0},{"responses":{"01":"No","02":"No","03":"No","04":"No","05":"No","06":"Yes","06_ages_17":"17","07":"No","08":"No"},"rt":38184.40000000037,"item_order":[0,1,2,3,4,5,6,7],"radio_events":[4375.0999999996275,6099.200000001118,12130.800000000745,13489,21758.800000000745,24098.700000001118,27118.5,34755,36976.90000000037],"checkbox_events":[29640.5],"key_events":[],"mouse_events":[4375.0999999996275,6099.200000001118,12130.800000000745,13489,21758.800000000745,24098.700000001118,27118.5,29640.5,34755,36976.90000000037,38181.5],"honeypot":0,"survey":"mace","page":10,"trial_type":"survey-mace","trial_index":18,"time_elapsed":1094732,"internal_node_id":"0.0-18.0","task_version":"prescreen-v0.3","browser_interactions":0,"instructed":0},{"rt":15342.099999999627,"trial_type":"mental-health-alert","trial_index":19,"time_elapsed":1110076,"internal_node_id":"0.0-19.0","task_version":"prescreen-v0.3","interactions":"[]"}]