[{"view_history":[{"page_index":0,"viewing_time":3839.100000000006},{"page_index":1,"viewing_time":3455.5},{"page_index":2,"viewing_time":3509.899999999994},{"page_index":3,"viewing_time":865.8999999999942}],"rt":11671.100000000006,"trial_type":"instructions","trial_index":0,"time_elapsed":11701,"internal_node_id":"0.0-0.0","task_version":"prescreen-v0.3"},{"rt":15449.799999999988,"responses":{"age":"25","gender-categorical":"Female","gender-free-response":"","ethnicity":"Not Hispanic or Latino","race":["Asian"],"education":"Bachelor degree"},"trial_type":"survey-demo","trial_index":1,"time_elapsed":27158,"internal_node_id":"0.0-1.0","task_version":"prescreen-v0.3"},{"responses":{"Q16":"1","Q21":"3","Q07":"0","Q13":"1","Q20":"3","Q15":"3","Q08":"1","Q01":"3","Q11":"3","Q19":"2","Q09":"2","Q03":"1","Q14":"1","Q18":"2","Q10":"1","Q17":"1","Q12":"1","Q05":"2","Q04":"1","Q06":"1","Q02":"0"},"rt":138392,"item_order":[15,20,6,12,19,14,7,0,10,18,8,2,13,17,9,16,11,4,3,5,1],"radio_events":[11350.700000000012,15536.400000000023,22009.5,26616,29480.20000000001,32306.29999999999,40135.40000000002,43502.70000000001,48056.100000000035,51019.40000000002,63016.90000000002,68813.70000000001,73419.60000000003,77004.5,81827.10000000003,90840.90000000002,98914.10000000003,106484.10000000003,117955.5,126096.79999999999,133686.90000000002,137185.5],"key_events":[],"mouse_events":[10516.799999999988,11350.700000000012,14443,15536.400000000023,21151.600000000035,22009.5,26616,29480.20000000001,32306.29999999999,33157.5,40135.40000000002,43502.70000000001,44683.29999999999,46839.70000000001,48056.100000000035,51019.40000000002,52071.79999999999,63016.90000000002,64119.100000000035,68028.10000000003,68813.70000000001,69407.40000000002,73419.60000000003,75724.10000000003,77004.5,80272.5,81827.10000000003,82371.40000000002,90840.90000000002,91963.70000000001,98914.10000000003,99553.5,105671.60000000003,106484.10000000003,109311.79999999999,117955.5,126096.79999999999,132708.5,133686.90000000002,137185.5,138382.7],"straightlining":0.47619047619047616,"zigzagging":0.45,"honeypot":0,"survey":"sns","trial_type":"survey-template","trial_index":2,"time_elapsed":165570,"internal_node_id":"0.0-2.0","task_version":"prescreen-v0.3","browser_interactions":0,"infrequency":0},{"responses":{"Q09":"1","Q07":"2","Q01":"3","Q11":"2","Q08":"2","Q05":"3","Q03":"3","Q04":"3","Q02":"3","Q06":"3","Q10":"2","Q12":"1","Q13":"0"},"rt":90965.60000000003,"item_order":[8,6,0,10,7,4,2,3,1,5,9,11,12],"radio_events":[11102.100000000035,16071.600000000035,17209.400000000023,21655.600000000035,46510.5,50573.100000000035,54379.100000000035,65745,70826.20000000001,75950.40000000002,79309.30000000005,84024.60000000003,88139.10000000003],"key_events":[],"mouse_events":[1867.2000000000116,11102.100000000035,14636.400000000023,16071.600000000035,17209.400000000023,21655.600000000035,46510.5,50573.100000000035,54379.100000000035,54925.600000000035,61359.30000000005,64969.80000000005,65745,66348.80000000005,70826.20000000001,72114,75950.40000000002,79309.30000000005,84024.60000000003,88139.10000000003,89359.30000000005,90959.30000000005],"straightlining":0.46153846153846156,"zigzagging":0.5833333333333334,"honeypot":0,"survey":"bisbas","trial_type":"survey-template","trial_index":3,"time_elapsed":256544,"internal_node_id":"0.0-3.0","task_version":"prescreen-v0.3","browser_interactions":0,"infrequency":0},{"responses":{"Q01":"2","Q02":"2","Q03":"2"},"rt":31958.79999999999,"radio_events":[11349.900000000023,20519.100000000035,21668.600000000035,30649.00000000006],"key_events":[],"mouse_events":[11349.900000000023,12454.299999999988,18726.900000000023,20519.100000000035,21668.600000000035,22613.900000000023,30649.00000000006,31209.600000000035,31956.100000000035],"survey":"map","page":1,"trial_type":"survey-map","trial_index":4,"time_elapsed":288511,"internal_node_id":"0.0-4.0","task_version":"prescreen-v0.3","browser_interactions":0},{"responses":{"Q04":"2","Q05":"3","Q06":"3"},"rt":32591.199999999953,"radio_events":[10191.199999999953,13267.29999999993,17065.699999999953,28387.400000000023,31440.900000000023],"key_events":[],"mouse_events":[10191.199999999953,13267.29999999993,17065.699999999953,28387.400000000023,31440.900000000023,32586.5],"survey":"map","page":2,"trial_type":"survey-map","trial_index":5,"time_elapsed":321108,"internal_node_id":"0.0-5.0","task_version":"prescreen-v0.3","browser_interactions":0},{"responses":{"Q07":"1","Q08":"4","Q09":"2"},"rt":28809.900000000023,"radio_events":[10947.300000000047,20229.5,27593.699999999953],"key_events":[],"mouse_events":[10947.300000000047,19479.300000000047,20229.5,22158.699999999953,27593.699999999953,28805.900000000023],"survey":"map","page":3,"trial_type":"survey-map","trial_index":6,"time_elapsed":349923,"internal_node_id":"0.0-6.0","task_version":"prescreen-v0.3","browser_interactions":0},{"responses":{"Q10":"1","Q11":"2","Q12":"1","Q13":"1","Q16":"0","Q14":"2","Q15":"1"},"rt":73581.79999999993,"radio_events":[19191.699999999953,26293.399999999907,27751,34078,48207.79999999993,52720.29999999993,63628.69999999995,70980.79999999993,72200.69999999995],"key_events":[],"mouse_events":[5215.899999999907,11239.29999999993,19191.699999999953,26293.399999999907,27178,27751,34078,48207.79999999993,51898.59999999998,52720.29999999993,63628.69999999995,70980.79999999993,72200.69999999995,73575.3999999999],"survey":"map","page":4,"trial_type":"survey-map","trial_index":7,"time_elapsed":423512,"internal_node_id":"0.0-7.0","task_version":"prescreen-v0.3","browser_interactions":0,"infrequency":0},{"view_history":[{"page_index":0,"viewing_time":4187.400000000023},{"page_index":1,"viewing_time":4901.20000000007}],"rt":9089.70000000007,"trial_type":"instructions","trial_index":8,"time_elapsed":432607,"internal_node_id":"0.0-8.0","task_version":"prescreen-v0.3"},{"responses":{"01":"Yes","01_ages_5":"5","01_ages_6":"6","01_ages_7":"7","01_ages_8":"8","01_ages_9":"9","01_ages_10":"10","01_ages_11":"11","01_ages_12":"12","01_ages_13":"13","01_ages_14":"14","01_ages_15":"15","01_ages_16":"16","01_ages_17":"17","01_ages_18":"18","02":"No","03":"Yes","03_ages_5":"5","03_ages_6":"6","04":"Yes","04_ages_5":"5","04_ages_6":"6","04_ages_7":"7","04_ages_8":"8","04_ages_9":"9","04_ages_10":"10","05":"No","06":"Yes","06_ages_10":"10"},"rt":92228.20000000001,"item_order":[0,1,2,3,4,5],"radio_events":[14619.100000000093,39112.10000000009,45802,57897.70000000007,64992.80000000005,71258.70000000007,77490.90000000002],"checkbox_events":[18575.300000000047,19057.900000000023,19556.20000000007,20078.800000000047,20567.70000000007,21040,22585.600000000093,23468,24053.300000000047,24550.900000000023,25056.400000000023,26178.900000000023,26632.5,27209.800000000047,47767.30000000005,52004.60000000009,59234.70000000007,59681.80000000005,60166,60649.70000000007,61140,61596.90000000002,83603],"key_events":[],"mouse_events":[0.40000000002328306,14619.100000000093,18575.300000000047,19057.900000000023,19556.20000000007,20078.800000000047,20567.70000000007,21040,21602,22585.600000000093,23468,24053.300000000047,24550.900000000023,25056.400000000023,25552.800000000047,26178.900000000023,26632.5,27209.800000000047,28195.300000000047,39112.10000000009,44790.10000000009,45802,47767.30000000005,51220.60000000009,52004.60000000009,57897.70000000007,59234.70000000007,59681.80000000005,60166,60649.70000000007,61140,61596.90000000002,64992.80000000005,71258.70000000007,77490.90000000002,83603,92216.20000000001],"honeypot":0,"survey":"mace","page":1,"trial_type":"survey-mace","trial_index":9,"time_elapsed":524842,"internal_node_id":"0.0-9.0","task_version":"prescreen-v0.3","browser_interactions":0},{"responses":{"01":"No","02":"No","03":"Yes","03_ages_4":"4","03_ages_5":"5","03_ages_6":"6","04":"No","05":"Yes","05_ages_5":"5","05_ages_6":"6","06":"No","07":"No","08":"No"},"rt":179975,"item_order":[0,1,2,3,4,5,6,7],"radio_events":[5349.5,13246.5,144804.5,155376.8999999999,163198.59999999986,167921.19999999995,171256.3999999999,172170.80000000005],"checkbox_events":[147637.80000000005,148104.80000000005,149091.5,149746.3999999999,151028,164967.69999999995,165487.69999999995],"key_events":[],"mouse_events":[5349.5,13246.5,143801.80000000005,144804.5,147637.80000000005,148104.80000000005,148578.09999999986,149091.5,149746.3999999999,151028,155376.8999999999,163198.59999999986,164263.69999999995,164967.69999999995,165487.69999999995,167921.19999999995,169744.09999999986,171256.3999999999,172170.80000000005,172715.59999999986,179864.59999999986],"honeypot":0,"survey":"mace","page":2,"trial_type":"survey-mace","trial_index":10,"time_elapsed":704892,"internal_node_id":"0.0-10.0","task_version":"prescreen-v0.3","browser_interactions":4},{"responses":{"01":"No","02":"No","03":"No","04":"No"},"rt":12475.800000000047,"item_order":[0,1,2,3],"radio_events":[4860.200000000186,7783.90000000014,9029.600000000093,10577.800000000047],"checkbox_events":[],"key_events":[],"mouse_events":[4860.200000000186,7783.90000000014,9029.600000000093,10577.800000000047,12467.700000000186],"honeypot":0,"survey":"mace","page":3,"trial_type":"survey-mace","trial_index":11,"time_elapsed":717388,"internal_node_id":"0.0-11.0","task_version":"prescreen-v0.3","browser_interactions":0},{"responses":{"01":"No","02":"No"},"rt":13502.199999999953,"item_order":[0,1],"radio_events":[5092.59999999986,6192.800000000047],"checkbox_events":[],"key_events":[],"mouse_events":[5092.59999999986,6192.800000000047,13498.399999999907],"honeypot":0,"survey":"mace","page":4,"trial_type":"survey-mace","trial_index":12,"time_elapsed":730896,"internal_node_id":"0.0-12.0","task_version":"prescreen-v0.3","browser_interactions":0},{"responses":{"01":"Yes","01_ages_5":"5","02":"No","03":"No","04":"No","05":"No"},"rt":121331.6000000001,"item_order":[0,1,2,3,4],"radio_events":[78400.40000000014,88774.00000000023,94027.30000000005,96763.90000000014,114092.80000000005],"checkbox_events":[84061.20000000019],"key_events":[],"mouse_events":[78400.40000000014,84061.20000000019,88774.00000000023,93357.90000000014,94027.30000000005,96763.90000000014,114092.80000000005,121319.1000000001],"honeypot":0,"survey":"mace","page":5,"trial_type":"survey-mace","trial_index":13,"time_elapsed":852235,"internal_node_id":"0.0-13.0","task_version":"prescreen-v0.3","browser_interactions":8},{"responses":{"01":"No","02":"No","03":"No","04":"No","05":"No"},"rt":23589.199999999953,"item_order":[0,1,2,3,4],"radio_events":[8628.09999999986,13839.800000000047,16796.399999999907,18729.899999999907,21137.800000000047],"checkbox_events":[],"key_events":[],"mouse_events":[8628.09999999986,13839.800000000047,16796.399999999907,18729.899999999907,21137.800000000047,23578.899999999907],"honeypot":0,"survey":"mace","page":6,"trial_type":"survey-mace","trial_index":14,"time_elapsed":875832,"internal_node_id":"0.0-14.0","task_version":"prescreen-v0.3","browser_interactions":0},{"responses":{"01":"No","02":"No","03":"Yes","03_ages_9":"9","04":"No","05":"No","06":"No","07":"No"},"rt":30508.600000000093,"item_order":[0,1,2,3,4,5,6],"radio_events":[7865.600000000093,9094.90000000014,13868,23225.5,26261.90000000014,27914.800000000047,29359.90000000014],"checkbox_events":[15317,17167.300000000047,18447.90000000014,20389.90000000014,21040.40000000014],"key_events":[],"mouse_events":[6565.699999999953,7865.600000000093,9094.90000000014,13868,15317,17167.300000000047,18447.90000000014,20389.90000000014,21040.40000000014,23225.5,26261.90000000014,27914.800000000047,29359.90000000014,30495.90000000014],"honeypot":0,"survey":"mace","page":7,"trial_type":"survey-mace","trial_index":15,"time_elapsed":906349,"internal_node_id":"0.0-15.0","task_version":"prescreen-v0.3","browser_interactions":0},{"responses":{"01":"No","02":"Yes","02_ages_6":"6","02_ages_7":"7","02_ages_8":"8","02_ages_9":"9","02_ages_10":"10","02_ages_11":"11","02_ages_12":"12","02_ages_13":"13","03":"Yes","03_ages_6":"6","03_ages_7":"7","03_ages_8":"8","03_ages_9":"9","03_ages_10":"10","03_ages_11":"11","03_ages_12":"12","03_ages_13":"13","03_ages_14":"14","03_ages_15":"15","03_ages_16":"16","03_ages_17":"17","03_ages_18":"18","04":"No"},"rt":60097.30000000005,"item_order":[0,1,2,3],"radio_events":[14128,20037.800000000047,30998.59999999986,47621.39999999991],"checkbox_events":[21951.199999999953,23177.5,23707.59999999986,24224.09999999986,25412.09999999986,25886.399999999907,26398.59999999986,27114.09999999986,32994.30000000005,33491.69999999995,33989.39999999991,34453.5,34936.39999999991,36647.39999999991,37104.09999999986,38172.59999999986,38625,39593.80000000005,40042.69999999995,40524.39999999991,41088.80000000005,55314.89999999991,56556.89999999991],"key_events":[],"mouse_events":[14128,20037.800000000047,21951.199999999953,22552.199999999953,23177.5,23707.59999999986,24224.09999999986,24739.59999999986,25412.09999999986,25886.399999999907,26398.59999999986,27114.09999999986,30998.59999999986,32994.30000000005,33491.69999999995,33989.39999999991,34453.5,34936.39999999991,35449.89999999991,36050.39999999991,36647.39999999991,37104.09999999986,37604.5,38172.59999999986,38625,39144.89999999991,39593.80000000005,40042.69999999995,40524.39999999991,41088.80000000005,47621.39999999991,55314.89999999991,56556.89999999991,60086.5],"honeypot":0,"survey":"mace","page":8,"trial_type":"survey-mace","trial_index":16,"time_elapsed":966453,"internal_node_id":"0.0-16.0","task_version":"prescreen-v0.3","browser_interactions":0},{"responses":{"01":"Yes","01_ages_1":"1","01_ages_2":"2","01_ages_3":"3","01_ages_4":"4","02":"No","03":"Yes","03_ages_1":"1","03_ages_2":"2","03_ages_3":"3","03_ages_4":"4","03_ages_5":"5","03_ages_6":"6","03_ages_7":"7","03_ages_8":"8","03_ages_9":"9","03_ages_10":"10","03_ages_11":"11","03_ages_12":"12","03_ages_13":"13","03_ages_14":"14","03_ages_15":"15","03_ages_16":"16","03_ages_17":"17","04":"Yes","04_ages_1":"1","04_ages_2":"2","04_ages_3":"3","04_ages_4":"4","04_ages_5":"5","04_ages_6":"6","04_ages_7":"7","04_ages_8":"8","04_ages_9":"9","04_ages_10":"10","04_ages_11":"11","04_ages_12":"12","04_ages_13":"13","04_ages_14":"14","04_ages_15":"15","04_ages_16":"16","04_ages_17":"17"},"rt":84699.30000000005,"item_order":[0,1,2,3],"radio_events":[3201.100000000093,6840,14393.40000000014,39320.30000000005,70113.70000000019],"checkbox_events":[9121.200000000186,9646.300000000047,10152.800000000047,10664.90000000014,41908,42530.30000000005,43160.200000000186,44050.30000000005,44897.80000000005,45338.90000000014,46318.30000000005,47366.80000000005,47800.90000000014,48278.90000000014,49194.30000000005,49676.5,50148.30000000005,50654.80000000005,51705.30000000005,52133,52577.5,71430.30000000005,71830.70000000019,72369,73432.30000000005,74098.40000000014,74627.6000000001,75093.30000000005,75557.5,76625.6000000001,77125.40000000014,77632.6000000001,78130.20000000019,78699.20000000019,79196.70000000019,79711,81399.1000000001,81898.80000000005],"key_events":[],"mouse_events":[3201.100000000093,6840,9121.200000000186,9646.300000000047,10152.800000000047,10664.90000000014,14393.40000000014,38783.200000000186,39320.30000000005,41908,42530.30000000005,43160.200000000186,44050.30000000005,44897.80000000005,45338.90000000014,46318.30000000005,46725.90000000014,47366.80000000005,47800.90000000014,48278.90000000014,49194.30000000005,49676.5,50148.30000000005,50654.80000000005,51152.80000000005,51705.30000000005,52133,52577.5,64743.10000000009,70113.70000000019,71430.30000000005,71830.70000000019,72369,72870.5,73432.30000000005,74098.40000000014,74627.6000000001,75093.30000000005,75557.5,76039,76625.6000000001,77125.40000000014,77632.6000000001,78130.20000000019,78699.20000000019,79196.70000000019,79711,80207.80000000005,81399.1000000001,81898.80000000005,84691.5],"honeypot":0,"survey":"mace","page":9,"trial_type":"survey-mace","trial_index":17,"time_elapsed":1051159,"internal_node_id":"0.0-17.0","task_version":"prescreen-v0.3","browser_interactions":2},{"responses":{"01":"No","02":"No","03":"Yes","03_ages_5":"5","03_ages_6":"6","04":"No","05":"No","06":"Yes","06_ages_17":"17","07":"Yes","07_ages_5":"5","07_ages_6":"6","07_ages_7":"7","08":"No"},"rt":42611.69999999995,"item_order":[0,1,2,3,4,5,6,7],"radio_events":[4373.399999999907,6526.800000000047,10920.300000000047,19473.5,24312,26753.199999999953,31901,33341.19999999995,41456.19999999995],"checkbox_events":[14374.399999999907,14850.09999999986,28454.399999999907,36060.19999999995,36581.80000000005,37912.09999999986],"key_events":[],"mouse_events":[4373.399999999907,6526.800000000047,10920.300000000047,13724.800000000047,14374.399999999907,14850.09999999986,19473.5,24312,26753.199999999953,28454.399999999907,31901,33341.19999999995,36060.19999999995,36581.80000000005,37912.09999999986,41456.19999999995,42598.69999999995],"honeypot":0,"survey":"mace","page":10,"trial_type":"survey-mace","trial_index":18,"time_elapsed":1093783,"internal_node_id":"0.0-18.0","task_version":"prescreen-v0.3","browser_interactions":0,"instructed":0},{"rt":5073.800000000047,"trial_type":"mental-health-alert","trial_index":19,"time_elapsed":1098863,"internal_node_id":"0.0-19.0","task_version":"prescreen-v0.3","interactions":"[{\"event\":\"blur\",\"trial\":10,\"time\":539769},{\"event\":\"focus\",\"trial\":10,\"time\":665314},{\"event\":\"blur\",\"trial\":10,\"time\":681807},{\"event\":\"focus\",\"trial\":10,\"time\":683133},{\"event\":\"blur\",\"trial\":13,\"time\":733264},{\"event\":\"focus\",\"trial\":13,\"time\":760803},{\"event\":\"blur\",\"trial\":13,\"time\":779482},{\"event\":\"focus\",\"trial\":13,\"time\":806629},{\"event\":\"blur\",\"trial\":13,\"time\":828918},{\"event\":\"focus\",\"trial\":13,\"time\":842752},{\"event\":\"blur\",\"trial\":13,\"time\":848678},{\"event\":\"focus\",\"trial\":13,\"time\":849707},{\"event\":\"blur\",\"trial\":17,\"time\":1022904},{\"event\":\"focus\",\"trial\":17,\"time\":1027916}]"}]