[{"view_history":[{"page_index":0,"viewing_time":3421.2000000476837},{"page_index":1,"viewing_time":4655.400000095367},{"page_index":2,"viewing_time":3743.899999856949},{"page_index":3,"viewing_time":1560.8000001907349}],"rt":13382.700000047684,"trial_type":"instructions","trial_index":0,"time_elapsed":13410,"internal_node_id":"0.0-0.0","task_version":"prescreen-v0.3"},{"rt":19018,"responses":{"age":"21","gender-categorical":"Female","gender-free-response":"","ethnicity":"Not Hispanic or Latino","race":["Black or African American","White"],"education":"Some college"},"trial_type":"survey-demo","trial_index":1,"time_elapsed":32450,"internal_node_id":"0.0-1.0","task_version":"prescreen-v0.3"},{"responses":{"Q10":"0","Q16":"2","Q11":"3","Q02":"3","Q17":"1","Q01":"0","Q21":"3","Q18":"2","Q04":"2","Q09":"3","Q05":"0","Q15":"3","Q19":"1","Q13":"2","Q06":"2","Q07":"2","Q14":"1","Q20":"2","Q12":"3","Q08":"3","Q03":"1"},"rt":148894.79999995232,"item_order":[9,15,10,1,16,0,20,17,3,8,4,14,18,12,5,6,13,19,11,7,2],"radio_events":[14763.199999809265,21324,24873.199999809265,28661.199999809265,32318.799999952316,35458.39999985695,37288.39999985695,37403.799999952316,39449.699999809265,49221.89999985695,52704.89999985695,54402,55650.59999990463,63851,66211.09999990463,74513.89999985695,80661.59999990463,86901.29999995232,87909.79999995232,91550.69999980927,102825.69999980927,103984.89999985695,105829.39999985695,110319.39999985695,111200.79999995232,118861.79999995232,126219,132091.29999995232,139053.89999985695,145151.19999980927,147843.69999980927],"key_events":[],"mouse_events":[14377,14763.199999809265,15542.299999952316,20611,21324,24873.199999809265,28661.199999809265,32318.799999952316,35458.39999985695,37288.39999985695,37403.799999952316,39449.699999809265,48370.199999809265,49221.89999985695,52704.89999985695,54402,55650.59999990463,61794.199999809265,62949.299999952316,63851,66211.09999990463,71453,72109,73298.79999995232,74513.89999985695,80661.59999990463,86901.29999995232,87909.79999995232,91550.69999980927,102825.69999980927,103984.89999985695,105829.39999985695,110319.39999985695,111200.79999995232,115230.59999990463,115450.09999990463,117826.89999985695,117956,118861.79999995232,126219,132091.29999995232,134410.69999980927,137486.39999985695,138241.89999985695,139053.89999985695,139855.5,140474.59999990463,145151.19999980927,147470,147843.69999980927,148891.39999985695],"straightlining":0.3333333333333333,"zigzagging":0.55,"honeypot":0,"survey":"sns","trial_type":"survey-template","trial_index":2,"time_elapsed":181352,"internal_node_id":"0.0-2.0","task_version":"prescreen-v0.3","browser_interactions":0,"infrequency":0},{"responses":{"Q10":"0","Q08":"2","Q05":"3","Q12":"0","Q01":"3","Q03":"3","Q13":"0","Q06":"3","Q02":"3","Q09":"1","Q11":"3","Q04":"3","Q07":"3"},"rt":54629.299999952316,"item_order":[9,7,4,11,0,2,12,5,1,8,10,3,6],"radio_events":[6993,11209.5,14527.5,19814.799999952316,22928.5,27080.799999952316,29522.799999952316,34929.5,38755.299999952316,42424.40000009537,45857.799999952316,49605,50798.5,51807.299999952316,54118],"key_events":[],"mouse_events":[6993,11209.5,14527.5,19814.799999952316,22928.5,27080.799999952316,29522.799999952316,34929.5,38156.59999990463,38755.299999952316,42424.40000009537,45857.799999952316,49605,50798.5,51399.299999952316,51807.299999952316,54118,54627.59999990463],"straightlining":0.6153846153846154,"zigzagging":0.4166666666666667,"honeypot":0,"survey":"bisbas","trial_type":"survey-template","trial_index":3,"time_elapsed":235991,"internal_node_id":"0.0-3.0","task_version":"prescreen-v0.3","browser_interactions":0,"infrequency":0},{"responses":{"Q01":"2","Q02":"1","Q03":"0"},"rt":20201.299999952316,"radio_events":[7098.200000047684,12075.100000143051,18846.900000095367],"key_events":[],"mouse_events":[7098.200000047684,12075.100000143051,18846.900000095367,20200.400000095367],"survey":"map","page":1,"trial_type":"survey-map","trial_index":4,"time_elapsed":256198,"internal_node_id":"0.0-4.0","task_version":"prescreen-v0.3","browser_interactions":0},{"responses":{"Q04":"0","Q05":"0","Q06":"1"},"rt":11488.200000047684,"radio_events":[3433.5,7203.799999952316,10808.400000095367],"key_events":[],"mouse_events":[3433.5,6340.5,7203.799999952316,10808.400000095367,11487.100000143051],"survey":"map","page":2,"trial_type":"survey-map","trial_index":5,"time_elapsed":267691,"internal_node_id":"0.0-5.0","task_version":"prescreen-v0.3","browser_interactions":0},{"responses":{"Q07":"1","Q08":"4","Q09":"0"},"rt":22085,"radio_events":[6456.299999952316,14622.900000095367,15061.900000095367,17392.099999904633,21275.299999952316],"key_events":[],"mouse_events":[6456.299999952316,14622.900000095367,15061.900000095367,17392.099999904633,21275.299999952316,22084.400000095367],"survey":"map","page":3,"trial_type":"survey-map","trial_index":6,"time_elapsed":289781,"internal_node_id":"0.0-6.0","task_version":"prescreen-v0.3","browser_interactions":0},{"responses":{"Q10":"1","Q11":"2","Q12":"0","Q13":"2","Q16":"0","Q14":"1","Q15":"0"},"rt":54413.59999990463,"radio_events":[5230.199999809265,9496.5,11575.899999856949,16313.5,27578.5,42855.09999990463,48324.699999809265,53360.799999952316],"key_events":[],"mouse_events":[5230.199999809265,9496.5,11575.899999856949,16313.5,27578.5,42855.09999990463,47786.39999985695,48324.699999809265,53360.799999952316,54412.09999990463],"survey":"map","page":4,"trial_type":"survey-map","trial_index":7,"time_elapsed":344203,"internal_node_id":"0.0-7.0","task_version":"prescreen-v0.3","browser_interactions":0,"infrequency":0},{"view_history":[{"page_index":0,"viewing_time":2487.2999999523163},{"page_index":1,"viewing_time":4594.900000095367}],"rt":7083,"trial_type":"instructions","trial_index":8,"time_elapsed":351289,"internal_node_id":"0.0-8.0","task_version":"prescreen-v0.3"},{"responses":{"01":"Yes","01_ages_7":"7","01_ages_8":"8","01_ages_9":"9","01_ages_10":"10","01_ages_11":"11","01_ages_12":"12","01_ages_13":"13","01_ages_14":"14","01_ages_15":"15","01_ages_16":"16","01_ages_17":"17","01_ages_18":"18","02":"Yes","02_ages_5":"5","02_ages_6":"6","02_ages_7":"7","02_ages_8":"8","02_ages_9":"9","02_ages_10":"10","02_ages_11":"11","02_ages_12":"12","02_ages_13":"13","02_ages_14":"14","02_ages_15":"15","02_ages_16":"16","02_ages_17":"17","02_ages_18":"18","03":"Yes","03_ages_7":"7","03_ages_8":"8","03_ages_9":"9","03_ages_10":"10","03_ages_11":"11","03_ages_12":"12","03_ages_13":"13","03_ages_14":"14","03_ages_15":"15","03_ages_16":"16","03_ages_17":"17","03_ages_18":"18","04":"Yes","04_ages_8":"8","04_ages_9":"9","04_ages_10":"10","04_ages_11":"11","04_ages_12":"12","04_ages_13":"13","04_ages_14":"14","05":"No","06":"Yes","06_ages_4":"4","06_ages_5":"5","06_ages_6":"6","06_ages_7":"7","06_ages_8":"8","06_ages_9":"9","06_ages_10":"10","06_ages_11":"11","06_ages_12":"12","06_ages_13":"13"},"rt":74974.20000004768,"item_order":[0,1,2,3,4,5],"radio_events":[15475.399999856949,30858.099999904633,41564.89999985695,48343.299999952316,60907.5,66449.20000004768],"checkbox_events":[23320.700000047684,23869.099999904633,24368.89999985695,24817.89999985695,25237.200000047684,25637.299999952316,26779.39999985695,26968.89999985695,27359.200000047684,27758.599999904633,28098.099999904633,28497.39999985695,32150.700000047684,32738.5,33207.39999985695,33608,34017.5,34457,34856.700000047684,35335.89999985695,35755.59999990463,36204.59999990463,36574.799999952316,36964.5,37343.799999952316,37733.09999990463,42878.700000047684,43217.39999985695,43566.799999952316,43956.700000047684,44318.89999985695,44675.799999952316,45045.59999990463,45454.700000047684,45844.5,46223.59999990463,46553.89999985695,46843.299999952316,49112,49301.89999985695,49970.299999952316,50349.799999952316,50899.5,51409,51749.09999990463,52571.59999990463,57064.39999985695,69181.29999995232,69939.20000004768,70269.79999995232,70659.20000004768,70908.5,71658.20000004768,71928.09999990463,72367.29999995232,73449.5,73799.20000004768],"key_events":[],"mouse_events":[0.2999999523162842,15475.399999856949,23320.700000047684,23869.099999904633,24368.89999985695,24817.89999985695,25237.200000047684,25637.299999952316,26779.39999985695,26968.89999985695,27359.200000047684,27758.599999904633,28098.099999904633,28497.39999985695,30858.099999904633,32150.700000047684,32738.5,33207.39999985695,33608,34017.5,34457,34856.700000047684,35335.89999985695,35755.59999990463,36204.59999990463,36574.799999952316,36964.5,37343.799999952316,37733.09999990463,41564.89999985695,42878.700000047684,43217.39999985695,43566.799999952316,43956.700000047684,44318.89999985695,44675.799999952316,45045.59999990463,45454.700000047684,45844.5,46223.59999990463,46553.89999985695,46843.299999952316,48343.299999952316,49112,49301.89999985695,49970.299999952316,50349.799999952316,50899.5,51409,51749.09999990463,52571.59999990463,57064.39999985695,60907.5,66449.20000004768,69181.29999995232,69939.20000004768,70269.79999995232,70659.20000004768,70908.5,71658.20000004768,71928.09999990463,72367.29999995232,73449.5,73799.20000004768,74969.70000004768],"honeypot":0,"survey":"mace","page":1,"trial_type":"survey-mace","trial_index":9,"time_elapsed":426274,"internal_node_id":"0.0-9.0","task_version":"prescreen-v0.3","browser_interactions":0},{"responses":{"01":"Yes","01_ages_5":"5","01_ages_6":"6","01_ages_7":"7","01_ages_8":"8","01_ages_9":"9","01_ages_10":"10","01_ages_11":"11","02":"No","03":"Yes","03_ages_3":"3","03_ages_4":"4","03_ages_5":"5","03_ages_6":"6","03_ages_7":"7","03_ages_8":"8","03_ages_9":"9","03_ages_10":"10","03_ages_11":"11","03_ages_12":"12","04":"Yes","04_ages_3":"3","04_ages_4":"4","04_ages_5":"5","04_ages_6":"6","04_ages_7":"7","04_ages_8":"8","04_ages_9":"9","04_ages_10":"10","05":"Yes","05_ages_6":"6","05_ages_7":"7","05_ages_8":"8","05_ages_9":"9","05_ages_10":"10","05_ages_11":"11","06":"No","07":"No","08":"No"},"rt":50974.90000009537,"item_order":[0,1,2,3,4,5,6,7],"radio_events":[2855.5,11322.600000143051,13594.200000047684,24491.10000014305,36369.90000009537,46006.300000190735,47766.40000009537,50137.60000014305],"checkbox_events":[4375.300000190735,4843.900000095367,5342.800000190735,5843,6242.600000143051,6632,7150.5,14796.800000190735,15065.400000095367,15455.100000143051,15764.5,16114,16513.60000014305,16823.10000014305,17768.400000095367,18700.400000095367,19060.200000047684,25495.300000190735,25784.900000095367,26134.700000047684,26494.10000014305,28246.60000014305,29019,29289.5,29649.300000190735,30420.200000047684,30668.5,32948.700000047684,33318.90000009537,37202.800000190735,37491.10000014305,37930.5,38191.200000047684,38619.300000190735,38940.200000047684,39389.200000047684,39948.90000009537,40871.40000009537,41131.90000009537,41320.200000047684,42152.5,42712.700000047684,43837.40000009537],"key_events":[],"mouse_events":[2855.5,4375.300000190735,4843.900000095367,5342.800000190735,5843,6242.600000143051,6632,7150.5,11322.600000143051,13594.200000047684,14796.800000190735,15065.400000095367,15455.100000143051,15764.5,16114,16513.60000014305,16823.10000014305,17768.400000095367,18700.400000095367,19060.200000047684,24491.10000014305,25495.300000190735,25784.900000095367,26134.700000047684,26494.10000014305,28246.60000014305,29019,29289.5,29649.300000190735,30420.200000047684,30668.5,32948.700000047684,33318.90000009537,36369.90000009537,37202.800000190735,37491.10000014305,37930.5,38191.200000047684,38619.300000190735,38940.200000047684,39389.200000047684,39948.90000009537,40871.40000009537,41131.90000009537,41320.200000047684,42152.5,42712.700000047684,43837.40000009537,46006.300000190735,47766.40000009537,50137.60000014305,50969.40000009537],"honeypot":0,"survey":"mace","page":2,"trial_type":"survey-mace","trial_index":10,"time_elapsed":477261,"internal_node_id":"0.0-10.0","task_version":"prescreen-v0.3","browser_interactions":0},{"responses":{"01":"Yes","01_ages_3":"3","01_ages_4":"4","01_ages_5":"5","01_ages_6":"6","01_ages_7":"7","01_ages_8":"8","01_ages_9":"9","01_ages_10":"10","01_ages_11":"11","01_ages_12":"12","01_ages_13":"13","01_ages_14":"14","01_ages_15":"15","01_ages_16":"16","01_ages_17":"17","01_ages_18":"18","02":"No","03":"No","04":"No"},"rt":20728.400000095367,"item_order":[0,1,2,3],"radio_events":[4950.100000143051,16982.900000095367,18523.900000095367,20364.700000047684],"checkbox_events":[6381.299999952316,7415,8023.900000095367,8474.200000047684,8793.900000095367,9223.200000047684,9623,9902.299999952316,10201.799999952316,10621.299999952316,11001.200000047684,11290.900000095367,11700.799999952316,12109.900000095367,12759.700000047684,13128.900000095367],"key_events":[],"mouse_events":[4950.100000143051,6381.299999952316,7415,8023.900000095367,8474.200000047684,8793.900000095367,9223.200000047684,9623,9902.299999952316,10201.799999952316,10621.299999952316,11001.200000047684,11290.900000095367,11700.799999952316,12109.900000095367,12759.700000047684,13128.900000095367,16982.900000095367,18523.900000095367,19737.700000047684,20364.700000047684,20725.60000014305],"honeypot":0,"survey":"mace","page":3,"trial_type":"survey-mace","trial_index":11,"time_elapsed":497996,"internal_node_id":"0.0-11.0","task_version":"prescreen-v0.3","browser_interactions":0},{"responses":{"01":"No","02":"No"},"rt":6284.100000143051,"item_order":[0,1],"radio_events":[2848.9000000953674,4829.200000047684],"checkbox_events":[],"key_events":[],"mouse_events":[2848.9000000953674,4829.200000047684,6282.600000143051],"honeypot":0,"survey":"mace","page":4,"trial_type":"survey-mace","trial_index":12,"time_elapsed":504285,"internal_node_id":"0.0-12.0","task_version":"prescreen-v0.3","browser_interactions":0},{"responses":{"01":"Yes","01_ages_3":"3","01_ages_4":"4","01_ages_5":"5","01_ages_6":"6","01_ages_7":"7","01_ages_8":"8","01_ages_9":"9","01_ages_10":"10","01_ages_11":"11","01_ages_12":"12","01_ages_13":"13","01_ages_14":"14","01_ages_15":"15","01_ages_16":"16","01_ages_17":"17","01_ages_18":"18","02":"No","03":"No","04":"Yes","04_ages_3":"3","04_ages_4":"4","04_ages_5":"5","04_ages_6":"6","04_ages_7":"7","04_ages_8":"8","04_ages_9":"9","04_ages_10":"10","04_ages_11":"11","04_ages_12":"12","04_ages_13":"13","04_ages_14":"14","04_ages_15":"15","04_ages_16":"16","04_ages_17":"17","04_ages_18":"18","05":"No"},"rt":35078.800000190735,"item_order":[0,1,2,3,4],"radio_events":[5429.600000143051,15949.200000047684,20364.10000014305,23382.10000014305,34585.40000009537],"checkbox_events":[6523,6881.100000143051,7270.900000095367,7660.400000095367,8060,8428.800000190735,8739.300000190735,9069,9428.600000143051,9947.5,10197.5,10527,10887.700000047684,11196.900000095367,11646.400000095367,11955.700000047684,24973.300000190735,25152.700000047684,25611.800000190735,26171.800000190735,26661.10000014305,27070.900000095367,27430.400000095367,27720.400000095367,28279.5,28738.900000095367,29207.300000190735,29488,29937.900000095367,30437.400000095367,30796.800000190735,31206.700000047684],"key_events":[],"mouse_events":[5429.600000143051,6523,6881.100000143051,7270.900000095367,7660.400000095367,8060,8428.800000190735,8739.300000190735,9069,9428.600000143051,9947.5,10197.5,10527,10887.700000047684,11196.900000095367,11646.400000095367,11955.700000047684,15949.200000047684,20364.10000014305,23382.10000014305,24973.300000190735,25152.700000047684,25611.800000190735,26171.800000190735,26661.10000014305,27070.900000095367,27430.400000095367,27720.400000095367,28279.5,28738.900000095367,29207.300000190735,29488,29937.900000095367,30437.400000095367,30796.800000190735,31206.700000047684,34585.40000009537,35075],"honeypot":0,"survey":"mace","page":5,"trial_type":"survey-mace","trial_index":13,"time_elapsed":539372,"internal_node_id":"0.0-13.0","task_version":"prescreen-v0.3","browser_interactions":0},{"responses":{"01":"Yes","01_ages_8":"8","01_ages_9":"9","01_ages_10":"10","01_ages_11":"11","02":"Yes","02_ages_10":"10","02_ages_11":"11","02_ages_12":"12","02_ages_13":"13","02_ages_14":"14","02_ages_15":"15","03":"Yes","03_ages_10":"10","03_ages_11":"11","03_ages_12":"12","03_ages_13":"13","03_ages_14":"14","03_ages_15":"15","04":"Yes","04_ages_8":"8","04_ages_9":"9","04_ages_10":"10","04_ages_11":"11","04_ages_12":"12","04_ages_13":"13","04_ages_14":"14","05":"No"},"rt":34889.200000047684,"item_order":[0,1,2,3,4],"radio_events":[7219.299999952316,14922.700000047684,22604.900000095367,28135.700000047684,34435.59999990463],"checkbox_events":[8949.599999904633,9338.099999904633,9677.900000095367,10177.099999904633,16454.400000095367,16813.599999904633,17352.599999904633,17722,18072.299999952316,18531.700000047684,23656.799999952316,23916.299999952316,24196.400000095367,24505.799999952316,25115.099999904633,27665,29518.5,29808.099999904633,30197.900000095367,30576.799999952316,30956.799999952316,31306.099999904633,31685.799999952316],"key_events":[],"mouse_events":[7219.299999952316,8949.599999904633,9338.099999904633,9677.900000095367,10177.099999904633,14922.700000047684,16454.400000095367,16813.599999904633,17352.599999904633,17722,18072.299999952316,18531.700000047684,22604.900000095367,23656.799999952316,23916.299999952316,24196.400000095367,24505.799999952316,25115.099999904633,27665,28135.700000047684,29518.5,29808.099999904633,30197.900000095367,30576.799999952316,30956.799999952316,31306.099999904633,31685.799999952316,34435.59999990463,34885.799999952316],"honeypot":0,"survey":"mace","page":6,"trial_type":"survey-mace","trial_index":14,"time_elapsed":574273,"internal_node_id":"0.0-14.0","task_version":"prescreen-v0.3","browser_interactions":0},{"responses":{"01":"No","02":"Yes","02_ages_8":"8","02_ages_9":"9","02_ages_10":"10","02_ages_11":"11","03":"No","04":"No","05":"No","06":"No","07":"No"},"rt":22703.699999809265,"item_order":[0,1,2,3,4,5,6],"radio_events":[3635.2999999523163,5945.699999809265,9996.299999952316,11579.899999856949,13521.699999809265,19620.199999809265,22269.099999904633],"checkbox_events":[7059.299999952316,7238.199999809265,7457.399999856949,7777.899999856949],"key_events":[],"mouse_events":[3635.2999999523163,5945.699999809265,7059.299999952316,7238.199999809265,7457.399999856949,7777.899999856949,8507.399999856949,9996.299999952316,11579.899999856949,13521.699999809265,19620.199999809265,22269.099999904633,22698.799999952316],"honeypot":0,"survey":"mace","page":7,"trial_type":"survey-mace","trial_index":15,"time_elapsed":596987,"internal_node_id":"0.0-15.0","task_version":"prescreen-v0.3","browser_interactions":0},{"responses":{"01":"Yes","01_ages_4":"4","01_ages_5":"5","01_ages_6":"6","01_ages_7":"7","01_ages_8":"8","01_ages_9":"9","01_ages_10":"10","01_ages_11":"11","02":"Yes","02_ages_1":"1","02_ages_2":"2","02_ages_3":"3","02_ages_4":"4","02_ages_5":"5","02_ages_6":"6","02_ages_7":"7","02_ages_8":"8","02_ages_9":"9","02_ages_10":"10","02_ages_11":"11","02_ages_12":"12","02_ages_13":"13","02_ages_14":"14","02_ages_15":"15","02_ages_16":"16","02_ages_17":"17","02_ages_18":"18","03":"No","04":"No"},"rt":34751.799999952316,"item_order":[0,1,2,3],"radio_events":[7904.899999856949,18235.699999809265,31704,34489.299999952316],"checkbox_events":[9856.099999904633,10225,10564.699999809265,10884.399999856949,11234.199999809265,11863.299999952316,12856,13115.899999856949,13505.199999809265,15245.099999904633,19267.799999952316,19436.799999952316,19946.39999985695,20365.699999809265,20675.39999985695,21155.199999809265,21544.39999985695,21804.299999952316,22144.099999904633,22513.699999809265,22915.299999952316,23292.699999809265,23712.699999809265,24112.199999809265,24381.599999904633,24851.299999952316,25180.699999809265,25510.599999904633],"key_events":[],"mouse_events":[7904.899999856949,9856.099999904633,10225,10564.699999809265,10884.399999856949,11234.199999809265,11863.299999952316,12856,13115.899999856949,13505.199999809265,15245.099999904633,18235.699999809265,19267.799999952316,19436.799999952316,19946.39999985695,20365.699999809265,20675.39999985695,21155.199999809265,21544.39999985695,21804.299999952316,22144.099999904633,22513.699999809265,22915.299999952316,23292.699999809265,23712.699999809265,24112.199999809265,24381.599999904633,24851.299999952316,25180.699999809265,25510.599999904633,31704,34489.299999952316,34749.199999809265],"honeypot":0,"survey":"mace","page":8,"trial_type":"survey-mace","trial_index":16,"time_elapsed":631746,"internal_node_id":"0.0-16.0","task_version":"prescreen-v0.3","browser_interactions":0},{"responses":{"01":"Yes","01_ages_1":"1","01_ages_2":"2","01_ages_3":"3","01_ages_4":"4","01_ages_5":"5","01_ages_6":"6","01_ages_7":"7","01_ages_8":"8","01_ages_9":"9","01_ages_10":"10","01_ages_11":"11","01_ages_12":"12","01_ages_13":"13","01_ages_14":"14","02":"Yes","02_ages_1":"1","02_ages_2":"2","02_ages_3":"3","02_ages_4":"4","02_ages_5":"5","02_ages_6":"6","02_ages_7":"7","02_ages_8":"8","02_ages_9":"9","02_ages_10":"10","02_ages_11":"11","02_ages_12":"12","02_ages_13":"13","02_ages_14":"14","03":"Yes","03_ages_1":"1","03_ages_2":"2","03_ages_3":"3","03_ages_4":"4","03_ages_5":"5","03_ages_6":"6","03_ages_7":"7","03_ages_8":"8","03_ages_9":"9","03_ages_10":"10","03_ages_11":"11","03_ages_12":"12","03_ages_13":"13","03_ages_14":"14","04":"Yes","04_ages_1":"1","04_ages_2":"2","04_ages_3":"3","04_ages_4":"4","04_ages_5":"5","04_ages_6":"6","04_ages_7":"7","04_ages_8":"8","04_ages_9":"9","04_ages_10":"10","04_ages_11":"11","04_ages_12":"12","04_ages_13":"13","04_ages_14":"14","04_ages_15":"15","04_ages_16":"16","04_ages_17":"17","04_ages_18":"18"},"rt":42810.59999990463,"item_order":[0,1,2,3],"radio_events":[4024.0999999046326,14171.299999952316,22558.699999809265,33942.799999952316],"checkbox_events":[5247.899999856949,5447,5836.299999952316,6346,6735.5,7005.099999904633,7395,7744.299999952316,8204,8533.599999904633,8823.199999809265,9243.299999952316,9533.299999952316,9922.299999952316,14860.399999856949,15079.699999809265,15428.899999856949,15758.899999856949,16127.599999904633,16528.199999809265,16798.5,17227.099999904633,17647.099999904633,18016.89999985695,18466.599999904633,19678.099999904633,19838,20327.5,23747,24295.299999952316,24605,24995.199999809265,25344.5,25775.199999809265,26124.799999952316,26433,26733.799999952316,27003.39999985695,27283,27682.099999904633,27932.299999952316,28142.299999952316,35171.5,35350.299999952316,35700.5,35999.699999809265,36269.59999990463,36569.09999990463,36888.799999952316,37178.39999985695,37828.199999809265,38057.39999985695,38807,39027,39386.39999985695,39795.699999809265,40325.89999985695,40705.09999990463,41284.699999809265,42003.89999985695],"key_events":[],"mouse_events":[3582.5999999046326,4024.0999999046326,5247.899999856949,5447,5836.299999952316,6346,6735.5,7005.099999904633,7395,7744.299999952316,8204,8533.599999904633,8823.199999809265,9243.299999952316,9533.299999952316,9922.299999952316,14171.299999952316,14860.399999856949,15079.699999809265,15428.899999856949,15758.899999856949,16127.599999904633,16528.199999809265,16798.5,17227.099999904633,17647.099999904633,18016.89999985695,18466.599999904633,19678.099999904633,19838,20327.5,22558.699999809265,23747,24295.299999952316,24605,24995.199999809265,25344.5,25775.199999809265,26124.799999952316,26433,26733.799999952316,27003.39999985695,27283,27682.099999904633,27932.299999952316,28142.299999952316,33942.799999952316,35171.5,35350.299999952316,35700.5,35999.699999809265,36269.59999990463,36569.09999990463,36888.799999952316,37178.39999985695,37828.199999809265,38057.39999985695,38807,39027,39386.39999985695,39795.699999809265,40325.89999985695,40705.09999990463,41284.699999809265,42003.89999985695,42807.59999990463],"honeypot":0,"survey":"mace","page":9,"trial_type":"survey-mace","trial_index":17,"time_elapsed":674563,"internal_node_id":"0.0-17.0","task_version":"prescreen-v0.3","browser_interactions":0},{"responses":{"01":"Yes","01_ages_10":"10","01_ages_11":"11","01_ages_12":"12","01_ages_13":"13","01_ages_14":"14","02":"Yes","02_ages_10":"10","02_ages_11":"11","02_ages_12":"12","02_ages_13":"13","02_ages_14":"14","03":"Yes","03_ages_10":"10","03_ages_11":"11","03_ages_12":"12","03_ages_13":"13","03_ages_14":"14","03_ages_15":"15","03_ages_16":"16","03_ages_17":"17","03_ages_18":"18","04":"Yes","04_ages_1":"1","04_ages_2":"2","04_ages_3":"3","04_ages_4":"4","04_ages_5":"5","04_ages_6":"6","04_ages_7":"7","04_ages_8":"8","04_ages_9":"9","04_ages_10":"10","04_ages_11":"11","04_ages_12":"12","04_ages_13":"13","04_ages_14":"14","04_ages_15":"15","04_ages_16":"16","04_ages_17":"17","04_ages_18":"18","05":"Yes","05_ages_10":"10","05_ages_11":"11","05_ages_12":"12","05_ages_13":"13","05_ages_14":"14","05_ages_15":"15","05_ages_16":"16","05_ages_17":"17","05_ages_18":"18","06":"Yes","06_ages_17":"17","07":"Yes","07_ages_1":"1","07_ages_2":"2","07_ages_3":"3","07_ages_4":"4","07_ages_5":"5","07_ages_6":"6","07_ages_7":"7","07_ages_8":"8","07_ages_9":"9","08":"No"},"rt":55418,"item_order":[0,1,2,3,4,5,6,7],"radio_events":[2289,9251.400000095367,14056.400000095367,22560.799999952316,34156.40000009537,42490.40000009537,47156.60000014305,54832.799999952316],"checkbox_events":[5187.200000047684,5416.799999952316,5716.299999952316,6768.100000143051,6987.799999952316,10019.600000143051,10509.200000047684,10867.700000047684,11137.900000095367,11648.400000095367,15298.600000143051,15756.600000143051,16486.299999952316,16705.900000095367,16985.5,17255.60000014305,17644.299999952316,18033.900000095367,18233.700000047684,19083.400000095367,19373.700000047684,19822.900000095367,20082.5,23330.5,23599,24801.5,25020.799999952316,25390.900000095367,25750.10000014305,26049.60000014305,26500.10000014305,26839.5,27308.900000095367,27767.700000047684,28077.900000095367,28397.799999952316,28717.400000095367,29117,29526.400000095367,29916.299999952316,30116.5,35179.10000014305,35387.299999952316,35747.5,36096.700000047684,36456.10000014305,36986.60000014305,37246.10000014305,37655.10000014305,37945.299999952316,44101.299999952316,49518,49726.60000014305,49946.60000014305,50306.5,50755.60000014305,51026.10000014305,51345.10000014305,51864,52204.299999952316],"key_events":[],"mouse_events":[2289,5187.200000047684,5416.799999952316,5716.299999952316,6768.100000143051,6987.799999952316,9251.400000095367,10019.600000143051,10509.200000047684,10867.700000047684,11137.900000095367,11648.400000095367,14056.400000095367,15298.600000143051,15756.600000143051,16486.299999952316,16705.900000095367,16985.5,17255.60000014305,17644.299999952316,18033.900000095367,18233.700000047684,18595.299999952316,19083.400000095367,19373.700000047684,19822.900000095367,20082.5,22131.60000014305,22560.799999952316,23330.5,23599,24801.5,25020.799999952316,25390.900000095367,25750.10000014305,26049.60000014305,26500.10000014305,26839.5,27308.900000095367,27767.700000047684,28077.900000095367,28397.799999952316,28717.400000095367,29117,29526.400000095367,29916.299999952316,30116.5,34156.40000009537,35179.10000014305,35387.299999952316,35747.5,36096.700000047684,36456.10000014305,36986.60000014305,37246.10000014305,37655.10000014305,37945.299999952316,42490.40000009537,44101.299999952316,47156.60000014305,49518,49726.60000014305,49946.60000014305,50306.5,50755.60000014305,51026.10000014305,51345.10000014305,51864,52204.299999952316,54832.799999952316,55412.200000047684],"honeypot":0,"survey":"mace","page":10,"trial_type":"survey-mace","trial_index":18,"time_elapsed":729991,"internal_node_id":"0.0-18.0","task_version":"prescreen-v0.3","browser_interactions":0,"instructed":0},{"rt":9786.900000095367,"trial_type":"mental-health-alert","trial_index":19,"time_elapsed":739782,"internal_node_id":"0.0-19.0","task_version":"prescreen-v0.3","interactions":"[]"}]