[{"view_history":[{"page_index":0,"viewing_time":1611.5999999046326},{"page_index":1,"viewing_time":3586.100000023842},{"page_index":2,"viewing_time":3754.100000023842},{"page_index":3,"viewing_time":1297.1000000238419}],"rt":10249.899999976158,"trial_type":"instructions","trial_index":0,"time_elapsed":10259,"internal_node_id":"0.0-0.0","task_version":"prescreen-v0.3"},{"rt":21422.899999976158,"responses":{"age":"24","gender-categorical":"Female","gender-free-response":"","ethnicity":"Not Hispanic or Latino","race":["White"],"education":"Bachelor degree"},"trial_type":"survey-demo","trial_index":1,"time_elapsed":31688,"internal_node_id":"0.0-1.0","task_version":"prescreen-v0.3"},{"responses":{"Q14":"1","Q17":"2","Q13":"2","Q15":"3","Q05":"2","Q11":"2","Q19":"2","Q08":"1","Q09":"1","Q10":"2","Q20":"1","Q03":"1","Q02":"0","Q16":"1","Q18":"1","Q04":"3","Q07":"0","Q12":"1","Q06":"1","Q21":"3","Q01":"3"},"rt":181663.29999995232,"item_order":[13,16,12,14,4,10,18,7,8,9,19,2,1,15,17,3,6,11,5,20,0],"radio_events":[24424.5,28363.5,35351.200000047684,40763.39999997616,49921.60000002384,53620.700000047684,56798.799999952316,74421.10000002384,81762.10000002384,82978.5,92302,102062,104904.20000004768,109483.29999995232,115287.79999995232,120604.10000002384,135438.79999995232,143950.5,152396.70000004768,161059.20000004768,168182.70000004768,174195,179731.29999995232],"key_events":[],"mouse_events":[24016.600000023842,24424.5,28363.5,35351.200000047684,40763.39999997616,49921.60000002384,53620.700000047684,56798.799999952316,74421.10000002384,81762.10000002384,82978.5,92302,102062,104904.20000004768,109483.29999995232,115287.79999995232,120604.10000002384,135438.79999995232,143950.5,152396.70000004768,161059.20000004768,168182.70000004768,174195,179731.29999995232,181660.79999995232],"straightlining":0.42857142857142855,"zigzagging":0.5,"honeypot":0,"survey":"sns","trial_type":"survey-template","trial_index":2,"time_elapsed":213360,"internal_node_id":"0.0-2.0","task_version":"prescreen-v0.3","browser_interactions":0,"infrequency":0},{"responses":{"Q10":"1","Q08":"3","Q11":"1","Q05":"3","Q12":"1","Q02":"3","Q03":"3","Q01":"3","Q06":"3","Q04":"3","Q13":"0","Q09":"1","Q07":"3"},"rt":76079.79999995232,"item_order":[9,7,10,4,11,1,2,0,5,3,12,8,6],"radio_events":[10995.299999952316,18304.299999952316,24508.5,28656,34828.5,38175.299999952316,44220.10000002384,47438.299999952316,51144.39999997616,56586.60000002384,60869.39999997616,72411.60000002384,75405.39999997616],"key_events":[],"mouse_events":[10995.299999952316,18304.299999952316,24508.5,28656,34828.5,38175.299999952316,44220.10000002384,47438.299999952316,51144.39999997616,55450.200000047684,56586.60000002384,60309.10000002384,60869.39999997616,72411.60000002384,75405.39999997616,76077.89999997616],"straightlining":0.6153846153846154,"zigzagging":0.16666666666666666,"honeypot":0,"survey":"bisbas","trial_type":"survey-template","trial_index":3,"time_elapsed":289444,"internal_node_id":"0.0-3.0","task_version":"prescreen-v0.3","browser_interactions":0,"infrequency":0},{"responses":{"Q01":"2","Q02":"2","Q03":"3"},"rt":24138.800000071526,"radio_events":[9479.300000071526,15067,23129],"key_events":[],"mouse_events":[9479.300000071526,15067,23129,24137.800000071526],"survey":"map","page":1,"trial_type":"survey-map","trial_index":4,"time_elapsed":313588,"internal_node_id":"0.0-4.0","task_version":"prescreen-v0.3","browser_interactions":0},{"responses":{"Q04":"1","Q05":"1","Q06":"2"},"rt":21507.799999952316,"radio_events":[6264.599999904633,11771,17479.699999928474,19986.599999904633],"key_events":[],"mouse_events":[6264.599999904633,11771,17479.699999928474,19986.599999904633,21507.099999904633],"survey":"map","page":2,"trial_type":"survey-map","trial_index":5,"time_elapsed":335098,"internal_node_id":"0.0-5.0","task_version":"prescreen-v0.3","browser_interactions":0},{"responses":{"Q07":"3","Q08":"4","Q09":"0"},"rt":25864.699999928474,"radio_events":[13559.799999952316,19107.100000023842,24662.799999952316],"key_events":[],"mouse_events":[13559.799999952316,19107.100000023842,24662.799999952316,25864],"survey":"map","page":3,"trial_type":"survey-map","trial_index":6,"time_elapsed":360966,"internal_node_id":"0.0-6.0","task_version":"prescreen-v0.3","browser_interactions":0},{"responses":{"Q10":"2","Q11":"0","Q12":"1","Q13":"2","Q16":"0","Q14":"1","Q15":"0"},"rt":50765.700000047684,"radio_events":[4598.799999952316,9954.299999952316,14005.299999952316,28911.899999976158,35060.5,46962,49907.799999952316],"key_events":[],"mouse_events":[4598.799999952316,9954.299999952316,13540.899999976158,14005.299999952316,28911.899999976158,35060.5,46962,49907.799999952316,50764.299999952316],"survey":"map","page":4,"trial_type":"survey-map","trial_index":7,"time_elapsed":411735,"internal_node_id":"0.0-7.0","task_version":"prescreen-v0.3","browser_interactions":0,"infrequency":0},{"view_history":[{"page_index":0,"viewing_time":4446.899999976158},{"page_index":1,"viewing_time":3073.2000000476837}],"rt":7520.899999976158,"trial_type":"instructions","trial_index":8,"time_elapsed":419258,"internal_node_id":"0.0-8.0","task_version":"prescreen-v0.3"},{"responses":{"01":"Yes","01_ages_13":"13","01_ages_14":"14","01_ages_15":"15","01_ages_16":"16","01_ages_17":"17","01_ages_18":"18","02":"Yes","02_ages_11":"11","02_ages_12":"12","02_ages_13":"13","02_ages_14":"14","02_ages_15":"15","02_ages_16":"16","02_ages_17":"17","02_ages_18":"18","03":"No","04":"No","05":"No","06":"No"},"rt":110512,"item_order":[0,1,2,3,4,5],"radio_events":[73269.20000004768,89231.39999997616,101704.20000004768,103650,105482.70000004768,109811.79999995232],"checkbox_events":[77527.70000004768,78913.10000002384,79680.89999997616,80497.5,81194.20000004768,81682.39999997616,82635.5,83307.5,90760.60000002384,91673.10000002384,92369.79999995232,93386.70000004768,93866.60000002384,94650.29999995232,95107.89999997616,96228.60000002384,96668.70000004768,97301.89999997616],"key_events":[],"mouse_events":[0.2999999523162842,73269.20000004768,77527.70000004768,78913.10000002384,79680.89999997616,80497.5,81194.20000004768,81682.39999997616,82635.5,83307.5,89231.39999997616,90760.60000002384,91673.10000002384,92369.79999995232,93386.70000004768,93866.60000002384,94650.29999995232,95107.89999997616,95748.20000004768,96228.60000002384,96668.70000004768,97301.89999997616,101704.20000004768,103650,105482.70000004768,109811.79999995232,110508.29999995232],"honeypot":0,"survey":"mace","page":1,"trial_type":"survey-mace","trial_index":9,"time_elapsed":529781,"internal_node_id":"0.0-9.0","task_version":"prescreen-v0.3","browser_interactions":0},{"responses":{"01":"No","02":"No","03":"No","04":"No","05":"No","06":"No","07":"No","08":"No"},"rt":17918.899999976158,"item_order":[0,1,2,3,4,5,6,7],"radio_events":[2568.399999976158,5248.899999976158,6730.899999976158,9628.899999976158,11469.899999976158,13183.299999952316,14222.799999952316,15520.799999952316],"checkbox_events":[],"key_events":[],"mouse_events":[2568.399999976158,5248.899999976158,6730.899999976158,9628.899999976158,11469.899999976158,13183.299999952316,14222.799999952316,15520.799999952316,17914],"honeypot":0,"survey":"mace","page":2,"trial_type":"survey-mace","trial_index":10,"time_elapsed":547705,"internal_node_id":"0.0-10.0","task_version":"prescreen-v0.3","browser_interactions":0},{"responses":{"01":"No","02":"No","03":"No","04":"No"},"rt":15153.299999952316,"item_order":[0,1,2,3],"radio_events":[7897.200000047684,11202.899999976158,12772,13940.5],"checkbox_events":[],"key_events":[],"mouse_events":[7897.200000047684,11202.899999976158,12772,13940.5,15149.700000047684],"honeypot":0,"survey":"mace","page":3,"trial_type":"survey-mace","trial_index":11,"time_elapsed":562863,"internal_node_id":"0.0-11.0","task_version":"prescreen-v0.3","browser_interactions":0},{"responses":{"01":"No","02":"No"},"rt":12642.600000023842,"item_order":[0,1],"radio_events":[2859,11751.700000047684],"checkbox_events":[],"key_events":[],"mouse_events":[2859,11751.700000047684,12640.5],"honeypot":0,"survey":"mace","page":4,"trial_type":"survey-mace","trial_index":12,"time_elapsed":575509,"internal_node_id":"0.0-12.0","task_version":"prescreen-v0.3","browser_interactions":0},{"responses":{"01":"No","02":"No","03":"No","04":"No","05":"No"},"rt":85940.80000007153,"item_order":[0,1,2,3,4],"radio_events":[15816.5,18802.300000071526,26429.100000023842,36336.90000009537,40538.5],"checkbox_events":[],"key_events":[],"mouse_events":[15816.5,18802.300000071526,26429.100000023842,36336.90000009537,40538.5,41258.800000071526,56217.5,56722.10000002384,85937.60000002384],"honeypot":0,"survey":"mace","page":5,"trial_type":"survey-mace","trial_index":13,"time_elapsed":661455,"internal_node_id":"0.0-13.0","task_version":"prescreen-v0.3","browser_interactions":0},{"responses":{"01":"Yes","01_ages_14":"14","01_ages_15":"15","01_ages_16":"16","01_ages_17":"17","01_ages_18":"18","02":"Yes","02_ages_13":"13","02_ages_14":"14","02_ages_15":"15","02_ages_16":"16","02_ages_17":"17","02_ages_18":"18","03":"Yes","03_ages_15":"15","03_ages_16":"16","03_ages_17":"17","03_ages_18":"18","04":"Yes","04_ages_12":"12","04_ages_13":"13","04_ages_14":"14","04_ages_15":"15","04_ages_16":"16","04_ages_17":"17","04_ages_18":"18","05":"No"},"rt":64264.199999928474,"item_order":[0,1,2,3,4],"radio_events":[29039.599999904633,36381,44832.699999928474,52957.299999952316,63267.699999928474],"checkbox_events":[31129.5,31714.299999952316,32337.699999928474,32874.5,33595.199999928474,37485,38020.699999928474,38556.59999990463,39021.5,39493.39999997616,39997.799999952316,47315.59999990463,47851.199999928474,48322.699999928474,49371.09999990463,54110.299999952316,54638.5,55078.699999928474,56007.299999952316,56479.199999928474,57047.699999928474,57504.299999952316],"key_events":[],"mouse_events":[26086.599999904633,26822.699999928474,29039.599999904633,31129.5,31714.299999952316,32337.699999928474,32874.5,33595.199999928474,36381,37485,38020.699999928474,38556.59999990463,39021.5,39493.39999997616,39997.799999952316,44832.699999928474,47315.59999990463,47851.199999928474,48322.699999928474,48738.699999928474,49371.09999990463,52957.299999952316,54110.299999952316,54638.5,55078.699999928474,55615.299999952316,56007.299999952316,56479.199999928474,57047.699999928474,57504.299999952316,60698.39999997616,61354.299999952316,63267.699999928474,64260.89999997616],"honeypot":0,"survey":"mace","page":6,"trial_type":"survey-mace","trial_index":14,"time_elapsed":725725,"internal_node_id":"0.0-14.0","task_version":"prescreen-v0.3","browser_interactions":0},{"responses":{"01":"No","02":"No","03":"No","04":"No","05":"No","06":"No","07":"No"},"rt":114486.10000002384,"item_order":[0,1,2,3,4,5,6],"radio_events":[5408.799999952316,93797.89999997616,97480.29999995232,102050.20000004768,106388.79999995232,112552.60000002384,113857],"checkbox_events":[],"key_events":[],"mouse_events":[5408.799999952316,91852.89999997616,92589,93797.89999997616,97480.29999995232,102050.20000004768,106388.79999995232,112552.60000002384,113857,114481.5],"honeypot":0,"survey":"mace","page":7,"trial_type":"survey-mace","trial_index":15,"time_elapsed":840218,"internal_node_id":"0.0-15.0","task_version":"prescreen-v0.3","browser_interactions":0},{"responses":{"01":"No","02":"No","03":"Yes","03_ages_15":"15","03_ages_16":"16","03_ages_17":"17","04":"No"},"rt":160053.29999995232,"item_order":[0,1,2,3],"radio_events":[142719.59999990463,144623.39999997616,151251.39999997616,159280.29999995232],"checkbox_events":[152451.5,153046,153630],"key_events":[],"mouse_events":[142719.59999990463,144623.39999997616,151251.39999997616,152451.5,153046,153630,159280.29999995232,160050.39999997616],"honeypot":0,"survey":"mace","page":8,"trial_type":"survey-mace","trial_index":16,"time_elapsed":1000277,"internal_node_id":"0.0-16.0","task_version":"prescreen-v0.3","browser_interactions":2},{"responses":{"01":"Yes","01_ages_1":"1","01_ages_2":"2","01_ages_3":"3","01_ages_4":"4","01_ages_5":"5","01_ages_6":"6","01_ages_7":"7","01_ages_8":"8","01_ages_9":"9","01_ages_10":"10","01_ages_11":"11","01_ages_12":"12","01_ages_13":"13","01_ages_14":"14","01_ages_15":"15","01_ages_16":"16","01_ages_17":"17","01_ages_18":"18","02":"Yes","02_ages_1":"1","02_ages_2":"2","02_ages_3":"3","02_ages_4":"4","02_ages_5":"5","02_ages_6":"6","02_ages_7":"7","02_ages_8":"8","02_ages_9":"9","02_ages_10":"10","02_ages_11":"11","02_ages_12":"12","02_ages_13":"13","02_ages_14":"14","02_ages_15":"15","02_ages_16":"16","02_ages_17":"17","02_ages_18":"18","03":"Yes","03_ages_1":"1","03_ages_2":"2","03_ages_3":"3","03_ages_4":"4","03_ages_5":"5","03_ages_6":"6","03_ages_7":"7","03_ages_8":"8","03_ages_9":"9","03_ages_10":"10","03_ages_11":"11","03_ages_12":"12","03_ages_13":"13","03_ages_14":"14","03_ages_15":"15","03_ages_16":"16","03_ages_17":"17","03_ages_18":"18","04":"Yes","04_ages_1":"1","04_ages_2":"2","04_ages_3":"3","04_ages_4":"4","04_ages_5":"5","04_ages_6":"6","04_ages_7":"7","04_ages_8":"8","04_ages_9":"9","04_ages_10":"10","04_ages_11":"11","04_ages_12":"12","04_ages_13":"13","04_ages_14":"14","04_ages_15":"15","04_ages_16":"16","04_ages_17":"17","04_ages_18":"18"},"rt":124580.19999992847,"item_order":[0,1,2,3],"radio_events":[50587.89999997616,72489.09999990463,92544.19999992847,110678.69999992847],"checkbox_events":[57274.699999928474,57980.5,58604.799999952316,59149.799999952316,59715.89999997616,60846.89999997616,61349.89999997616,62327.09999990463,62800,63311.89999997616,63985.799999952316,64545.09999990463,65490.799999952316,66514.79999995232,67036.29999995232,67492.79999995232,67949.69999992847,68477,75186.29999995232,75722.79999995232,76948.09999990463,77484.39999997616,77940.39999997616,78468.69999992847,79109.39999997616,79589.69999992847,80654.19999992847,82439.29999995232,83240.09999990463,83936.59999990463,84928.39999997616,85424.29999995232,86275.19999992847,86970.09999990463,88004.59999990463,89934.09999990463,93743.89999997616,94529.89999997616,95346.19999992847,96348.29999995232,97011.79999995232,97596.5,98093.79999995232,98581.09999990463,99110.79999995232,99574.09999990463,100183.59999990463,100646.89999997616,101801.29999995232,102257.19999992847,102712.89999997616,103370.89999997616,103883,104316.69999992847,113336.09999990463,113809.59999990463,114344.79999995232,114785.09999990463,115553.79999995232,116434.79999995232,117009.69999992847,117475.59999990463,118028.09999990463,118524.29999995232,119724.59999990463,120197.39999997616,120693.89999997616,121142.39999997616,121750.79999995232,122215.59999990463,122759.79999995232,123712.89999997616],"key_events":[],"mouse_events":[50587.89999997616,57274.699999928474,57980.5,58604.799999952316,59149.799999952316,59715.89999997616,60277.199999928474,60846.89999997616,61349.89999997616,61887.799999952316,62327.09999990463,62800,63311.89999997616,63985.799999952316,64545.09999990463,65081.89999997616,65490.799999952316,65915.5,66514.79999995232,67036.29999995232,67492.79999995232,67949.69999992847,68477,72489.09999990463,74315.69999992847,75186.29999995232,75722.79999995232,76371.29999995232,76948.09999990463,77484.39999997616,77940.39999997616,78468.69999992847,79109.39999997616,79589.69999992847,80061.39999997616,80654.19999992847,81078.59999990463,81598.59999990463,82439.29999995232,83240.09999990463,83936.59999990463,84928.39999997616,85424.29999995232,86275.19999992847,86970.09999990463,87563.19999992847,88004.59999990463,88539.69999992847,89934.09999990463,92544.19999992847,93743.89999997616,94529.89999997616,95346.19999992847,96348.29999995232,97011.79999995232,97596.5,98093.79999995232,98581.09999990463,99110.79999995232,99574.09999990463,100183.59999990463,100646.89999997616,101152.39999997616,101801.29999995232,102257.19999992847,102712.89999997616,103370.89999997616,103883,104316.69999992847,110678.69999992847,113336.09999990463,113809.59999990463,114344.79999995232,114785.09999990463,115553.79999995232,116002.79999995232,116434.79999995232,117009.69999992847,117475.59999990463,118028.09999990463,118524.29999995232,119165.29999995232,119724.59999990463,120197.39999997616,120693.89999997616,121142.39999997616,121750.79999995232,122215.59999990463,122759.79999995232,123280.69999992847,123712.89999997616,124577.69999992847],"honeypot":0,"survey":"mace","page":9,"trial_type":"survey-mace","trial_index":17,"time_elapsed":1124864,"internal_node_id":"0.0-17.0","task_version":"prescreen-v0.3","browser_interactions":4},{"responses":{"01":"No","02":"No","03":"No","04":"No","05":"No","06":"Yes","06_ages_17":"17","07":"Yes","07_ages_6":"6","07_ages_7":"7","07_ages_8":"8","07_ages_9":"9","07_ages_10":"10","07_ages_11":"11","07_ages_12":"12","07_ages_13":"13","07_ages_14":"14","07_ages_15":"15","07_ages_16":"16","07_ages_17":"17","07_ages_18":"18","08":"Yes","08_ages_5":"5","08_ages_6":"6","08_ages_7":"7","08_ages_8":"8","08_ages_9":"9","08_ages_10":"10","08_ages_11":"11","08_ages_12":"12","08_ages_13":"13","08_ages_14":"14","08_ages_15":"15","08_ages_16":"16","08_ages_17":"17","08_ages_18":"18"},"rt":52232.799999952316,"item_order":[0,1,2,3,4,5,6,7],"radio_events":[4530.399999976158,6418.099999904633,9325.899999976158,11670.399999976158,13943.399999976158,16250.299999952316,23583.5,39527.199999928474],"checkbox_events":[18516.899999976158,27739.899999976158,28421.299999952316,29318.199999928474,29862.599999904633,30335.199999928474,30911.399999976158,31832,32311.899999976158,32953.5,33594.09999990463,34066,35130.89999997616,35700.39999997616,36127.299999952316,37196.89999997616,42082,42578.799999952316,43003.39999997616,43563.799999952316,44003.39999997616,44572.59999990463,45013.39999997616,46245.699999928474,47255.09999990463,47824.09999990463,48297.39999997616,49393.5,49874.699999928474,50372],"key_events":[],"mouse_events":[4530.399999976158,6418.099999904633,9325.899999976158,11670.399999976158,13943.399999976158,16250.299999952316,18516.899999976158,23583.5,27739.899999976158,28421.299999952316,29318.199999928474,29862.599999904633,30335.199999928474,30911.399999976158,31832,32311.899999976158,32953.5,33594.09999990463,34066,34675.39999997616,35130.89999997616,35700.39999997616,36127.299999952316,36748.199999928474,37196.89999997616,39527.199999928474,42082,42578.799999952316,43003.39999997616,43563.799999952316,44003.39999997616,44572.59999990463,45013.39999997616,45491.39999997616,45846.39999997616,46245.699999928474,46895.09999990463,47255.09999990463,47824.09999990463,48297.39999997616,48712.59999990463,49393.5,49874.699999928474,50372,52227.39999997616],"honeypot":0,"survey":"mace","page":10,"trial_type":"survey-mace","trial_index":18,"time_elapsed":1177105,"internal_node_id":"0.0-18.0","task_version":"prescreen-v0.3","browser_interactions":0,"instructed":0},{"rt":5944.899999976158,"trial_type":"mental-health-alert","trial_index":19,"time_elapsed":1183053,"internal_node_id":"0.0-19.0","task_version":"prescreen-v0.3","interactions":"[{\"event\":\"blur\",\"trial\":16,\"time\":954058},{\"event\":\"focus\",\"trial\":16,\"time\":962521},{\"event\":\"blur\",\"trial\":17,\"time\":1001483},{\"event\":\"focus\",\"trial\":17,\"time\":1039311},{\"event\":\"blur\",\"trial\":17,\"time\":1045138},{\"event\":\"focus\",\"trial\":17,\"time\":1047396}]"}]