[{"view_history":[{"page_index":0,"viewing_time":3622},{"page_index":1,"viewing_time":3554.000000000001},{"page_index":2,"viewing_time":15342},{"page_index":3,"viewing_time":1985.0000000000036}],"rt":24503.000000000004,"trial_type":"instructions","trial_index":0,"time_elapsed":24507,"internal_node_id":"0.0-0.0","task_version":"prescreen-v0.3"},{"rt":32109,"responses":{"age":"46","gender-categorical":"Female","gender-free-response":"","ethnicity":"Not Hispanic or Latino","race":["White"],"education":"Master degree or higher"},"trial_type":"survey-demo","trial_index":1,"time_elapsed":56622,"internal_node_id":"0.0-1.0","task_version":"prescreen-v0.3"},{"responses":{"Q19":"2","Q01":"1","Q10":"2","Q05":"1","Q14":"1","Q15":"2","Q11":"1","Q08":"2","Q03":"2","Q13":"3","Q07":"0","Q09":"1","Q02":"1","Q12":"3","Q16":"2","Q04":"3","Q18":"2","Q17":"1","Q21":"3","Q20":"2","Q06":"0"},"rt":109062,"item_order":[18,0,9,4,13,14,10,7,2,12,6,8,1,11,15,3,17,16,20,19,5],"radio_events":[15018.999999999993,19749.999999999993,22257.999999999993,30923.999999999993,36027.99999999999,41715.00000000001,45596.00000000001,49449.99999999999,52106.99999999999,53346.00000000001,59001.00000000001,61581.00000000001,71614,74987,80128,83597,86735,91905,97945,102890,105664],"key_events":[],"mouse_events":[15018.999999999993,19749.999999999993,22257.999999999993,30923.999999999993,36027.99999999999,41715.00000000001,45596.00000000001,49449.99999999999,52106.99999999999,53346.00000000001,59001.00000000001,61581.00000000001,71614,74987,80128,83597,86735,91905,97945,102890,105664,109052],"straightlining":0.38095238095238093,"zigzagging":0.7,"honeypot":0,"survey":"sns","trial_type":"survey-template","trial_index":2,"time_elapsed":165687,"internal_node_id":"0.0-2.0","task_version":"prescreen-v0.3","browser_interactions":0,"infrequency":0},{"responses":{"Q05":"2","Q03":"3","Q09":"1","Q08":"1","Q07":"1","Q04":"3","Q06":"2","Q11":"1","Q01":"3","Q13":"0","Q10":"1","Q12":"0","Q02":"3"},"rt":73761,"item_order":[4,2,8,7,6,3,5,10,0,12,9,11,1],"radio_events":[4892,13391.00000000003,19718.00000000003,25571,28929,36143,40613,46635.00000000003,50100,54244,57649,65818,70808.00000000003],"key_events":[],"mouse_events":[4892,13391.00000000003,19718.00000000003,25571,28929,36143,40613,46635.00000000003,50100,54244,57649,64670,65818,70808.00000000003,73751],"straightlining":0.38461538461538464,"zigzagging":0.5833333333333334,"honeypot":0,"survey":"bisbas","trial_type":"survey-template","trial_index":3,"time_elapsed":239452,"internal_node_id":"0.0-3.0","task_version":"prescreen-v0.3","browser_interactions":0,"infrequency":0},{"responses":{"Q01":"3","Q02":"3","Q03":"3"},"rt":27525.99999999997,"radio_events":[5339.999999999971,14016.99999999997,16485.99999999994,21597.99999999997],"key_events":[],"mouse_events":[5339.999999999971,14016.99999999997,16485.99999999994,21597.99999999997,27519.99999999997],"survey":"map","page":1,"trial_type":"survey-map","trial_index":4,"time_elapsed":266982,"internal_node_id":"0.0-4.0","task_version":"prescreen-v0.3","browser_interactions":0},{"responses":{"Q04":"3","Q05":"3","Q06":"3"},"rt":24845,"radio_events":[3464,10555,11396.000000000058,22783.00000000006],"key_events":[],"mouse_events":[3464,10555,11396.000000000058,22783.00000000006,24840],"survey":"map","page":2,"trial_type":"survey-map","trial_index":5,"time_elapsed":291831,"internal_node_id":"0.0-5.0","task_version":"prescreen-v0.3","browser_interactions":0},{"responses":{"Q07":"4","Q08":"4","Q09":"2"},"rt":21903,"radio_events":[7276,12861,17308,20036],"key_events":[],"mouse_events":[7276,12861,17308,20036,21898.00000000006],"survey":"map","page":3,"trial_type":"survey-map","trial_index":6,"time_elapsed":313736,"internal_node_id":"0.0-6.0","task_version":"prescreen-v0.3","browser_interactions":0},{"responses":{"Q10":"2","Q11":"2","Q12":"3","Q13":"3","Q16":"3","Q14":"3","Q15":"3"},"rt":47627,"radio_events":[4137,12356,19420.00000000006,22807.00000000006,26844,38122,42873],"key_events":[],"mouse_events":[4137,7612,12356,19420.00000000006,22807.00000000006,26844,38122,42383,42873,47617.00000000006],"survey":"map","page":4,"trial_type":"survey-map","trial_index":7,"time_elapsed":361365,"internal_node_id":"0.0-7.0","task_version":"prescreen-v0.3","browser_interactions":0,"infrequency":1},{"view_history":[{"page_index":0,"viewing_time":2847.999999999942},{"page_index":1,"viewing_time":3573}],"rt":6420.999999999942,"trial_type":"instructions","trial_index":8,"time_elapsed":367788,"internal_node_id":"0.0-8.0","task_version":"prescreen-v0.3"},{"responses":{"01":"Yes","01_ages_3":"3","01_ages_4":"4","01_ages_5":"5","01_ages_6":"6","01_ages_7":"7","01_ages_8":"8","01_ages_9":"9","01_ages_10":"10","01_ages_11":"11","01_ages_12":"12","01_ages_13":"13","01_ages_14":"14","01_ages_15":"15","01_ages_16":"16","01_ages_17":"17","01_ages_18":"18","02":"Yes","02_ages_3":"3","02_ages_4":"4","02_ages_5":"5","02_ages_6":"6","02_ages_7":"7","02_ages_8":"8","02_ages_9":"9","02_ages_10":"10","02_ages_11":"11","02_ages_12":"12","02_ages_13":"13","02_ages_14":"14","02_ages_15":"15","02_ages_16":"16","02_ages_17":"17","02_ages_18":"18","03":"No","04":"No","05":"No","06":"No"},"rt":394972,"item_order":[0,1,2,3,4,5],"radio_events":[16526.00000000006,365312,380374,383656,385907,389474],"checkbox_events":[352718,353381,353918,354557,355211,356085,357067,357697,358251,358960,360426,360908,361531,361975,362464,363097,369000,369564,370131,371418,371984,372483,373333,373809,374386,374992,375507,376090,376776,377229,377906,378413],"key_events":[],"mouse_events":[0,9142,16526.00000000006,347555,352718,353381,353918,354557,355211,356085,357067,357697,358251,358960,359542,360426,360908,361531,361975,362464,363097,365312,369000,369564,370131,371418,371984,372483,373333,373809,374386,374992,375507,376090,376776,377229,377906,378413,380374,383656,385907,389474,394961],"honeypot":0,"survey":"mace","page":1,"trial_type":"survey-mace","trial_index":9,"time_elapsed":762772,"internal_node_id":"0.0-9.0","task_version":"prescreen-v0.3","browser_interactions":0},{"responses":{"01":"No","02":"No","03":"No","04":"No","05":"No","06":"No","07":"No","08":"No"},"rt":20267,"item_order":[0,1,2,3,4,5,6,7],"radio_events":[4020,7547,8740,10274,12106,13500,14763.000000000116,16292.000000000116],"checkbox_events":[],"key_events":[],"mouse_events":[4020,5351,7547,8740,10274,12106,13500,14763.000000000116,16292.000000000116,20257],"honeypot":0,"survey":"mace","page":2,"trial_type":"survey-mace","trial_index":10,"time_elapsed":783045,"internal_node_id":"0.0-10.0","task_version":"prescreen-v0.3","browser_interactions":0},{"responses":{"01":"No","02":"No","03":"No","04":"No"},"rt":8735,"item_order":[0,1,2,3],"radio_events":[3527,5653,7314,8155],"checkbox_events":[],"key_events":[],"mouse_events":[3527,5653,7314,8155,8731.000000000116],"honeypot":0,"survey":"mace","page":3,"trial_type":"survey-mace","trial_index":11,"time_elapsed":791784,"internal_node_id":"0.0-11.0","task_version":"prescreen-v0.3","browser_interactions":0},{"responses":{"01":"Yes","01_ages_16":"16","02":"No"},"rt":17590,"item_order":[0,1],"radio_events":[6039,13317],"checkbox_events":[9436],"key_events":[],"mouse_events":[6039,9436,13317,17585],"honeypot":0,"survey":"mace","page":4,"trial_type":"survey-mace","trial_index":12,"time_elapsed":809376,"internal_node_id":"0.0-12.0","task_version":"prescreen-v0.3","browser_interactions":0},{"responses":{"01":"No","02":"No","03":"No","04":"No","05":"No"},"rt":21089,"item_order":[0,1,2,3,4],"radio_events":[7725.000000000116,11138,12184,17675,20059],"checkbox_events":[],"key_events":[],"mouse_events":[7725.000000000116,11138,12184,17675,20059,21084],"honeypot":0,"survey":"mace","page":5,"trial_type":"survey-mace","trial_index":13,"time_elapsed":830470,"internal_node_id":"0.0-13.0","task_version":"prescreen-v0.3","browser_interactions":0},{"responses":{"01":"No","02":"No","03":"Yes","03_ages_9":"9","03_ages_10":"10","03_ages_11":"11","03_ages_12":"12","03_ages_13":"13","03_ages_14":"14","03_ages_15":"15","03_ages_16":"16","03_ages_17":"17","03_ages_18":"18","04":"Yes","04_ages_9":"9","04_ages_10":"10","04_ages_11":"11","04_ages_12":"12","04_ages_13":"13","04_ages_14":"14","04_ages_15":"15","04_ages_16":"16","04_ages_17":"17","04_ages_18":"18","05":"No"},"rt":58227,"item_order":[0,1,2,3,4],"radio_events":[11019,13591.000000000116,15233,45015,57419],"checkbox_events":[34711.00000000012,36524,37388,38987,39843,40902,41415,42194,42757,43472,47164,48046,48669,49314,52830,53336.00000000012,53904,54480.00000000012,55027,55532],"key_events":[],"mouse_events":[11019,13591.000000000116,15233,34711.00000000012,36524,37388,38987,39843,40902,41415,42194,42757,43472,45015,47164,48046,48669,49314,52830,53336.00000000012,53904,54480.00000000012,55027,55532,57419,58220],"honeypot":0,"survey":"mace","page":6,"trial_type":"survey-mace","trial_index":14,"time_elapsed":888703,"internal_node_id":"0.0-14.0","task_version":"prescreen-v0.3","browser_interactions":0},{"responses":{"01":"No","02":"No","03":"No","04":"No","05":"No","06":"No","07":"No"},"rt":16618.000000000116,"item_order":[0,1,2,3,4,5,6],"radio_events":[5293,7816,9136,10414,11824,13373.000000000116,15678],"checkbox_events":[],"key_events":[],"mouse_events":[5293,7816,9136,10414,11824,13373.000000000116,15678,16612],"honeypot":0,"survey":"mace","page":7,"trial_type":"survey-mace","trial_index":15,"time_elapsed":905325,"internal_node_id":"0.0-15.0","task_version":"prescreen-v0.3","browser_interactions":0},{"responses":{"01":"Yes","01_ages_1":"1","01_ages_2":"2","01_ages_3":"3","01_ages_4":"4","01_ages_5":"5","01_ages_6":"6","01_ages_7":"7","01_ages_8":"8","01_ages_9":"9","01_ages_10":"10","01_ages_11":"11","01_ages_12":"12","01_ages_13":"13","01_ages_14":"14","01_ages_15":"15","01_ages_16":"16","01_ages_17":"17","01_ages_18":"18","02":"Yes","02_ages_1":"1","02_ages_2":"2","02_ages_3":"3","02_ages_4":"4","02_ages_5":"5","02_ages_6":"6","02_ages_7":"7","02_ages_8":"8","02_ages_9":"9","02_ages_10":"10","02_ages_11":"11","02_ages_12":"12","02_ages_13":"13","02_ages_14":"14","02_ages_15":"15","02_ages_16":"16","02_ages_17":"17","02_ages_18":"18","03":"Yes","03_ages_1":"1","03_ages_2":"2","03_ages_3":"3","03_ages_4":"4","03_ages_5":"5","03_ages_6":"6","03_ages_7":"7","03_ages_8":"8","03_ages_9":"9","03_ages_10":"10","03_ages_11":"11","03_ages_12":"12","03_ages_13":"13","03_ages_14":"14","03_ages_15":"15","03_ages_16":"16","03_ages_17":"17","03_ages_18":"18","04":"Yes","04_ages_1":"1","04_ages_2":"2","04_ages_3":"3","04_ages_4":"4","04_ages_5":"5","04_ages_6":"6","04_ages_7":"7","04_ages_8":"8","04_ages_9":"9","04_ages_10":"10","04_ages_11":"11","04_ages_12":"12","04_ages_13":"13","04_ages_14":"14","04_ages_15":"15","04_ages_16":"16","04_ages_17":"17","04_ages_18":"18"},"rt":87115,"item_order":[0,1,2,3],"radio_events":[12091,40969,56285,71284],"checkbox_events":[14615,15159,15643,16334.000000000116,17209.000000000116,19281.000000000116,21111,21663,22481,23948,24560.000000000116,25081,25723.000000000116,26431,27265,27998,28551,29236,44062,45559,46205,46680.00000000012,47140,47584.00000000012,48191,48822,49274,49798,50320,50764,51419,51885,52322,52788,54400,55218,58631,59754,61094,61661.00000000012,62166,62940,63516,64192,64637.00000000012,65126,65594,66180.00000000012,66686,67278,67754,68588,69414,69920.00000000012,74717,75247.00000000012,75856,76369,76853.00000000012,77282,77820,78404,79050.00000000012,79571,80196,80710,81622.00000000012,82190,82712,83217,83739,84285],"key_events":[],"mouse_events":[12091,14615,15159,15643,16334.000000000116,17209.000000000116,19281.000000000116,21111,21663,22481,23948,24560.000000000116,25081,25723.000000000116,26431,27265,27998,28551,29236,40969,44062,45559,46205,46680.00000000012,47140,47584.00000000012,48191,48822,49274,49798,50320,50764,51419,51885,52322,52788,53456,54400,55218,56285,58631,59754,61094,61661.00000000012,62166,62940,63516,64192,64637.00000000012,65126,65594,66180.00000000012,66686,67278,67754,68588,69414,69920.00000000012,71284,74717,75247.00000000012,75856,76369,76853.00000000012,77282,77820,78404,79050.00000000012,79571,80196,80710,81622.00000000012,82190,82712,83217,83739,84285,87105],"honeypot":0,"survey":"mace","page":8,"trial_type":"survey-mace","trial_index":16,"time_elapsed":992442,"internal_node_id":"0.0-16.0","task_version":"prescreen-v0.3","browser_interactions":0},{"responses":{"01":"Yes","01_ages_1":"1","01_ages_2":"2","01_ages_3":"3","01_ages_4":"4","01_ages_5":"5","01_ages_6":"6","01_ages_7":"7","01_ages_8":"8","01_ages_9":"9","01_ages_10":"10","01_ages_11":"11","01_ages_12":"12","01_ages_13":"13","01_ages_14":"14","01_ages_15":"15","01_ages_16":"16","01_ages_17":"17","01_ages_18":"18","02":"Yes","02_ages_1":"1","02_ages_2":"2","02_ages_3":"3","02_ages_4":"4","02_ages_5":"5","02_ages_6":"6","02_ages_7":"7","02_ages_8":"8","02_ages_9":"9","02_ages_10":"10","02_ages_11":"11","02_ages_12":"12","02_ages_13":"13","02_ages_14":"14","02_ages_15":"15","02_ages_16":"16","02_ages_17":"17","02_ages_18":"18","03":"Yes","03_ages_1":"1","03_ages_2":"2","03_ages_3":"3","03_ages_4":"4","03_ages_5":"5","03_ages_6":"6","03_ages_7":"7","03_ages_8":"8","03_ages_9":"9","03_ages_10":"10","03_ages_11":"11","03_ages_12":"12","03_ages_13":"13","03_ages_14":"14","03_ages_15":"15","03_ages_16":"16","03_ages_17":"17","03_ages_18":"18","04":"Yes","04_ages_1":"1","04_ages_2":"2","04_ages_3":"3","04_ages_4":"4","04_ages_5":"5","04_ages_6":"6","04_ages_7":"7","04_ages_8":"8","04_ages_9":"9","04_ages_10":"10","04_ages_11":"11","04_ages_12":"12","04_ages_13":"13","04_ages_14":"14","04_ages_15":"15","04_ages_16":"16","04_ages_17":"17","04_ages_18":"18"},"rt":69226,"item_order":[0,1,2,3],"radio_events":[5251.000000000116,21564.000000000116,40347,56069],"checkbox_events":[6793,8266.000000000116,8828.000000000116,9450,10197,11023,11482.000000000116,12972.000000000116,13580,14232.000000000116,15034,15449,16149,17513,17949,18644,19234,19718,24510,25514,26293,26924.000000000116,27409,27860,28629,29315,32283.000000000116,32775.00000000012,33514.00000000012,34481,36513.00000000012,37161,37737.00000000012,38338,38812.00000000012,39309.99999999988,41865,42449,42910.00000000012,43338,44016.00000000012,44461,46095,47054.00000000012,47716.00000000012,48338.99999999988,49180,49811.00000000012,51213,51908.00000000012,52507,53231,53847,54477.00000000012,57486,58335,58912,59456,59985,60459,60944,61396,61893,62509,64152,64955,65499,65989,66457,66942,67432,67883],"key_events":[],"mouse_events":[5251.000000000116,6793,8266.000000000116,8828.000000000116,9450,10197,11023,11482.000000000116,12972.000000000116,13580,14232.000000000116,15034,15449,16149,17513,17949,18644,19234,19718,21064.000000000116,21564.000000000116,24510,25514,26293,26924.000000000116,27409,27860,28629,29315,32283.000000000116,32775.00000000012,33514.00000000012,34481,36513.00000000012,37161,37737.00000000012,38338,38812.00000000012,39309.99999999988,40347,41865,42449,42910.00000000012,43338,44016.00000000012,44461,44896,46095,47054.00000000012,47716.00000000012,48338.99999999988,49180,49811.00000000012,50519,51213,51908.00000000012,52507,53231,53847,54477.00000000012,56069,57486,58335,58912,59456,59985,60459,60944,61396,61893,62509,64152,64955,65499,65989,66457,66942,67432,67883,69217],"honeypot":0,"survey":"mace","page":9,"trial_type":"survey-mace","trial_index":17,"time_elapsed":1061673,"internal_node_id":"0.0-17.0","task_version":"prescreen-v0.3","browser_interactions":0},{"responses":{"01":"No","02":"No","03":"Yes","03_ages_3":"3","03_ages_4":"4","03_ages_5":"5","03_ages_6":"6","03_ages_7":"7","03_ages_8":"8","03_ages_9":"9","03_ages_10":"10","03_ages_11":"11","03_ages_12":"12","03_ages_13":"13","03_ages_14":"14","03_ages_15":"15","03_ages_16":"16","03_ages_17":"17","03_ages_18":"18","04":"No","05":"Yes","05_ages_1":"1","05_ages_2":"2","05_ages_3":"3","05_ages_4":"4","05_ages_5":"5","05_ages_6":"6","05_ages_7":"7","05_ages_8":"8","05_ages_9":"9","05_ages_10":"10","05_ages_11":"11","05_ages_12":"12","05_ages_13":"13","05_ages_14":"14","05_ages_15":"15","05_ages_16":"16","05_ages_17":"17","05_ages_18":"18","06":"Yes","06_ages_17":"17","07":"No","08":"No"},"rt":86899,"item_order":[0,1,2,3,4,5,6,7],"radio_events":[4526,6145,12830,36186,37790.00000000023,59962,66257,81638,83843],"checkbox_events":[20691,22443,23798,25021,25668,26112,26851,27919,28418,29275,29790.000000000233,30429,32112,32627,33458,34369,43533,47038,47605,48609,49189,49647,50575,51027,51914,52531,53270,54057,54992.00000000023,55662,56214,56977,57757,58677,62072,70129,71183,71944.00000000023,72442,72972,76486,77307,77773,78435,78919],"key_events":[],"mouse_events":[4526,6145,12830,20691,22443,23798,25021,25668,26112,26851,27452,27919,28418,29275,29790.000000000233,30429,32112,32627,33458,34369,36186,37790.00000000023,43533,45502,46040.00000000023,47038,47605,48609,49189,49647,50115,50575,51027,51455,51914,52531,53270,54057,54992.00000000023,55662,56214,56977,57757,58076,58677,59962,62072,66257,70129,71183,71944.00000000023,72442,72972,76486,77307,77773,78435,78919,81638,83843,86889],"honeypot":0,"survey":"mace","page":10,"trial_type":"survey-mace","trial_index":18,"time_elapsed":1148579,"internal_node_id":"0.0-18.0","task_version":"prescreen-v0.3","browser_interactions":0,"instructed":0},{"rt":2961.000000000233,"trial_type":"mental-health-alert","trial_index":19,"time_elapsed":1151545,"internal_node_id":"0.0-19.0","task_version":"prescreen-v0.3","interactions":"[]"}]