[{"view_history":[{"page_index":0,"viewing_time":2897},{"page_index":1,"viewing_time":3293},{"page_index":2,"viewing_time":3687},{"page_index":3,"viewing_time":1209}],"rt":11087.000000000002,"trial_type":"instructions","trial_index":0,"time_elapsed":11092,"internal_node_id":"0.0-0.0","task_version":"prescreen-v0.3"},{"rt":23617,"responses":{"age":"21","gender-categorical":"Female","gender-free-response":"","ethnicity":"Rather not say","race":["Black or African American"],"education":"Bachelor degree"},"trial_type":"survey-demo","trial_index":1,"time_elapsed":34719,"internal_node_id":"0.0-1.0","task_version":"prescreen-v0.3"},{"responses":{"Q12":"2","Q01":"3","Q20":"2","Q16":"3","Q18":"1","Q06":"1","Q21":"2","Q04":"0","Q10":"1","Q17":"0","Q08":"2","Q19":"0","Q03":"0","Q14":"3","Q13":"3","Q11":"3","Q05":"2","Q09":"2","Q15":"1","Q02":"0","Q07":"1"},"rt":138579,"item_order":[11,0,19,15,17,5,20,3,9,16,7,18,2,13,12,10,4,8,14,1,6],"radio_events":[8219,13519,19281,21541.000000000007,28592,29757.000000000007,30566,36920,42284,50917,62770,66720,74543,79424,83047,87071,93312.99999999999,95943,102105,104968,108319,111974,115384.00000000003,136391],"key_events":[],"mouse_events":[8219,13519,19281,21541.000000000007,28592,29757.000000000007,30566,36920,42284,50917,62770,66720,69750,74543,79424,83047,87071,93312.99999999999,95943,102105,104968,108319,111974,115384.00000000003,118599,136391,138565],"straightlining":0.2857142857142857,"zigzagging":0.55,"honeypot":0,"survey":"sns","trial_type":"survey-template","trial_index":2,"time_elapsed":173308,"internal_node_id":"0.0-2.0","task_version":"prescreen-v0.3","browser_interactions":0,"infrequency":0.5},{"responses":{"Q08":"2","Q10":"2","Q02":"2","Q03":"3","Q01":"3","Q07":"3","Q06":"3","Q04":"3","Q13":"0","Q11":"2","Q05":"3","Q09":"2","Q12":"2"},"rt":59302,"item_order":[7,9,1,2,0,6,5,3,12,10,4,8,11],"radio_events":[9195,14070,16652,20241.00000000003,22267,24530,26299,32313,35555,46077,50572,53591,58360.00000000003],"key_events":[],"mouse_events":[9195,14070,16652,20241.00000000003,22267,24530,26299,31528,32313,35555,46077,50572,53591,58360.00000000003,59292],"straightlining":0.46153846153846156,"zigzagging":0.3333333333333333,"honeypot":0,"survey":"bisbas","trial_type":"survey-template","trial_index":3,"time_elapsed":232617,"internal_node_id":"0.0-3.0","task_version":"prescreen-v0.3","browser_interactions":0,"infrequency":0},{"responses":{"Q01":"3","Q02":"2","Q03":"3"},"rt":29058,"radio_events":[9683,19124.00000000003,26363],"key_events":[],"mouse_events":[9683,19124.00000000003,25569.99999999997,26363,29053],"survey":"map","page":1,"trial_type":"survey-map","trial_index":4,"time_elapsed":261681,"internal_node_id":"0.0-4.0","task_version":"prescreen-v0.3","browser_interactions":0},{"responses":{"Q04":"4","Q05":"3","Q06":"4"},"rt":33579,"radio_events":[6283,12424,29542,32606.00000000006],"key_events":[],"mouse_events":[6283,11872,12424,29542,31901,32606.00000000006,33575],"survey":"map","page":2,"trial_type":"survey-map","trial_index":5,"time_elapsed":295266,"internal_node_id":"0.0-5.0","task_version":"prescreen-v0.3","browser_interactions":0},{"responses":{"Q07":"2","Q08":"0","Q09":"3"},"rt":27307,"radio_events":[10945,14000,23760,25885],"key_events":[],"mouse_events":[10945,14000,23760,25885,27303],"survey":"map","page":3,"trial_type":"survey-map","trial_index":6,"time_elapsed":322578,"internal_node_id":"0.0-6.0","task_version":"prescreen-v0.3","browser_interactions":0},{"responses":{"Q10":"2","Q11":"3","Q12":"3","Q13":"2","Q16":"0","Q14":"4","Q15":"4"},"rt":49123.00000000006,"radio_events":[4993,9119,17038,31166,37051.00000000006,41883,46914.00000000006],"key_events":[],"mouse_events":[4993,9119,17038,31166,37051.00000000006,41883,42796.00000000006,46914.00000000006,49115],"survey":"map","page":4,"trial_type":"survey-map","trial_index":7,"time_elapsed":371706,"internal_node_id":"0.0-7.0","task_version":"prescreen-v0.3","browser_interactions":0,"infrequency":0},{"view_history":[{"page_index":0,"viewing_time":4076},{"page_index":1,"viewing_time":3199}],"rt":7275,"trial_type":"instructions","trial_index":8,"time_elapsed":378983,"internal_node_id":"0.0-8.0","task_version":"prescreen-v0.3"},{"responses":{"01":"Yes","01_ages_7":"7","01_ages_8":"8","01_ages_9":"9","01_ages_11":"11","01_ages_14":"14","02":"Yes","02_ages_11":"11","02_ages_12":"12","02_ages_13":"13","02_ages_14":"14","02_ages_15":"15","02_ages_16":"16","03":"No","04":"No","05":"No","06":"Yes","06_ages_18":"18"},"rt":78558,"item_order":[0,1,2,3,4,5],"radio_events":[7518.000000000058,28472,54250,59377,62127,64821,67351],"checkbox_events":[13286,14551,15295,16980,20382,30253,31590.00000000006,34800,36093,37590.00000000006,38559,43070,44075,46212,47286,48098,49018.00000000006,74460.00000000006],"key_events":[],"mouse_events":[0,6117,7518.000000000058,13286,14551,15295,16980,20382,28472,30253,31590.00000000006,34800,36093,37590.00000000006,38559,43070,44075,46212,47286,48098,49018.00000000006,54250,59377,62127,64821,67351,74460.00000000006,78544],"honeypot":0,"survey":"mace","page":1,"trial_type":"survey-mace","trial_index":9,"time_elapsed":457551,"internal_node_id":"0.0-9.0","task_version":"prescreen-v0.3","browser_interactions":0},{"responses":{"01":"Yes","01_ages_6":"6","02":"No","03":"Yes","03_ages_5":"5","03_ages_6":"6","03_ages_7":"7","04":"Yes","04_ages_5":"5","04_ages_6":"6","04_ages_7":"7","05":"No","06":"No","07":"Yes","07_ages_16":"16","08":"No"},"rt":69965,"item_order":[0,1,2,3,4,5,6,7],"radio_events":[11246,19103.00000000006,22064,32778,38897,42200,47383,64504],"checkbox_events":[14024,28491,29348.00000000006,30205,33850,34691,35555,51605,56355.99999999994,57893],"key_events":[],"mouse_events":[11246,14024,19103.00000000006,22064,27851,28491,29348.00000000006,30205,32778,33850,34691,35555,38897,42200,47383,51605,55531,56355.99999999994,57893,64504,68466,69952],"honeypot":0,"survey":"mace","page":2,"trial_type":"survey-mace","trial_index":10,"time_elapsed":527525,"internal_node_id":"0.0-10.0","task_version":"prescreen-v0.3","browser_interactions":0},{"responses":{"01":"No","02":"No","03":"No","04":"No"},"rt":10415,"item_order":[0,1,2,3],"radio_events":[5183,6816,8213,9630],"checkbox_events":[],"key_events":[],"mouse_events":[5183,6816,8213,9630,10407],"honeypot":0,"survey":"mace","page":3,"trial_type":"survey-mace","trial_index":11,"time_elapsed":537946,"internal_node_id":"0.0-11.0","task_version":"prescreen-v0.3","browser_interactions":0},{"responses":{"01":"No","02":"No"},"rt":7446,"item_order":[0,1],"radio_events":[5220,6720],"checkbox_events":[],"key_events":[],"mouse_events":[5220,6720,7441],"honeypot":0,"survey":"mace","page":4,"trial_type":"survey-mace","trial_index":12,"time_elapsed":545395,"internal_node_id":"0.0-12.0","task_version":"prescreen-v0.3","browser_interactions":0},{"responses":{"01":"No","02":"No","03":"No","04":"No","05":"No"},"rt":16972.000000000116,"item_order":[0,1,2,3,4],"radio_events":[4083,8302,11852.000000000116,14145,16187],"checkbox_events":[],"key_events":[],"mouse_events":[4083,8302,11852.000000000116,14145,16187,16963],"honeypot":0,"survey":"mace","page":5,"trial_type":"survey-mace","trial_index":13,"time_elapsed":562374,"internal_node_id":"0.0-13.0","task_version":"prescreen-v0.3","browser_interactions":0},{"responses":{"01":"No","02":"Yes","02_ages_11":"11","02_ages_12":"12","02_ages_13":"13","02_ages_14":"14","03":"No","04":"No","05":"No"},"rt":30431,"item_order":[0,1,2,3,4],"radio_events":[11203,12516,23146,28073,29689],"checkbox_events":[14389,16074,16746,18435],"key_events":[],"mouse_events":[11203,12516,14389,16074,16746,18435,23146,28073,29689,30422.000000000116],"honeypot":0,"survey":"mace","page":6,"trial_type":"survey-mace","trial_index":14,"time_elapsed":592812,"internal_node_id":"0.0-14.0","task_version":"prescreen-v0.3","browser_interactions":0},{"responses":{"01":"No","02":"No","03":"No","04":"No","05":"No","06":"No","07":"No"},"rt":15472,"item_order":[0,1,2,3,4,5,6],"radio_events":[3395,5433,8719,10119,12049,13429,14534],"checkbox_events":[],"key_events":[],"mouse_events":[3395,5433,8719,10119,12049,13429,14534,15463],"honeypot":0,"survey":"mace","page":7,"trial_type":"survey-mace","trial_index":15,"time_elapsed":608290,"internal_node_id":"0.0-15.0","task_version":"prescreen-v0.3","browser_interactions":0},{"responses":{"01":"No","02":"No","03":"Yes","03_ages_10":"10","03_ages_11":"11","03_ages_12":"12","03_ages_13":"13","03_ages_14":"14","03_ages_15":"15","03_ages_16":"16","03_ages_17":"17","04":"No"},"rt":35906,"item_order":[0,1,2,3],"radio_events":[6010,9219,17191,34897],"checkbox_events":[22903,23935,24604.000000000116,25332,26116,26773,27461,29011],"key_events":[],"mouse_events":[6010,9219,17191,22903,23935,24604.000000000116,25332,26116,26773,27461,29011,34897,35898],"honeypot":0,"survey":"mace","page":8,"trial_type":"survey-mace","trial_index":16,"time_elapsed":644202,"internal_node_id":"0.0-16.0","task_version":"prescreen-v0.3","browser_interactions":0},{"responses":{"01":"Yes","01_ages_4":"4","01_ages_5":"5","01_ages_6":"6","01_ages_7":"7","01_ages_8":"8","01_ages_9":"9","01_ages_10":"10","01_ages_11":"11","01_ages_12":"12","01_ages_13":"13","01_ages_14":"14","01_ages_15":"15","01_ages_16":"16","01_ages_17":"17","01_ages_18":"18","02":"Yes","02_ages_5":"5","02_ages_6":"6","02_ages_7":"7","02_ages_8":"8","02_ages_9":"9","02_ages_10":"10","02_ages_11":"11","02_ages_12":"12","02_ages_13":"13","02_ages_14":"14","02_ages_15":"15","02_ages_16":"16","02_ages_17":"17","02_ages_18":"18","03":"Yes","03_ages_1":"1","03_ages_2":"2","03_ages_3":"3","03_ages_4":"4","03_ages_5":"5","03_ages_6":"6","03_ages_7":"7","03_ages_8":"8","03_ages_9":"9","03_ages_10":"10","03_ages_11":"11","03_ages_12":"12","03_ages_13":"13","03_ages_14":"14","03_ages_15":"15","03_ages_16":"16","03_ages_17":"17","03_ages_18":"18","04":"Yes","04_ages_1":"1","04_ages_2":"2","04_ages_3":"3","04_ages_4":"4","04_ages_5":"5","04_ages_6":"6","04_ages_7":"7","04_ages_8":"8","04_ages_9":"9","04_ages_10":"10","04_ages_11":"11","04_ages_12":"12","04_ages_13":"13","04_ages_14":"14","04_ages_15":"15","04_ages_16":"16","04_ages_17":"17","04_ages_18":"18"},"rt":77440,"item_order":[0,1,2,3],"radio_events":[4081,20958,39058,56826],"checkbox_events":[8782,9486,10146,10970,11595,12227.000000000116,13075,13708,14260,15736,17049.000000000116,17689,18401,19237,19973,22566,23367,25743,26532,27276,27876.000000000116,28845,29397,29966,30601,32835,33515.00000000012,34236,35040,35664,36249,40143,40847.00000000012,41487,42240,42888,43496.00000000012,44297,44973,45805,46494,47302,48303,49071,49803,51228,52437,53189,53921,58376.00000000012,60089,60689,61745,62397,63503,64359,65120,65864,66404,67275.00000000012,68037,68854,69662,70422,71560,72492,73460],"key_events":[],"mouse_events":[4081,8782,9486,10146,10970,11595,12227.000000000116,13075,13708,14260,15176,15736,17049.000000000116,17689,18401,19237,19973,20958,22566,23367,25743,26532,27276,27876.000000000116,28396,28845,29397,29966,30601,31090,31570,32194,32835,33515.00000000012,34236,35040,35664,36249,39058,40143,40847.00000000012,41487,42240,42888,43496.00000000012,44297,44973,45805,46494,47302,48303,49071,49803,51228,52437,53189,53921,56826,58376.00000000012,59192,60089,60689,61249,61745,62397,63503,64359,65120,65864,66404,67275.00000000012,68037,68854,69662,70422,71560,72492,73460,77434],"honeypot":0,"survey":"mace","page":9,"trial_type":"survey-mace","trial_index":17,"time_elapsed":721650,"internal_node_id":"0.0-17.0","task_version":"prescreen-v0.3","browser_interactions":0},{"responses":{"01":"Yes","01_ages_14":"14","01_ages_15":"15","02":"No","03":"No","04":"Yes","04_ages_14":"14","04_ages_15":"15","04_ages_16":"16","04_ages_17":"17","04_ages_18":"18","05":"Yes","05_ages_13":"13","05_ages_18":"18","06":"Yes","06_ages_17":"17","07":"No","08":"Yes","08_ages_14":"14","08_ages_15":"15","08_ages_16":"16","08_ages_17":"17","08_ages_18":"18"},"rt":65717.99999999988,"item_order":[0,1,2,3,4,5,6,7],"radio_events":[6400.999999999884,9174.999999999884,17561.999999999884,22279.999999999884,23487.999999999884,33847.99999999988,46171.99999999988,52237.99999999988,58628.99999999988],"checkbox_events":[10654.999999999884,11338.999999999884,13956.999999999884,14892.999999999884,27469.999999999884,28181.999999999884,28785.999999999884,29329.999999999884,29833.999999999884,39764.99999999988,43906.99999999988,48056.99999999988,61370.99999999988,62098.99999999988,62858.99999999988,63506.99999999988,64163.99999999988],"key_events":[],"mouse_events":[6400.999999999884,9174.999999999884,10654.999999999884,11338.999999999884,13956.999999999884,14892.999999999884,17561.999999999884,22279.999999999884,23487.999999999884,27469.999999999884,28181.999999999884,28785.999999999884,29329.999999999884,29833.999999999884,33847.99999999988,39764.99999999988,43906.99999999988,46171.99999999988,48056.99999999988,52237.99999999988,58628.99999999988,60706.99999999988,61370.99999999988,62098.99999999988,62858.99999999988,63506.99999999988,64163.99999999988,65704.99999999988],"honeypot":0,"survey":"mace","page":10,"trial_type":"survey-mace","trial_index":18,"time_elapsed":787378,"internal_node_id":"0.0-18.0","task_version":"prescreen-v0.3","browser_interactions":0,"instructed":0},{"rt":4439,"trial_type":"mental-health-alert","trial_index":19,"time_elapsed":791820,"internal_node_id":"0.0-19.0","task_version":"prescreen-v0.3","interactions":"[]"}]