[{"view_history":[{"page_index":0,"viewing_time":2445.699999988079},{"page_index":1,"viewing_time":3578.399999976158},{"page_index":2,"viewing_time":2872.199999988079},{"page_index":3,"viewing_time":1007.5}],"rt":9904.299999952316,"trial_type":"instructions","trial_index":0,"time_elapsed":9920,"internal_node_id":"0.0-0.0","task_version":"prescreen-v0.3"},{"rt":11623.799999952316,"responses":{"age":"32","gender-categorical":"Male","gender-free-response":"","ethnicity":"Not Hispanic or Latino","race":["Asian"],"education":"Master degree or higher","siblings":"1"},"trial_type":"survey-demo","trial_index":1,"time_elapsed":21549,"internal_node_id":"0.0-1.0","task_version":"prescreen-v0.3"},{"responses":{"Q05":"2","Q02":"1","Q15":"2","Q11":"3","Q01":"3","Q17":"2","Q07":"2","Q19":"1","Q20":"0","Q06":"1","Q14":"0","Q03":"2","Q04":"2","Q13":"1","Q12":"1","Q21":"3","Q16":"1","Q18":"1","Q09":"1","Q10":"2","Q08":"2"},"rt":106606.69999998808,"item_order":[4,1,14,10,0,16,6,18,19,5,13,2,3,12,11,20,15,17,8,9,7],"radio_events":[10733.399999976158,12520.800000011921,30179.899999976158,32256.30000001192,34205.69999998808,37422.5,42911.80000001192,50267.89999997616,52689.69999998808,58478.80000001192,62530.59999996424,63392.80000001192,65504,67663.5,72050.59999996424,77171.19999998808,79644.80000001192,86133.89999997616,90903.80000001192,99101.69999998808,100681.80000001192,102904.09999996424,105842.39999997616],"key_events":[],"mouse_events":[9130.899999976158,10733.399999976158,12520.800000011921,20683,29754.19999998808,30179.899999976158,32256.30000001192,33348.59999996424,34205.69999998808,37422.5,41857.80000001192,42478.80000001192,42911.80000001192,49864.30000001192,50267.89999997616,52689.69999998808,58478.80000001192,60831.39999997616,62530.59999996424,63392.80000001192,65504,67663.5,72050.59999996424,77171.19999998808,79644.80000001192,86133.89999997616,90903.80000001192,99101.69999998808,100681.80000001192,102904.09999996424,104904.30000001192,105842.39999997616,106604.80000001192],"straightlining":0.38095238095238093,"zigzagging":0.5,"honeypot":0,"survey":"sns","trial_type":"survey-template","trial_index":2,"time_elapsed":128160,"internal_node_id":"0.0-2.0","task_version":"prescreen-v0.3","browser_interactions":2,"infrequency":0},{"responses":{"Q12":"0","Q02":"1","Q03":"1","Q01":"2","Q10":"2","Q04":"2","Q11":"2","Q07":"3","Q08":"3","Q13":"0","Q06":"3","Q09":"2","Q05":"3"},"rt":47880.89999997616,"item_order":[11,1,2,0,9,3,10,6,7,12,5,8,4],"radio_events":[4738.099999964237,6935.899999976158,8846.699999988079,12837.199999988079,16379.699999988079,18902.899999976158,19575.5,23599.19999998808,26179.19999998808,30615.5,33277.5,35742.89999997616,38785.09999996424,42449.89999997616,44768.19999998808,46285.69999998808,47380],"key_events":[],"mouse_events":[4738.099999964237,6935.899999976158,8363.399999976158,8846.699999988079,12837.199999988079,16379.699999988079,18543.399999976158,18902.899999976158,19575.5,23599.19999998808,25658.19999998808,26179.19999998808,30615.5,33277.5,35742.89999997616,38785.09999996424,42449.89999997616,44768.19999998808,46285.69999998808,47380,47880.09999996424],"straightlining":0.38461538461538464,"zigzagging":0.5833333333333334,"honeypot":0,"survey":"bisbas","trial_type":"survey-template","trial_index":3,"time_elapsed":176044,"internal_node_id":"0.0-3.0","task_version":"prescreen-v0.3","browser_interactions":0,"infrequency":0},{"responses":{"Q01":"2","Q02":"2","Q03":"2"},"rt":13157.899999976158,"radio_events":[6603.399999976158,9277.399999976158,12459.199999988079],"key_events":[],"mouse_events":[6603.399999976158,9277.399999976158,11845.599999964237,12151.5,12459.199999988079,13157.5],"survey":"map","page":1,"trial_type":"survey-map","trial_index":4,"time_elapsed":189205,"internal_node_id":"0.0-4.0","task_version":"prescreen-v0.3","browser_interactions":0},{"responses":{"Q04":"3","Q05":"3","Q06":"3"},"rt":15263.200000047684,"radio_events":[4158,7103.800000011921,14470.900000035763],"key_events":[],"mouse_events":[4158,7103.800000011921,14470.900000035763,15262.900000035763],"survey":"map","page":2,"trial_type":"survey-map","trial_index":5,"time_elapsed":204470,"internal_node_id":"0.0-5.0","task_version":"prescreen-v0.3","browser_interactions":0},{"responses":{"Q07":"3","Q08":"4","Q09":"2"},"rt":19075.200000047684,"radio_events":[14691,16252.5,18200.5],"key_events":[],"mouse_events":[14691,16252.5,18200.5,19074.80000001192],"survey":"map","page":3,"trial_type":"survey-map","trial_index":6,"time_elapsed":223545,"internal_node_id":"0.0-6.0","task_version":"prescreen-v0.3","browser_interactions":2},{"responses":{"Q10":"2","Q11":"2","Q12":"1","Q13":"2","Q16":"0","Q14":"3","Q15":"3"},"rt":45464.5,"radio_events":[6195.199999988079,6947.100000023842,8172.800000011921,8813.199999988079,14244.800000011921,18924.400000035763,19598.30000001192,22900.900000035763,41135.90000003576,44615.60000002384],"key_events":[],"mouse_events":[6195.199999988079,6947.100000023842,8172.800000011921,8813.199999988079,9751.100000023842,9991.100000023842,14244.800000011921,18924.400000035763,19598.30000001192,22900.900000035763,40665.80000001192,41135.90000003576,44329.5,44615.60000002384,45463.80000001192],"survey":"map","page":4,"trial_type":"survey-map","trial_index":7,"time_elapsed":269011,"internal_node_id":"0.0-7.0","task_version":"prescreen-v0.3","browser_interactions":0,"infrequency":0},{"view_history":[{"page_index":0,"viewing_time":3302},{"page_index":1,"viewing_time":5653.699999988079}],"rt":8956.299999952316,"trial_type":"instructions","trial_index":8,"time_elapsed":277969,"internal_node_id":"0.0-8.0","task_version":"prescreen-v0.3"},{"responses":{"01":"No","02":"No","03":"No","04":"No","05":"No","06":"No"},"rt":16367.399999976158,"item_order":[0,1,2,3,4,5],"radio_events":[7597.300000011921,9321.300000011921,11249.199999988079,12494.800000011921,14356.399999976158,15363.899999976158],"checkbox_events":[],"key_events":[],"mouse_events":[0.09999996423721313,7597.300000011921,9321.300000011921,10295.199999988079,11249.199999988079,11994.5,12494.800000011921,13480.300000011921,14356.399999976158,15363.899999976158,16365.099999964237],"honeypot":0,"survey":"mace","page":1,"trial_type":"survey-mace","trial_index":9,"time_elapsed":294343,"internal_node_id":"0.0-9.0","task_version":"prescreen-v0.3","browser_interactions":0},{"responses":{"01":"No","02":"No","03":"No","04":"No","05":"No","06":"No","07":"No","08":"No"},"rt":14786.899999976158,"item_order":[0,1,2,3,4,5,6,7],"radio_events":[2583.300000011921,6185.5,6850.199999988079,8285.699999988079,10373,11321.5,12289.399999976158,14295.600000023842],"checkbox_events":[],"key_events":[],"mouse_events":[2583.300000011921,5090.100000023842,6185.5,6850.199999988079,8285.699999988079,10373,11321.5,12289.399999976158,13271.699999988079,14295.600000023842,14784.199999988079],"honeypot":0,"survey":"mace","page":2,"trial_type":"survey-mace","trial_index":10,"time_elapsed":309132,"internal_node_id":"0.0-10.0","task_version":"prescreen-v0.3","browser_interactions":0},{"responses":{"01":"No","02":"No","03":"No","04":"No"},"rt":7361.400000035763,"item_order":[0,1,2,3],"radio_events":[2526.5,3011.7000000476837,4726.200000047684,6229.800000011921],"checkbox_events":[],"key_events":[],"mouse_events":[2526.5,3011.7000000476837,4726.200000047684,6229.800000011921,7360.100000023842],"honeypot":0,"survey":"mace","page":3,"trial_type":"survey-mace","trial_index":11,"time_elapsed":316496,"internal_node_id":"0.0-11.0","task_version":"prescreen-v0.3","browser_interactions":0},{"responses":{"01":"No","02":"No"},"rt":11576,"item_order":[0,1],"radio_events":[5305.399999976158,6967.599999964237],"checkbox_events":[],"key_events":[],"mouse_events":[4058.199999988079,5305.399999976158,6427.399999976158,6967.599999964237,11575],"honeypot":0,"survey":"mace","page":4,"trial_type":"survey-mace","trial_index":12,"time_elapsed":328074,"internal_node_id":"0.0-12.0","task_version":"prescreen-v0.3","browser_interactions":0},{"responses":{"01":"No","02":"No","03":"No","04":"No","05":"No"},"rt":15946.699999988079,"item_order":[0,1,2,3,4],"radio_events":[4925.5,6549.400000035763,8839.300000011921,11529.100000023842,14527.400000035763,15423.699999988079],"checkbox_events":[],"key_events":[],"mouse_events":[4925.5,5972.300000011921,6549.400000035763,8839.300000011921,11529.100000023842,13263.699999988079,14527.400000035763,15423.699999988079,15945.100000023842],"honeypot":0,"survey":"mace","page":5,"trial_type":"survey-mace","trial_index":13,"time_elapsed":344023,"internal_node_id":"0.0-13.0","task_version":"prescreen-v0.3","browser_interactions":0},{"responses":{"01":"Yes","01_ages_8":"8","01_ages_9":"9","01_ages_10":"10","01_ages_11":"11","01_ages_12":"12","01_ages_13":"13","01_ages_14":"14","01_ages_15":"15","02":"No","03":"No","04":"No","05":"Yes","05_ages_14":"14"},"rt":32003.19999998808,"item_order":[0,1,2,3,4],"radio_events":[5989.600000023842,17712.899999976158,21224.899999976158,24752.600000023842,26537.69999998808,28268.69999998808],"checkbox_events":[9582.899999976158,9937.100000023842,10259.699999988079,10584.899999976158,10921.199999988079,11259.100000023842,11582.800000011921,12309,29994.69999998808],"key_events":[],"mouse_events":[5989.600000023842,9582.899999976158,9937.100000023842,10259.699999988079,10584.899999976158,10921.199999988079,11259.100000023842,11582.800000011921,11901,12309,17712.899999976158,21224.899999976158,24752.600000023842,26537.69999998808,27587.5,28268.69999998808,29994.69999998808,32001.399999976158],"honeypot":0,"survey":"mace","page":6,"trial_type":"survey-mace","trial_index":14,"time_elapsed":376029,"internal_node_id":"0.0-14.0","task_version":"prescreen-v0.3","browser_interactions":0},{"responses":{"01":"Yes","01_ages_12":"12","01_ages_14":"14","02":"No","03":"Yes","03_ages_12":"12","03_ages_14":"14","03_ages_15":"15","04":"No","05":"No","06":"No","07":"No"},"rt":31562.900000035763,"item_order":[0,1,2,3,4,5,6],"radio_events":[11878.199999988079,19159.80000001192,21110.5,27332.80000001192,28952.5,30280.100000023842,30918.19999998808],"checkbox_events":[13592.400000035763,15118,22704,23210.30000001192,24498.400000035763],"key_events":[],"mouse_events":[11878.199999988079,13592.400000035763,15118,19159.80000001192,21110.5,22704,23210.30000001192,24498.400000035763,27332.80000001192,28952.5,30280.100000023842,30918.19999998808,31560.69999998808],"honeypot":0,"survey":"mace","page":7,"trial_type":"survey-mace","trial_index":15,"time_elapsed":407595,"internal_node_id":"0.0-15.0","task_version":"prescreen-v0.3","browser_interactions":0},{"responses":{"01":"No","02":"No","03":"No","04":"No"},"rt":18757.899999976158,"item_order":[0,1,2,3],"radio_events":[4498.899999976158,10887.899999976158,13749.699999988079,16175.5,18063.69999998808],"checkbox_events":[],"key_events":[],"mouse_events":[4498.899999976158,10887.899999976158,13227,13749.699999988079,16175.5,17212,18063.69999998808,18756.399999976158],"honeypot":0,"survey":"mace","page":8,"trial_type":"survey-mace","trial_index":16,"time_elapsed":426355,"internal_node_id":"0.0-16.0","task_version":"prescreen-v0.3","browser_interactions":0},{"responses":{"01":"Yes","01_ages_1":"1","01_ages_2":"2","01_ages_3":"3","01_ages_4":"4","01_ages_5":"5","01_ages_6":"6","01_ages_7":"7","01_ages_8":"8","01_ages_9":"9","01_ages_10":"10","01_ages_11":"11","01_ages_12":"12","01_ages_13":"13","01_ages_14":"14","01_ages_15":"15","01_ages_16":"16","01_ages_17":"17","01_ages_18":"18","02":"Yes","02_ages_1":"1","02_ages_2":"2","02_ages_3":"3","02_ages_4":"4","02_ages_5":"5","02_ages_6":"6","02_ages_7":"7","02_ages_8":"8","02_ages_9":"9","02_ages_10":"10","02_ages_11":"11","02_ages_12":"12","02_ages_13":"13","02_ages_14":"14","02_ages_15":"15","02_ages_16":"16","02_ages_17":"17","02_ages_18":"18","03":"Yes","03_ages_1":"1","03_ages_2":"2","03_ages_3":"3","03_ages_4":"4","03_ages_5":"5","03_ages_6":"6","03_ages_7":"7","03_ages_8":"8","03_ages_9":"9","03_ages_10":"10","03_ages_11":"11","03_ages_12":"12","03_ages_13":"13","03_ages_14":"14","03_ages_15":"15","03_ages_16":"16","03_ages_17":"17","03_ages_18":"18","04":"Yes","04_ages_1":"1","04_ages_2":"2","04_ages_3":"3","04_ages_4":"4","04_ages_5":"5","04_ages_6":"6","04_ages_7":"7","04_ages_8":"8","04_ages_9":"9","04_ages_10":"10","04_ages_11":"11","04_ages_12":"12","04_ages_13":"13","04_ages_14":"14","04_ages_15":"15","04_ages_16":"16","04_ages_17":"17","04_ages_18":"18"},"rt":85167.69999998808,"item_order":[0,1,2,3],"radio_events":[17373.600000023842,36288.5,47812.30000001192,74553.19999998808],"checkbox_events":[21042.100000023842,21428.30000001192,21904.80000001192,22698,23099,24606.600000023842,24920.80000001192,25252.399999976158,25802.30000001192,26354.5,26950.5,27726.600000023842,30956.19999998808,31621.69999998808,32860.5,33239.60000002384,33570.10000002384,34322.30000001192,37332.69999998808,37640.5,38000.5,38380.5,38710,39322.60000002384,39842.60000002384,40350.80000001192,41013.80000001192,41300.80000001192,41720.60000002384,42148.60000002384,42518.89999997616,42916,43758.39999997616,44089.10000002384,45145.10000002384,45592.5,49042.19999998808,49455.60000002384,50917.19999998808,51361.80000001192,51873.5,52435.60000002384,52831.39999997616,53189.69999998808,53545.69999998808,53999.60000002384,54374.39999997616,54821.19999998808,67650.10000002384,68832.60000002384,69143.5,69485.80000001192,69855.39999997616,70695.30000001192,75723.10000002384,76045.5,76911.10000002384,77281.69999998808,77646,78269.19999998808,78897.69999998808,79215.10000002384,79685.5,80203.39999997616,80620.19999998808,81042.30000001192,81768.19999998808,82556.39999997616,82978.60000002384,83375,83760.19999998808,84188.39999997616],"key_events":[],"mouse_events":[16919.80000001192,17373.600000023842,20542.69999998808,21042.100000023842,21428.30000001192,21904.80000001192,22208.30000001192,22698,23099,23672.399999976158,24606.600000023842,24920.80000001192,25252.399999976158,25802.30000001192,26354.5,26950.5,27296.80000001192,27726.600000023842,30464.30000001192,30956.19999998808,31621.69999998808,32000.600000023842,32298.69999998808,32860.5,33239.60000002384,33570.10000002384,34322.30000001192,36288.5,37332.69999998808,37640.5,38000.5,38380.5,38710,39023,39322.60000002384,39842.60000002384,40350.80000001192,40764.30000001192,41013.80000001192,41300.80000001192,41720.60000002384,42148.60000002384,42518.89999997616,42916,43758.39999997616,44089.10000002384,44588.80000001192,45145.10000002384,45592.5,47812.30000001192,49042.19999998808,49455.60000002384,49883.39999997616,50199.69999998808,50917.19999998808,51361.80000001192,51873.5,52435.60000002384,52831.39999997616,53189.69999998808,53545.69999998808,53999.60000002384,54374.39999997616,54821.19999998808,67650.10000002384,68137.30000001192,68463.5,68832.60000002384,69143.5,69485.80000001192,69855.39999997616,70695.30000001192,74553.19999998808,75391.80000001192,75723.10000002384,76045.5,76429.19999998808,76911.10000002384,77281.69999998808,77646,77977.80000001192,78269.19999998808,78597.69999998808,78897.69999998808,79215.10000002384,79685.5,80203.39999997616,80620.19999998808,81042.30000001192,81424.10000002384,81768.19999998808,82246.60000002384,82556.39999997616,82978.60000002384,83375,83760.19999998808,84188.39999997616,84754.39999997616,85166.5],"honeypot":0,"survey":"mace","page":9,"trial_type":"survey-mace","trial_index":17,"time_elapsed":511525,"internal_node_id":"0.0-17.0","task_version":"prescreen-v0.3","browser_interactions":0},{"responses":{"01":"No","02":"No","03":"No","04":"Yes","04_ages_10":"10","04_ages_11":"11","04_ages_12":"12","04_ages_13":"13","04_ages_14":"14","04_ages_17":"17","04_ages_18":"18","05":"No","06":"Yes","06_ages_17":"17","07":"Yes","07_ages_1":"1","07_ages_2":"2","07_ages_3":"3","07_ages_4":"4","07_ages_5":"5","07_ages_6":"6","07_ages_7":"7","07_ages_8":"8","07_ages_9":"9","07_ages_10":"10","07_ages_11":"11","07_ages_12":"12","07_ages_13":"13","07_ages_14":"14","07_ages_15":"15","07_ages_16":"16","07_ages_17":"17","07_ages_18":"18","08":"Yes","08_ages_1":"1","08_ages_2":"2","08_ages_3":"3","08_ages_4":"4","08_ages_5":"5","08_ages_6":"6","08_ages_7":"7","08_ages_8":"8","08_ages_9":"9","08_ages_10":"10","08_ages_11":"11","08_ages_12":"12","08_ages_13":"13","08_ages_14":"14","08_ages_15":"15","08_ages_16":"16","08_ages_17":"17","08_ages_18":"18"},"rt":55022.19999998808,"item_order":[0,1,2,3,4,5,6,7],"radio_events":[7015.899999976158,7537.699999988079,8839.899999976158,10427.5,12429.800000011921,22171.69999998808,23444.30000001192,28754.80000001192,41520.39999997616],"checkbox_events":[15146.099999964237,15483.699999988079,15802,16133,16449.599999964237,19307.899999976158,19835.69999998808,24782.599999964237,29965.30000001192,30348.899999976158,30782.80000001192,31116.599999964237,31578.80000001192,33688.5,34033,34991,35332.69999998808,35940.89999997616,36280.39999997616,36694.69999998808,37105.09999996424,37484.89999997616,37820.39999997616,38456.89999997616,38784.5,39244.39999997616,43308.30000001192,43968.39999997616,44610.69999998808,44950.39999997616,45366.59999996424,46558.5,46968.59999996424,47616.69999998808,48414.59999996424,49306.5,49680.30000001192,50180.59999996424,50666.59999996424,51532.5,52896.30000001192,53494.69999998808,53946.5,54320.30000001192],"key_events":[],"mouse_events":[6070.5,7015.899999976158,7537.699999988079,8839.899999976158,10427.5,12429.800000011921,15146.099999964237,15483.699999988079,15802,16133,16449.599999964237,19307.899999976158,19835.69999998808,22171.69999998808,23444.30000001192,24782.599999964237,28754.80000001192,29965.30000001192,30348.899999976158,30782.80000001192,31116.599999964237,31578.80000001192,33688.5,34033,34331.39999997616,34733.30000001192,34991,35332.69999998808,35940.89999997616,36280.39999997616,36694.69999998808,37105.09999996424,37484.89999997616,37820.39999997616,38163.69999998808,38456.89999997616,38784.5,39244.39999997616,41520.39999997616,42709.59999996424,43308.30000001192,43611.5,43968.39999997616,44333.19999998808,44610.69999998808,44950.39999997616,45366.59999996424,45686.89999997616,46025,46558.5,46968.59999996424,47616.69999998808,47967.19999998808,48414.59999996424,48752.59999996424,49306.5,49680.30000001192,50180.59999996424,50666.59999996424,51118.89999997616,51532.5,52006.89999997616,52286.69999998808,52656.59999996424,52896.30000001192,53494.69999998808,53946.5,54320.30000001192,55019],"honeypot":0,"survey":"mace","page":10,"trial_type":"survey-mace","trial_index":18,"time_elapsed":566551,"internal_node_id":"0.0-18.0","task_version":"prescreen-v0.3","browser_interactions":0,"instructed":0},{"rt":6070.300000011921,"trial_type":"mental-health-alert","trial_index":19,"time_elapsed":572622,"internal_node_id":"0.0-19.0","task_version":"prescreen-v0.3","interactions":"[{\"event\":\"blur\",\"trial\":2,\"time\":38430},{\"event\":\"focus\",\"trial\":2,\"time\":42163},{\"event\":\"blur\",\"trial\":6,\"time\":210265},{\"event\":\"focus\",\"trial\":6,\"time\":219039}]"}]