[{"view_history":[{"page_index":0,"viewing_time":2361.800000000745},{"page_index":1,"viewing_time":12747.5},{"page_index":2,"viewing_time":2320.4000000003725},{"page_index":3,"viewing_time":4121.799999998882}],"rt":21555.400000000373,"trial_type":"instructions","trial_index":0,"time_elapsed":21579,"internal_node_id":"0.0-0.0","task_version":"prescreen-v0.3"},{"rt":14757.299999998882,"responses":{"age":"42","gender-categorical":"Male","gender-free-response":"","ethnicity":"Not Hispanic or Latino","race":["White"],"education":"Bachelor degree","siblings":"0"},"trial_type":"survey-demo","trial_index":1,"time_elapsed":36345,"internal_node_id":"0.0-1.0","task_version":"prescreen-v0.3"},{"responses":{"Q20":"0","Q09":"0","Q12":"2","Q17":"1","Q13":"2","Q04":"1","Q21":"3","Q19":"1","Q16":"1","Q10":"1","Q08":"1","Q02":"0","Q18":"0","Q14":"0","Q06":"0","Q11":"0","Q05":"0","Q15":"2","Q03":"0","Q07":"0","Q01":"0"},"rt":99016.40000000037,"item_order":[19,8,11,16,12,3,20,18,15,9,7,1,17,13,5,10,4,14,2,6,0],"radio_events":[3580.0999999996275,10345.400000000373,15271.699999999255,18056.299999998882,20935.900000000373,25620.099999999627,28969.799999998882,39540.699999999255,45987.699999999255,47827.79999999888,50313.5,56559.699999999255,59695.79999999888,63867.29999999888,68225.59999999963,72981.5,74513.5,78933.79999999888,83480.90000000037,87942,90109.5,95017.19999999925,97916.79999999888],"key_events":[],"mouse_events":[3580.0999999996275,6516.799999998882,10345.400000000373,15271.699999999255,18056.299999998882,20935.900000000373,25620.099999999627,28969.799999998882,39540.699999999255,45987.699999999255,47827.79999999888,50313.5,56559.699999999255,59695.79999999888,63867.29999999888,68225.59999999963,72981.5,74513.5,78933.79999999888,83480.90000000037,87942,90109.5,95017.19999999925,97916.79999999888,99013.29999999888],"straightlining":0.5238095238095238,"zigzagging":0.2,"honeypot":0,"survey":"sns","trial_type":"survey-template","trial_index":2,"time_elapsed":135368,"internal_node_id":"0.0-2.0","task_version":"prescreen-v0.3","browser_interactions":0,"infrequency":0},{"responses":{"Q10":"2","Q11":"2","Q02":"2","Q09":"2","Q07":"2","Q03":"2","Q13":"0","Q06":"3","Q08":"2","Q05":"2","Q04":"3","Q01":"3","Q12":"1"},"rt":49692.79999999888,"item_order":[9,10,1,8,6,2,12,5,7,4,3,0,11],"radio_events":[6258.299999998882,8740.699999999255,11842.900000000373,16795.799999998882,19141,22021.5,24891.099999999627,27295.299999998882,31967,34589,36394.29999999888,42002.699999999255,44696.29999999888,48783.09999999963],"key_events":[],"mouse_events":[6258.299999998882,8740.699999999255,11842.900000000373,16795.799999998882,19141,22021.5,24891.099999999627,27295.299999998882,30681.199999999255,31967,34589,36394.29999999888,42002.699999999255,44696.29999999888,48783.09999999963,49690.90000000037],"straightlining":0.6153846153846154,"zigzagging":0.25,"honeypot":0,"survey":"bisbas","trial_type":"survey-template","trial_index":3,"time_elapsed":185067,"internal_node_id":"0.0-3.0","task_version":"prescreen-v0.3","browser_interactions":0,"infrequency":0},{"responses":{"Q01":"0","Q02":"0","Q03":"1"},"rt":19098.89999999851,"radio_events":[9046.199999999255,12586.89999999851,18266.89999999851],"key_events":[],"mouse_events":[9046.199999999255,12586.89999999851,18266.89999999851,19098.39999999851],"survey":"map","page":1,"trial_type":"survey-map","trial_index":4,"time_elapsed":204170,"internal_node_id":"0.0-4.0","task_version":"prescreen-v0.3","browser_interactions":0},{"responses":{"Q04":"1","Q05":"1","Q06":"1"},"rt":12524.599999999627,"radio_events":[5530.4000000003725,8224.300000000745,10852],"key_events":[],"mouse_events":[5530.4000000003725,8224.300000000745,10852,12523.699999999255],"survey":"map","page":2,"trial_type":"survey-map","trial_index":5,"time_elapsed":216696,"internal_node_id":"0.0-5.0","task_version":"prescreen-v0.3","browser_interactions":0},{"responses":{"Q07":"2","Q08":"2","Q09":"1"},"rt":15941.700000001118,"radio_events":[7229.9000000003725,12527.099999999627,15038.900000000373],"key_events":[],"mouse_events":[7229.9000000003725,12527.099999999627,15038.900000000373,15941],"survey":"map","page":3,"trial_type":"survey-map","trial_index":6,"time_elapsed":232640,"internal_node_id":"0.0-6.0","task_version":"prescreen-v0.3","browser_interactions":0},{"responses":{"Q10":"3","Q11":"1","Q12":"2","Q13":"2","Q16":"0","Q14":"1","Q15":"2"},"rt":32545.199999999255,"radio_events":[4466.4000000003725,8984.099999999627,11618.5,16131.299999998882,23993.299999998882,27212.099999999627,28344.5,31842.199999999255],"key_events":[],"mouse_events":[4466.4000000003725,8984.099999999627,11618.5,16131.299999998882,23993.299999998882,27212.099999999627,28344.5,31842.199999999255,32544.099999999627],"survey":"map","page":4,"trial_type":"survey-map","trial_index":7,"time_elapsed":265189,"internal_node_id":"0.0-7.0","task_version":"prescreen-v0.3","browser_interactions":0,"infrequency":0},{"view_history":[{"page_index":0,"viewing_time":45350.79999999888},{"page_index":1,"viewing_time":6389.0999999996275}],"rt":51740.5,"trial_type":"instructions","trial_index":8,"time_elapsed":316931,"internal_node_id":"0.0-8.0","task_version":"prescreen-v0.3"},{"responses":{"01":"Yes","01_ages_6":"6","01_ages_7":"7","01_ages_8":"8","01_ages_9":"9","02":"Yes","02_ages_5":"5","02_ages_6":"6","02_ages_7":"7","02_ages_8":"8","02_ages_13":"13","02_ages_14":"14","03":"No","04":"No","05":"No","06":"No"},"rt":44562.5,"item_order":[0,1,2,3,4,5],"radio_events":[13381.5,25792.599999999627,30701.299999998882,33026.699999999255,34650.89999999851,36944.79999999888],"checkbox_events":[17486.799999998882,17885.799999998882,18319.299999998882,18848.89999999851,21234.699999999255,21743.099999999627,40384.89999999851,41233.59999999963,42079.5,42902.39999999851],"key_events":[],"mouse_events":[0.09999999962747097,8225.599999999627,13381.5,17486.799999998882,17885.799999998882,18319.299999998882,18848.89999999851,21234.699999999255,21743.099999999627,25792.599999999627,30701.299999998882,33026.699999999255,34650.89999999851,36944.79999999888,40384.89999999851,41233.59999999963,42079.5,42902.39999999851,44557.89999999851],"honeypot":0,"survey":"mace","page":1,"trial_type":"survey-mace","trial_index":9,"time_elapsed":361500,"internal_node_id":"0.0-9.0","task_version":"prescreen-v0.3","browser_interactions":0},{"responses":{"01":"No","02":"No","03":"No","04":"No","05":"No","06":"No","07":"No","08":"No"},"rt":15691.099999999627,"item_order":[0,1,2,3,4,5,6,7],"radio_events":[3035.699999999255,4546.9000000003725,7690.4000000003725,9197.199999999255,10943.400000000373,12653.900000000373,14008.599999999627,14887.699999999255],"checkbox_events":[],"key_events":[],"mouse_events":[3035.699999999255,4546.9000000003725,7690.4000000003725,9197.199999999255,10943.400000000373,12653.900000000373,14008.599999999627,14887.699999999255,15685],"honeypot":0,"survey":"mace","page":2,"trial_type":"survey-mace","trial_index":10,"time_elapsed":377197,"internal_node_id":"0.0-10.0","task_version":"prescreen-v0.3","browser_interactions":0},{"responses":{"01":"No","02":"No","03":"No","04":"No"},"rt":7946.800000000745,"item_order":[0,1,2,3],"radio_events":[2595.0999999996275,3665.5999999996275,5805.699999999255,6867.0999999996275],"checkbox_events":[],"key_events":[],"mouse_events":[2595.0999999996275,3665.5999999996275,5805.699999999255,6867.0999999996275,7943.5999999996275],"honeypot":0,"survey":"mace","page":3,"trial_type":"survey-mace","trial_index":11,"time_elapsed":385148,"internal_node_id":"0.0-11.0","task_version":"prescreen-v0.3","browser_interactions":0},{"responses":{"01":"No","02":"No"},"rt":4925.4000000003725,"item_order":[0,1],"radio_events":[2421.10000000149,3950.7000000011176],"checkbox_events":[],"key_events":[],"mouse_events":[2421.10000000149,3950.7000000011176,4924.700000001118],"honeypot":0,"survey":"mace","page":4,"trial_type":"survey-mace","trial_index":12,"time_elapsed":390076,"internal_node_id":"0.0-12.0","task_version":"prescreen-v0.3","browser_interactions":0},{"responses":{"01":"No","02":"No","03":"No","04":"No","05":"No"},"rt":24546.699999999255,"item_order":[0,1,2,3,4],"radio_events":[13586.199999999255,15447.5,18191.300000000745,21448.099999999627,23766.900000000373],"checkbox_events":[],"key_events":[],"mouse_events":[13586.199999999255,15447.5,18191.300000000745,21448.099999999627,23766.900000000373,24545.199999999255],"honeypot":0,"survey":"mace","page":5,"trial_type":"survey-mace","trial_index":13,"time_elapsed":414625,"internal_node_id":"0.0-13.0","task_version":"prescreen-v0.3","browser_interactions":0},{"responses":{"01":"Yes","01_ages_12":"12","01_ages_13":"13","01_ages_14":"14","01_ages_15":"15","01_ages_16":"16","01_ages_17":"17","01_ages_18":"18","02":"Yes","02_ages_11":"11","02_ages_12":"12","02_ages_13":"13","02_ages_14":"14","02_ages_15":"15","03":"No","04":"No","05":"No"},"rt":54599.699999999255,"item_order":[0,1,2,3,4],"radio_events":[8159.0999999996275,24500.900000000373,33470.5,38210.79999999888,53818.90000000037],"checkbox_events":[10570.599999999627,11782.599999999627,12263.299999998882,12727.400000000373,17598.099999999627,18251.5,18911,21300.299999998882,26511.099999999627,27041.5,27577.5,44460.79999999888,45430.59999999963,48897.09999999963],"key_events":[],"mouse_events":[8159.0999999996275,10570.599999999627,11782.599999999627,12263.299999998882,12727.400000000373,17598.099999999627,18251.5,18911,21300.299999998882,24500.900000000373,26511.099999999627,27041.5,27577.5,33470.5,38210.79999999888,44460.79999999888,45430.59999999963,48897.09999999963,53818.90000000037,54595.90000000037],"honeypot":0,"survey":"mace","page":6,"trial_type":"survey-mace","trial_index":14,"time_elapsed":469227,"internal_node_id":"0.0-14.0","task_version":"prescreen-v0.3","browser_interactions":0},{"responses":{"01":"No","02":"No","03":"Yes","03_ages_16":"16","03_ages_17":"17","04":"No","05":"No","06":"No","07":"No"},"rt":24950.400000000373,"item_order":[0,1,2,3,4,5,6],"radio_events":[4236.799999998882,6058.299999998882,12599.400000000373,17392.599999999627,19026.199999999255,21641.5,24115.900000000373],"checkbox_events":[15020.5,15656.299999998882],"key_events":[],"mouse_events":[4236.799999998882,6058.299999998882,12599.400000000373,14354,15020.5,15656.299999998882,17392.599999999627,19026.199999999255,21641.5,24115.900000000373,24947.799999998882],"honeypot":0,"survey":"mace","page":7,"trial_type":"survey-mace","trial_index":15,"time_elapsed":494182,"internal_node_id":"0.0-15.0","task_version":"prescreen-v0.3","browser_interactions":0},{"responses":{"01":"No","02":"No","03":"No","04":"No"},"rt":15047.900000000373,"item_order":[0,1,2,3],"radio_events":[4415.800000000745,9517.200000001118,12054.900000000373,14212.300000000745],"checkbox_events":[],"key_events":[],"mouse_events":[4415.800000000745,9517.200000001118,12054.900000000373,14212.300000000745,15044.900000000373],"honeypot":0,"survey":"mace","page":8,"trial_type":"survey-mace","trial_index":16,"time_elapsed":509233,"internal_node_id":"0.0-16.0","task_version":"prescreen-v0.3","browser_interactions":0},{"responses":{"01":"Yes","01_ages_1":"1","01_ages_2":"2","01_ages_3":"3","01_ages_4":"4","01_ages_5":"5","01_ages_6":"6","01_ages_7":"7","01_ages_8":"8","01_ages_9":"9","01_ages_10":"10","01_ages_11":"11","01_ages_12":"12","01_ages_13":"13","01_ages_14":"14","01_ages_15":"15","01_ages_16":"16","01_ages_17":"17","01_ages_18":"18","02":"Yes","02_ages_1":"1","02_ages_2":"2","02_ages_3":"3","02_ages_4":"4","02_ages_5":"5","02_ages_6":"6","02_ages_7":"7","02_ages_8":"8","02_ages_9":"9","02_ages_10":"10","02_ages_11":"11","02_ages_12":"12","02_ages_13":"13","02_ages_14":"14","02_ages_15":"15","02_ages_16":"16","02_ages_17":"17","02_ages_18":"18","03":"Yes","03_ages_1":"1","03_ages_2":"2","03_ages_3":"3","03_ages_4":"4","03_ages_5":"5","03_ages_6":"6","03_ages_7":"7","03_ages_8":"8","03_ages_9":"9","03_ages_10":"10","03_ages_11":"11","03_ages_12":"12","03_ages_13":"13","03_ages_14":"14","03_ages_15":"15","03_ages_16":"16","03_ages_17":"17","03_ages_18":"18","04":"Yes","04_ages_1":"1","04_ages_2":"2","04_ages_3":"3","04_ages_4":"4","04_ages_5":"5","04_ages_6":"6","04_ages_7":"7","04_ages_8":"8","04_ages_9":"9","04_ages_10":"10","04_ages_11":"11","04_ages_12":"12","04_ages_13":"13","04_ages_14":"14"},"rt":69422.10000000149,"item_order":[0,1,2,3],"radio_events":[3483.300000000745,25589.5,40599.60000000149,58952.20000000112],"checkbox_events":[7320.9000000003725,7861.9000000003725,8563,9475.400000000373,10091.300000000745,10589.700000001118,11135.800000000745,12611.5,13685.800000000745,15653.300000000745,16289.400000000373,16964.800000000745,18079.400000000373,18932.800000000745,19387.60000000149,19831.300000000745,20289.800000000745,20971.400000000373,27647.200000001118,28069,28633.10000000149,29519.5,30235.5,30673,31124.900000000373,31801.900000000373,32836.5,33601.90000000037,34047.20000000112,34568.5,35051.5,35495.5,36000.60000000149,36539.5,36963.70000000112,37679.5,41883.10000000149,43549.5,44423.300000000745,45199.40000000037,45683.300000000745,46142.90000000037,46728.90000000037,47225.40000000037,47771.40000000037,48438.70000000112,49451.20000000112,50146.5,50722.40000000037,51525.60000000149,52431.300000000745,52935.20000000112,53609.40000000037,54747.60000000149,60901.40000000037,61365.300000000745,61895.20000000112,62316.60000000149,62947,63434.800000000745,63897.300000000745,65308.300000000745,65777.5,66290.90000000037,66761.10000000149,67204.60000000149,68222.70000000112,68815.30000000075],"key_events":[],"mouse_events":[3063.800000000745,3483.300000000745,6775.800000000745,7320.9000000003725,7861.9000000003725,8563,9475.400000000373,10091.300000000745,10589.700000001118,11135.800000000745,11987.10000000149,12611.5,13685.800000000745,15653.300000000745,16289.400000000373,16964.800000000745,18079.400000000373,18932.800000000745,19387.60000000149,19831.300000000745,20289.800000000745,20971.400000000373,25589.5,27647.200000001118,28069,28633.10000000149,29519.5,30235.5,30673,31124.900000000373,31801.900000000373,32236,32836.5,33601.90000000037,34047.20000000112,34568.5,35051.5,35495.5,36000.60000000149,36539.5,36963.70000000112,37679.5,40599.60000000149,41883.10000000149,42441.5,43015,43549.5,44423.300000000745,45199.40000000037,45683.300000000745,46142.90000000037,46728.90000000037,47225.40000000037,47771.40000000037,48438.70000000112,48946.60000000149,49451.20000000112,50146.5,50722.40000000037,51525.60000000149,52431.300000000745,52935.20000000112,53609.40000000037,54747.60000000149,58952.20000000112,60901.40000000037,61365.300000000745,61895.20000000112,62316.60000000149,62947,63434.800000000745,63897.300000000745,64558.60000000149,65308.300000000745,65777.5,66290.90000000037,66761.10000000149,67204.60000000149,68222.70000000112,68815.30000000075,69418.80000000075],"honeypot":0,"survey":"mace","page":9,"trial_type":"survey-mace","trial_index":17,"time_elapsed":578660,"internal_node_id":"0.0-17.0","task_version":"prescreen-v0.3","browser_interactions":0},{"responses":{"01":"No","02":"No","03":"No","04":"Yes","04_ages_14":"14","04_ages_15":"15","04_ages_16":"16","04_ages_17":"17","04_ages_18":"18","05":"No","06":"Yes","06_ages_17":"17","07":"Yes","07_ages_10":"10","07_ages_11":"11","07_ages_12":"12","07_ages_13":"13","07_ages_14":"14","07_ages_15":"15","07_ages_16":"16","08":"Yes","08_ages_10":"10","08_ages_11":"11","08_ages_12":"12","08_ages_13":"13","08_ages_14":"14","08_ages_15":"15","08_ages_16":"16"},"rt":42154.10000000149,"item_order":[0,1,2,3,4,5,6,7],"radio_events":[2806.10000000149,4424.200000001118,6411.4000000003725,9136.400000000373,20294.10000000149,22407.60000000149,26210.5,34850.20000000112],"checkbox_events":[12424.700000001118,13424.400000000373,14342.700000001118,14801.900000000373,15714,23776.300000000745,28373.800000000745,28776.300000000745,29604.700000001118,30103.900000000373,30704.10000000149,31393.900000000373,36089.800000000745,36540.10000000149,37205.60000000149,37780.40000000037,38541.90000000037,38969.800000000745,39412.800000000745,40421.90000000037],"key_events":[],"mouse_events":[2806.10000000149,4424.200000001118,6411.4000000003725,9136.400000000373,12424.700000001118,13424.400000000373,14342.700000001118,14801.900000000373,15290.200000001118,15714,20294.10000000149,22407.60000000149,23776.300000000745,26210.5,27668.200000001118,28373.800000000745,28776.300000000745,29182.200000001118,29604.700000001118,30103.900000000373,30704.10000000149,31393.900000000373,31854.10000000149,34850.20000000112,36089.800000000745,36540.10000000149,37205.60000000149,37780.40000000037,38541.90000000037,38969.800000000745,39412.800000000745,40421.90000000037,42151.40000000037],"honeypot":0,"survey":"mace","page":10,"trial_type":"survey-mace","trial_index":18,"time_elapsed":620818,"internal_node_id":"0.0-18.0","task_version":"prescreen-v0.3","browser_interactions":0,"instructed":0},{"rt":8192.799999998882,"trial_type":"mental-health-alert","trial_index":19,"time_elapsed":629012,"internal_node_id":"0.0-19.0","task_version":"prescreen-v0.3","interactions":"[{\"event\":\"blur\",\"trial\":0,\"time\":5371},{\"event\":\"focus\",\"trial\":0,\"time\":11321},{\"event\":\"blur\",\"trial\":8,\"time\":269994},{\"event\":\"focus\",\"trial\":8,\"time\":308824}]"}]