[{"view_history":[{"page_index":0,"viewing_time":1835.3999999761581},{"page_index":1,"viewing_time":1521.1000000238419},{"page_index":2,"viewing_time":2524.5},{"page_index":3,"viewing_time":981.7000000476837}],"rt":6863.200000047684,"trial_type":"instructions","trial_index":0,"time_elapsed":6878,"internal_node_id":"0.0-0.0","task_version":"prescreen-v0.3"},{"rt":45041.09999990463,"responses":{"age":"28","gender-categorical":"Male","gender-free-response":"","ethnicity":"Not Hispanic or Latino","race":["White"],"education":"Bachelor degree","siblings":"3"},"trial_type":"survey-demo","trial_index":1,"time_elapsed":51924,"internal_node_id":"0.0-1.0","task_version":"prescreen-v0.3"},{"responses":{"Q19":"1","Q03":"1","Q13":"1","Q07":"1","Q05":"0","Q21":"2","Q20":"1","Q18":"1","Q08":"2","Q14":"1","Q01":"2","Q09":"1","Q11":"1","Q16":"1","Q06":"1","Q02":"0","Q04":"2","Q17":"1","Q12":"1","Q10":"1","Q15":"2"},"rt":104547.10000002384,"item_order":[18,2,12,6,4,20,19,17,7,13,0,8,10,15,5,1,3,16,11,9,14],"radio_events":[14809.399999976158,22213.100000023842,22758.200000047684,28505.700000047684,33143.10000002384,37109.299999952316,39157.299999952316,43666.89999997616,46169.200000047684,48713.299999952316,51123.200000047684,57173.10000002384,58837.39999997616,61841.89999997616,62957.10000002384,64005.200000047684,67552.89999997616,73705.10000002384,75780.89999997616,79324.89999997616,80899.60000002384,89369.20000004768,94413.10000002384,96468.60000002384,99885.10000002384,103751.20000004768],"key_events":[],"mouse_events":[14809.399999976158,19225,21746.899999976158,22213.100000023842,22758.200000047684,27425.200000047684,28505.700000047684,33143.10000002384,37109.299999952316,38515.10000002384,39157.299999952316,43666.89999997616,46169.200000047684,48713.299999952316,51123.200000047684,57173.10000002384,58837.39999997616,60137.799999952316,61841.89999997616,62957.10000002384,64005.200000047684,67552.89999997616,73705.10000002384,75138.39999997616,75780.89999997616,79324.89999997616,80899.60000002384,88171.70000004768,89369.20000004768,94413.10000002384,96468.60000002384,99885.10000002384,103751.20000004768,104545.5],"straightlining":0.6666666666666666,"zigzagging":0.45,"honeypot":0,"survey":"sns","trial_type":"survey-template","trial_index":2,"time_elapsed":156474,"internal_node_id":"0.0-2.0","task_version":"prescreen-v0.3","browser_interactions":0,"infrequency":0.5},{"responses":{"Q01":"1","Q13":"0","Q11":"2","Q08":"2","Q07":"3","Q12":"1","Q05":"3","Q10":"1","Q03":"2","Q09":"1","Q04":"2","Q02":"1","Q06":"2"},"rt":81450.89999997616,"item_order":[0,12,10,7,6,11,4,9,2,8,3,1,5],"radio_events":[5087.200000047684,8916.600000023842,23837.100000023842,28713.399999976158,31841,39505.300000071526,42579.60000002384,47669.200000047684,55121.60000002384,60528.800000071526,68993.5,73273.10000002384,76064.70000004768,79243.30000007153,80877.60000002384],"key_events":[],"mouse_events":[5087.200000047684,8916.600000023842,23837.100000023842,27206.100000023842,28713.399999976158,30475.200000047684,31841,39505.300000071526,41827.700000047684,42579.60000002384,47669.200000047684,55121.60000002384,58241.60000002384,60528.800000071526,66213.20000004768,68993.5,72353.30000007153,73273.10000002384,75437.5,76064.70000004768,79243.30000007153,80877.60000002384,81449.70000004768],"straightlining":0.38461538461538464,"zigzagging":0.5833333333333334,"honeypot":0,"survey":"bisbas","trial_type":"survey-template","trial_index":3,"time_elapsed":237931,"internal_node_id":"0.0-3.0","task_version":"prescreen-v0.3","browser_interactions":0,"infrequency":0},{"responses":{"Q01":"3","Q02":"2","Q03":"3"},"rt":16822.200000047684,"radio_events":[5768.800000071526,11822.600000023842,16126.5],"key_events":[],"mouse_events":[5220.899999976158,5768.800000071526,11822.600000023842,16126.5,16821.800000071526],"survey":"map","page":1,"trial_type":"survey-map","trial_index":4,"time_elapsed":254755,"internal_node_id":"0.0-4.0","task_version":"prescreen-v0.3","browser_interactions":0},{"responses":{"Q04":"3","Q05":"2","Q06":"3"},"rt":13967.300000071526,"radio_events":[5231.200000047684,9221.700000047684,13267.300000071526],"key_events":[],"mouse_events":[5231.200000047684,7151.200000047684,7733.300000071526,9221.700000047684,11527.400000095367,13267.300000071526,13967],"survey":"map","page":2,"trial_type":"survey-map","trial_index":5,"time_elapsed":268724,"internal_node_id":"0.0-5.0","task_version":"prescreen-v0.3","browser_interactions":0},{"responses":{"Q07":"2","Q08":"4","Q09":"3"},"rt":13715.100000023842,"radio_events":[4756.400000095367,9760.600000023842,12904.800000071526],"key_events":[],"mouse_events":[4756.400000095367,8902.700000047684,9760.600000023842,12271.100000023842,12904.800000071526,13714.600000023842],"survey":"map","page":3,"trial_type":"survey-map","trial_index":6,"time_elapsed":282440,"internal_node_id":"0.0-6.0","task_version":"prescreen-v0.3","browser_interactions":0},{"responses":{"Q10":"2","Q11":"2","Q12":"2","Q13":"1","Q16":"0","Q14":"3","Q15":"2"},"rt":40073,"radio_events":[14114.399999976158,15773.600000023842,18783.200000047684,23076.399999976158,27527.800000071526,34221.60000002384,39282],"key_events":[],"mouse_events":[12707.600000023842,14114.399999976158,15773.600000023842,18783.200000047684,23076.399999976158,27527.800000071526,34221.60000002384,38036,39282,40072.10000002384],"survey":"map","page":4,"trial_type":"survey-map","trial_index":7,"time_elapsed":322515,"internal_node_id":"0.0-7.0","task_version":"prescreen-v0.3","browser_interactions":0,"infrequency":0},{"view_history":[{"page_index":0,"viewing_time":2475.100000023842},{"page_index":1,"viewing_time":4100.100000023842}],"rt":6576,"trial_type":"instructions","trial_index":8,"time_elapsed":329092,"internal_node_id":"0.0-8.0","task_version":"prescreen-v0.3"},{"responses":{"01":"No","02":"No","03":"No","04":"No","05":"No","06":"No"},"rt":47153.799999952316,"item_order":[0,1,2,3,4,5],"radio_events":[3604.1999999284744,10341.399999976158,43938.299999952316,44940.39999997616,45700.39999997616,46656.89999997616],"checkbox_events":[],"key_events":[],"mouse_events":[0,3604.1999999284744,10341.399999976158,43938.299999952316,44940.39999997616,45700.39999997616,46656.89999997616,47152.39999997616],"honeypot":0,"survey":"mace","page":1,"trial_type":"survey-mace","trial_index":9,"time_elapsed":376253,"internal_node_id":"0.0-9.0","task_version":"prescreen-v0.3","browser_interactions":0},{"responses":{"01":"No","02":"No","03":"No","03_ages_2":"2","04":"No","05":"No","06":"No","07":"No","08":"No"},"rt":62872,"item_order":[0,1,2,3,4,5,6,7],"radio_events":[43246.89999997616,44400.199999928474,46138.299999952316,48165.60000002384,53587.799999952316,54764.5,57904.10000002384,59906.60000002384,61036.299999952316,62485.699999928474],"checkbox_events":[51354],"key_events":[],"mouse_events":[43246.89999997616,44400.199999928474,46138.299999952316,48165.60000002384,51354,53587.799999952316,54764.5,57904.10000002384,58852.199999928474,59906.60000002384,61036.299999952316,62485.699999928474,62866.39999997616],"honeypot":0,"survey":"mace","page":2,"trial_type":"survey-mace","trial_index":10,"time_elapsed":439130,"internal_node_id":"0.0-10.0","task_version":"prescreen-v0.3","browser_interactions":2},{"responses":{"01":"No","02":"No","03":"No","04":"No"},"rt":6552,"item_order":[0,1,2,3],"radio_events":[2213.3000000715256,3125,5094.800000071526,5678.900000095367],"checkbox_events":[],"key_events":[],"mouse_events":[2213.3000000715256,3125,4224.800000071526,5094.800000071526,5678.900000095367,6173.900000095367,6550.900000095367],"honeypot":0,"survey":"mace","page":3,"trial_type":"survey-mace","trial_index":11,"time_elapsed":445687,"internal_node_id":"0.0-11.0","task_version":"prescreen-v0.3","browser_interactions":0},{"responses":{"01":"No","02":"No"},"rt":4150.100000023842,"item_order":[0,1],"radio_events":[2493.1999999284744,3131.100000023842],"checkbox_events":[],"key_events":[],"mouse_events":[2493.1999999284744,3131.100000023842,4149.299999952316],"honeypot":0,"survey":"mace","page":4,"trial_type":"survey-mace","trial_index":12,"time_elapsed":449839,"internal_node_id":"0.0-12.0","task_version":"prescreen-v0.3","browser_interactions":0},{"responses":{"01":"No","02":"No","03":"No","04":"No","05":"No"},"rt":7381.100000023842,"item_order":[0,1,2,3,4],"radio_events":[2343.4000000953674,3177.2000000476837,4182.5,5160.800000071526,6382],"checkbox_events":[],"key_events":[],"mouse_events":[2343.4000000953674,3177.2000000476837,4182.5,5160.800000071526,6382,7379.400000095367],"honeypot":0,"survey":"mace","page":5,"trial_type":"survey-mace","trial_index":13,"time_elapsed":457222,"internal_node_id":"0.0-13.0","task_version":"prescreen-v0.3","browser_interactions":0},{"responses":{"01":"No","01_ages_7":"7","01_ages_8":"8","01_ages_9":"9","02":"No","03":"No","04":"No","05":"No"},"rt":25969.600000023842,"item_order":[0,1,2,3,4],"radio_events":[1677.5,6807.899999976158,17619.5,20387.899999976158,22357.5,23161.5,25311.600000023842],"checkbox_events":[11839.899999976158,12285.899999976158,13417.399999976158],"key_events":[],"mouse_events":[1677.5,6807.899999976158,11839.899999976158,12285.899999976158,13417.399999976158,17619.5,20387.899999976158,21531.799999952316,22357.5,23161.5,24127.699999928474,25311.600000023842,25967.699999928474],"honeypot":0,"survey":"mace","page":6,"trial_type":"survey-mace","trial_index":14,"time_elapsed":483194,"internal_node_id":"0.0-14.0","task_version":"prescreen-v0.3","browser_interactions":0},{"responses":{"01":"No","02":"No","03":"No","04":"No","05":"No","06":"No","07":"No"},"rt":13756.300000071526,"item_order":[0,1,2,3,4,5,6],"radio_events":[1949.6000000238419,4311.400000095367,5511.300000071526,6387.700000047684,7895.5,9610.800000071526,12236.100000023842],"checkbox_events":[],"key_events":[],"mouse_events":[1949.6000000238419,3081.600000023842,4311.400000095367,5511.300000071526,6387.700000047684,7202.5,7895.5,8595.300000071526,9610.800000071526,10523.100000023842,12236.100000023842,13753.300000071526],"honeypot":0,"survey":"mace","page":7,"trial_type":"survey-mace","trial_index":15,"time_elapsed":496953,"internal_node_id":"0.0-15.0","task_version":"prescreen-v0.3","browser_interactions":0},{"responses":{"01":"No","02":"No","03":"No","04":"No"},"rt":44696.89999997616,"item_order":[0,1,2,3],"radio_events":[6345.600000023842,7559.399999976158,42478.10000002384,43332],"checkbox_events":[],"key_events":[],"mouse_events":[6345.600000023842,7559.399999976158,8992.5,42478.10000002384,43332,44687.800000071526],"honeypot":0,"survey":"mace","page":8,"trial_type":"survey-mace","trial_index":16,"time_elapsed":541660,"internal_node_id":"0.0-16.0","task_version":"prescreen-v0.3","browser_interactions":2},{"responses":{"01":"Yes","01_ages_1":"1","01_ages_2":"2","01_ages_3":"3","01_ages_4":"4","01_ages_5":"5","01_ages_6":"6","01_ages_7":"7","01_ages_8":"8","01_ages_9":"9","01_ages_10":"10","01_ages_11":"11","01_ages_12":"12","01_ages_13":"13","01_ages_14":"14","01_ages_15":"15","01_ages_16":"16","01_ages_17":"17","01_ages_18":"18","02":"Yes","02_ages_1":"1","02_ages_2":"2","02_ages_3":"3","02_ages_4":"4","02_ages_5":"5","02_ages_6":"6","02_ages_7":"7","02_ages_8":"8","02_ages_9":"9","02_ages_10":"10","02_ages_11":"11","02_ages_12":"12","02_ages_13":"13","02_ages_14":"14","02_ages_15":"15","02_ages_16":"16","02_ages_17":"17","02_ages_18":"18","03":"Yes","03_ages_1":"1","03_ages_2":"2","03_ages_3":"3","03_ages_4":"4","03_ages_5":"5","03_ages_6":"6","03_ages_7":"7","03_ages_8":"8","03_ages_9":"9","03_ages_10":"10","03_ages_11":"11","03_ages_12":"12","03_ages_13":"13","03_ages_14":"14","03_ages_15":"15","03_ages_16":"16","03_ages_17":"17","03_ages_18":"18","04":"Yes","04_ages_1":"1","04_ages_2":"2","04_ages_3":"3","04_ages_4":"4","04_ages_5":"5","04_ages_6":"6","04_ages_7":"7","04_ages_8":"8","04_ages_9":"9","04_ages_10":"10","04_ages_11":"11","04_ages_12":"12","04_ages_13":"13","04_ages_14":"14","04_ages_15":"15","04_ages_16":"16","04_ages_17":"17","04_ages_18":"18"},"rt":69121.60000002384,"item_order":[0,1,2,3],"radio_events":[1477.6000000238419,2537.3000000715256,4013.4000000953674,8255.800000071526,10660.200000047684,26369.200000047684,27245.5,28165.200000047684],"checkbox_events":[14753.400000095367,15335.700000047684,15907.100000023842,16346,16756.100000023842,17359.800000071526,17724.900000095367,18705.100000023842,19085.400000095367,19591.300000071526,20345.5,20823.700000047684,21361.300000071526,21835.300000071526,22609.400000095367,23327.600000023842,24276.700000047684,24928.800000071526,29779,30781.600000023842,31745.200000047684,32439.700000047684,33199.5,33649.5,34204.90000009537,34849.5,35213.40000009537,36075.300000071526,36513.10000002384,37081.300000071526,37833.300000071526,38469.300000071526,38802,39451.60000002384,39868.5,40235.5,41015.60000002384,41809.5,42189.40000009537,42557.5,43392.60000002384,43805.60000002384,44333.60000002384,44863.5,45231.5,45628.40000009537,46535.10000002384,46947.5,47644,48191.5,48821.300000071526,49195.700000047684,49841.5,50573.200000047684,53709.5,54167.10000002384,58851.5,59664.200000047684,60073.5,60946.90000009537,61435.40000009537,61954,62511.700000047684,62867.300000071526,64021.5,64439.5,64921.10000002384,65418.10000002384,66401.40000009537,66911.5,67591.5,68257.10000002384],"key_events":[],"mouse_events":[1477.6000000238419,2537.3000000715256,4013.4000000953674,5173.600000023842,7597.5,8255.800000071526,10660.200000047684,12601.300000071526,14753.400000095367,15335.700000047684,15907.100000023842,16346,16756.100000023842,17359.800000071526,17724.900000095367,18167.400000095367,18705.100000023842,19085.400000095367,19591.300000071526,20345.5,20823.700000047684,21361.300000071526,21835.300000071526,22293.200000047684,22609.400000095367,23327.600000023842,24276.700000047684,24928.800000071526,26369.200000047684,27245.5,28165.200000047684,29779,30781.600000023842,31745.200000047684,32439.700000047684,33199.5,33649.5,34204.90000009537,34849.5,35213.40000009537,36075.300000071526,36513.10000002384,37081.300000071526,37547.300000071526,37833.300000071526,38167.60000002384,38469.300000071526,38802,39451.60000002384,39868.5,40235.5,41015.60000002384,41411.40000009537,41809.5,42189.40000009537,42557.5,42934.300000071526,43392.60000002384,43805.60000002384,44333.60000002384,44863.5,45231.5,45628.40000009537,46029.40000009537,46535.10000002384,46947.5,47644,48191.5,48821.300000071526,49195.700000047684,49841.5,50573.200000047684,53709.5,54167.10000002384,58851.5,59664.200000047684,60073.5,60946.90000009537,61435.40000009537,61954,62511.700000047684,62867.300000071526,63257.700000047684,64021.5,64439.5,64921.10000002384,65418.10000002384,66401.40000009537,66911.5,67591.5,68257.10000002384,69119.80000007153],"honeypot":0,"survey":"mace","page":9,"trial_type":"survey-mace","trial_index":17,"time_elapsed":610806,"internal_node_id":"0.0-17.0","task_version":"prescreen-v0.3","browser_interactions":0},{"responses":{"01":"No","02":"No","03":"No","04":"No","05":"No","06":"Yes","06_ages_17":"17","07":"Yes","07_ages_1":"1","07_ages_2":"2","07_ages_3":"3","07_ages_4":"4","07_ages_5":"5","07_ages_6":"6","07_ages_7":"7","07_ages_8":"8","07_ages_9":"9","07_ages_10":"10","07_ages_11":"11","07_ages_12":"12","07_ages_13":"13","07_ages_14":"14","07_ages_15":"15","07_ages_16":"16","07_ages_17":"17","07_ages_18":"18","08":"Yes","08_ages_1":"1","08_ages_2":"2","08_ages_3":"3","08_ages_4":"4","08_ages_5":"5","08_ages_6":"6","08_ages_7":"7","08_ages_8":"8","08_ages_9":"9","08_ages_10":"10","08_ages_11":"11","08_ages_12":"12","08_ages_13":"13","08_ages_14":"14","08_ages_15":"15","08_ages_16":"16","08_ages_17":"17","08_ages_18":"18"},"rt":48310.5,"item_order":[0,1,2,3,4,5,6,7],"radio_events":[4057.2000000476837,5024.799999952316,5878.600000023842,7206.799999952316,8212.700000047684,10525,14175,19146.600000023842,21559.700000047684],"checkbox_events":[12420.5,23631.700000047684,24272.700000047684,24691.399999976158,25114.5,25576.399999976158,26231.200000047684,26839.200000047684,27616.5,28060.399999976158,28450.5,28916.399999976158,29298.299999952316,29886.100000023842,30316.600000023842,30841.200000047684,31543,32148.700000047684,33108.60000002384,34576.200000047684,35144.5,35610.799999952316,37401.799999952316,38118.10000002384,38696.60000002384,39122.60000002384,39756.60000002384,40230.5,40954.60000002384,41519,42278.700000047684,43116.799999952316,44278.60000002384,45294,45884.799999952316,47098.5,47612.60000002384],"key_events":[],"mouse_events":[4057.2000000476837,5024.799999952316,5878.600000023842,6576.899999976158,7206.799999952316,8212.700000047684,9580.5,10525,11980.799999952316,12420.5,14175,18253.200000047684,19146.600000023842,20979.299999952316,21559.700000047684,23631.700000047684,24272.700000047684,24691.399999976158,25114.5,25576.399999976158,26231.200000047684,26839.200000047684,27216.600000023842,27616.5,28060.399999976158,28450.5,28916.399999976158,29298.299999952316,29886.100000023842,30316.600000023842,30841.200000047684,31543,32148.700000047684,33108.60000002384,34576.200000047684,35144.5,35610.799999952316,36269.299999952316,36998.5,37401.799999952316,38118.10000002384,38696.60000002384,39122.60000002384,39756.60000002384,40230.5,40954.60000002384,41519,42278.700000047684,43116.799999952316,44278.60000002384,44882.799999952316,45294,45884.799999952316,46542.700000047684,47098.5,47612.60000002384,48305.10000002384],"honeypot":0,"survey":"mace","page":10,"trial_type":"survey-mace","trial_index":18,"time_elapsed":659122,"internal_node_id":"0.0-18.0","task_version":"prescreen-v0.3","browser_interactions":0,"instructed":0},{"rt":10753.699999928474,"trial_type":"mental-health-alert","trial_index":19,"time_elapsed":669885,"internal_node_id":"0.0-19.0","task_version":"prescreen-v0.3","interactions":"[{\"event\":\"blur\",\"trial\":1,\"time\":18580},{\"event\":\"focus\",\"trial\":1,\"time\":44600},{\"event\":\"blur\",\"trial\":10,\"time\":378521},{\"event\":\"focus\",\"trial\":10,\"time\":416559},{\"event\":\"blur\",\"trial\":16,\"time\":515632},{\"event\":\"focus\",\"trial\":16,\"time\":539334}]"}]