[{"view_history":[{"page_index":0,"viewing_time":1634.2000000178814},{"page_index":1,"viewing_time":3938},{"page_index":2,"viewing_time":3212.4000000059605},{"page_index":3,"viewing_time":1122.7999999821186}],"rt":9908.300000011921,"trial_type":"instructions","trial_index":0,"time_elapsed":9918,"internal_node_id":"0.0-0.0","task_version":"prescreen-v0.3"},{"rt":18166.30000001192,"responses":{"age":"39","gender-categorical":"Female","gender-free-response":"","ethnicity":"Not Hispanic or Latino","race":["Asian","Black or African American","White"],"education":"Master degree or higher"},"trial_type":"survey-demo","trial_index":1,"time_elapsed":28089,"internal_node_id":"0.0-1.0","task_version":"prescreen-v0.3"},{"responses":{"Q07":"1","Q15":"2","Q16":"2","Q19":"2","Q03":"2","Q11":"3","Q04":"2","Q12":"1","Q17":"1","Q20":"1","Q09":"1","Q01":"1","Q13":"2","Q21":"3","Q10":"1","Q02":"1","Q05":"2","Q08":"2","Q18":"2","Q06":"1","Q14":"2"},"rt":88956.19999998808,"item_order":[6,14,15,18,2,10,3,11,16,19,8,0,12,20,9,1,4,7,17,5,13],"radio_events":[7517.699999988079,10258.699999988079,13935,19443.59999999404,21399.59999999404,24449.19999998808,32672.5,38349.69999998808,41730.40000000596,43598.09999999404,49549.90000000596,51622.59999999404,54307.09999999404,57250.09999999404,63948.59999999404,67400,73965.90000000596,77638.19999998808,78519.80000001192,81608.40000000596,85742.30000001192,88182],"key_events":[],"mouse_events":[6118.699999988079,7517.699999988079,10258.699999988079,13935,18611.09999999404,19443.59999999404,21399.59999999404,23802.80000001192,24449.19999998808,32171.90000000596,32672.5,38349.69999998808,41730.40000000596,43598.09999999404,49549.90000000596,51622.59999999404,53674.5,54307.09999999404,57250.09999999404,63948.59999999404,67400,73965.90000000596,77638.19999998808,78519.80000001192,81608.40000000596,85742.30000001192,88182,88951.90000000596],"straightlining":0.47619047619047616,"zigzagging":0.45,"honeypot":0,"survey":"sns","trial_type":"survey-template","trial_index":2,"time_elapsed":117052,"internal_node_id":"0.0-2.0","task_version":"prescreen-v0.3","browser_interactions":0,"infrequency":0},{"responses":{"Q09":"1","Q08":"1","Q07":"2","Q06":"2","Q05":"2","Q01":"3","Q13":"0","Q02":"2","Q04":"2","Q12":"1","Q10":"1","Q11":"2","Q03":"3"},"rt":52359.90000000596,"item_order":[8,7,6,5,4,0,12,1,3,11,9,10,2],"radio_events":[6665.9000000059605,9204.90000000596,11664.09999999404,14089.800000011921,17446.20000001788,19152.80000001192,21972.59999999404,29034,32025.20000001788,34687.59999999404,38989.40000000596,45521,49913.90000000596,51645.59999999404],"key_events":[],"mouse_events":[6665.9000000059605,9204.90000000596,11664.09999999404,14089.800000011921,17446.20000001788,19152.80000001192,21972.59999999404,29034,32025.20000001788,34687.59999999404,38989.40000000596,45521,49913.90000000596,51023,51645.59999999404,52357.59999999404],"straightlining":0.46153846153846156,"zigzagging":0.5,"honeypot":0,"survey":"bisbas","trial_type":"survey-template","trial_index":3,"time_elapsed":169418,"internal_node_id":"0.0-3.0","task_version":"prescreen-v0.3","browser_interactions":0,"infrequency":0},{"responses":{"Q01":"2","Q02":"2","Q03":"2"},"rt":12673.699999988079,"radio_events":[5151,8142.5,11752.90000000596],"key_events":[],"mouse_events":[5151,8142.5,11752.90000000596,12672.40000000596],"survey":"map","page":1,"trial_type":"survey-map","trial_index":4,"time_elapsed":182097,"internal_node_id":"0.0-4.0","task_version":"prescreen-v0.3","browser_interactions":0},{"responses":{"Q04":"1","Q05":"1","Q06":"1"},"rt":12037.700000017881,"radio_events":[5097.0999999940395,8445.800000011921,10550.09999999404],"key_events":[],"mouse_events":[5097.0999999940395,8445.800000011921,10550.09999999404,12037],"survey":"map","page":2,"trial_type":"survey-map","trial_index":5,"time_elapsed":194139,"internal_node_id":"0.0-5.0","task_version":"prescreen-v0.3","browser_interactions":0},{"responses":{"Q07":"1","Q08":"2","Q09":"2"},"rt":13623.200000017881,"radio_events":[5300.800000011921,8617,11383.5,12795.700000017881],"key_events":[],"mouse_events":[5300.800000011921,8617,11383.5,12795.700000017881,13622.40000000596],"survey":"map","page":3,"trial_type":"survey-map","trial_index":6,"time_elapsed":207765,"internal_node_id":"0.0-6.0","task_version":"prescreen-v0.3","browser_interactions":0},{"responses":{"Q10":"1","Q11":"2","Q12":"0","Q13":"3","Q16":"0","Q14":"1","Q15":"3"},"rt":34832.30000001192,"radio_events":[6013.0999999940395,8380.699999988079,10566.09999999404,13831.59999999404,16614.30000001192,20366.59999999404,29193.59999999404,34029.90000000596],"key_events":[],"mouse_events":[6013.0999999940395,8380.699999988079,10566.09999999404,13831.59999999404,16614.30000001192,20366.59999999404,29193.59999999404,32726.30000001192,34029.90000000596,34830.30000001192],"survey":"map","page":4,"trial_type":"survey-map","trial_index":7,"time_elapsed":242603,"internal_node_id":"0.0-7.0","task_version":"prescreen-v0.3","browser_interactions":0,"infrequency":0},{"view_history":[{"page_index":0,"viewing_time":2542.100000023842},{"page_index":1,"viewing_time":2935}],"rt":5478.4000000059605,"trial_type":"instructions","trial_index":8,"time_elapsed":248083,"internal_node_id":"0.0-8.0","task_version":"prescreen-v0.3"},{"responses":{"01":"Yes","01_ages_6":"6","01_ages_7":"7","01_ages_8":"8","01_ages_9":"9","01_ages_10":"10","01_ages_11":"11","01_ages_12":"12","01_ages_13":"13","01_ages_14":"14","01_ages_15":"15","01_ages_16":"16","01_ages_17":"17","01_ages_18":"18","02":"Yes","02_ages_6":"6","02_ages_7":"7","02_ages_8":"8","02_ages_9":"9","02_ages_10":"10","02_ages_11":"11","02_ages_12":"12","02_ages_13":"13","02_ages_14":"14","02_ages_15":"15","02_ages_16":"16","02_ages_17":"17","02_ages_18":"18","03":"Yes","03_ages_6":"6","03_ages_7":"7","03_ages_8":"8","03_ages_9":"9","03_ages_10":"10","03_ages_11":"11","03_ages_12":"12","03_ages_13":"13","03_ages_14":"14","03_ages_15":"15","03_ages_16":"16","03_ages_17":"17","03_ages_18":"18","04":"Yes","04_ages_6":"6","04_ages_7":"7","04_ages_8":"8","04_ages_9":"9","04_ages_10":"10","04_ages_11":"11","04_ages_15":"15","05":"No","06":"Yes","06_ages_6":"6","06_ages_7":"7","06_ages_8":"8","06_ages_9":"9","06_ages_10":"10","06_ages_11":"11","06_ages_12":"12","06_ages_13":"13","06_ages_14":"14","06_ages_15":"15"},"rt":85462.59999999404,"item_order":[0,1,2,3,4,5],"radio_events":[11646.59999999404,33446.5,48107.30000001192,60708,70055.40000000596,72586.30000001192],"checkbox_events":[16126.300000011921,16698.30000001192,17362.90000000596,18048.09999999404,18769,19497.69999998808,20240.40000000596,20921.30000001192,21717.30000001192,22385,23063.69999998808,23733.69999998808,25789.19999998808,36464.30000001192,37046.5,37675.69999998808,38301,38857.90000000596,39486.09999999404,40117.40000000596,42115.5,43235.5,44647.80000001192,45164.19999998808,46433.30000001192,47121.59999999404,49878.69999998808,50500.80000001192,51075.59999999404,51700.09999999404,52281.40000000596,52834.30000001192,53462.09999999404,54044.30000001192,54642,55839.09999999404,56940,57528.19999998808,58169.09999999404,62138,62607.30000001192,63222,63829.19999998808,64453.30000001192,65122.19999998808,66368.09999999404,74536.5,75142.69999998808,75815.59999999404,76849.40000000596,77399,77983.90000000596,78530.80000001192,79113,79817.5,80496.5],"key_events":[],"mouse_events":[0.09999999403953552,11646.59999999404,16126.300000011921,16698.30000001192,17362.90000000596,18048.09999999404,18769,19497.69999998808,20240.40000000596,20921.30000001192,21717.30000001192,22385,23063.69999998808,23733.69999998808,25789.19999998808,32696.59999999404,33446.5,36464.30000001192,37046.5,37675.69999998808,38301,38857.90000000596,39486.09999999404,40117.40000000596,40903.90000000596,41663.90000000596,42115.5,42656.69999998808,43235.5,43828.90000000596,44647.80000001192,45164.19999998808,45642,46433.30000001192,47121.59999999404,48107.30000001192,49878.69999998808,50500.80000001192,51075.59999999404,51700.09999999404,52281.40000000596,52834.30000001192,53462.09999999404,54044.30000001192,54642,55312.59999999404,55839.09999999404,56469.69999998808,56940,57528.19999998808,58169.09999999404,60708,62138,62607.30000001192,63222,63829.19999998808,64453.30000001192,65122.19999998808,66368.09999999404,70055.40000000596,72586.30000001192,74536.5,75142.69999998808,75815.59999999404,76849.40000000596,77399,77983.90000000596,78530.80000001192,79113,79817.5,80496.5,85456.69999998808],"honeypot":0,"survey":"mace","page":1,"trial_type":"survey-mace","trial_index":9,"time_elapsed":333554,"internal_node_id":"0.0-9.0","task_version":"prescreen-v0.3","browser_interactions":0},{"responses":{"01":"Yes","01_ages_6":"6","01_ages_7":"7","01_ages_8":"8","01_ages_9":"9","01_ages_10":"10","01_ages_11":"11","01_ages_12":"12","01_ages_13":"13","01_ages_14":"14","01_ages_17":"17","02":"Yes","02_ages_6":"6","02_ages_7":"7","02_ages_8":"8","02_ages_9":"9","02_ages_10":"10","02_ages_11":"11","02_ages_12":"12","02_ages_13":"13","02_ages_17":"17","03":"Yes","03_ages_6":"6","03_ages_7":"7","03_ages_8":"8","03_ages_9":"9","03_ages_10":"10","03_ages_11":"11","03_ages_12":"12","03_ages_13":"13","04":"No","05":"Yes","05_ages_6":"6","05_ages_7":"7","05_ages_8":"8","05_ages_9":"9","05_ages_10":"10","05_ages_11":"11","05_ages_12":"12","05_ages_17":"17","06":"Yes","06_ages_13":"13","06_ages_14":"14","06_ages_15":"15","06_ages_16":"16","06_ages_17":"17","07":"No","08":"No"},"rt":69581.69999998808,"item_order":[0,1,2,3,4,5,6,7],"radio_events":[2937.2999999821186,17399.40000000596,29989.19999998808,39345.19999998808,41812.79999998212,52026.90000000596,54882.69999998808,56270.59999999404,60605],"checkbox_events":[4669.199999988079,5136,5721.199999988079,6236.699999988079,6851.699999988079,7999.699999988079,8460.90000000596,9140.59999999404,9747,10814.699999988079,11744.299999982119,12585.40000000596,19403.59999999404,20042.09999999404,20590.90000000596,21151.29999998212,21691.19999998808,22232.40000000596,23607.5,24297.69999998808,26114.29999998212,31589.40000000596,32057.79999998212,32591.69999998808,33239,34315,34868.40000000596,35422.19999998808,35949.29999998212,43145,43638,44158,44707.79999998212,45305.19999998808,45879,46412.79999998212,48562.59999999404,64535.69999998808,65198.40000000596,65796.59999999404,66557.40000000596,67803],"key_events":[],"mouse_events":[2937.2999999821186,4669.199999988079,5136,5721.199999988079,6236.699999988079,6851.699999988079,7467.699999988079,7999.699999988079,8460.90000000596,9140.59999999404,9747,10814.699999988079,11744.299999982119,12585.40000000596,17399.40000000596,19403.59999999404,20042.09999999404,20590.90000000596,21151.29999998212,21691.19999998808,22232.40000000596,22799,23607.5,24297.69999998808,26114.29999998212,29989.19999998808,31589.40000000596,32057.79999998212,32591.69999998808,33239,33806.19999998808,34315,34868.40000000596,35422.19999998808,35949.29999998212,39345.19999998808,41812.79999998212,43145,43638,44158,44707.79999998212,45305.19999998808,45879,46412.79999998212,46985.69999998808,48562.59999999404,52026.90000000596,54882.69999998808,56270.59999999404,60605,64535.69999998808,65198.40000000596,65796.59999999404,66557.40000000596,67803,69576.29999998212],"honeypot":0,"survey":"mace","page":2,"trial_type":"survey-mace","trial_index":10,"time_elapsed":403141,"internal_node_id":"0.0-10.0","task_version":"prescreen-v0.3","browser_interactions":0},{"responses":{"01":"No","02":"No","03":"No","04":"No"},"rt":12991.09999999404,"item_order":[0,1,2,3],"radio_events":[5308.199999988079,9270.899999976158,10905.5,12085.299999982119],"checkbox_events":[],"key_events":[],"mouse_events":[5308.199999988079,9270.899999976158,10905.5,12085.299999982119,12989.399999976158],"honeypot":0,"survey":"mace","page":3,"trial_type":"survey-mace","trial_index":11,"time_elapsed":416135,"internal_node_id":"0.0-11.0","task_version":"prescreen-v0.3","browser_interactions":0},{"responses":{"01":"No","02":"No"},"rt":4988.5999999940395,"item_order":[0,1],"radio_events":[3038.0999999940395,4235.699999988079],"checkbox_events":[],"key_events":[],"mouse_events":[3038.0999999940395,4235.699999988079,4987],"honeypot":0,"survey":"mace","page":4,"trial_type":"survey-mace","trial_index":12,"time_elapsed":421126,"internal_node_id":"0.0-12.0","task_version":"prescreen-v0.3","browser_interactions":0},{"responses":{"01":"No","02":"No","03":"No","04":"Yes","04_ages_4":"4","04_ages_5":"5","04_ages_6":"6","04_ages_7":"7","04_ages_8":"8","04_ages_9":"9","04_ages_10":"10","04_ages_11":"11","04_ages_12":"12","04_ages_13":"13","04_ages_14":"14","04_ages_15":"15","04_ages_16":"16","05":"Yes","05_ages_4":"4","05_ages_5":"5","05_ages_6":"6","05_ages_7":"7","05_ages_8":"8","05_ages_9":"9","05_ages_10":"10","05_ages_11":"11","05_ages_12":"12","05_ages_13":"13","05_ages_14":"14","05_ages_15":"15","05_ages_16":"16"},"rt":47079.30000001192,"item_order":[0,1,2,3,4],"radio_events":[3739.4000000059605,10401.199999988079,12714.199999988079,17509.30000001192,30771.09999999404],"checkbox_events":[20203.30000001192,20679.69999998808,21288.30000001192,22393.80000001192,22993.40000000596,23597.19999998808,24163.30000001192,24787.30000001192,25392.59999999404,26007.90000000596,33697.09999999404,34193.40000000596,34747.90000000596,35314.69999998808,35995.09999999404,36617.09999999404,37246.69999998808,37806.40000000596,38462.09999999404,38985.30000001192,39576.40000000596,40271.40000000596,42527.59999999404,43757.30000001192,44494.09999999404,45633.09999999404],"key_events":[],"mouse_events":[3739.4000000059605,10401.199999988079,12714.199999988079,17509.30000001192,20203.30000001192,20679.69999998808,21288.30000001192,21835.09999999404,22393.80000001192,22993.40000000596,23597.19999998808,24163.30000001192,24787.30000001192,25392.59999999404,26007.90000000596,30771.09999999404,33697.09999999404,34193.40000000596,34747.90000000596,35314.69999998808,35995.09999999404,36617.09999999404,37246.69999998808,37806.40000000596,38462.09999999404,38985.30000001192,39576.40000000596,40271.40000000596,42527.59999999404,43303.5,43757.30000001192,44494.09999999404,45633.09999999404,47073.80000001192],"honeypot":0,"survey":"mace","page":5,"trial_type":"survey-mace","trial_index":13,"time_elapsed":468211,"internal_node_id":"0.0-13.0","task_version":"prescreen-v0.3","browser_interactions":0},{"responses":{"01":"Yes","01_ages_6":"6","01_ages_7":"7","01_ages_8":"8","01_ages_9":"9","01_ages_10":"10","01_ages_11":"11","01_ages_12":"12","01_ages_13":"13","01_ages_14":"14","01_ages_15":"15","01_ages_16":"16","01_ages_17":"17","01_ages_18":"18","02":"Yes","02_ages_6":"6","02_ages_7":"7","02_ages_8":"8","02_ages_9":"9","02_ages_10":"10","02_ages_11":"11","02_ages_12":"12","02_ages_13":"13","02_ages_14":"14","02_ages_15":"15","02_ages_16":"16","02_ages_17":"17","02_ages_18":"18","03":"Yes","03_ages_6":"6","03_ages_9":"9","03_ages_13":"13","03_ages_14":"14","03_ages_15":"15","03_ages_16":"16","03_ages_17":"17","03_ages_18":"18","04":"Yes","04_ages_13":"13","04_ages_14":"14","04_ages_15":"15","04_ages_16":"16","05":"No"},"rt":54286.90000000596,"item_order":[0,1,2,3,4],"radio_events":[7647.300000011921,22333.5,31948.90000000596,45831.5,53433],"checkbox_events":[11529.5,12126.300000011921,12846,14522.40000000596,15086.59999999404,15822.5,16380.40000000596,17069.30000001192,17658.09999999404,18280.40000000596,18913.59999999404,19794.80000001192,20464.19999998808,23253.80000001192,23860.30000001192,24411.90000000596,24992.19999998808,25531.19999998808,26084.40000000596,26675.5,27265.5,27814.80000001192,28348.40000000596,28899.69999998808,29423.59999999404,29997.30000001192,33419.5,34599.80000001192,36542.30000001192,37367.09999999404,38189.69999998808,39112.19999998808,43317.09999999404,44086.5,46989.5,47780.40000000596,48355.80000001192,49502.59999999404],"key_events":[],"mouse_events":[7647.300000011921,10906.5,11529.5,12126.300000011921,12846,13600.699999988079,14015,14522.40000000596,15086.59999999404,15822.5,16380.40000000596,17069.30000001192,17658.09999999404,18280.40000000596,18913.59999999404,19794.80000001192,20464.19999998808,22333.5,23253.80000001192,23860.30000001192,24411.90000000596,24992.19999998808,25531.19999998808,26084.40000000596,26675.5,27265.5,27814.80000001192,28348.40000000596,28899.69999998808,29423.59999999404,29997.30000001192,31948.90000000596,33419.5,34599.80000001192,36542.30000001192,37367.09999999404,38189.69999998808,39112.19999998808,42501.5,43317.09999999404,44086.5,45831.5,46989.5,47780.40000000596,48355.80000001192,49502.59999999404,53433,54282.69999998808],"honeypot":0,"survey":"mace","page":6,"trial_type":"survey-mace","trial_index":14,"time_elapsed":522502,"internal_node_id":"0.0-14.0","task_version":"prescreen-v0.3","browser_interactions":0},{"responses":{"01":"No","02":"Yes","02_ages_5":"5","02_ages_6":"6","02_ages_12":"12","02_ages_13":"13","02_ages_14":"14","02_ages_15":"15","02_ages_16":"16","03":"No","04":"No","05":"No","06":"No","07":"No"},"rt":29742.20000001788,"item_order":[0,1,2,3,4,5,6],"radio_events":[3928.0999999940395,6354.0999999940395,18023.09999999404,19469,21838.59999999404,23568.80000001192,28938.40000000596],"checkbox_events":[9394.90000000596,10105.90000000596,11262.09999999404,12305.5,13299.40000000596,13760.40000000596,14336.09999999404],"key_events":[],"mouse_events":[3928.0999999940395,6354.0999999940395,9394.90000000596,10105.90000000596,11262.09999999404,11795.09999999404,12305.5,12749.90000000596,13299.40000000596,13760.40000000596,14336.09999999404,18023.09999999404,19469,21838.59999999404,23568.80000001192,28938.40000000596,29739.20000001788],"honeypot":0,"survey":"mace","page":7,"trial_type":"survey-mace","trial_index":15,"time_elapsed":552249,"internal_node_id":"0.0-15.0","task_version":"prescreen-v0.3","browser_interactions":0},{"responses":{"01":"Yes","01_ages_1":"1","01_ages_2":"2","01_ages_3":"3","01_ages_4":"4","01_ages_5":"5","01_ages_6":"6","01_ages_7":"7","01_ages_8":"8","01_ages_9":"9","01_ages_10":"10","01_ages_11":"11","01_ages_12":"12","01_ages_13":"13","01_ages_14":"14","01_ages_15":"15","01_ages_16":"16","01_ages_17":"17","01_ages_18":"18","02":"No","03":"Yes","03_ages_5":"5","03_ages_6":"6","03_ages_7":"7","03_ages_8":"8","03_ages_9":"9","03_ages_10":"10","03_ages_11":"11","03_ages_12":"12","03_ages_13":"13","03_ages_14":"14","03_ages_15":"15","03_ages_16":"16","03_ages_17":"17","03_ages_18":"18","04":"Yes","04_ages_3":"3","04_ages_4":"4","04_ages_5":"5","04_ages_6":"6","04_ages_7":"7","04_ages_8":"8","04_ages_9":"9","04_ages_10":"10","04_ages_11":"11","04_ages_12":"12","04_ages_13":"13","04_ages_14":"14","04_ages_15":"15","04_ages_16":"16","04_ages_17":"17","04_ages_18":"18"},"rt":58955.90000000596,"item_order":[0,1,2,3],"radio_events":[12164.299999982119,28403.09999999404,31388.5,47157.69999998808],"checkbox_events":[15933.09999999404,16425.29999998212,16991.90000000596,17744.19999998808,18334.79999998212,18853.29999998212,19474.40000000596,19999.69999998808,20504.5,21172.5,21771.5,22393.5,22919.79999998212,23841.79999998212,24578.29999998212,25096.59999999404,26495.29999998212,27156.19999998808,33321.59999999404,34087.40000000596,34766.09999999404,35396.59999999404,36811.59999999404,38032.79999998212,38737,39522.5,40961.29999998212,41804.29999998212,42554.29999998212,43111.59999999404,43888.5,44746.59999999404,49177,49669.90000000596,50203.5,50938.59999999404,51561,52152.40000000596,52791.69999998808,53391.09999999404,53947.19999998808,54497.79999998212,55201.59999999404,55824,56382.59999999404,57028.09999999404,57636.19999998808,58249.40000000596],"key_events":[],"mouse_events":[12164.299999982119,15933.09999999404,16425.29999998212,16991.90000000596,17744.19999998808,18334.79999998212,18853.29999998212,19474.40000000596,19999.69999998808,20504.5,21172.5,21771.5,22393.5,22919.79999998212,23573.69999998808,23841.79999998212,24578.29999998212,25096.59999999404,25865.19999998808,26495.29999998212,27156.19999998808,28403.09999999404,31388.5,33321.59999999404,34087.40000000596,34766.09999999404,35396.59999999404,36076.19999998808,36811.59999999404,38032.79999998212,38737,39522.5,40297.40000000596,40961.29999998212,41804.29999998212,42554.29999998212,43111.59999999404,43888.5,44746.59999999404,47157.69999998808,49177,49669.90000000596,50203.5,50938.59999999404,51561,52152.40000000596,52791.69999998808,53391.09999999404,53947.19999998808,54497.79999998212,55201.59999999404,55824,56382.59999999404,57028.09999999404,57636.19999998808,58249.40000000596,58953.5],"honeypot":0,"survey":"mace","page":8,"trial_type":"survey-mace","trial_index":16,"time_elapsed":611208,"internal_node_id":"0.0-16.0","task_version":"prescreen-v0.3","browser_interactions":0},{"responses":{"01":"Yes","01_ages_1":"1","01_ages_2":"2","01_ages_3":"3","01_ages_4":"4","01_ages_5":"5","01_ages_6":"6","01_ages_7":"7","01_ages_8":"8","01_ages_9":"9","01_ages_10":"10","01_ages_11":"11","01_ages_12":"12","01_ages_13":"13","01_ages_14":"14","01_ages_15":"15","01_ages_16":"16","01_ages_17":"17","01_ages_18":"18","02":"Yes","02_ages_1":"1","02_ages_2":"2","02_ages_3":"3","02_ages_4":"4","02_ages_5":"5","02_ages_6":"6","02_ages_7":"7","02_ages_8":"8","02_ages_9":"9","02_ages_10":"10","02_ages_11":"11","02_ages_12":"12","02_ages_13":"13","02_ages_14":"14","02_ages_15":"15","02_ages_16":"16","02_ages_17":"17","02_ages_18":"18","03":"Yes","03_ages_1":"1","03_ages_2":"2","03_ages_3":"3","03_ages_4":"4","03_ages_5":"5","03_ages_6":"6","03_ages_7":"7","03_ages_8":"8","04":"Yes","04_ages_1":"1","04_ages_2":"2","04_ages_3":"3","04_ages_4":"4","04_ages_5":"5","04_ages_6":"6","04_ages_7":"7","04_ages_8":"8","04_ages_9":"9","04_ages_10":"10","04_ages_11":"11","04_ages_12":"12","04_ages_13":"13","04_ages_14":"14","04_ages_15":"15","04_ages_16":"16","04_ages_17":"17","04_ages_18":"18"},"rt":57259.20000001788,"item_order":[0,1,2,3],"radio_events":[3910,20583.30000001192,35058,44730.20000001788],"checkbox_events":[7055.100000023842,7562.600000023842,9115.700000017881,9689.800000011921,10401.90000000596,11064.700000017881,12116,12756.5,13248.90000000596,13991.700000017881,14736,15399.40000000596,16013.90000000596,16710.100000023842,17323.5,17925.20000001788,18545.5,19219.5,23074.20000001788,24378,25022.100000023842,25670,26348.30000001192,26955.40000000596,27626,28339.90000000596,28929.30000001192,29469.90000000596,29988.600000023842,30512.80000001192,31047.70000001788,31581.600000023842,32106.30000001192,32795.20000001788,33481.5,34048.80000001192,36887.70000001788,37349,37936.60000002384,38455.10000002384,38939.5,39426.80000001192,40218.90000000596,42135.80000001192,45944.90000000596,46429.40000000596,47019.80000001192,47513.30000001192,48386.80000001192,48854.60000002384,49753.10000002384,50206.60000002384,50634.5,51387.40000000596,51783.20000001788,52203.80000001192,53077.10000002384,53506.10000002384,54300.70000001788,54931,55389.5,55857.10000002384],"key_events":[],"mouse_events":[3910,7055.100000023842,7562.600000023842,8217.5,9115.700000017881,9689.800000011921,10401.90000000596,11064.700000017881,12116,12756.5,13248.90000000596,13991.700000017881,14736,15399.40000000596,16013.90000000596,16710.100000023842,17323.5,17925.20000001788,18545.5,19219.5,20583.30000001192,22500.40000000596,23074.20000001788,24378,25022.100000023842,25670,26348.30000001192,26955.40000000596,27626,28339.90000000596,28929.30000001192,29469.90000000596,29988.600000023842,30512.80000001192,31047.70000001788,31581.600000023842,32106.30000001192,32795.20000001788,33481.5,34048.80000001192,35058,36887.70000001788,37349,37936.60000002384,38455.10000002384,38939.5,39426.80000001192,40218.90000000596,42135.80000001192,44730.20000001788,45944.90000000596,46429.40000000596,47019.80000001192,47513.30000001192,48386.80000001192,48854.60000002384,49753.10000002384,50206.60000002384,50634.5,51387.40000000596,51783.20000001788,52203.80000001192,53077.10000002384,53506.10000002384,54300.70000001788,54931,55389.5,55857.10000002384,57257.20000001788],"honeypot":0,"survey":"mace","page":9,"trial_type":"survey-mace","trial_index":17,"time_elapsed":668471,"internal_node_id":"0.0-17.0","task_version":"prescreen-v0.3","browser_interactions":0},{"responses":{"01":"No","02":"Yes","02_ages_6":"6","02_ages_7":"7","02_ages_8":"8","02_ages_9":"9","02_ages_10":"10","02_ages_11":"11","02_ages_12":"12","02_ages_13":"13","02_ages_14":"14","02_ages_15":"15","02_ages_16":"16","02_ages_17":"17","02_ages_18":"18","03":"Yes","03_ages_5":"5","03_ages_6":"6","03_ages_7":"7","03_ages_8":"8","03_ages_9":"9","03_ages_10":"10","03_ages_11":"11","03_ages_12":"12","03_ages_13":"13","03_ages_14":"14","03_ages_15":"15","03_ages_16":"16","03_ages_17":"17","03_ages_18":"18","04":"No","05":"Yes","05_ages_1":"1","05_ages_2":"2","05_ages_3":"3","05_ages_4":"4","05_ages_5":"5","05_ages_6":"6","05_ages_7":"7","05_ages_8":"8","05_ages_9":"9","05_ages_10":"10","05_ages_11":"11","05_ages_12":"12","05_ages_13":"13","06":"Yes","06_ages_17":"17","07":"No","08":"No"},"rt":51696.19999998808,"item_order":[0,1,2,3,4,5,6,7],"radio_events":[2962,4131.5999999940395,15116.5,27229.79999998212,30102.79999998212,42855.09999999404,49339.79999998212,50051.29999998212],"checkbox_events":[6230.5,6786.799999982119,7319.5999999940395,7797.199999988079,8307.90000000596,8896.5,9439.40000000596,10005.40000000596,10515.09999999404,11016.799999982119,11557.59999999404,12107.699999988079,12618.40000000596,16862.5,18002.5,18506.29999998212,18990.79999998212,19491.69999998808,20190.29999998212,20608.19999998808,21287.19999998808,22054.59999999404,22647.29999998212,23074,23535.09999999404,24303.79999998212,24790.79999998212,32609.5,33183.69999998808,33637.59999999404,34050.5,34470.29999998212,35405.79999998212,35893.40000000596,36847.40000000596,37856.69999998808,38480.29999998212,39061.59999999404,39653.5,40582.5,44317.69999998808],"key_events":[],"mouse_events":[2962,4131.5999999940395,6230.5,6786.799999982119,7319.5999999940395,7797.199999988079,8307.90000000596,8896.5,9439.40000000596,10005.40000000596,10515.09999999404,11016.799999982119,11557.59999999404,12107.699999988079,12618.40000000596,15116.5,16862.5,17307.09999999404,18002.5,18506.29999998212,18990.79999998212,19491.69999998808,20190.29999998212,20608.19999998808,21287.19999998808,21666.69999998808,22054.59999999404,22647.29999998212,23074,23535.09999999404,24303.79999998212,24790.79999998212,27229.79999998212,30102.79999998212,32609.5,33183.69999998808,33637.59999999404,34050.5,34470.29999998212,34896.40000000596,35405.79999998212,35893.40000000596,36296.29999998212,36847.40000000596,37390.59999999404,37856.69999998808,38480.29999998212,39061.59999999404,39653.5,40582.5,42855.09999999404,44317.69999998808,49339.79999998212,50051.29999998212,51692],"honeypot":0,"survey":"mace","page":10,"trial_type":"survey-mace","trial_index":18,"time_elapsed":720226,"internal_node_id":"0.0-18.0","task_version":"prescreen-v0.3","browser_interactions":0,"instructed":0},{"rt":2662.300000011921,"trial_type":"mental-health-alert","trial_index":19,"time_elapsed":722892,"internal_node_id":"0.0-19.0","task_version":"prescreen-v0.3","interactions":"[]"}]