[{"view_history":[{"page_index":0,"viewing_time":2200.2999999970198},{"page_index":1,"viewing_time":4472.5},{"page_index":2,"viewing_time":3337.8000000044703},{"page_index":3,"viewing_time":1194.5999999940395}],"rt":11206.19999999553,"trial_type":"instructions","trial_index":0,"time_elapsed":11229,"internal_node_id":"0.0-0.0","task_version":"prescreen-v0.3"},{"rt":10978.30000000447,"responses":{"age":"35","gender-categorical":"Female","gender-free-response":"","ethnicity":"Not Hispanic or Latino","race":["White"],"education":"High school"},"trial_type":"survey-demo","trial_index":1,"time_elapsed":22214,"internal_node_id":"0.0-1.0","task_version":"prescreen-v0.3"},{"responses":{"Q16":"1","Q12":"2","Q01":"3","Q15":"1","Q06":"1","Q11":"2","Q17":"3","Q10":"2","Q05":"2","Q14":"2","Q13":"2","Q09":"1","Q07":"0","Q03":"3","Q21":"3","Q18":"0","Q20":"0","Q02":"1","Q04":"3","Q19":"0","Q08":"2"},"rt":171065.5,"item_order":[15,11,0,14,5,10,16,9,4,13,12,8,6,2,20,17,19,1,3,18,7],"radio_events":[11227.10000000149,21036.70000000298,23273.20000000298,28800.60000000149,43791,47179.70000000298,51333.60000000149,57157.10000000149,70286.30000000447,77791.70000000298,81208.60000000149,86427.30000000447,93503.70000000298,96920.40000000596,104927.70000000298,111170.90000000596,125326.10000000149,127967.70000000298,144087.1000000015,151675.20000000298,164531.40000000596,169674.90000000596],"key_events":[],"mouse_events":[11227.10000000149,21036.70000000298,23273.20000000298,28800.60000000149,43791,47179.70000000298,51333.60000000149,57157.10000000149,70286.30000000447,77791.70000000298,81208.60000000149,86427.30000000447,93503.70000000298,96920.40000000596,104927.70000000298,111170.90000000596,125326.10000000149,127967.70000000298,143629.1000000015,144087.1000000015,151675.20000000298,164531.40000000596,167705,169674.90000000596,171062.5],"straightlining":0.3333333333333333,"zigzagging":0.55,"honeypot":0,"survey":"sns","trial_type":"survey-template","trial_index":2,"time_elapsed":193287,"internal_node_id":"0.0-2.0","task_version":"prescreen-v0.3","browser_interactions":0,"infrequency":0},{"responses":{"Q12":"2","Q07":"3","Q09":"1","Q04":"2","Q03":"2","Q13":"0","Q10":"1","Q08":"3","Q11":"2","Q05":"3","Q02":"3","Q06":"3","Q01":"2"},"rt":101310.20000000298,"item_order":[11,6,8,3,2,12,9,7,10,4,1,5,0],"radio_events":[20971.30000000447,27805.70000000298,32299.30000000447,44010.70000000298,50705.5,57862.70000000298,61771.5,63048.30000000447,74913.80000000447,80799.70000000298,82695.5,85359.10000000149,90103.5,96985.70000000298,100210.5],"key_events":[],"mouse_events":[20971.30000000447,27805.70000000298,32299.30000000447,44010.70000000298,50705.5,57862.70000000298,61771.5,63048.30000000447,74913.80000000447,80799.70000000298,82695.5,85359.10000000149,90103.5,96985.70000000298,100210.5,101308.70000000298],"straightlining":0.38461538461538464,"zigzagging":0.5,"honeypot":0,"survey":"bisbas","trial_type":"survey-template","trial_index":3,"time_elapsed":294602,"internal_node_id":"0.0-3.0","task_version":"prescreen-v0.3","browser_interactions":0,"infrequency":0},{"responses":{"Q01":"3","Q02":"3","Q03":"3"},"rt":31515.69999999553,"radio_events":[16165.5,24965.69999999553,30519.89999999851],"key_events":[],"mouse_events":[16165.5,24965.69999999553,30519.89999999851,31515],"survey":"map","page":1,"trial_type":"survey-map","trial_index":4,"time_elapsed":326122,"internal_node_id":"0.0-4.0","task_version":"prescreen-v0.3","browser_interactions":0},{"responses":{"Q04":"3","Q05":"2","Q06":"2"},"rt":19189.39999999851,"radio_events":[12867.39999999851,16474.89999999851,18207.80000000447],"key_events":[],"mouse_events":[12867.39999999851,16474.89999999851,18207.80000000447,19188.60000000149],"survey":"map","page":2,"trial_type":"survey-map","trial_index":5,"time_elapsed":345314,"internal_node_id":"0.0-5.0","task_version":"prescreen-v0.3","browser_interactions":0},{"responses":{"Q07":"4","Q08":"4","Q09":"0"},"rt":20168.70000000298,"radio_events":[6612.39999999851,9703.39999999851,16583.89999999851],"key_events":[],"mouse_events":[3232.89999999851,6612.39999999851,9703.39999999851,16583.89999999851,20168],"survey":"map","page":3,"trial_type":"survey-map","trial_index":6,"time_elapsed":365486,"internal_node_id":"0.0-6.0","task_version":"prescreen-v0.3","browser_interactions":0},{"responses":{"Q10":"0","Q11":"1","Q12":"3","Q13":"2","Q16":"0","Q14":"0","Q15":"0"},"rt":269874.30000000447,"radio_events":[6508.60000000149,13317.5,18448.70000000298,24471.20000000298,250244.20000000298,255319.70000000298,267680.1000000015,268846.6000000015],"key_events":[],"mouse_events":[6508.60000000149,13317.5,18448.70000000298,24471.20000000298,250244.20000000298,255319.70000000298,267680.1000000015,268846.6000000015,269872.80000000447],"survey":"map","page":4,"trial_type":"survey-map","trial_index":7,"time_elapsed":635364,"internal_node_id":"0.0-7.0","task_version":"prescreen-v0.3","browser_interactions":0,"infrequency":0},{"view_history":[{"page_index":0,"viewing_time":2541.7999999970198},{"page_index":1,"viewing_time":4628.30000000447}],"rt":7170.60000000149,"trial_type":"instructions","trial_index":8,"time_elapsed":642537,"internal_node_id":"0.0-8.0","task_version":"prescreen-v0.3"},{"responses":{"01":"Yes","01_ages_15":"15","01_ages_16":"16","01_ages_17":"17","01_ages_18":"18","02":"Yes","02_ages_10":"10","02_ages_11":"11","02_ages_12":"12","02_ages_13":"13","02_ages_14":"14","02_ages_15":"15","02_ages_16":"16","02_ages_17":"17","02_ages_18":"18","03":"No","04":"No","05":"No","06":"No"},"rt":69090.30000000447,"item_order":[0,1,2,3,4,5],"radio_events":[11340.10000000149,38059.89999999851,50913.60000000149,63508.20000000298,66547.39999999851,68008.89999999851],"checkbox_events":[25635.20000000298,26269.70000000298,27050.89999999851,31619.60000000149,41085.60000000149,41565.10000000149,42059.39999999851,42915.60000000149,44155.39999999851,44752.60000000149,45136.39999999851,45571.70000000298,46671.20000000298],"key_events":[],"mouse_events":[0.20000000298023224,10911.60000000149,11340.10000000149,25635.20000000298,26269.70000000298,27050.89999999851,31619.60000000149,38059.89999999851,41085.60000000149,41565.10000000149,42059.39999999851,42915.60000000149,44155.39999999851,44752.60000000149,45136.39999999851,45571.70000000298,46671.20000000298,50913.60000000149,63508.20000000298,66547.39999999851,68008.89999999851,69086.60000000149],"honeypot":0,"survey":"mace","page":1,"trial_type":"survey-mace","trial_index":9,"time_elapsed":711635,"internal_node_id":"0.0-9.0","task_version":"prescreen-v0.3","browser_interactions":0},{"responses":{"01":"No","02":"No","03":"Yes","03_ages_1":"1","03_ages_2":"2","03_ages_3":"3","03_ages_4":"4","03_ages_5":"5","03_ages_6":"6","03_ages_7":"7","03_ages_8":"8","04":"No","05":"No","06":"No","07":"No","08":"No"},"rt":420279.40000000596,"item_order":[0,1,2,3,4,5,6,7],"radio_events":[392055.40000000596,393390.700000003,394270.6000000015,411955.1000000015,413749,415174,416590.6000000015,419314.30000000447],"checkbox_events":[396419.5,396855.1000000015,397283.80000000447,397845,398502.1000000015,399417.6000000015,400193.200000003,400798.90000000596],"key_events":[],"mouse_events":[392055.40000000596,393390.700000003,394270.6000000015,396419.5,396855.1000000015,397283.80000000447,397845,398502.1000000015,399417.6000000015,400193.200000003,400798.90000000596,411955.1000000015,413749,415174,416590.6000000015,419314.30000000447,420274.1000000015],"honeypot":0,"survey":"mace","page":2,"trial_type":"survey-mace","trial_index":10,"time_elapsed":1131922,"internal_node_id":"0.0-10.0","task_version":"prescreen-v0.3","browser_interactions":0},{"responses":{"01":"No","02":"No","03":"No","04":"No"},"rt":9527.79999999702,"item_order":[0,1,2,3],"radio_events":[4602.19999999553,6623.60000000149,8003.5,8904.10000000149],"checkbox_events":[],"key_events":[],"mouse_events":[4602.19999999553,6623.60000000149,8003.5,8904.10000000149,9524.10000000149],"honeypot":0,"survey":"mace","page":3,"trial_type":"survey-mace","trial_index":11,"time_elapsed":1141454,"internal_node_id":"0.0-11.0","task_version":"prescreen-v0.3","browser_interactions":0},{"responses":{"01":"No","02":"No"},"rt":8260,"item_order":[0,1],"radio_events":[2338.89999999851,6995.60000000149],"checkbox_events":[],"key_events":[],"mouse_events":[2338.89999999851,6995.60000000149,8258.20000000298],"honeypot":0,"survey":"mace","page":4,"trial_type":"survey-mace","trial_index":12,"time_elapsed":1149717,"internal_node_id":"0.0-12.0","task_version":"prescreen-v0.3","browser_interactions":0},{"responses":{"01":"No","02":"No","03":"No","04":"No","05":"No"},"rt":23973,"item_order":[0,1,2,3,4],"radio_events":[12695.29999999702,15787.29999999702,18089.29999999702,21018.89999999851,22575.29999999702],"checkbox_events":[],"key_events":[],"mouse_events":[12695.29999999702,15787.29999999702,18089.29999999702,21018.89999999851,22575.29999999702,23969.89999999851],"honeypot":0,"survey":"mace","page":5,"trial_type":"survey-mace","trial_index":13,"time_elapsed":1173696,"internal_node_id":"0.0-13.0","task_version":"prescreen-v0.3","browser_interactions":0},{"responses":{"01":"Yes","01_ages_15":"15","01_ages_16":"16","01_ages_17":"17","01_ages_18":"18","02":"Yes","02_ages_15":"15","02_ages_16":"16","02_ages_17":"17","02_ages_18":"18","03":"Yes","03_ages_15":"15","03_ages_16":"16","03_ages_17":"17","03_ages_18":"18","04":"No","05":"Yes","05_ages_15":"15","05_ages_16":"16","05_ages_17":"17","05_ages_18":"18"},"rt":57517.30000000447,"item_order":[0,1,2,3,4],"radio_events":[8640,16888.70000000298,23905.30000000447,40897.10000000149,51366.70000000298],"checkbox_events":[11694.5,12611.70000000298,13074.39999999851,13509.80000000447,18113.5,18578.20000000298,19184.60000000149,19854.89999999851,26310.60000000149,27949.20000000298,28428.10000000149,29217.10000000149,52524.60000000149,52966.80000000447,54266.20000000298,56117.70000000298],"key_events":[],"mouse_events":[8640,11694.5,12611.70000000298,13074.39999999851,13509.80000000447,16888.70000000298,18113.5,18578.20000000298,19184.60000000149,19854.89999999851,23905.30000000447,24960.80000000447,26310.60000000149,27949.20000000298,28428.10000000149,29217.10000000149,40897.10000000149,51366.70000000298,52524.60000000149,52966.80000000447,54266.20000000298,56117.70000000298,57513.30000000447],"honeypot":0,"survey":"mace","page":6,"trial_type":"survey-mace","trial_index":14,"time_elapsed":1231218,"internal_node_id":"0.0-14.0","task_version":"prescreen-v0.3","browser_interactions":0},{"responses":{"01":"Yes","01_ages_15":"15","01_ages_16":"16","01_ages_17":"17","01_ages_18":"18","02":"Yes","02_ages_15":"15","02_ages_16":"16","02_ages_17":"17","02_ages_18":"18","03":"Yes","03_ages_15":"15","03_ages_16":"16","03_ages_17":"17","03_ages_18":"18","04":"Yes","04_ages_15":"15","04_ages_16":"16","05":"No","06":"Yes","06_ages_18":"18","07":"No"},"rt":62681.90000000596,"item_order":[0,1,2,3,4,5,6],"radio_events":[27382.60000000149,30945.30000000447,32030.30000000447,40927.80000000447,45539.80000000447,53484.30000000447,56058.90000000596,62071.80000000447],"checkbox_events":[28238.10000000149,28650.90000000596,29027.60000000149,30001.30000000447,33144.40000000596,33572,34273.40000000596,35800.80000000447,42034.5,42433.40000000596,42823.80000000447,43325.5,47080.80000000447,47575.10000000149,58271.80000000447],"key_events":[],"mouse_events":[27382.60000000149,28238.10000000149,28650.90000000596,29027.60000000149,30001.30000000447,30945.30000000447,32030.30000000447,33144.40000000596,33572,34273.40000000596,35800.80000000447,40927.80000000447,42034.5,42433.40000000596,42823.80000000447,43325.5,45539.80000000447,47080.80000000447,47575.10000000149,53484.30000000447,56058.90000000596,58271.80000000447,62071.80000000447,62677],"honeypot":0,"survey":"mace","page":7,"trial_type":"survey-mace","trial_index":15,"time_elapsed":1293906,"internal_node_id":"0.0-15.0","task_version":"prescreen-v0.3","browser_interactions":0},{"responses":{"01":"Yes","01_ages_10":"10","01_ages_11":"11","01_ages_12":"12","01_ages_13":"13","02":"Yes","02_ages_5":"5","02_ages_6":"6","02_ages_7":"7","02_ages_8":"8","02_ages_9":"9","02_ages_10":"10","02_ages_11":"11","02_ages_12":"12","02_ages_13":"13","02_ages_14":"14","02_ages_15":"15","02_ages_16":"16","02_ages_17":"17","02_ages_18":"18","03":"No","04":"No"},"rt":888847.8000000045,"item_order":[0,1,2,3],"radio_events":[7633.20000000298,26333.30000000447,881028.1000000015,887913.200000003],"checkbox_events":[12841.40000000596,13424.20000000298,14279.60000000149,14832.90000000596,31896.70000000298,32427.60000000149,32995.10000000149,33696.70000000298,34146.5,34766,35548.10000000149,36463.10000000149,36816.90000000596,37260,37731.40000000596,38351.40000000596,38771.80000000447,40003.20000000298],"key_events":[],"mouse_events":[7633.20000000298,12841.40000000596,13424.20000000298,13844.30000000447,14279.60000000149,14832.90000000596,26333.30000000447,31896.70000000298,32427.60000000149,32995.10000000149,33696.70000000298,34146.5,34766,35548.10000000149,35946.30000000447,36463.10000000149,36816.90000000596,37260,37731.40000000596,38351.40000000596,38771.80000000447,40003.20000000298,46545.80000000447,881028.1000000015,887913.200000003,888843.3000000045],"honeypot":0,"survey":"mace","page":8,"trial_type":"survey-mace","trial_index":16,"time_elapsed":2182758,"internal_node_id":"0.0-16.0","task_version":"prescreen-v0.3","browser_interactions":0},{"responses":{"01":"Yes","01_ages_1":"1","01_ages_2":"2","01_ages_3":"3","01_ages_4":"4","01_ages_5":"5","01_ages_6":"6","01_ages_7":"7","01_ages_8":"8","02":"No","03":"Yes","03_ages_1":"1","03_ages_2":"2","03_ages_3":"3","03_ages_4":"4","03_ages_5":"5","03_ages_6":"6","03_ages_7":"7","03_ages_8":"8","04":"Yes","04_ages_1":"1","04_ages_2":"2","04_ages_3":"3","04_ages_4":"4","04_ages_5":"5","04_ages_6":"6","04_ages_7":"7","04_ages_8":"8","04_ages_9":"9","04_ages_10":"10","04_ages_11":"11","04_ages_12":"12","04_ages_13":"13","04_ages_14":"14","04_ages_15":"15","04_ages_16":"16","04_ages_17":"17","04_ages_18":"18"},"rt":80336.39999999851,"item_order":[0,1,2,3],"radio_events":[13328,33642.59999999404,37405.59999999404,67662.59999999404],"checkbox_events":[16407.09999999404,17063.09999999404,17772,18495.39999999851,19196.59999999404,19868.39999999851,20753.89999999851,21964.89999999851,40070.39999999851,40889.19999999553,41604.79999999702,43029.89999999851,43982,44755.89999999851,45553.5,46719.09999999404,69750.79999999702,70266.89999999851,70739.79999999702,71241.09999999404,72053.19999999553,73235.59999999404,73750.79999999702,74414,74939.19999999553,75388.89999999851,75860.59999999404,76496.09999999404,76917.19999999553,77388.09999999404,78200.29999999702,78672.09999999404,79144.59999999404,79653.69999999553],"key_events":[],"mouse_events":[13328,16407.09999999404,17063.09999999404,17772,18495.39999999851,19196.59999999404,19868.39999999851,20753.89999999851,21964.89999999851,33642.59999999404,37405.59999999404,39236.09999999404,40070.39999999851,40889.19999999553,41604.79999999702,42357.79999999702,43029.89999999851,43982,44755.89999999851,45553.5,46719.09999999404,67662.59999999404,69750.79999999702,70266.89999999851,70739.79999999702,71241.09999999404,72053.19999999553,72547.39999999851,73235.59999999404,73750.79999999702,74414,74939.19999999553,75388.89999999851,75860.59999999404,76496.09999999404,76917.19999999553,77388.09999999404,78200.29999999702,78672.09999999404,79144.59999999404,79653.69999999553,80332.59999999404],"honeypot":0,"survey":"mace","page":9,"trial_type":"survey-mace","trial_index":17,"time_elapsed":2263100,"internal_node_id":"0.0-17.0","task_version":"prescreen-v0.3","browser_interactions":0},{"responses":{"01":"No","02":"Yes","02_ages_9":"9","02_ages_10":"10","02_ages_11":"11","02_ages_12":"12","02_ages_13":"13","03":"Yes","03_ages_10":"10","03_ages_11":"11","03_ages_12":"12","03_ages_13":"13","03_ages_14":"14","03_ages_15":"15","03_ages_16":"16","03_ages_17":"17","03_ages_18":"18","04":"Yes","04_ages_10":"10","04_ages_11":"11","04_ages_12":"12","04_ages_13":"13","05":"No","06":"Yes","06_ages_17":"17","07":"No","07_ages_10":"10","07_ages_11":"11","07_ages_12":"12","07_ages_13":"13","07_ages_14":"14","07_ages_15":"15","08":"No"},"rt":98159.20000000298,"item_order":[0,1,2,3,4,5,6,7],"radio_events":[5753.9000000059605,7015.5,42564.90000000596,55249.60000000149,65954.5,68987.10000000149,85559.10000000149,93602,97054.40000000596],"checkbox_events":[8779.20000000298,10764.60000000149,11974.20000000298,12646.70000000298,17249.80000000447,44469.10000000149,44949.40000000596,45368.70000000298,45996.20000000298,46409.80000000447,46874.20000000298,48490.40000000596,48970.40000000596,49582.60000000149,56481.70000000298,56932.20000000298,58554.5,58916.10000000149,70646.70000000298,89302.10000000149,89794.30000000447,90177.90000000596,91011.5,91417.60000000149,91822.60000000149],"key_events":[],"mouse_events":[5753.9000000059605,7015.5,8779.20000000298,10764.60000000149,11974.20000000298,12646.70000000298,17249.80000000447,42564.90000000596,44469.10000000149,44949.40000000596,45368.70000000298,45996.20000000298,46409.80000000447,46874.20000000298,48490.40000000596,48970.40000000596,49582.60000000149,55249.60000000149,56481.70000000298,56932.20000000298,58554.5,58916.10000000149,65954.5,68987.10000000149,70646.70000000298,85559.10000000149,89302.10000000149,89794.30000000447,90177.90000000596,91011.5,91417.60000000149,91822.60000000149,93602,97054.40000000596,98154.40000000596],"honeypot":0,"survey":"mace","page":10,"trial_type":"survey-mace","trial_index":18,"time_elapsed":2361265,"internal_node_id":"0.0-18.0","task_version":"prescreen-v0.3","browser_interactions":0,"instructed":0},{"rt":7824.5,"trial_type":"mental-health-alert","trial_index":19,"time_elapsed":2369092,"internal_node_id":"0.0-19.0","task_version":"prescreen-v0.3","interactions":"[]"}]