[{"view_history":[{"page_index":0,"viewing_time":5060.399999976158},{"page_index":1,"viewing_time":5140.299999952316},{"page_index":2,"viewing_time":3751.399999976158},{"page_index":3,"viewing_time":2047.9000000953674}],"rt":16001.399999976158,"trial_type":"instructions","trial_index":0,"time_elapsed":16029,"internal_node_id":"0.0-0.0","task_version":"prescreen-v0.3"},{"rt":16460.099999904633,"responses":{"age":"31","gender-categorical":"Female","gender-free-response":"","ethnicity":"Hispanic or Latino","race":["White"],"education":"Bachelor degree"},"trial_type":"survey-demo","trial_index":1,"time_elapsed":32500,"internal_node_id":"0.0-1.0","task_version":"prescreen-v0.3"},{"responses":{"Q13":"2","Q08":"1","Q07":"1","Q19":"0","Q04":"0","Q05":"0","Q12":"1","Q16":"0","Q21":"3","Q09":"1","Q10":"0","Q14":"0","Q20":"2","Q02":"1","Q17":"0","Q15":"1","Q06":"0","Q03":"0","Q11":"0","Q01":"0","Q18":"0"},"rt":108995,"item_order":[12,7,6,18,3,4,11,15,20,8,9,13,19,1,16,14,5,2,10,0,17],"radio_events":[6146.199999928474,9294.899999976158,18613.5,26804.199999928474,27456.600000023842,34951.10000002384,38142,46404.89999997616,48607.89999997616,55503.10000002384,62457,63207.39999997616,64310.60000002384,67754.10000002384,71214.60000002384,91718.29999995232,96796,98890.5,100213.79999995232,101792,107892.69999992847],"key_events":[],"mouse_events":[6146.199999928474,9294.899999976158,18613.5,26804.199999928474,27456.600000023842,34951.10000002384,38142,46404.89999997616,48607.89999997616,55503.10000002384,59258.10000002384,62457,63207.39999997616,64310.60000002384,67754.10000002384,71214.60000002384,91718.29999995232,96796,98890.5,100213.79999995232,101792,107892.69999992847,108988.39999997616],"straightlining":0.5714285714285714,"zigzagging":0.5,"honeypot":0,"survey":"sns","trial_type":"survey-template","trial_index":2,"time_elapsed":141504,"internal_node_id":"0.0-2.0","task_version":"prescreen-v0.3","browser_interactions":0,"infrequency":0},{"responses":{"Q07":"3","Q02":"3","Q09":"2","Q04":"3","Q06":"3","Q11":"2","Q12":"3","Q10":"2","Q05":"3","Q03":"3","Q13":"0","Q08":"2","Q01":"3"},"rt":53625,"item_order":[6,1,8,3,5,10,11,9,4,2,12,7,0],"radio_events":[5602.700000047684,7944.300000071526,11151.200000047684,14221.800000071526,17251.400000095367,20774.5,26929.400000095367,28733,33810.200000047684,36504.800000071526,38597.10000002384,51583.800000071526,52748.60000002384],"key_events":[],"mouse_events":[5602.700000047684,7944.300000071526,11151.200000047684,14221.800000071526,17251.400000095367,20774.5,26929.400000095367,28733,33810.200000047684,36504.800000071526,38597.10000002384,51583.800000071526,52748.60000002384,53621.200000047684],"straightlining":0.6153846153846154,"zigzagging":0.6666666666666666,"honeypot":0,"survey":"bisbas","trial_type":"survey-template","trial_index":3,"time_elapsed":195138,"internal_node_id":"0.0-3.0","task_version":"prescreen-v0.3","browser_interactions":0,"infrequency":0},{"responses":{"Q01":"2","Q02":"2","Q03":"3"},"rt":23502.700000047684,"radio_events":[12286.100000023842,16499.200000047684,19475.200000047684],"key_events":[],"mouse_events":[12286.100000023842,16499.200000047684,19475.200000047684,23500.899999976158],"survey":"map","page":1,"trial_type":"survey-map","trial_index":4,"time_elapsed":218651,"internal_node_id":"0.0-4.0","task_version":"prescreen-v0.3","browser_interactions":0},{"responses":{"Q04":"3","Q05":"2","Q06":"3"},"rt":13394.099999904633,"radio_events":[6904.599999904633,10148.199999928474,12270.5],"key_events":[],"mouse_events":[6904.599999904633,10148.199999928474,12270.5,13393.5],"survey":"map","page":2,"trial_type":"survey-map","trial_index":5,"time_elapsed":232049,"internal_node_id":"0.0-5.0","task_version":"prescreen-v0.3","browser_interactions":0},{"responses":{"Q07":"4","Q08":"4","Q09":"3"},"rt":13992.100000023842,"radio_events":[5982.900000095367,9584.300000071526,12828.700000047684],"key_events":[],"mouse_events":[5982.900000095367,9584.300000071526,12828.700000047684,13990.5],"survey":"map","page":3,"trial_type":"survey-map","trial_index":6,"time_elapsed":246045,"internal_node_id":"0.0-6.0","task_version":"prescreen-v0.3","browser_interactions":0},{"responses":{"Q10":"4","Q11":"4","Q12":"4","Q13":"2","Q16":"0","Q14":"2","Q15":"1"},"rt":41457.10000002384,"radio_events":[5830.799999952316,8870.700000047684,12724.5,20327.799999952316,24171,33464.799999952316,36656.5,40009.89999997616],"key_events":[],"mouse_events":[5830.799999952316,8870.700000047684,12724.5,20327.799999952316,24171,33464.799999952316,36656.5,40009.89999997616,41453.700000047684],"survey":"map","page":4,"trial_type":"survey-map","trial_index":7,"time_elapsed":287509,"internal_node_id":"0.0-7.0","task_version":"prescreen-v0.3","browser_interactions":0,"infrequency":0},{"view_history":[{"page_index":0,"viewing_time":4879.799999952316},{"page_index":1,"viewing_time":2944.9000000953674}],"rt":7825.399999976158,"trial_type":"instructions","trial_index":8,"time_elapsed":295335,"internal_node_id":"0.0-8.0","task_version":"prescreen-v0.3"},{"responses":{"01":"No","02":"Yes","02_ages_1":"1","02_ages_2":"2","02_ages_3":"3","02_ages_4":"4","02_ages_5":"5","02_ages_6":"6","02_ages_7":"7","02_ages_8":"8","02_ages_9":"9","02_ages_10":"10","02_ages_11":"11","02_ages_12":"12","02_ages_13":"13","02_ages_14":"14","02_ages_15":"15","02_ages_16":"16","02_ages_17":"17","02_ages_18":"18","03":"Yes","03_ages_1":"1","03_ages_2":"2","03_ages_3":"3","03_ages_4":"4","03_ages_5":"5","03_ages_6":"6","03_ages_7":"7","03_ages_8":"8","03_ages_9":"9","03_ages_10":"10","03_ages_11":"11","03_ages_12":"12","03_ages_13":"13","03_ages_14":"14","03_ages_15":"15","04":"No","05":"No","06":"No"},"rt":54288.89999997616,"item_order":[0,1,2,3,4,5],"radio_events":[8134.599999904633,12596.399999976158,33452.799999952316,48319.699999928474,49729,53423.199999928474],"checkbox_events":[18530.299999952316,20418.699999928474,21045.799999952316,21586.5,22255.399999976158,22733.099999904633,23150.199999928474,23602.899999976158,24714.799999952316,25083.299999952316,25594.799999952316,26486.599999904633,26964.699999928474,27391.899999976158,28035.299999952316,28436.599999904633,28860.799999952316,29632.099999904633,34540.09999990463,35139.39999997616,35687.699999928474,36135.39999997616,37263.89999997616,37841.199999928474,38732.299999952316,39711.799999952316,41092.59999990463,41736.799999952316,42883.59999990463,43530.59999990463,44325.699999928474,44950.799999952316,45562.699999928474],"key_events":[],"mouse_events":[0.19999992847442627,8134.599999904633,10278.699999928474,12596.399999976158,18530.299999952316,20418.699999928474,21045.799999952316,21586.5,22255.399999976158,22733.099999904633,23150.199999928474,23602.899999976158,24268.299999952316,24714.799999952316,25083.299999952316,25594.799999952316,26064,26486.599999904633,26964.699999928474,27391.899999976158,28035.299999952316,28436.599999904633,28860.799999952316,29632.099999904633,33452.799999952316,34540.09999990463,35139.39999997616,35687.699999928474,36135.39999997616,36631.89999997616,37263.89999997616,37841.199999928474,38732.299999952316,39398.299999952316,39711.799999952316,41092.59999990463,41736.799999952316,42203.699999928474,42883.59999990463,43530.59999990463,44325.699999928474,44950.799999952316,45562.699999928474,48319.699999928474,49729,53423.199999928474,54279.59999990463],"honeypot":0,"survey":"mace","page":1,"trial_type":"survey-mace","trial_index":9,"time_elapsed":349640,"internal_node_id":"0.0-9.0","task_version":"prescreen-v0.3","browser_interactions":0},{"responses":{"01":"Yes","01_ages_1":"1","01_ages_2":"2","01_ages_3":"3","01_ages_4":"4","01_ages_5":"5","01_ages_6":"6","01_ages_7":"7","01_ages_8":"8","02":"No","03":"Yes","03_ages_1":"1","03_ages_2":"2","03_ages_3":"3","03_ages_4":"4","03_ages_5":"5","03_ages_6":"6","03_ages_7":"7","03_ages_8":"8","04":"Yes","04_ages_1":"1","04_ages_2":"2","04_ages_3":"3","04_ages_4":"4","04_ages_5":"5","04_ages_6":"6","04_ages_7":"7","04_ages_8":"8","05":"No","06":"No","07":"No","08":"No"},"rt":39663.39999997616,"item_order":[0,1,2,3,4,5,6,7],"radio_events":[2418.100000023842,12532.899999976158,14078.899999976158,22061.899999976158,32835.10000002384,34710.10000002384,36419.89999997616,39053.10000002384],"checkbox_events":[3682.5,4152.899999976158,4689.799999952316,5431.799999952316,5882.899999976158,6373.399999976158,6862.899999976158,7750.699999928474,15281,15788.399999976158,16454.600000023842,17247.600000023842,17662.600000023842,19000,20400.100000023842,20925.399999976158,23472,23855.799999952316,24305.5,24767.899999976158,25493.899999976158,27082.399999976158,28073,28761.799999952316],"key_events":[],"mouse_events":[2418.100000023842,3682.5,4152.899999976158,4689.799999952316,5431.799999952316,5882.899999976158,6373.399999976158,6862.899999976158,7750.699999928474,12532.899999976158,14078.899999976158,15281,15788.399999976158,16454.600000023842,17247.600000023842,17662.600000023842,19000,20400.100000023842,20925.399999976158,22061.899999976158,23472,23855.799999952316,24305.5,24767.899999976158,25493.899999976158,27082.399999976158,28073,28761.799999952316,32835.10000002384,34710.10000002384,35486,36419.89999997616,39053.10000002384,39660.60000002384],"honeypot":0,"survey":"mace","page":2,"trial_type":"survey-mace","trial_index":10,"time_elapsed":389310,"internal_node_id":"0.0-10.0","task_version":"prescreen-v0.3","browser_interactions":0},{"responses":{"01":"Yes","01_ages_1":"1","01_ages_2":"2","01_ages_3":"3","01_ages_4":"4","01_ages_5":"5","01_ages_6":"6","01_ages_7":"7","01_ages_8":"8","02":"No","03":"No","04":"No"},"rt":17389.899999976158,"item_order":[0,1,2,3],"radio_events":[3308.7999999523163,13511.699999928474,15485.600000023842,16451],"checkbox_events":[4754.100000023842,5250.5,5832.5,7500.299999952316,7961.5,8440.199999928474,9736.5,10218.899999976158],"key_events":[],"mouse_events":[3308.7999999523163,4754.100000023842,5250.5,5832.5,7500.299999952316,7961.5,8440.199999928474,8879.899999976158,9736.5,10218.899999976158,13511.699999928474,15485.600000023842,16451,17383.399999976158],"honeypot":0,"survey":"mace","page":3,"trial_type":"survey-mace","trial_index":11,"time_elapsed":406706,"internal_node_id":"0.0-11.0","task_version":"prescreen-v0.3","browser_interactions":0},{"responses":{"01":"No","02":"No"},"rt":5638,"item_order":[0,1],"radio_events":[2805.100000023842,4936.600000023842],"checkbox_events":[],"key_events":[],"mouse_events":[2805.100000023842,4936.600000023842,5634.700000047684],"honeypot":0,"survey":"mace","page":4,"trial_type":"survey-mace","trial_index":12,"time_elapsed":412350,"internal_node_id":"0.0-12.0","task_version":"prescreen-v0.3","browser_interactions":0},{"responses":{"01":"No","02":"No","03":"No","04":"No","05":"No"},"rt":12549.100000023842,"item_order":[0,1,2,3,4],"radio_events":[4691.600000023842,6783.200000047684,8223.200000047684,11127.5,11881.700000047684],"checkbox_events":[],"key_events":[],"mouse_events":[4691.600000023842,6783.200000047684,8223.200000047684,11127.5,11881.700000047684,12547.200000047684],"honeypot":0,"survey":"mace","page":5,"trial_type":"survey-mace","trial_index":13,"time_elapsed":424906,"internal_node_id":"0.0-13.0","task_version":"prescreen-v0.3","browser_interactions":0},{"responses":{"01":"No","02":"No","02_ages_1":"1","03":"No","04":"No","05":"No"},"rt":22612.399999976158,"item_order":[0,1,2,3,4],"radio_events":[4935.600000023842,8080.5,13042.799999952316,14967.100000023842,15716.299999952316,16762.699999928474],"checkbox_events":[9382],"key_events":[],"mouse_events":[4935.600000023842,8080.5,9382,11458.299999952316,13042.799999952316,14967.100000023842,15716.299999952316,16762.699999928474,22606.600000023842],"honeypot":0,"survey":"mace","page":6,"trial_type":"survey-mace","trial_index":14,"time_elapsed":447521,"internal_node_id":"0.0-14.0","task_version":"prescreen-v0.3","browser_interactions":0},{"responses":{"01":"No","02":"No","03":"No","04":"No","05":"No","06":"No","07":"No"},"rt":12293.700000047684,"item_order":[0,1,2,3,4,5,6],"radio_events":[2737.3000000715256,3527.600000023842,4434.700000047684,5264.200000047684,6709.100000023842,8868.200000047684,10223.300000071526],"checkbox_events":[],"key_events":[],"mouse_events":[2737.3000000715256,3527.600000023842,4434.700000047684,5264.200000047684,6709.100000023842,8868.200000047684,10223.300000071526,12282.700000047684],"honeypot":0,"survey":"mace","page":7,"trial_type":"survey-mace","trial_index":15,"time_elapsed":459822,"internal_node_id":"0.0-15.0","task_version":"prescreen-v0.3","browser_interactions":0},{"responses":{"01":"Yes","01_ages_1":"1","01_ages_2":"2","01_ages_3":"3","01_ages_4":"4","01_ages_5":"5","01_ages_6":"6","01_ages_7":"7","01_ages_8":"8","01_ages_9":"9","01_ages_10":"10","01_ages_11":"11","01_ages_12":"12","01_ages_13":"13","01_ages_14":"14","01_ages_15":"15","01_ages_16":"16","01_ages_17":"17","01_ages_18":"18","02":"No","03":"Yes","03_ages_1":"1","03_ages_2":"2","03_ages_3":"3","03_ages_4":"4","03_ages_5":"5","03_ages_6":"6","03_ages_7":"7","03_ages_8":"8","03_ages_9":"9","03_ages_10":"10","03_ages_11":"11","03_ages_12":"12","03_ages_13":"13","03_ages_14":"14","03_ages_15":"15","03_ages_16":"16","03_ages_17":"17","03_ages_18":"18","04":"No"},"rt":48635.60000002384,"item_order":[0,1,2,3],"radio_events":[9627.300000071526,30318.899999976158,31230.899999976158,46492.300000071526],"checkbox_events":[11179.600000023842,11640.600000023842,12342,16976.600000023842,17894.100000023842,18460.800000071526,19186.700000047684,20050.5,20962.200000047684,21565.399999976158,22026.700000047684,22828.5,23759.600000023842,25033.5,25535.300000071526,26001.700000047684,26726,27322,32916.89999997616,33575.5,34925.89999997616,36718.5,37436.800000071526,38226.800000071526,38612.200000047684,39449.700000047684,40063.60000002384,40476,41302.300000071526,41956.800000071526,42754.300000071526,43351.60000002384,44214.60000002384,44618.60000002384,45231.60000002384,45861.300000071526],"key_events":[],"mouse_events":[9627.300000071526,11179.600000023842,11640.600000023842,12342,13105.700000047684,16976.600000023842,17894.100000023842,18460.800000071526,19186.700000047684,20050.5,20562.100000023842,20962.200000047684,21565.399999976158,22026.700000047684,22828.5,23465.399999976158,23759.600000023842,24537.399999976158,25033.5,25535.300000071526,26001.700000047684,26726,27322,30318.899999976158,31230.899999976158,32916.89999997616,33575.5,34925.89999997616,35310,36337.300000071526,36718.5,37436.800000071526,38226.800000071526,38612.200000047684,39449.700000047684,40063.60000002384,40476,40963.5,41302.300000071526,41956.800000071526,42323.200000047684,42754.300000071526,43083.5,43351.60000002384,43800.89999997616,44214.60000002384,44618.60000002384,45231.60000002384,45861.300000071526,46492.300000071526,47322.700000047684,48630.39999997616],"honeypot":0,"survey":"mace","page":8,"trial_type":"survey-mace","trial_index":16,"time_elapsed":508463,"internal_node_id":"0.0-16.0","task_version":"prescreen-v0.3","browser_interactions":0},{"responses":{"01":"Yes","01_ages_1":"1","01_ages_2":"2","01_ages_3":"3","01_ages_4":"4","01_ages_5":"5","01_ages_6":"6","01_ages_7":"7","01_ages_8":"8","01_ages_9":"9","01_ages_10":"10","01_ages_11":"11","01_ages_12":"12","01_ages_13":"13","01_ages_14":"14","01_ages_15":"15","01_ages_16":"16","01_ages_17":"17","01_ages_18":"18","02":"Yes","02_ages_1":"1","02_ages_2":"2","02_ages_3":"3","02_ages_4":"4","02_ages_5":"5","02_ages_6":"6","02_ages_7":"7","02_ages_8":"8","02_ages_9":"9","02_ages_10":"10","02_ages_11":"11","02_ages_12":"12","02_ages_13":"13","02_ages_14":"14","02_ages_15":"15","02_ages_16":"16","02_ages_17":"17","02_ages_18":"18","03":"Yes","03_ages_1":"1","03_ages_2":"2","03_ages_3":"3","03_ages_4":"4","03_ages_5":"5","03_ages_6":"6","03_ages_7":"7","03_ages_8":"8","03_ages_9":"9","03_ages_10":"10","03_ages_11":"11","03_ages_12":"12","03_ages_13":"13","03_ages_14":"14","03_ages_15":"15","03_ages_16":"16","03_ages_17":"17","03_ages_18":"18","04":"Yes","04_ages_1":"1","04_ages_2":"2","04_ages_3":"3","04_ages_4":"4","04_ages_5":"5","04_ages_6":"6","04_ages_7":"7","04_ages_8":"8","04_ages_9":"9","04_ages_10":"10","04_ages_11":"11","04_ages_12":"12","04_ages_13":"13","04_ages_14":"14","04_ages_15":"15","04_ages_16":"16","04_ages_17":"17","04_ages_18":"18"},"rt":74807.89999997616,"item_order":[0,1,2,3],"radio_events":[3813,31016.5,45336.60000002384,61719.10000002384],"checkbox_events":[5636.200000047684,6268.600000023842,6862.700000047684,7576.300000071526,8034.700000047684,8580,10032.600000023842,10577.700000047684,11244,11726.399999976158,12357.700000047684,14089.100000023842,16638.800000071526,18387.800000071526,19296.100000023842,20262.399999976158,20812.399999976158,21475.600000023842,32258,32959.89999997616,33709.300000071526,35218.800000071526,35653,35915.5,36763.800000071526,37370.60000002384,37808.39999997616,38240.89999997616,38890,39287.60000002384,39745.5,40159.700000047684,40955.89999997616,41407.10000002384,42658.5,43393.60000002384,43991.89999997616,44460.39999997616,47037.89999997616,47604.60000002384,48486.800000071526,49403.300000071526,49805.300000071526,51441.60000002384,51850.300000071526,52304.60000002384,52993.200000047684,53461.60000002384,53910.300000071526,54757.300000071526,55860.700000047684,56356.800000071526,59267,59742.700000047684,60321.200000047684,60788.300000071526,62763.5,63260.700000047684,63883.10000002384,64623.700000047684,65400.800000071526,65844.60000002384,66508.20000004768,66927.60000002384,67341.5,67765.5,68278.80000007153,71168.10000002384,71748.5,72162.10000002384,72594.39999997616,73155.5,73594.5,74067.10000002384],"key_events":[],"mouse_events":[3813,5636.200000047684,6268.600000023842,6862.700000047684,7292.5,7576.300000071526,8034.700000047684,8580,9121.899999976158,10032.600000023842,10577.700000047684,11244,11726.399999976158,12357.700000047684,12861.899999976158,13190,14089.100000023842,14481.300000071526,16638.800000071526,18387.800000071526,19296.100000023842,20262.399999976158,20812.399999976158,21475.600000023842,31016.5,32258,32959.89999997616,33709.300000071526,34288.700000047684,35218.800000071526,35653,35915.5,36763.800000071526,37370.60000002384,37808.39999997616,38240.89999997616,38890,39287.60000002384,39745.5,40159.700000047684,40646.700000047684,40955.89999997616,41407.10000002384,42658.5,43112.700000047684,43393.60000002384,43991.89999997616,44460.39999997616,45336.60000002384,47037.89999997616,47604.60000002384,48486.800000071526,49403.300000071526,49805.300000071526,50530.89999997616,51441.60000002384,51850.300000071526,52304.60000002384,52993.200000047684,53461.60000002384,53910.300000071526,54757.300000071526,55162.39999997616,55860.700000047684,56356.800000071526,57191.39999997616,58492.89999997616,58997.700000047684,59267,59742.700000047684,60321.200000047684,60788.300000071526,61719.10000002384,62763.5,63260.700000047684,63883.10000002384,64623.700000047684,65400.800000071526,65844.60000002384,66508.20000004768,66927.60000002384,67341.5,67765.5,68278.80000007153,71168.10000002384,71748.5,72162.10000002384,72594.39999997616,73155.5,73594.5,74067.10000002384,74801],"honeypot":0,"survey":"mace","page":9,"trial_type":"survey-mace","trial_index":17,"time_elapsed":583271,"internal_node_id":"0.0-17.0","task_version":"prescreen-v0.3","browser_interactions":0},{"responses":{"01":"No","02":"No","03":"Yes","03_ages_1":"1","03_ages_2":"2","03_ages_3":"3","03_ages_4":"4","03_ages_5":"5","03_ages_6":"6","03_ages_7":"7","03_ages_8":"8","03_ages_9":"9","03_ages_10":"10","03_ages_11":"11","03_ages_12":"12","03_ages_13":"13","03_ages_14":"14","03_ages_15":"15","04":"No","05":"No","06":"Yes","06_ages_17":"17","07":"Yes","07_ages_1":"1","07_ages_2":"2","07_ages_3":"3","07_ages_4":"4","07_ages_5":"5","07_ages_6":"6","07_ages_7":"7","07_ages_8":"8","07_ages_9":"9","07_ages_10":"10","07_ages_11":"11","07_ages_12":"12","07_ages_13":"13","07_ages_14":"14","07_ages_15":"15","07_ages_16":"16","07_ages_17":"17","07_ages_18":"18","08":"Yes","08_ages_1":"1","08_ages_2":"2","08_ages_3":"3","08_ages_4":"4","08_ages_5":"5","08_ages_6":"6","08_ages_7":"7","08_ages_8":"8","08_ages_9":"9","08_ages_10":"10","08_ages_11":"11","08_ages_12":"12","08_ages_13":"13","08_ages_14":"14","08_ages_15":"15","08_ages_16":"16","08_ages_17":"17","08_ages_18":"18"},"rt":65116.10000002384,"item_order":[0,1,2,3,4,5,6,7],"radio_events":[3730.2999999523163,5572,8611.799999952316,23474.399999976158,29740.899999976158,30561.5,37627.799999952316,54072.89999997616],"checkbox_events":[9975.399999976158,10479.600000023842,10955.399999976158,11426.100000023842,12210.199999928474,12585,13258.600000023842,14661.600000023842,15816.299999952316,16891.199999928474,17567.399999976158,19457.899999976158,19943.299999952316,21225.100000023842,22230.899999976158,32190.399999976158,39883.799999952316,40459.299999952316,40938.10000002384,41409.199999928474,41886.699999928474,42952.299999952316,43476.699999928474,44371,45291.199999928474,45772.799999952316,47079.89999997616,49010.5,49500,50024.799999952316,50886.60000002384,51886.5,52497.699999928474,53030.5,55391.60000002384,55908.5,56479.60000002384,56984.89999997616,57462.299999952316,58026.39999997616,58460.60000002384,58898.799999952316,59313.299999952316,60105.89999997616,60476.699999928474,61020.199999928474,61419,62357.5,62742.89999997616,63524.699999928474,64208.10000002384,64601.5],"key_events":[],"mouse_events":[3730.2999999523163,5572,8611.799999952316,9975.399999976158,10479.600000023842,10955.399999976158,11426.100000023842,12210.199999928474,12585,13258.600000023842,14661.600000023842,15441,15816.299999952316,16482.5,16891.199999928474,17567.399999976158,18181,19121.699999928474,19457.899999976158,19943.299999952316,20415.399999976158,21225.100000023842,22230.899999976158,23474.399999976158,29740.899999976158,30561.5,32190.399999976158,37627.799999952316,39883.799999952316,40459.299999952316,40938.10000002384,41409.199999928474,41886.699999928474,42952.299999952316,43476.699999928474,44066.60000002384,44371,45291.199999928474,45772.799999952316,47079.89999997616,47560.5,49010.5,49500,50024.799999952316,50886.60000002384,51886.5,52497.699999928474,53030.5,54072.89999997616,55391.60000002384,55908.5,56479.60000002384,56984.89999997616,57462.299999952316,58026.39999997616,58460.60000002384,58898.799999952316,59313.299999952316,60105.89999997616,60476.699999928474,61020.199999928474,61419,61816.199999928474,62357.5,62742.89999997616,63524.699999928474,64208.10000002384,64601.5,65104.199999928474],"honeypot":0,"survey":"mace","page":10,"trial_type":"survey-mace","trial_index":18,"time_elapsed":648396,"internal_node_id":"0.0-18.0","task_version":"prescreen-v0.3","browser_interactions":0,"instructed":0},{"rt":7630.899999976158,"trial_type":"mental-health-alert","trial_index":19,"time_elapsed":656029,"internal_node_id":"0.0-19.0","task_version":"prescreen-v0.3","interactions":"[]"}]