[{"view_history":[{"page_index":0,"viewing_time":5710.300000011921},{"page_index":1,"viewing_time":3519.600000023842},{"page_index":2,"viewing_time":2645.599999964237},{"page_index":3,"viewing_time":1738.6000000238419}],"rt":13615.300000011921,"trial_type":"instructions","trial_index":0,"time_elapsed":13624,"internal_node_id":"0.0-0.0","task_version":"prescreen-v0.3"},{"rt":17966.899999976158,"responses":{"age":"37","gender-categorical":"Male","gender-free-response":"","ethnicity":"Hispanic or Latino","race":["White"],"education":"Some college","siblings":"1"},"trial_type":"survey-demo","trial_index":1,"time_elapsed":31598,"internal_node_id":"0.0-1.0","task_version":"prescreen-v0.3"},{"responses":{"Q14":"0","Q04":"1","Q16":"0","Q10":"1","Q03":"0","Q08":"2","Q09":"1","Q20":"0","Q01":"0","Q17":"0","Q12":"2","Q18":"0","Q05":"0","Q21":"3","Q19":"0","Q02":"0","Q15":"0","Q13":"0","Q07":"0","Q06":"0","Q11":"1"},"rt":106907.60000002384,"item_order":[13,3,15,9,2,7,8,19,0,16,11,17,4,20,18,1,14,12,6,5,10],"radio_events":[4966.100000023842,10488.5,16462.80000001192,23471.600000023842,26190.69999998808,31137.100000023842,36667.80000001192,40412,41805.39999997616,44810.30000001192,51130.80000001192,56904.30000001192,62671.69999998808,68751.5,77988.30000001192,80062.39999997616,87319.19999998808,91751.80000001192,96312.60000002384,101965.39999997616,105567.69999998808],"key_events":[],"mouse_events":[4966.100000023842,10488.5,16462.80000001192,23471.600000023842,26190.69999998808,31137.100000023842,34967.80000001192,36667.80000001192,40412,41805.39999997616,44810.30000001192,51130.80000001192,56904.30000001192,62671.69999998808,68751.5,77988.30000001192,80062.39999997616,87319.19999998808,91751.80000001192,96312.60000002384,101965.39999997616,105567.69999998808,106904.10000002384],"straightlining":0.6666666666666666,"zigzagging":0.45,"honeypot":0,"survey":"sns","trial_type":"survey-template","trial_index":2,"time_elapsed":138507,"internal_node_id":"0.0-2.0","task_version":"prescreen-v0.3","browser_interactions":0,"infrequency":0},{"responses":{"Q09":"2","Q12":"2","Q13":"0","Q06":"3","Q10":"2","Q02":"1","Q01":"2","Q07":"3","Q05":"3","Q03":"2","Q11":"2","Q04":"2","Q08":"3"},"rt":57838.69999998808,"item_order":[8,11,12,5,9,1,0,6,4,2,10,3,7],"radio_events":[9283.5,13124.099999964237,16027.5,21750.299999952316,24811.399999976158,27483.599999964237,31840.399999976158,34094,37454,44365,49647.09999996424,54123,56730.89999997616],"key_events":[],"mouse_events":[9283.5,13124.099999964237,16027.5,21750.299999952316,24811.399999976158,27483.599999964237,31840.399999976158,34094,37454,44365,49647.09999996424,54123,56730.89999997616,57836.299999952316],"straightlining":0.5384615384615384,"zigzagging":0.5833333333333334,"honeypot":0,"survey":"bisbas","trial_type":"survey-template","trial_index":3,"time_elapsed":196352,"internal_node_id":"0.0-3.0","task_version":"prescreen-v0.3","browser_interactions":0,"infrequency":0},{"responses":{"Q01":"3","Q02":"3","Q03":"3"},"rt":23698.69999998808,"radio_events":[8305.899999976158,13347.100000023842,21272.19999998808],"key_events":[],"mouse_events":[8305.899999976158,13347.100000023842,21272.19999998808,23697.600000023842],"survey":"map","page":1,"trial_type":"survey-map","trial_index":4,"time_elapsed":220056,"internal_node_id":"0.0-4.0","task_version":"prescreen-v0.3","browser_interactions":0},{"responses":{"Q04":"2","Q05":"3","Q06":"2"},"rt":27810.80000001192,"radio_events":[6000.400000035763,10284.900000035763,12571.5,26650.200000047684],"key_events":[],"mouse_events":[6000.400000035763,10284.900000035763,12571.5,26650.200000047684,27810.200000047684],"survey":"map","page":2,"trial_type":"survey-map","trial_index":5,"time_elapsed":247870,"internal_node_id":"0.0-5.0","task_version":"prescreen-v0.3","browser_interactions":0},{"responses":{"Q07":"4","Q08":"4","Q09":"3"},"rt":24309.5,"radio_events":[6228.300000011921,15590,17217.5,19754.30000001192,23287.30000001192],"key_events":[],"mouse_events":[6228.300000011921,15590,17217.5,19754.30000001192,23287.30000001192,24308.600000023842],"survey":"map","page":3,"trial_type":"survey-map","trial_index":6,"time_elapsed":272183,"internal_node_id":"0.0-6.0","task_version":"prescreen-v0.3","browser_interactions":0},{"responses":{"Q10":"4","Q11":"4","Q12":"2","Q13":"1","Q16":"0","Q14":"2","Q15":"2"},"rt":54970.89999997616,"radio_events":[6334.899999976158,11511.799999952316,23321,30873.099999964237,35899.59999996424,50016.69999998808,53393.59999996424],"key_events":[],"mouse_events":[6334.899999976158,11511.799999952316,23321,30873.099999964237,35899.59999996424,50016.69999998808,53393.59999996424,54969],"survey":"map","page":4,"trial_type":"survey-map","trial_index":7,"time_elapsed":327163,"internal_node_id":"0.0-7.0","task_version":"prescreen-v0.3","browser_interactions":0,"infrequency":0},{"view_history":[{"page_index":0,"viewing_time":3334.199999988079},{"page_index":1,"viewing_time":4407.300000011921}],"rt":7742.599999964237,"trial_type":"instructions","trial_index":8,"time_elapsed":334908,"internal_node_id":"0.0-8.0","task_version":"prescreen-v0.3"},{"responses":{"01":"Yes","01_ages_13":"13","01_ages_14":"14","01_ages_15":"15","01_ages_16":"16","02":"Yes","02_ages_13":"13","02_ages_14":"14","02_ages_15":"15","02_ages_16":"16","03":"No","04":"No","05":"No","06":"No"},"rt":48839.5,"item_order":[0,1,2,3,4,5],"radio_events":[13193.300000011921,26466.600000023842,37793.19999998808,40296.39999997616,41915.19999998808,44623.30000001192],"checkbox_events":[17707,18584.5,20282.69999998808,21282.399999976158,28074.30000001192,28998.19999998808,30861.5,33025.39999997616],"key_events":[],"mouse_events":[0.19999998807907104,13193.300000011921,17707,18584.5,20282.69999998808,21282.399999976158,26466.600000023842,28074.30000001192,28998.19999998808,30479.30000001192,30861.5,31820.30000001192,33025.39999997616,37793.19999998808,40296.39999997616,41915.19999998808,44623.30000001192,48834.5],"honeypot":0,"survey":"mace","page":1,"trial_type":"survey-mace","trial_index":9,"time_elapsed":383759,"internal_node_id":"0.0-9.0","task_version":"prescreen-v0.3","browser_interactions":0},{"responses":{"01":"No","02":"No","03":"Yes","03_ages_6":"6","03_ages_7":"7","04":"No","05":"No","06":"No","07":"No","08":"No"},"rt":46562.90000003576,"item_order":[0,1,2,3,4,5,6,7],"radio_events":[8762.5,22461.80000001192,25449,32601.80000001192,34330.80000001192,42569.5,44307.80000001192,45610.60000002384],"checkbox_events":[27813.900000035763,28822.100000023842],"key_events":[],"mouse_events":[8762.5,22461.80000001192,25449,27813.900000035763,28822.100000023842,32601.80000001192,34330.80000001192,42569.5,44307.80000001192,45610.60000002384,46556.5],"honeypot":0,"survey":"mace","page":2,"trial_type":"survey-mace","trial_index":10,"time_elapsed":430328,"internal_node_id":"0.0-10.0","task_version":"prescreen-v0.3","browser_interactions":0},{"responses":{"01":"No","02":"No","03":"Yes","03_ages_7":"7","04":"No"},"rt":25992.599999964237,"item_order":[0,1,2,3],"radio_events":[5947,7874.199999988079,9444.099999964237,14970.199999988079,24261.099999964237],"checkbox_events":[19259.69999998808],"key_events":[],"mouse_events":[5947,7874.199999988079,9444.099999964237,14970.199999988079,19259.69999998808,24261.099999964237,25989.399999976158],"honeypot":0,"survey":"mace","page":3,"trial_type":"survey-mace","trial_index":11,"time_elapsed":456323,"internal_node_id":"0.0-11.0","task_version":"prescreen-v0.3","browser_interactions":0},{"responses":{"01":"No","02":"No"},"rt":11296.900000035763,"item_order":[0,1],"radio_events":[7433.800000011921,9898.400000035763],"checkbox_events":[],"key_events":[],"mouse_events":[7433.800000011921,9898.400000035763,11295.199999988079],"honeypot":0,"survey":"mace","page":4,"trial_type":"survey-mace","trial_index":12,"time_elapsed":467624,"internal_node_id":"0.0-12.0","task_version":"prescreen-v0.3","browser_interactions":0},{"responses":{"01":"No","02":"Yes","02_ages_8":"8","03":"No","04":"No","05":"No"},"rt":26015.900000035763,"item_order":[0,1,2,3,4],"radio_events":[9779.5,11325.900000035763,17834,21294.100000023842,23672],"checkbox_events":[14176.600000023842],"key_events":[],"mouse_events":[9779.5,11325.900000035763,14176.600000023842,17834,21294.100000023842,22518.900000035763,23672,26012],"honeypot":0,"survey":"mace","page":5,"trial_type":"survey-mace","trial_index":13,"time_elapsed":493645,"internal_node_id":"0.0-13.0","task_version":"prescreen-v0.3","browser_interactions":0},{"responses":{"01":"Yes","01_ages_9":"9","02":"Yes","02_ages_6":"6","02_ages_7":"7","03":"No","04":"Yes","04_ages_6":"6","04_ages_7":"7","05":"No"},"rt":36445.30000001192,"item_order":[0,1,2,3,4],"radio_events":[8699.099999964237,15196.300000011921,22044.5,25464.80000001192,33880.80000001192],"checkbox_events":[11143.099999964237,17368.899999976158,18255,27726.19999998808,28105.30000001192,29190,30590.30000001192],"key_events":[],"mouse_events":[8699.099999964237,11143.099999964237,15196.300000011921,17368.899999976158,18255,22044.5,25464.80000001192,27726.19999998808,28105.30000001192,29190,30590.30000001192,33880.80000001192,36441.30000001192],"honeypot":0,"survey":"mace","page":6,"trial_type":"survey-mace","trial_index":14,"time_elapsed":530095,"internal_node_id":"0.0-14.0","task_version":"prescreen-v0.3","browser_interactions":0},{"responses":{"01":"No","02":"No","03":"Yes","03_ages_8":"8","04":"No","05":"No","06":"No","07":"No"},"rt":40171.10000002384,"item_order":[0,1,2,3,4,5,6],"radio_events":[17655.30000001192,19715.30000001192,21998.100000023842,25415.400000035763,31634,33454.19999998808,36219,39157.10000002384],"checkbox_events":[29377.30000001192],"key_events":[],"mouse_events":[17655.30000001192,19715.30000001192,21998.100000023842,25415.400000035763,29377.30000001192,31634,33454.19999998808,36219,37996.30000001192,39157.10000002384,40165.5],"honeypot":0,"survey":"mace","page":7,"trial_type":"survey-mace","trial_index":15,"time_elapsed":570273,"internal_node_id":"0.0-15.0","task_version":"prescreen-v0.3","browser_interactions":0},{"responses":{"01":"Yes","01_ages_7":"7","01_ages_8":"8","01_ages_9":"9","01_ages_10":"10","01_ages_11":"11","01_ages_12":"12","01_ages_13":"13","01_ages_14":"14","01_ages_15":"15","01_ages_16":"16","01_ages_17":"17","01_ages_18":"18","02":"No","03":"Yes","03_ages_7":"7","03_ages_8":"8","03_ages_9":"9","03_ages_10":"10","03_ages_11":"11","03_ages_12":"12","03_ages_13":"13","03_ages_14":"14","03_ages_15":"15","03_ages_16":"16","03_ages_17":"17","03_ages_18":"18","04":"Yes","04_ages_7":"7","04_ages_8":"8","04_ages_9":"9","04_ages_10":"10","04_ages_11":"11","04_ages_12":"12","04_ages_13":"13","04_ages_14":"14","04_ages_15":"15","04_ages_16":"16","04_ages_17":"17","04_ages_18":"18"},"rt":88117.30000001192,"item_order":[0,1,2,3],"radio_events":[11901.300000011921,36680.60000002384,39511.80000001192,45552.40000003576,47758.5,70920.80000001192],"checkbox_events":[15380.600000023842,17219.5,17602.200000047684,18182.600000023842,19111.80000001192,20153.80000001192,22260.30000001192,23212.700000047684,24450.600000023842,25627.600000023842,26684.600000023842,27722.5,28797.700000047684,29843.200000047684,49910.80000001192,52212.80000001192,52604.80000001192,53209.700000047684,54200.10000002384,55347.5,58639.5,61260.80000001192,62290.5,63516.200000047684,64512.700000047684,65619.80000001192,67815,69013,72382.60000002384,74564.40000003576,75761.5,77122,78182.10000002384,80236.60000002384,81207.30000001192,82364,83373.40000003576,84302.80000001192,85255.10000002384,86408.30000001192],"key_events":[],"mouse_events":[11901.300000011921,15380.600000023842,17219.5,17602.200000047684,18182.600000023842,19111.80000001192,20153.80000001192,21171.5,22260.30000001192,23212.700000047684,24450.600000023842,25627.600000023842,26684.600000023842,27722.5,28797.700000047684,29843.200000047684,36680.60000002384,39511.80000001192,45552.40000003576,47758.5,49910.80000001192,52212.80000001192,52604.80000001192,53209.700000047684,54200.10000002384,55347.5,58639.5,60423.60000002384,61260.80000001192,62290.5,63516.200000047684,64512.700000047684,65619.80000001192,67241.20000004768,67815,69013,70920.80000001192,72382.60000002384,74141.40000003576,74564.40000003576,75761.5,77122,78182.10000002384,79843.90000003576,80236.60000002384,81207.30000001192,82364,83373.40000003576,84302.80000001192,85255.10000002384,86408.30000001192,88113.80000001192],"honeypot":0,"survey":"mace","page":8,"trial_type":"survey-mace","trial_index":16,"time_elapsed":658392,"internal_node_id":"0.0-16.0","task_version":"prescreen-v0.3","browser_interactions":0},{"responses":{"01":"No","02":"No","03":"No","04":"No"},"rt":23885.099999964237,"item_order":[0,1,2,3],"radio_events":[13058.399999976158,16428.099999964237,19492.80000001192,20997.899999976158,22764.69999998808],"checkbox_events":[],"key_events":[],"mouse_events":[13058.399999976158,16428.099999964237,19492.80000001192,20997.899999976158,22764.69999998808,23881.899999976158],"honeypot":0,"survey":"mace","page":9,"trial_type":"survey-mace","trial_index":17,"time_elapsed":682281,"internal_node_id":"0.0-17.0","task_version":"prescreen-v0.3","browser_interactions":0},{"responses":{"01":"No","02":"No","03":"Yes","03_ages_9":"9","03_ages_10":"10","03_ages_11":"11","03_ages_12":"12","03_ages_13":"13","03_ages_14":"14","03_ages_15":"15","03_ages_16":"16","03_ages_17":"17","03_ages_18":"18","04":"No","05":"No","06":"Yes","06_ages_17":"17","07":"No","08":"No"},"rt":45319.89999997616,"item_order":[0,1,2,3,4,5,6,7],"radio_events":[4337.5,5472.899999976158,8603.199999988079,27237,30423.100000023842,33205.5,39980.80000001192,44068.89999997616],"checkbox_events":[12562.600000023842,14240.800000011921,14620,15264.199999988079,16385.5,17291.100000023842,18159.69999998808,19211.19999998808,20462.100000023842,21473.600000023842,22716.399999976158,23725.399999976158,34880.80000001192],"key_events":[],"mouse_events":[4337.5,5472.899999976158,8603.199999988079,12562.600000023842,14240.800000011921,14620,15264.199999988079,16385.5,17291.100000023842,18159.69999998808,19211.19999998808,20462.100000023842,21473.600000023842,22716.399999976158,23725.399999976158,27237,30423.100000023842,33205.5,34880.80000001192,39980.80000001192,42909.39999997616,44068.89999997616,45313.69999998808],"honeypot":0,"survey":"mace","page":10,"trial_type":"survey-mace","trial_index":18,"time_elapsed":727608,"internal_node_id":"0.0-18.0","task_version":"prescreen-v0.3","browser_interactions":0,"instructed":0},{"rt":4483.600000023842,"trial_type":"mental-health-alert","trial_index":19,"time_elapsed":732094,"internal_node_id":"0.0-19.0","task_version":"prescreen-v0.3","interactions":"[]"}]