[{"view_history":[{"page_index":0,"viewing_time":3947},{"page_index":1,"viewing_time":6230},{"page_index":2,"viewing_time":5300},{"page_index":3,"viewing_time":3204}],"rt":18681,"trial_type":"instructions","trial_index":0,"time_elapsed":18686,"internal_node_id":"0.0-0.0","task_version":"prescreen-v0.3"},{"rt":22856,"responses":{"age":"26","gender-categorical":"Female","gender-free-response":"","ethnicity":"Not Hispanic or Latino","race":["White"],"education":"Master degree or higher"},"trial_type":"survey-demo","trial_index":1,"time_elapsed":41547,"internal_node_id":"0.0-1.0","task_version":"prescreen-v0.3"},{"responses":{"Q11":"2","Q17":"1","Q18":"2","Q04":"0","Q12":"3","Q05":"1","Q02":"2","Q07":"0","Q21":"3","Q09":"3","Q10":"1","Q16":"3","Q03":"1","Q06":"1","Q01":"2","Q08":"1","Q20":"2","Q15":"3","Q14":"3","Q19":"2","Q13":"1"},"rt":206148,"item_order":[10,16,17,3,11,4,1,6,20,8,9,15,2,5,0,7,19,14,13,18,12],"radio_events":[12020,18534,38130,54815,77257,78342,88876,98158,117019,121724,126506,130979,133144,151737,155717,168511,174661.00000000003,177386,180135,186297,194184,200951,204820],"key_events":[],"mouse_events":[12020,18534,38130,54815,77257,78342,88876,98158,117019,121724,126506,130979,133144,151737,155717,168511,174661.00000000003,177386,179544,180135,186297,194184,200951,204820,206138.00000000003],"straightlining":0.3333333333333333,"zigzagging":0.55,"honeypot":0,"survey":"sns","trial_type":"survey-template","trial_index":2,"time_elapsed":247699,"internal_node_id":"0.0-2.0","task_version":"prescreen-v0.3","browser_interactions":0,"infrequency":0},{"responses":{"Q04":"3","Q02":"3","Q06":"3","Q13":"0","Q11":"1","Q12":"0","Q08":"2","Q10":"1","Q07":"3","Q03":"3","Q09":"1","Q01":"3","Q05":"2"},"rt":93269.00000000006,"item_order":[3,1,5,12,10,11,7,9,6,2,8,0,4],"radio_events":[17344,22008,26791,31519.00000000006,41365,53474,58309,59509,66628,69796,75841,84005,86340,92496],"key_events":[],"mouse_events":[17344,22008,26791,31519.00000000006,41365,53474,58309,59509,65973,66628,69796,75841,84005,86340,92496,93263],"straightlining":0.46153846153846156,"zigzagging":0.4166666666666667,"honeypot":0,"survey":"bisbas","trial_type":"survey-template","trial_index":3,"time_elapsed":340971,"internal_node_id":"0.0-3.0","task_version":"prescreen-v0.3","browser_interactions":0,"infrequency":0},{"responses":{"Q01":"1","Q02":"2","Q03":"2"},"rt":44360,"radio_events":[25062,31762,43382],"key_events":[],"mouse_events":[25062,31762,43382,44357],"survey":"map","page":1,"trial_type":"survey-map","trial_index":4,"time_elapsed":385335,"internal_node_id":"0.0-4.0","task_version":"prescreen-v0.3","browser_interactions":0},{"responses":{"Q04":"2","Q05":"1","Q06":"1"},"rt":22345,"radio_events":[9731,15262,21246.00000000006],"key_events":[],"mouse_events":[9731,15262,21246.00000000006,22342],"survey":"map","page":2,"trial_type":"survey-map","trial_index":5,"time_elapsed":407683,"internal_node_id":"0.0-5.0","task_version":"prescreen-v0.3","browser_interactions":0},{"responses":{"Q07":"3","Q08":"2","Q09":"4"},"rt":100762,"radio_events":[13788,20446.00000000006,61560,62775,98642,100064.00000000006],"key_events":[],"mouse_events":[13788,20446.00000000006,61560,62775,98642,100064.00000000006,100760],"survey":"map","page":3,"trial_type":"survey-map","trial_index":6,"time_elapsed":508447,"internal_node_id":"0.0-6.0","task_version":"prescreen-v0.3","browser_interactions":0},{"responses":{"Q10":"2","Q11":"2","Q12":"3","Q13":"1","Q16":"0","Q14":"2","Q15":"1"},"rt":97361,"radio_events":[17491,23685,41529,54947,56106,62393,89177,94595,96305.00000000012],"key_events":[],"mouse_events":[17491,23685,41529,54947,56106,62393,88210,89177,93716,94595,96305.00000000012,97356],"survey":"map","page":4,"trial_type":"survey-map","trial_index":7,"time_elapsed":605811,"internal_node_id":"0.0-7.0","task_version":"prescreen-v0.3","browser_interactions":0,"infrequency":0},{"view_history":[{"page_index":0,"viewing_time":14112},{"page_index":1,"viewing_time":8265}],"rt":22377,"trial_type":"instructions","trial_index":8,"time_elapsed":628199,"internal_node_id":"0.0-8.0","task_version":"prescreen-v0.3"},{"responses":{"01":"Yes","01_ages_16":"16","01_ages_17":"17","01_ages_18":"18","02":"Yes","02_ages_10":"10","02_ages_11":"11","02_ages_12":"12","02_ages_13":"13","02_ages_14":"14","02_ages_15":"15","02_ages_16":"16","02_ages_17":"17","02_ages_18":"18","03":"Yes","03_ages_6":"6","03_ages_8":"8","03_ages_9":"9","03_ages_10":"10","04":"No","05":"No","06":"Yes","06_ages_6":"6","06_ages_8":"8","06_ages_9":"9","06_ages_10":"10","06_ages_11":"11"},"rt":89302,"item_order":[0,1,2,3,4,5],"radio_events":[21058,43175,57216,71436,74337,78536],"checkbox_events":[33687,34734,36955,45170,45660,46077,46548,47767,48238,49637,50188,51131.00000000012,58715,59210,59833.00000000012,60273,62039,63773,65263,66630,80866,81705,82312,83079,84185],"key_events":[],"mouse_events":[0,21058,33687,34734,36955,43175,45170,45660,46077,46548,47271,47767,48238,48742,49157,49637,50188,51131.00000000012,57216,58715,59210,59833.00000000012,60273,60745,61488,62039,63773,65263,66630,71436,74337,78536,80866,81705,82312,83079,84185,89292],"honeypot":0,"survey":"mace","page":1,"trial_type":"survey-mace","trial_index":9,"time_elapsed":717511,"internal_node_id":"0.0-9.0","task_version":"prescreen-v0.3","browser_interactions":0},{"responses":{"01":"No","02":"No","03":"Yes","03_ages_3":"3","03_ages_4":"4","03_ages_5":"5","03_ages_6":"6","03_ages_7":"7","03_ages_8":"8","03_ages_9":"9","03_ages_10":"10","03_ages_11":"11","03_ages_12":"12","04":"No","05":"No","06":"No","07":"No","08":"No"},"rt":83315.00000000012,"item_order":[0,1,2,3,4,5,6,7],"radio_events":[17874,44909,47547,60330,66460,72902.00000000012,76038,80822,82340],"checkbox_events":[50100,50547,50956,52426.00000000012,52906,53717,54252,55427,55931,56602],"key_events":[],"mouse_events":[17874,44909,47547,50100,50547,50956,51827,52426.00000000012,52906,53717,54252,54724.00000000012,55427,55931,56602,60330,66460,72902.00000000012,76038,80822,82340,83307],"honeypot":0,"survey":"mace","page":2,"trial_type":"survey-mace","trial_index":10,"time_elapsed":800830,"internal_node_id":"0.0-10.0","task_version":"prescreen-v0.3","browser_interactions":0},{"responses":{"01":"No","02":"No","03":"No","04":"No"},"rt":55195,"item_order":[0,1,2,3],"radio_events":[44307,48816,52899,54334],"checkbox_events":[],"key_events":[],"mouse_events":[44307,48816,52899,54334,55193.00000000012],"honeypot":0,"survey":"mace","page":3,"trial_type":"survey-mace","trial_index":11,"time_elapsed":856029,"internal_node_id":"0.0-11.0","task_version":"prescreen-v0.3","browser_interactions":0},{"responses":{"01":"No","02":"No"},"rt":6200,"item_order":[0,1],"radio_events":[2909,5542],"checkbox_events":[],"key_events":[],"mouse_events":[2909,5542,6197],"honeypot":0,"survey":"mace","page":4,"trial_type":"survey-mace","trial_index":12,"time_elapsed":862231,"internal_node_id":"0.0-12.0","task_version":"prescreen-v0.3","browser_interactions":0},{"responses":{"01":"Yes","01_ages_3":"3","02":"No","03":"No","04":"No","05":"No"},"rt":66263,"item_order":[0,1,2,3,4],"radio_events":[34592,54721,58972,63024,65442],"checkbox_events":[36427.00000000012],"key_events":[],"mouse_events":[34592,36427.00000000012,51481,54721,58972,63024,65442,66257],"honeypot":0,"survey":"mace","page":5,"trial_type":"survey-mace","trial_index":13,"time_elapsed":928498,"internal_node_id":"0.0-13.0","task_version":"prescreen-v0.3","browser_interactions":0},{"responses":{"01":"Yes","01_ages_15":"15","01_ages_16":"16","01_ages_17":"17","02":"Yes","02_ages_7":"7","02_ages_10":"10","02_ages_11":"11","02_ages_12":"12","02_ages_14":"14","02_ages_15":"15","02_ages_16":"16","03":"Yes","03_ages_12":"12","03_ages_13":"13","03_ages_14":"14","03_ages_15":"15","04":"No","05":"No"},"rt":60626.99999999988,"item_order":[0,1,2,3,4],"radio_events":[21015,36901.99999999988,46829.99999999988,53049.99999999988,55204.99999999988,59837],"checkbox_events":[26036.999999999884,26851.999999999884,31031.999999999884,31479.999999999884,32805.99999999988,33540.99999999988,34044.99999999988,38122.99999999988,39905.99999999988,40279.99999999988,41136.99999999988,41863.99999999988,42522.99999999988,42971,48170.99999999988,48635.99999999988,49018.99999999988,50109.99999999988],"key_events":[],"mouse_events":[21015,26036.999999999884,26851.999999999884,31031.999999999884,31479.999999999884,32805.99999999988,33540.99999999988,34044.99999999988,36901.99999999988,38122.99999999988,39905.99999999988,40279.99999999988,40671.99999999988,41136.99999999988,41863.99999999988,42522.99999999988,42971,46829.99999999988,48170.99999999988,48635.99999999988,49018.99999999988,49476,50109.99999999988,53049.99999999988,55204.99999999988,59837,60620],"honeypot":0,"survey":"mace","page":6,"trial_type":"survey-mace","trial_index":14,"time_elapsed":989129,"internal_node_id":"0.0-14.0","task_version":"prescreen-v0.3","browser_interactions":0},{"responses":{"01":"No","02":"No","03":"No","04":"No","05":"No","06":"No","07":"No"},"rt":19698,"item_order":[0,1,2,3,4,5,6],"radio_events":[5353,7914,9800,10955.000000000116,12912,15749,19012],"checkbox_events":[],"key_events":[],"mouse_events":[5353,7914,9800,10955.000000000116,12912,15749,19012,19693],"honeypot":0,"survey":"mace","page":7,"trial_type":"survey-mace","trial_index":15,"time_elapsed":1008833,"internal_node_id":"0.0-15.0","task_version":"prescreen-v0.3","browser_interactions":0},{"responses":{"01":"Yes","01_ages_11":"11","01_ages_12":"12","01_ages_13":"13","01_ages_14":"14","01_ages_15":"15","01_ages_16":"16","01_ages_17":"17","01_ages_18":"18","02":"No","03":"Yes","03_ages_10":"10","03_ages_11":"11","03_ages_12":"12","03_ages_13":"13","03_ages_14":"14","03_ages_15":"15","03_ages_16":"16","03_ages_17":"17","03_ages_18":"18","04":"Yes","04_ages_5":"5","04_ages_6":"6","04_ages_7":"7","04_ages_8":"8","04_ages_9":"9","04_ages_10":"10","04_ages_11":"11","04_ages_12":"12","04_ages_13":"13","04_ages_14":"14","04_ages_15":"15","04_ages_16":"16","04_ages_17":"17","04_ages_18":"18"},"rt":63933.00000000023,"item_order":[0,1,2,3],"radio_events":[9759,25147.000000000116,34947,50199],"checkbox_events":[12736,13197,14325.999999999884,14835.999999999884,16031.000000000116,16511.000000000116,17765,18289.000000000116,39515,40203,40882,41489,42385.00000000023,43063,43752,44343,45278,52804,54113,54615,55138,56137,56965,58078,58901,59588,60147,60867,61522,62186,62833],"key_events":[],"mouse_events":[9759,12736,13197,13582,14325.999999999884,14835.999999999884,15381,16031.000000000116,16511.000000000116,17008,17765,18289.000000000116,25147.000000000116,34947,39515,40203,40882,41489,42385.00000000023,43063,43752,44343,45278,50199,52804,53332,54113,54615,55138,56137,56965,58078,58901,59588,60147,60867,61522,62186,62833,63927],"honeypot":0,"survey":"mace","page":8,"trial_type":"survey-mace","trial_index":16,"time_elapsed":1072769,"internal_node_id":"0.0-16.0","task_version":"prescreen-v0.3","browser_interactions":0},{"responses":{"01":"Yes","01_ages_4":"4","01_ages_5":"5","01_ages_6":"6","01_ages_7":"7","01_ages_8":"8","01_ages_9":"9","01_ages_10":"10","01_ages_11":"11","01_ages_12":"12","01_ages_13":"13","01_ages_14":"14","01_ages_15":"15","01_ages_16":"16","01_ages_17":"17","01_ages_18":"18","02":"Yes","02_ages_9":"9","02_ages_10":"10","02_ages_11":"11","02_ages_12":"12","02_ages_13":"13","02_ages_14":"14","02_ages_15":"15","02_ages_16":"16","02_ages_17":"17","02_ages_18":"18","03":"Yes","03_ages_1":"1","03_ages_2":"2","03_ages_3":"3","03_ages_4":"4","03_ages_5":"5","03_ages_6":"6","03_ages_7":"7","03_ages_8":"8","03_ages_9":"9","03_ages_10":"10","03_ages_11":"11","03_ages_12":"12","03_ages_13":"13","03_ages_14":"14","03_ages_15":"15","03_ages_16":"16","03_ages_17":"17","03_ages_18":"18","04":"Yes","04_ages_1":"1","04_ages_2":"2","04_ages_3":"3","04_ages_4":"4","04_ages_5":"5","04_ages_6":"6","04_ages_7":"7","04_ages_8":"8","04_ages_9":"9","04_ages_10":"10","04_ages_11":"11","04_ages_12":"12","04_ages_13":"13","04_ages_14":"14","04_ages_15":"15","04_ages_16":"16","04_ages_17":"17","04_ages_18":"18"},"rt":123826,"item_order":[0,1,2,3],"radio_events":[44099,67439,86472,106277],"checkbox_events":[46601,47120,47680,48403,50489,51056,51767,52270,53026,53641,54432,55016,55815,56381,57257,68574,69062,70876,71579,73269,73877,74740,75331,76385,77282,78188.00000000023,79162,88495,89163,89645,90125,90564,91875,92707,93322,93841,94513,95056,95655,96422,96982,97677,98229,98876,99562,107691,108546,109025.00000000023,110495,111606,112558,113730,114244,115336,116161,116984,117927,118715,119736.00000000023,120425,121160,121893,122637],"key_events":[],"mouse_events":[36758,44099,46601,47120,47680,48403,48890.00000000023,49600,50489,51056,51767,52270,53026,53641,54432,55016,55815,56381,57257,67439,68574,69062,69541,69997,70413,70876,71579,72758,73269,73877,74740,75331,76385,77282,78188.00000000023,79162,86472,88495,89163,89645,90125,90564,91036,91875,92707,93322,93841,94513,95056,95655,96422,96982,97677,98229,98876,99562,106277,107691,108146,108546,109025.00000000023,109601,110495,111606,112558,113109,113730,114244,115336,116161,116984,117927,118715,119736.00000000023,120425,121160,121893,122637,123820],"honeypot":0,"survey":"mace","page":9,"trial_type":"survey-mace","trial_index":17,"time_elapsed":1196600,"internal_node_id":"0.0-17.0","task_version":"prescreen-v0.3","browser_interactions":0},{"responses":{"01":"No","02":"No","03":"Yes","03_ages_10":"10","03_ages_11":"11","03_ages_12":"12","03_ages_13":"13","03_ages_14":"14","03_ages_15":"15","03_ages_16":"16","03_ages_17":"17","03_ages_18":"18","04":"No","05":"No","06":"Yes","06_ages_17":"17","07":"Yes","07_ages_7":"7","07_ages_8":"8","07_ages_9":"9","07_ages_10":"10","07_ages_11":"11","07_ages_12":"12","07_ages_13":"13","07_ages_14":"14","07_ages_15":"15","07_ages_16":"16","07_ages_17":"17","07_ages_18":"18","08":"Yes","08_ages_9":"9","08_ages_10":"10","08_ages_11":"11","08_ages_12":"12","08_ages_16":"16","08_ages_17":"17"},"rt":53887,"item_order":[0,1,2,3,4,5,6,7],"radio_events":[3438,4732.000000000233,7441,17533,22424,25848.000000000233,31917,47434.00000000023],"checkbox_events":[9771.000000000233,10235,10674,11122,11589,12104,12647,14086,14804,27757,34507,35466,35929,36497,37082,37902,38336,39494,40038,40574,41469,42179,48600,49312,49824,50343,51717,52270],"key_events":[],"mouse_events":[3438,4732.000000000233,7441,8803,9771.000000000233,10235,10674,11122,11589,12104,12647,13224,13615,14086,14804,17533,22424,25848.000000000233,27757,31917,34507,35466,35929,36497,37082,37902,38336,38814,39494,40038,40574,41469,42179,47434.00000000023,48600,49312,49824,50343,51197,51717,52270,53880],"honeypot":0,"survey":"mace","page":10,"trial_type":"survey-mace","trial_index":18,"time_elapsed":1250492,"internal_node_id":"0.0-18.0","task_version":"prescreen-v0.3","browser_interactions":0,"instructed":0},{"rt":22206.000000000233,"trial_type":"mental-health-alert","trial_index":19,"time_elapsed":1272703,"internal_node_id":"0.0-19.0","task_version":"prescreen-v0.3","interactions":"[]"}]