[{"view_history":[{"page_index":0,"viewing_time":9651},{"page_index":1,"viewing_time":5271},{"page_index":2,"viewing_time":6096},{"page_index":3,"viewing_time":1664}],"rt":22683,"trial_type":"instructions","trial_index":0,"time_elapsed":22812,"internal_node_id":"0.0-0.0","task_version":"prescreen-v0.3"},{"rt":16377,"responses":{"age":"26","gender-categorical":"Female","gender-free-response":"","ethnicity":"Not Hispanic or Latino","race":["White"],"education":"Master degree or higher"},"trial_type":"survey-demo","trial_index":1,"time_elapsed":39196,"internal_node_id":"0.0-1.0","task_version":"prescreen-v0.3"},{"responses":{"Q05":"0","Q03":"1","Q14":"2","Q16":"2","Q07":"1","Q11":"3","Q01":"2","Q10":"2","Q13":"1","Q09":"2","Q06":"3","Q21":"3","Q18":"1","Q02":"1","Q20":"0","Q12":"2","Q17":"1","Q15":"1","Q19":"1","Q08":"1","Q04":"2"},"rt":132532,"item_order":[4,2,13,15,6,10,0,9,12,8,5,20,17,1,19,11,16,14,18,7,3],"radio_events":[11906,16129,20001,27161,35601,40586,43153,48977,53481,63042,69146,73898,79609,86841,90529,97505,104545,113457,119810,125561,131401],"key_events":[],"mouse_events":[11906,16129,20001,27161,35601,40586,43153,48977,53481,63042,69146,73898,79609,85177,86841,90529,97505,104545,112458,113457,119178,119810,125561,130818,131401,132530],"straightlining":0.42857142857142855,"zigzagging":0.5,"honeypot":0,"survey":"sns","trial_type":"survey-template","trial_index":2,"time_elapsed":171736,"internal_node_id":"0.0-2.0","task_version":"prescreen-v0.3","browser_interactions":0,"infrequency":0},{"responses":{"Q08":"2","Q07":"3","Q04":"3","Q03":"3","Q02":"2","Q09":"2","Q12":"1","Q13":"0","Q05":"2","Q11":"2","Q01":"3","Q06":"3","Q10":"2"},"rt":81600,"item_order":[7,6,3,2,1,8,11,12,4,10,0,5,9],"radio_events":[9975,20287,23623,28831,31967,42590,47254,51710,62407,69006,71694,77870,80702],"key_events":[],"mouse_events":[9975,19511,20287,23623,28831,31967,42590,47254,51710,62407,68318,69006,71694,77870,80702,81598],"straightlining":0.46153846153846156,"zigzagging":0.5,"honeypot":0,"survey":"bisbas","trial_type":"survey-template","trial_index":3,"time_elapsed":253343,"internal_node_id":"0.0-3.0","task_version":"prescreen-v0.3","browser_interactions":0,"infrequency":0},{"responses":{"Q01":"3","Q02":"2","Q03":"3"},"rt":31281,"radio_events":[15505,22105,30384],"key_events":[],"mouse_events":[15505,22105,29520,30384,31280],"survey":"map","page":1,"trial_type":"survey-map","trial_index":4,"time_elapsed":284629,"internal_node_id":"0.0-4.0","task_version":"prescreen-v0.3","browser_interactions":0},{"responses":{"Q04":"4","Q05":"3","Q06":"3"},"rt":24813,"radio_events":[15572,20348,23644],"key_events":[],"mouse_events":[15572,20348,23644,24812],"survey":"map","page":2,"trial_type":"survey-map","trial_index":5,"time_elapsed":309443,"internal_node_id":"0.0-5.0","task_version":"prescreen-v0.3","browser_interactions":0},{"responses":{"Q07":"4","Q08":"4","Q09":"3"},"rt":25758,"radio_events":[8333,9758,15213,20469],"key_events":[],"mouse_events":[8333,9758,14774,15213,20469,25757],"survey":"map","page":3,"trial_type":"survey-map","trial_index":6,"time_elapsed":335204,"internal_node_id":"0.0-6.0","task_version":"prescreen-v0.3","browser_interactions":0},{"responses":{"Q10":"3","Q11":"4","Q12":"2","Q13":"2","Q16":"0","Q14":"4","Q15":"4"},"rt":51182,"radio_events":[6213,11180,16749,28012,32788,37316,45188,49316],"key_events":[],"mouse_events":[6213,11180,16749,28012,32788,37316,45188,49316,51180],"survey":"map","page":4,"trial_type":"survey-map","trial_index":7,"time_elapsed":386389,"internal_node_id":"0.0-7.0","task_version":"prescreen-v0.3","browser_interactions":0,"infrequency":0},{"view_history":[{"page_index":0,"viewing_time":3132},{"page_index":1,"viewing_time":7871}],"rt":11004,"trial_type":"instructions","trial_index":8,"time_elapsed":397395,"internal_node_id":"0.0-8.0","task_version":"prescreen-v0.3"},{"responses":{"01":"Yes","01_ages_8":"8","01_ages_9":"9","01_ages_10":"10","01_ages_16":"16","01_ages_17":"17","01_ages_18":"18","02":"Yes","02_ages_6":"6","02_ages_7":"7","02_ages_8":"8","02_ages_9":"9","02_ages_10":"10","02_ages_11":"11","02_ages_12":"12","02_ages_13":"13","02_ages_14":"14","02_ages_15":"15","02_ages_16":"16","02_ages_17":"17","02_ages_18":"18","03":"Yes","03_ages_16":"16","03_ages_17":"17","03_ages_18":"18","04":"Yes","04_ages_6":"6","04_ages_7":"7","04_ages_8":"8","04_ages_9":"9","04_ages_10":"10","04_ages_11":"11","04_ages_12":"12","04_ages_13":"13","04_ages_14":"14","04_ages_15":"15","04_ages_16":"16","04_ages_17":"17","04_ages_18":"18","05":"No","06":"Yes","06_ages_16":"16","06_ages_17":"17","06_ages_18":"18"},"rt":67705,"item_order":[0,1,2,3,4,5],"radio_events":[12074,27057,40562,46185,59370,62898],"checkbox_events":[17194,17754,18202,19866,21386,23129,28441,29817,30217,31249,31833,32289,32785,33377,33881,34345,34865,35633,36121,42410,43242,43706,49737,50505,50913,51698,52065,52601,53065,53705,54273,54737,55233,55689,56225,64562,65610,66146],"key_events":[],"mouse_events":[1,12074,17194,17754,18202,19866,21386,23129,27057,28441,28793,29817,30217,30649,31249,31833,32289,32785,33377,33881,34345,34865,35633,36121,40562,42410,43242,43706,46185,49737,50505,50913,51698,52065,52601,53065,53705,54273,54737,55233,55689,56225,59370,62898,64562,65058,65610,66146,67699],"honeypot":0,"survey":"mace","page":1,"trial_type":"survey-mace","trial_index":9,"time_elapsed":465109,"internal_node_id":"0.0-9.0","task_version":"prescreen-v0.3","browser_interactions":0},{"responses":{"01":"Yes","01_ages_16":"16","01_ages_17":"17","01_ages_18":"18","02":"No","03":"Yes","03_ages_2":"2","03_ages_3":"3","03_ages_4":"4","03_ages_5":"5","03_ages_6":"6","03_ages_7":"7","03_ages_8":"8","03_ages_9":"9","03_ages_10":"10","04":"No","05":"Yes","05_ages_2":"2","05_ages_3":"3","05_ages_4":"4","05_ages_5":"5","05_ages_6":"6","05_ages_7":"7","05_ages_8":"8","05_ages_9":"9","05_ages_10":"10","06":"No","07":"No","08":"No"},"rt":50750,"item_order":[0,1,2,3,4,5,6,7],"radio_events":[3810,15410,18626,30754,34473,43937,46361,49529],"checkbox_events":[5626,5930,6674,20489,21081,22089,22825,23202,23626,24066,24882,25314,36354,36802,37298,37922,38274,38730,39234,39657,40250],"key_events":[],"mouse_events":[3810,5626,5930,6274,6674,15410,18626,20489,21081,22089,22825,23202,23626,24066,24882,25314,30754,34473,36354,36802,37298,37922,38274,38730,39234,39657,40250,43937,46361,49529,50746],"honeypot":0,"survey":"mace","page":2,"trial_type":"survey-mace","trial_index":10,"time_elapsed":515866,"internal_node_id":"0.0-10.0","task_version":"prescreen-v0.3","browser_interactions":0},{"responses":{"01":"Yes","01_ages_12":"12","01_ages_13":"13","01_ages_14":"14","01_ages_15":"15","01_ages_16":"16","01_ages_17":"17","01_ages_18":"18","02":"No","03":"No","04":"No"},"rt":32425,"item_order":[0,1,2,3],"radio_events":[4678,28397,30406,31598],"checkbox_events":[17318,17805,18309,18901,19893,20677,21269],"key_events":[],"mouse_events":[4678,17318,17805,18309,18901,19413,19893,20301,20677,21269,28397,30406,31598,32422],"honeypot":0,"survey":"mace","page":3,"trial_type":"survey-mace","trial_index":11,"time_elapsed":548297,"internal_node_id":"0.0-11.0","task_version":"prescreen-v0.3","browser_interactions":0},{"responses":{"01":"No","02":"No"},"rt":17626,"item_order":[0,1],"radio_events":[12825,16704],"checkbox_events":[],"key_events":[],"mouse_events":[12825,16704,17624],"honeypot":0,"survey":"mace","page":4,"trial_type":"survey-mace","trial_index":12,"time_elapsed":565926,"internal_node_id":"0.0-12.0","task_version":"prescreen-v0.3","browser_interactions":0},{"responses":{"01":"Yes","01_ages_9":"9","01_ages_10":"10","01_ages_11":"11","02":"No","03":"No","04":"No","05":"No"},"rt":220694,"item_order":[0,1,2,3,4],"radio_events":[194803,205410,211107,215762,219378],"checkbox_events":[197075,197643,198123],"key_events":[],"mouse_events":[194803,197075,197643,198123,205410,211107,215762,219378,220691],"honeypot":0,"survey":"mace","page":5,"trial_type":"survey-mace","trial_index":13,"time_elapsed":786624,"internal_node_id":"0.0-13.0","task_version":"prescreen-v0.3","browser_interactions":6},{"responses":{"01":"No","02":"No","03":"No","04":"No","05":"No"},"rt":24186,"item_order":[0,1,2,3,4],"radio_events":[11272,14464,18576,21279,23567],"checkbox_events":[],"key_events":[],"mouse_events":[11272,14464,18576,21279,23567,24183],"honeypot":0,"survey":"mace","page":6,"trial_type":"survey-mace","trial_index":14,"time_elapsed":810815,"internal_node_id":"0.0-14.0","task_version":"prescreen-v0.3","browser_interactions":0},{"responses":{"01":"No","02":"No","03":"Yes","03_ages_16":"16","04":"No","05":"No","06":"No","07":"No"},"rt":38029,"item_order":[0,1,2,3,4,5,6],"radio_events":[11208,13768,16816,18768,28864,32648,34904,37512],"checkbox_events":[22831,23536,25696],"key_events":[],"mouse_events":[11208,13768,16816,18768,22831,23536,25696,28864,32648,34904,37512,38024],"honeypot":0,"survey":"mace","page":7,"trial_type":"survey-mace","trial_index":15,"time_elapsed":848849,"internal_node_id":"0.0-15.0","task_version":"prescreen-v0.3","browser_interactions":0},{"responses":{"01":"Yes","01_ages_12":"12","01_ages_13":"13","01_ages_14":"14","01_ages_15":"15","01_ages_16":"16","01_ages_17":"17","01_ages_18":"18","02":"Yes","02_ages_6":"6","02_ages_7":"7","02_ages_8":"8","02_ages_9":"9","02_ages_10":"10","02_ages_11":"11","02_ages_12":"12","02_ages_13":"13","02_ages_14":"14","02_ages_15":"15","02_ages_16":"16","02_ages_17":"17","02_ages_18":"18","03":"Yes","03_ages_6":"6","03_ages_7":"7","03_ages_8":"8","03_ages_9":"9","03_ages_10":"10","03_ages_11":"11","03_ages_12":"12","03_ages_13":"13","03_ages_14":"14","03_ages_15":"15","03_ages_16":"16","03_ages_17":"17","03_ages_18":"18","04":"Yes","04_ages_12":"12","04_ages_13":"13","04_ages_14":"14","04_ages_15":"15","04_ages_16":"16","04_ages_17":"17","04_ages_18":"18"},"rt":72482,"item_order":[0,1,2,3],"radio_events":[30694,38183,51063,66439],"checkbox_events":[32023,32663,33143,33535,34382,34791,35407,41015,41383,41975,42327,42767,43127,43959,44335,44727,45695,46087,46511,46983,54063,54703,55127,55727,56231,56743,57143,58671,59279,59759,60255,60799,61295,67967,68383,69111,69543,69975,70743,71527],"key_events":[],"mouse_events":[30694,32023,32663,33143,33535,33927,34382,34791,35407,38183,41015,41383,41975,42327,42767,43127,43487,43959,44335,44727,45119,45695,46087,46511,46983,51063,53367,54063,54703,55127,55727,56231,56743,57143,57551,58223,58671,59279,59759,60255,60799,61295,66439,67967,68383,68815,69111,69543,69975,70743,71175,71527,72479],"honeypot":0,"survey":"mace","page":8,"trial_type":"survey-mace","trial_index":16,"time_elapsed":921336,"internal_node_id":"0.0-16.0","task_version":"prescreen-v0.3","browser_interactions":0},{"responses":{"01":"Yes","01_ages_1":"1","01_ages_2":"2","01_ages_3":"3","01_ages_4":"4","01_ages_5":"5","01_ages_6":"6","01_ages_7":"7","01_ages_8":"8","01_ages_9":"9","01_ages_10":"10","01_ages_11":"11","01_ages_12":"12","01_ages_13":"13","01_ages_14":"14","01_ages_15":"15","01_ages_16":"16","01_ages_17":"17","01_ages_18":"18","02":"Yes","02_ages_1":"1","02_ages_2":"2","02_ages_3":"3","02_ages_4":"4","02_ages_5":"5","02_ages_6":"6","02_ages_7":"7","02_ages_8":"8","02_ages_9":"9","02_ages_10":"10","02_ages_11":"11","02_ages_12":"12","02_ages_13":"13","02_ages_14":"14","02_ages_15":"15","02_ages_16":"16","02_ages_17":"17","02_ages_18":"18","03":"Yes","03_ages_1":"1","03_ages_2":"2","03_ages_3":"3","03_ages_4":"4","03_ages_5":"5","03_ages_6":"6","03_ages_7":"7","03_ages_8":"8","03_ages_9":"9","03_ages_10":"10","03_ages_11":"11","03_ages_12":"12","03_ages_13":"13","03_ages_14":"14","03_ages_15":"15","03_ages_16":"16","03_ages_17":"17","03_ages_18":"18","04":"Yes","04_ages_10":"10","04_ages_11":"11","04_ages_12":"12","04_ages_13":"13","04_ages_14":"14","04_ages_15":"15","04_ages_16":"16","04_ages_17":"17","04_ages_18":"18"},"rt":64877,"item_order":[0,1,2,3],"radio_events":[8600,24321,40344,57009],"checkbox_events":[10297,10720,11240,13473,13888,14520,15473,15913,16425,17041,17473,17952,18417,18953,19385,19809,20289,20761,26017,26689,27321,27761,28185,28649,29041,30832,31264,31904,32504,33008,33432,33920,34392,35000,35424,36160,41624,42008,42536,43048,43568,44000,44528,44912,45320,45713,46152,46601,46968,47473,48433,48905,49337,50025,59881,60241,60616,61361,61825,62649,63033,63625,64057],"key_events":[],"mouse_events":[8600,10297,10720,11240,11785,13008,13473,13888,14520,14969,15473,15913,16425,17041,17473,17952,18417,18953,19385,19809,20289,20761,23849,24321,26017,26689,27321,27761,28185,28649,29041,29457,30105,30832,31264,31904,32504,33008,33432,33920,34392,35000,35424,36160,40344,41624,42008,42536,43048,43568,44000,44528,44912,45320,45713,46152,46601,46968,47473,47897,48433,48905,49337,50025,57009,59881,60241,60616,61361,61825,62649,63033,63625,64057,64873],"honeypot":0,"survey":"mace","page":9,"trial_type":"survey-mace","trial_index":17,"time_elapsed":986218,"internal_node_id":"0.0-17.0","task_version":"prescreen-v0.3","browser_interactions":0},{"responses":{"01":"No","02":"No","03":"Yes","03_ages_8":"8","03_ages_9":"9","03_ages_10":"10","03_ages_11":"11","03_ages_12":"12","03_ages_13":"13","03_ages_14":"14","03_ages_15":"15","03_ages_16":"16","03_ages_17":"17","03_ages_18":"18","04":"Yes","04_ages_12":"12","04_ages_13":"13","04_ages_14":"14","04_ages_15":"15","04_ages_16":"16","04_ages_17":"17","04_ages_18":"18","05":"No","06":"Yes","06_ages_17":"17","07":"Yes","07_ages_12":"12","07_ages_13":"13","07_ages_14":"14","07_ages_15":"15","07_ages_16":"16","07_ages_17":"17","07_ages_18":"18","08":"No"},"rt":53514,"item_order":[0,1,2,3,4,5,6,7],"radio_events":[4845,6925,9245,22276,34317,37037,42676,52685],"checkbox_events":[10837,11413,11877,12685,13316,13909,14269,14637,15053,15453,15853,16229,17420,17901,18597,24500,25132,25637,26021,26485,27470,27949,38213,44700,46068,46533,47069,47565,48085,48525],"key_events":[],"mouse_events":[4845,6925,9245,10837,11413,11877,12685,13316,13909,14269,14637,15053,15453,15853,16229,16661,17045,17420,17901,18597,22276,23860,24500,25132,25637,26021,26485,27005,27470,27949,34317,37037,38213,42676,44700,45189,46068,46533,47069,47565,48085,48525,52685,53508],"honeypot":0,"survey":"mace","page":10,"trial_type":"survey-mace","trial_index":18,"time_elapsed":1039738,"internal_node_id":"0.0-18.0","task_version":"prescreen-v0.3","browser_interactions":0,"instructed":0},{"rt":10838,"trial_type":"mental-health-alert","trial_index":19,"time_elapsed":1050580,"internal_node_id":"0.0-19.0","task_version":"prescreen-v0.3","interactions":"[{\"event\":\"blur\",\"trial\":13,\"time\":574040},{\"event\":\"focus\",\"trial\":13,\"time\":589310},{\"event\":\"blur\",\"trial\":13,\"time\":596878},{\"event\":\"focus\",\"trial\":13,\"time\":745433},{\"event\":\"blur\",\"trial\":13,\"time\":747354},{\"event\":\"focus\",\"trial\":13,\"time\":748665}]"}]