[{"view_history":[{"page_index":0,"viewing_time":2154.5},{"page_index":1,"viewing_time":4247.599999964237},{"page_index":2,"viewing_time":2319.900000035763},{"page_index":3,"viewing_time":858.7999999523163}],"rt":9582,"trial_type":"instructions","trial_index":0,"time_elapsed":9606,"internal_node_id":"0.0-0.0","task_version":"prescreen-v0.3"},{"rt":11349.300000011921,"responses":{"age":"29","gender-categorical":"Male","gender-free-response":"","ethnicity":"Not Hispanic or Latino","race":["White"],"education":"High school","siblings":"1"},"trial_type":"survey-demo","trial_index":1,"time_elapsed":20964,"internal_node_id":"0.0-1.0","task_version":"prescreen-v0.3"},{"responses":{"Q16":"2","Q08":"1","Q09":"2","Q17":"1","Q13":"3","Q19":"1","Q04":"1","Q18":"1","Q20":"1","Q11":"2","Q21":"3","Q02":"1","Q14":"2","Q05":"2","Q06":"2","Q10":"1","Q07":"1","Q03":"2","Q15":"3","Q12":"1","Q01":"2"},"rt":76011.80000001192,"item_order":[15,7,8,16,12,18,3,17,19,10,20,1,13,4,5,9,6,2,14,11,0],"radio_events":[4808.899999976158,7665,8425.100000023842,9193.100000023842,14881.100000023842,15680.899999976158,18648.899999976158,21025.19999998808,23865.30000001192,27193.19999998808,28649,32113,32752.899999976158,35777.19999998808,36008.89999997616,39689,41809.10000002384,42225.69999998808,44961,54889,55545,58352.80000001192,61041,63065.10000002384,65177.60000002384,67169.19999998808,69041.19999998808,73177.19999998808,74280.80000001192,75361.10000002384],"key_events":[],"mouse_events":[3889.300000011921,4808.899999976158,6241.199999988079,6969.199999988079,7401.899999976158,7665,8425.100000023842,9193.100000023842,14881.100000023842,15680.899999976158,17577.100000023842,18305.30000001192,18648.899999976158,20521.19999998808,21025.19999998808,22881,23865.30000001192,27193.19999998808,28649,30121,32113,32752.899999976158,33657.19999998808,35513,35777.19999998808,36008.89999997616,39689,40865.19999998808,41497.10000002384,41809.10000002384,42225.69999998808,43545.10000002384,44961,54889,55545,56369.10000002384,58352.80000001192,60233.10000002384,60641.5,61041,63065.10000002384,65177.60000002384,67169.19999998808,69041.19999998808,70481.10000002384,72097.10000002384,72577.39999997616,73177.19999998808,74280.80000001192,75361.10000002384,76009],"straightlining":0.47619047619047616,"zigzagging":0.5,"honeypot":0,"survey":"sns","trial_type":"survey-template","trial_index":2,"time_elapsed":96984,"internal_node_id":"0.0-2.0","task_version":"prescreen-v0.3","browser_interactions":0,"infrequency":0},{"responses":{"Q07":"2","Q02":"2","Q11":"1","Q06":"1","Q05":"2","Q09":"1","Q04":"2","Q12":"1","Q03":"1","Q13":"0","Q10":"1","Q01":"3","Q08":"2"},"rt":43240.59999996424,"item_order":[6,1,10,5,4,8,3,11,2,12,9,0,7],"radio_events":[2782.899999976158,5790.599999964237,7454.699999988079,9431,10422.699999988079,11062.699999988079,12046.699999988079,12310.800000011921,16934.69999998808,22854.69999998808,25534.69999998808,28206.899999976158,30710.69999998808,33790.69999998808,36006.80000001192,39094.80000001192,42294.59999996424],"key_events":[],"mouse_events":[2782.899999976158,5790.599999964237,6334.5,6542.399999976158,6735.099999964237,7270.699999988079,7454.699999988079,7631.399999976158,7846.399999976158,8022.899999976158,8207,8606.5,8782.800000011921,9078.800000011921,9431,9879,10422.699999988079,11062.699999988079,11662.800000011921,12046.699999988079,12310.800000011921,16462.80000001192,16934.69999998808,22190.80000001192,22854.69999998808,25022.69999998808,25534.69999998808,28206.899999976158,30710.69999998808,32334.69999998808,32974.59999996424,33790.69999998808,36006.80000001192,39094.80000001192,42294.59999996424,43239],"straightlining":0.46153846153846156,"zigzagging":0.6666666666666666,"honeypot":0,"survey":"bisbas","trial_type":"survey-template","trial_index":3,"time_elapsed":140229,"internal_node_id":"0.0-3.0","task_version":"prescreen-v0.3","browser_interactions":0,"infrequency":0},{"responses":{"Q01":"1","Q02":"1","Q03":"2"},"rt":19074.600000023842,"radio_events":[5050.199999988079,9577.900000035763,13929.800000011921,18425.69999998808],"key_events":[],"mouse_events":[5050.199999988079,9577.900000035763,13929.800000011921,17393.80000001192,18089.900000035763,18425.69999998808,19073.69999998808],"survey":"map","page":1,"trial_type":"survey-map","trial_index":4,"time_elapsed":159308,"internal_node_id":"0.0-4.0","task_version":"prescreen-v0.3","browser_interactions":0},{"responses":{"Q04":"2","Q05":"3","Q06":"3"},"rt":7661,"radio_events":[2676.2000000476837,4220.100000023842,4892.300000011921,6220.300000011921,6884],"key_events":[],"mouse_events":[2676.2000000476837,4220.100000023842,4892.300000011921,6220.300000011921,6884,7660.200000047684],"survey":"map","page":2,"trial_type":"survey-map","trial_index":5,"time_elapsed":166971,"internal_node_id":"0.0-5.0","task_version":"prescreen-v0.3","browser_interactions":0},{"responses":{"Q07":"0","Q08":"0","Q09":"2"},"rt":12645.800000011921,"radio_events":[5532.900000035763,9165.199999988079,9765.100000023842,10980.699999988079,11877.100000023842],"key_events":[],"mouse_events":[5244.900000035763,5532.900000035763,7764.900000035763,9165.199999988079,9765.100000023842,10980.699999988079,11877.100000023842,12645.100000023842],"survey":"map","page":3,"trial_type":"survey-map","trial_index":6,"time_elapsed":179620,"internal_node_id":"0.0-6.0","task_version":"prescreen-v0.3","browser_interactions":0},{"responses":{"Q10":"2","Q11":"1","Q12":"1","Q13":"1","Q16":"0","Q14":"2","Q15":"2"},"rt":26141.599999964237,"radio_events":[3492.199999988079,4900.300000011921,6820.199999988079,9588.5,13004.599999964237,16716.19999998808,18740.69999998808,23060.30000001192,25220.399999976158],"key_events":[],"mouse_events":[3492.199999988079,4388.300000011921,4900.300000011921,6820.199999988079,8332.399999976158,9588.5,13004.599999964237,14660.399999976158,16716.19999998808,18740.69999998808,21548.399999976158,23060.30000001192,25220.399999976158,26140.19999998808],"survey":"map","page":4,"trial_type":"survey-map","trial_index":7,"time_elapsed":205764,"internal_node_id":"0.0-7.0","task_version":"prescreen-v0.3","browser_interactions":0,"infrequency":0},{"view_history":[{"page_index":0,"viewing_time":1796.300000011921},{"page_index":1,"viewing_time":5231.699999988079}],"rt":7029,"trial_type":"instructions","trial_index":8,"time_elapsed":212795,"internal_node_id":"0.0-8.0","task_version":"prescreen-v0.3"},{"responses":{"01":"No","02":"No","03":"Yes","03_ages_7":"7","03_ages_8":"8","03_ages_9":"9","03_ages_10":"10","04":"No","05":"No","06":"No"},"rt":26988.30000001192,"item_order":[0,1,2,3,4,5],"radio_events":[8000.199999988079,10823.800000011921,12471.899999976158,23111.899999976158,24296.099999964237,25071.69999998808,26303.899999976158],"checkbox_events":[16744.30000001192,17208,17488.099999964237,19463.80000001192,19839.80000001192,21919.80000001192],"key_events":[],"mouse_events":[0.19999998807907104,8000.199999988079,10823.800000011921,11799.899999976158,12471.899999976158,16744.30000001192,17208,17488.099999964237,19463.80000001192,19839.80000001192,21919.80000001192,23111.899999976158,23880,24296.099999964237,25071.69999998808,26058.30000001192,26303.899999976158,26984.30000001192],"honeypot":0,"survey":"mace","page":1,"trial_type":"survey-mace","trial_index":9,"time_elapsed":239792,"internal_node_id":"0.0-9.0","task_version":"prescreen-v0.3","browser_interactions":0},{"responses":{"01":"No","02":"No","03":"No","04":"No","05":"No","06":"No","07":"No","08":"No"},"rt":17763.400000035763,"item_order":[0,1,2,3,4,5,6,7],"radio_events":[2166.400000035763,5493.800000011921,8158,10262.199999988079,10494.100000023842,12133.800000011921,13590.100000023842,15294,16453.900000035763],"checkbox_events":[],"key_events":[],"mouse_events":[2166.400000035763,5493.800000011921,6958,8158,9381.900000035763,10262.199999988079,10494.100000023842,12133.800000011921,13590.100000023842,15294,16453.900000035763,17758.100000023842],"honeypot":0,"survey":"mace","page":2,"trial_type":"survey-mace","trial_index":10,"time_elapsed":257561,"internal_node_id":"0.0-10.0","task_version":"prescreen-v0.3","browser_interactions":0},{"responses":{"01":"No","02":"No","03":"No","04":"No"},"rt":6864.799999952316,"item_order":[0,1,2,3],"radio_events":[2230.099999964237,4230.099999964237,4878,5933.899999976158],"checkbox_events":[],"key_events":[],"mouse_events":[2230.099999964237,2781.899999976158,3621.899999976158,4230.099999964237,4878,5518.199999988079,5933.899999976158,6862.199999988079],"honeypot":0,"survey":"mace","page":3,"trial_type":"survey-mace","trial_index":11,"time_elapsed":264430,"internal_node_id":"0.0-11.0","task_version":"prescreen-v0.3","browser_interactions":0},{"responses":{"01":"No","02":"No"},"rt":5035.599999964237,"item_order":[0,1],"radio_events":[1978.3999999761581,3626.599999964237],"checkbox_events":[],"key_events":[],"mouse_events":[1978.3999999761581,2778.199999988079,3626.599999964237,5034.199999988079],"honeypot":0,"survey":"mace","page":4,"trial_type":"survey-mace","trial_index":12,"time_elapsed":269468,"internal_node_id":"0.0-12.0","task_version":"prescreen-v0.3","browser_interactions":0},{"responses":{"01":"Yes","01_ages_6":"6","01_ages_7":"7","01_ages_8":"8","01_ages_9":"9","01_ages_10":"10","02":"No","03":"No","04":"No","05":"No"},"rt":23222.600000023842,"item_order":[0,1,2,3,4],"radio_events":[4091.300000011921,10683.100000023842,15131.300000011921,16427.200000047684,22067.200000047684],"checkbox_events":[5595.400000035763,5875.300000011921,6267.300000011921,6803.800000011921,7131.5],"key_events":[],"mouse_events":[4091.300000011921,5595.400000035763,5875.300000011921,6267.300000011921,6803.800000011921,7131.5,10683.100000023842,12171.200000047684,15131.300000011921,16427.200000047684,22067.200000047684,23219.400000035763],"honeypot":0,"survey":"mace","page":5,"trial_type":"survey-mace","trial_index":13,"time_elapsed":292695,"internal_node_id":"0.0-13.0","task_version":"prescreen-v0.3","browser_interactions":0},{"responses":{"01":"Yes","01_ages_7":"7","01_ages_8":"8","01_ages_9":"9","01_ages_10":"10","01_ages_11":"11","01_ages_12":"12","02":"Yes","02_ages_7":"7","02_ages_8":"8","02_ages_9":"9","02_ages_10":"10","02_ages_11":"11","02_ages_12":"12","03":"No","04":"No","05":"No"},"rt":26499.80000001192,"item_order":[0,1,2,3,4],"radio_events":[4488.5,15920.199999988079,23456.30000001192,24088.30000001192,25816.69999998808],"checkbox_events":[6760.199999988079,7136.399999976158,7624.699999988079,7960.300000011921,8344.599999964237,9264.5,10112.599999964237,10648.300000011921,12424.199999988079,13936.399999976158,17632.5,18528.30000001192,18936.80000001192,19352.399999976158,19800.19999998808,20448.69999998808],"key_events":[],"mouse_events":[4488.5,6760.199999988079,7136.399999976158,7624.699999988079,7960.300000011921,8344.599999964237,9264.5,10112.599999964237,10648.300000011921,12424.199999988079,13056.300000011921,13936.399999976158,15920.199999988079,17632.5,17952.30000001192,18528.30000001192,18936.80000001192,19352.399999976158,19800.19999998808,20448.69999998808,23456.30000001192,24088.30000001192,25120.399999976158,25816.69999998808,26496.599999964237],"honeypot":0,"survey":"mace","page":6,"trial_type":"survey-mace","trial_index":14,"time_elapsed":319199,"internal_node_id":"0.0-14.0","task_version":"prescreen-v0.3","browser_interactions":0},{"responses":{"01":"Yes","01_ages_10":"10","02":"No","03":"Yes","03_ages_7":"7","03_ages_8":"8","03_ages_9":"9","03_ages_10":"10","03_ages_11":"11","04":"No","05":"No","06":"No","07":"No"},"rt":22804.69999998808,"item_order":[0,1,2,3,4,5,6],"radio_events":[3064.099999964237,6512.099999964237,7583.899999976158,9063.899999976158,13832,16127.800000011921,17784,18655.899999976158],"checkbox_events":[4479.899999976158,10079.699999988079,10335.699999988079,10743.800000011921,11352.300000011921,11647.899999976158],"key_events":[],"mouse_events":[3064.099999964237,4479.899999976158,6512.099999964237,7583.899999976158,8615.699999988079,9063.899999976158,10079.699999988079,10335.699999988079,10743.800000011921,11015.899999976158,11352.300000011921,11647.899999976158,13832,15255.899999976158,16127.800000011921,16895.899999976158,17784,18655.899999976158,22800],"honeypot":0,"survey":"mace","page":7,"trial_type":"survey-mace","trial_index":15,"time_elapsed":342008,"internal_node_id":"0.0-15.0","task_version":"prescreen-v0.3","browser_interactions":0},{"responses":{"01":"No","02":"No","03":"No","04":"No"},"rt":19513.69999998808,"item_order":[0,1,2,3],"radio_events":[9166.900000035763,15839,17095,18559.400000035763],"checkbox_events":[],"key_events":[],"mouse_events":[8399.100000023842,9166.900000035763,15839,17095,18559.400000035763,19510.900000035763],"honeypot":0,"survey":"mace","page":8,"trial_type":"survey-mace","trial_index":16,"time_elapsed":361526,"internal_node_id":"0.0-16.0","task_version":"prescreen-v0.3","browser_interactions":0},{"responses":{"01":"No","02":"Yes","02_ages_4":"4","02_ages_5":"5","02_ages_6":"6","02_ages_7":"7","02_ages_8":"8","02_ages_9":"9","02_ages_10":"10","03":"No","04":"Yes","04_ages_1":"1","04_ages_2":"2","04_ages_3":"3","04_ages_4":"4","04_ages_5":"5","04_ages_6":"6","04_ages_7":"7","04_ages_8":"8","04_ages_9":"9","04_ages_10":"10","04_ages_11":"11","04_ages_12":"12","04_ages_13":"13","04_ages_14":"14","04_ages_15":"15","04_ages_16":"16","04_ages_17":"17","04_ages_18":"18"},"rt":32308.900000035763,"item_order":[0,1,2,3],"radio_events":[2866,5962.200000047684,7026.100000023842,15241.700000047684,16034,19274.400000035763],"checkbox_events":[9274,9761.700000047684,10281.600000023842,10994.100000023842,11929.900000035763,12825.800000011921,13281.800000011921,21705.700000047684,22122.100000023842,22545.700000047684,22897.700000047684,23233.80000001192,23689.700000047684,24090.100000023842,24457.700000047684,24833.80000001192,25433.700000047684,25841.900000035763,26329.600000023842,29001.900000035763,30033.700000047684,30417.80000001192,30801.80000001192,31233.80000001192,31609.600000023842],"key_events":[],"mouse_events":[2866,5594.100000023842,5962.200000047684,7026.100000023842,9274,9761.700000047684,10281.600000023842,10665.5,10994.100000023842,11929.900000035763,12505.5,12825.800000011921,13281.800000011921,15241.700000047684,16034,18153.80000001192,19274.400000035763,20530.100000023842,20953.80000001192,21705.700000047684,22122.100000023842,22545.700000047684,22897.700000047684,23233.80000001192,23689.700000047684,24090.100000023842,24457.700000047684,24833.80000001192,25169.700000047684,25433.700000047684,25841.900000035763,26329.600000023842,26841.700000047684,27345.900000035763,27817.600000023842,29001.900000035763,29457.80000001192,30033.700000047684,30417.80000001192,30801.80000001192,31233.80000001192,31609.600000023842,32306.100000023842],"honeypot":0,"survey":"mace","page":9,"trial_type":"survey-mace","trial_index":17,"time_elapsed":393838,"internal_node_id":"0.0-17.0","task_version":"prescreen-v0.3","browser_interactions":0},{"responses":{"01":"No","02":"No","03":"No","04":"Yes","04_ages_5":"5","04_ages_6":"6","04_ages_7":"7","04_ages_8":"8","04_ages_9":"9","04_ages_10":"10","04_ages_11":"11","04_ages_12":"12","05":"No","06":"Yes","06_ages_17":"17","07":"No","08":"No"},"rt":23814.19999998808,"item_order":[0,1,2,3,4,5,6,7],"radio_events":[2512.5,3448.099999964237,6816.5,7584.099999964237,15176.199999988079,19272,20696.5,22640.099999964237],"checkbox_events":[9216.399999976158,9648,9928,10344.199999988079,10680.099999964237,11368.199999988079,12448.199999988079,13072.699999988079,16704.099999964237],"key_events":[],"mouse_events":[2160.099999964237,2512.5,3448.099999964237,4056.099999964237,4992.099999964237,5688.099999964237,6816.5,7584.099999964237,8552.199999988079,9216.399999976158,9648,9928,10344.199999988079,10680.099999964237,11368.199999988079,11778.099999964237,12448.199999988079,13072.699999988079,14880.099999964237,15176.199999988079,16704.099999964237,17552,19272,20696.5,22640.099999964237,23809],"honeypot":0,"survey":"mace","page":10,"trial_type":"survey-mace","trial_index":18,"time_elapsed":417658,"internal_node_id":"0.0-18.0","task_version":"prescreen-v0.3","browser_interactions":0,"instructed":0},{"rt":3158.300000011921,"trial_type":"mental-health-alert","trial_index":19,"time_elapsed":420818,"internal_node_id":"0.0-19.0","task_version":"prescreen-v0.3","interactions":"[]"}]