[{"view_history":[{"page_index":0,"viewing_time":3574.699999988079},{"page_index":1,"viewing_time":3071.699999988079},{"page_index":2,"viewing_time":3769.5},{"page_index":3,"viewing_time":1288.6000000238419}],"rt":11706,"trial_type":"instructions","trial_index":0,"time_elapsed":11714,"internal_node_id":"0.0-0.0","task_version":"prescreen-v0.3"},{"rt":26210.100000023842,"responses":{"age":"18","gender-categorical":"Female","gender-free-response":"","ethnicity":"Not Hispanic or Latino","race":["Asian"],"education":"High school"},"trial_type":"survey-demo","trial_index":1,"time_elapsed":37931,"internal_node_id":"0.0-1.0","task_version":"prescreen-v0.3"},{"responses":{"Q06":"1","Q07":"1","Q02":"0","Q01":"2","Q20":"1","Q09":"2","Q03":"1","Q08":"2","Q04":"0","Q19":"0","Q17":"0","Q16":"1","Q13":"2","Q15":"2","Q05":"2","Q21":"3","Q12":"3","Q11":"2","Q14":"2","Q18":"2","Q10":"3"},"rt":177568,"item_order":[5,6,1,0,19,8,2,7,3,18,16,15,12,14,4,20,11,10,13,17,9],"radio_events":[6055.800000011921,13842.600000023842,23694,28016.19999998808,36709.5,46290.80000001192,53941.30000001192,70279.90000003576,77577.30000001192,87587,90342.80000001192,99218.40000003576,113485.80000001192,115411.69999998808,116921.60000002384,135708.40000003576,143614.90000003576,147000.10000002384,155087.60000002384,160167.90000003576,164473.80000001192,165941.5,175839.90000003576],"key_events":[],"mouse_events":[6055.800000011921,12864.5,13842.600000023842,21386.5,22668.100000023842,23694,28016.19999998808,36709.5,46290.80000001192,53941.30000001192,66343.10000002384,68363.80000001192,70279.90000003576,76639.80000001192,77577.30000001192,86610.30000001192,87587,90342.80000001192,97351.10000002384,99218.40000003576,113485.80000001192,115411.69999998808,116921.60000002384,134306.40000003576,135708.40000003576,143614.90000003576,147000.10000002384,153465.40000003576,154280.60000002384,155087.60000002384,160167.90000003576,164473.80000001192,165941.5,167240.10000002384,175839.90000003576,177562.19999998808],"straightlining":0.42857142857142855,"zigzagging":0.5,"honeypot":0,"survey":"sns","trial_type":"survey-template","trial_index":2,"time_elapsed":215506,"internal_node_id":"0.0-2.0","task_version":"prescreen-v0.3","browser_interactions":0,"infrequency":0},{"responses":{"Q05":"3","Q12":"2","Q09":"2","Q03":"2","Q01":"3","Q13":"0","Q04":"2","Q08":"3","Q02":"2","Q10":"2","Q11":"2","Q06":"3","Q07":"2"},"rt":111656.10000002384,"item_order":[4,11,8,2,0,12,3,7,1,9,10,5,6],"radio_events":[6705.5,34861.40000003576,38995.10000002384,50044.200000047684,55327.10000002384,59387.30000001192,84038.10000002384,87819.90000003576,91195.70000004768,96527.40000003576,99961.90000003576,103639.20000004768,109238.80000001192],"key_events":[],"mouse_events":[5792.5,6705.5,34861.40000003576,38995.10000002384,50044.200000047684,52310.80000001192,55327.10000002384,59387.30000001192,80230.30000001192,81329.30000001192,84038.10000002384,86841.80000001192,87819.90000003576,91195.70000004768,96527.40000003576,99961.90000003576,102830.30000001192,103639.20000004768,105000.80000001192,109238.80000001192,110763.80000001192,111652.5],"straightlining":0.6153846153846154,"zigzagging":0.5833333333333334,"honeypot":0,"survey":"bisbas","trial_type":"survey-template","trial_index":3,"time_elapsed":327166,"internal_node_id":"0.0-3.0","task_version":"prescreen-v0.3","browser_interactions":2,"infrequency":0},{"responses":{"Q01":"2","Q02":"1","Q03":"3"},"rt":26515.69999998808,"radio_events":[7224.699999988079,18082.69999998808,24426.399999976158],"key_events":[],"mouse_events":[5848.199999988079,7224.699999988079,18082.69999998808,23545.899999976158,24426.399999976158,26513.69999998808],"survey":"map","page":1,"trial_type":"survey-map","trial_index":4,"time_elapsed":353686,"internal_node_id":"0.0-4.0","task_version":"prescreen-v0.3","browser_interactions":0},{"responses":{"Q04":"2","Q05":"1","Q06":"2"},"rt":27725.30000001192,"radio_events":[17817.30000001192,23924.100000023842,26754.700000047684],"key_events":[],"mouse_events":[17817.30000001192,22384.80000001192,23924.100000023842,26754.700000047684,27723.5],"survey":"map","page":2,"trial_type":"survey-map","trial_index":5,"time_elapsed":381416,"internal_node_id":"0.0-5.0","task_version":"prescreen-v0.3","browser_interactions":0},{"responses":{"Q07":"1","Q08":"0","Q09":"3"},"rt":59553.700000047684,"radio_events":[49466.40000003576,52540.700000047684,58279.700000047684],"key_events":[],"mouse_events":[49466.40000003576,52540.700000047684,57521.80000001192,58279.700000047684,59551.80000001192],"survey":"map","page":3,"trial_type":"survey-map","trial_index":6,"time_elapsed":440973,"internal_node_id":"0.0-6.0","task_version":"prescreen-v0.3","browser_interactions":0},{"responses":{"Q10":"2","Q11":"3","Q12":"2","Q13":"4","Q16":"0","Q14":"3","Q15":"1"},"rt":108108.89999997616,"radio_events":[19370.599999964237,24704,33326.39999997616,79719.80000001192,82625,87231.39999997616,94666.19999998808,103586.69999998808,107215.5],"key_events":[],"mouse_events":[18581.19999998808,19370.599999964237,24704,32607.30000001192,33326.39999997616,79719.80000001192,81612,82625,87231.39999997616,94666.19999998808,103586.69999998808,106499.30000001192,107215.5,108105.59999996424],"survey":"map","page":4,"trial_type":"survey-map","trial_index":7,"time_elapsed":549085,"internal_node_id":"0.0-7.0","task_version":"prescreen-v0.3","browser_interactions":0,"infrequency":0},{"view_history":[{"page_index":0,"viewing_time":38715},{"page_index":1,"viewing_time":3121.399999976158}],"rt":41838.5,"trial_type":"instructions","trial_index":8,"time_elapsed":590926,"internal_node_id":"0.0-8.0","task_version":"prescreen-v0.3"},{"responses":{"01":"No","02":"Yes","02_ages_13":"13","02_ages_14":"14","02_ages_15":"15","02_ages_16":"16","02_ages_17":"17","02_ages_18":"18","03":"No","04":"Yes","04_ages_10":"10","04_ages_11":"11","04_ages_12":"12","04_ages_13":"13","04_ages_14":"14","04_ages_15":"15","04_ages_16":"16","04_ages_17":"17","04_ages_18":"18","05":"No","06":"No"},"rt":71429.30000001192,"item_order":[0,1,2,3,4,5],"radio_events":[27510.600000023842,30870,33071.5,48353,51820.10000002384,68085.20000004768,70423.70000004768],"checkbox_events":[38283.10000002384,38969.40000003576,39693.30000001192,40449.5,41405.60000002384,42620.700000047684,55878.90000003576,57036.60000002384,57787.30000001192,58504.60000002384,59582.5,60314.40000003576,61050.30000001192,61832.80000001192,63592.5],"key_events":[],"mouse_events":[0.30000001192092896,19275.100000023842,21397,21990.80000001192,27510.600000023842,30870,33071.5,38283.10000002384,38969.40000003576,39693.30000001192,40449.5,41405.60000002384,42620.700000047684,44773.200000047684,48353,51011.30000001192,51820.10000002384,55878.90000003576,57036.60000002384,57787.30000001192,58504.60000002384,59582.5,60314.40000003576,61050.30000001192,61832.80000001192,62720.40000003576,63592.5,68085.20000004768,70423.70000004768,71420.70000004768],"honeypot":0,"survey":"mace","page":1,"trial_type":"survey-mace","trial_index":9,"time_elapsed":662365,"internal_node_id":"0.0-9.0","task_version":"prescreen-v0.3","browser_interactions":0},{"responses":{"01":"No","02":"No","03":"No","04":"No","05":"No","06":"No","07":"No","08":"No"},"rt":28879.600000023842,"item_order":[0,1,2,3,4,5,6,7],"radio_events":[5745.400000035763,8853.5,11485.699999988079,13403.300000011921,15961.5,17926.900000035763,24360.30000001192,27737.30000001192],"checkbox_events":[],"key_events":[],"mouse_events":[5745.400000035763,8853.5,11485.699999988079,13403.300000011921,15961.5,17926.900000035763,19763.100000023842,24360.30000001192,25232.600000023842,26048.100000023842,27737.30000001192,28869.400000035763],"honeypot":0,"survey":"mace","page":2,"trial_type":"survey-mace","trial_index":10,"time_elapsed":691250,"internal_node_id":"0.0-10.0","task_version":"prescreen-v0.3","browser_interactions":0},{"responses":{"01":"No","02":"No","03":"No","04":"No"},"rt":14594,"item_order":[0,1,2,3],"radio_events":[8253.800000011921,10046.100000023842,12084.900000035763,13299.400000035763],"checkbox_events":[],"key_events":[],"mouse_events":[8253.800000011921,10046.100000023842,12084.900000035763,13299.400000035763,14587.5],"honeypot":0,"survey":"mace","page":3,"trial_type":"survey-mace","trial_index":11,"time_elapsed":705848,"internal_node_id":"0.0-11.0","task_version":"prescreen-v0.3","browser_interactions":0},{"responses":{"01":"No","02":"No"},"rt":8522.100000023842,"item_order":[0,1],"radio_events":[5462.700000047684,7191.100000023842],"checkbox_events":[],"key_events":[],"mouse_events":[5462.700000047684,7191.100000023842,8518.5],"honeypot":0,"survey":"mace","page":4,"trial_type":"survey-mace","trial_index":12,"time_elapsed":714374,"internal_node_id":"0.0-12.0","task_version":"prescreen-v0.3","browser_interactions":0},{"responses":{"01":"No","02":"No","03":"No","04":"No","05":"No"},"rt":37740.39999997616,"item_order":[0,1,2,3,4],"radio_events":[18613,22949.099999964237,30719.30000001192,33809.5,35466.09999996424],"checkbox_events":[],"key_events":[],"mouse_events":[18613,22949.099999964237,30719.30000001192,33809.5,35466.09999996424,37733],"honeypot":0,"survey":"mace","page":5,"trial_type":"survey-mace","trial_index":13,"time_elapsed":752120,"internal_node_id":"0.0-13.0","task_version":"prescreen-v0.3","browser_interactions":0},{"responses":{"01":"Yes","01_ages_8":"8","01_ages_9":"9","01_ages_10":"10","01_ages_11":"11","01_ages_12":"12","01_ages_13":"13","02":"Yes","02_ages_8":"8","02_ages_9":"9","02_ages_10":"10","02_ages_11":"11","02_ages_12":"12","02_ages_13":"13","03":"Yes","03_ages_10":"10","03_ages_11":"11","03_ages_12":"12","03_ages_13":"13","03_ages_14":"14","03_ages_15":"15","03_ages_16":"16","03_ages_17":"17","03_ages_18":"18","04":"Yes","04_ages_6":"6","04_ages_7":"7","04_ages_8":"8","04_ages_9":"9","04_ages_10":"10","04_ages_11":"11","04_ages_12":"12","04_ages_13":"13","04_ages_14":"14","04_ages_15":"15","04_ages_16":"16","04_ages_17":"17","04_ages_18":"18","05":"No"},"rt":78525.19999998808,"item_order":[0,1,2,3,4],"radio_events":[8649.899999976158,23563.5,40531.09999996424,57702.19999998808,77343.59999996424],"checkbox_events":[10817,12278,12938.5,13639.699999988079,14911.699999988079,16079.300000011921,25675,26400.5,27102,27802.80000001192,28536.69999998808,29342.19999998808,45798.09999996424,46507.80000001192,47225,48341.39999997616,50072.5,51236.69999998808,52125.19999998808,53592.39999997616,54277.59999996424,62797.89999997616,63426.09999996424,64119.09999996424,64966.69999998808,65702.39999997616,66393.5,67159.69999998808,68132.19999998808,68866,70568.5,71287.69999998808,72109.39999997616,73643.89999997616],"key_events":[],"mouse_events":[8649.899999976158,10817,11488.5,12278,12938.5,13639.699999988079,14911.699999988079,16079.300000011921,23563.5,25675,26400.5,27102,27802.80000001192,28536.69999998808,29342.19999998808,40531.09999996424,44723.39999997616,45798.09999996424,46507.80000001192,47225,48341.39999997616,50072.5,51236.69999998808,52125.19999998808,52924.30000001192,53592.39999997616,54277.59999996424,57702.19999998808,59529.19999998808,62797.89999997616,63426.09999996424,64119.09999996424,64966.69999998808,65702.39999997616,66393.5,67159.69999998808,68132.19999998808,68866,70568.5,71287.69999998808,72109.39999997616,73643.89999997616,77343.59999996424,78518.39999997616],"honeypot":0,"survey":"mace","page":6,"trial_type":"survey-mace","trial_index":14,"time_elapsed":830649,"internal_node_id":"0.0-14.0","task_version":"prescreen-v0.3","browser_interactions":0},{"responses":{"01":"No","02":"No","03":"Yes","03_ages_7":"7","03_ages_8":"8","03_ages_9":"9","03_ages_10":"10","04":"No","05":"No","06":"No","07":"Yes","07_ages_13":"13","07_ages_14":"14"},"rt":42124.60000002384,"item_order":[0,1,2,3,4,5,6],"radio_events":[5361.900000035763,7522.400000035763,9208.300000011921,11590.5,21201.69999998808,22946.400000035763,27888.900000035763,31164.80000001192],"checkbox_events":[14100.600000023842,14721.600000023842,15404.699999988079,16156.100000023842,35845.10000002384,36546.19999998808,37469.40000003576,39010.10000002384],"key_events":[],"mouse_events":[5361.900000035763,7522.400000035763,9208.300000011921,11590.5,14100.600000023842,14721.600000023842,15404.699999988079,16156.100000023842,21201.69999998808,22946.400000035763,27888.900000035763,31164.80000001192,35845.10000002384,36546.19999998808,37469.40000003576,39010.10000002384,42115.5],"honeypot":0,"survey":"mace","page":7,"trial_type":"survey-mace","trial_index":15,"time_elapsed":872779,"internal_node_id":"0.0-15.0","task_version":"prescreen-v0.3","browser_interactions":0},{"responses":{"01":"Yes","01_ages_5":"5","01_ages_6":"6","01_ages_7":"7","01_ages_8":"8","01_ages_9":"9","01_ages_10":"10","01_ages_11":"11","01_ages_12":"12","01_ages_13":"13","01_ages_14":"14","02":"Yes","02_ages_1":"1","02_ages_2":"2","02_ages_3":"3","02_ages_4":"4","02_ages_5":"5","02_ages_6":"6","02_ages_7":"7","02_ages_8":"8","02_ages_9":"9","02_ages_10":"10","02_ages_11":"11","02_ages_12":"12","02_ages_13":"13","02_ages_14":"14","02_ages_15":"15","02_ages_16":"16","02_ages_17":"17","02_ages_18":"18","03":"No","04":"No"},"rt":76853.19999998808,"item_order":[0,1,2,3],"radio_events":[12187.800000011921,23415.600000023842,70626.30000001192,73241.60000002384],"checkbox_events":[27809.69999998808,28730.399999976158,29350.5,30898.899999976158,31624.399999976158,32358.399999976158,33116.39999997616,35988.39999997616,36607.60000002384,37250.39999997616,37910.69999998808,38603.69999998808,39272.10000002384,39948.80000001192,40674.69999998808,41384,42094.89999997616,43047.10000002384,50129.19999998808,50927.80000001192,52126.10000002384,52827.80000001192,54181.10000002384,54900.30000001192,55599.69999998808,56619,57825.5,64634.5],"key_events":[],"mouse_events":[12187.800000011921,23415.600000023842,27809.69999998808,28730.399999976158,29350.5,30303.600000023842,30898.899999976158,31624.399999976158,32358.399999976158,33116.39999997616,35988.39999997616,36607.60000002384,37250.39999997616,37910.69999998808,38603.69999998808,39272.10000002384,39948.80000001192,40674.69999998808,41384,42094.89999997616,43047.10000002384,50129.19999998808,50927.80000001192,51621.10000002384,52126.10000002384,52827.80000001192,53577.69999998808,54181.10000002384,54900.30000001192,55599.69999998808,56619,57825.5,64634.5,70626.30000001192,73241.60000002384,76847.5],"honeypot":0,"survey":"mace","page":8,"trial_type":"survey-mace","trial_index":16,"time_elapsed":949635,"internal_node_id":"0.0-16.0","task_version":"prescreen-v0.3","browser_interactions":0},{"responses":{"01":"Yes","01_ages_1":"1","01_ages_2":"2","01_ages_3":"3","01_ages_4":"4","01_ages_5":"5","01_ages_6":"6","01_ages_7":"7","01_ages_8":"8","01_ages_9":"9","01_ages_10":"10","01_ages_11":"11","01_ages_12":"12","01_ages_13":"13","01_ages_14":"14","01_ages_15":"15","01_ages_16":"16","01_ages_17":"17","01_ages_18":"18","02":"Yes","02_ages_1":"1","02_ages_2":"2","02_ages_3":"3","02_ages_4":"4","02_ages_5":"5","02_ages_6":"6","02_ages_7":"7","02_ages_8":"8","02_ages_9":"9","02_ages_10":"10","02_ages_11":"11","02_ages_12":"12","02_ages_13":"13","02_ages_14":"14","02_ages_15":"15","02_ages_16":"16","02_ages_17":"17","02_ages_18":"18","03":"Yes","03_ages_1":"1","03_ages_2":"2","03_ages_3":"3","03_ages_4":"4","03_ages_5":"5","03_ages_6":"6","03_ages_7":"7","03_ages_8":"8","03_ages_9":"9","03_ages_10":"10","03_ages_11":"11","03_ages_12":"12","03_ages_13":"13","03_ages_14":"14","03_ages_15":"15","03_ages_16":"16","03_ages_17":"17","03_ages_18":"18","04":"Yes","04_ages_1":"1","04_ages_2":"2","04_ages_3":"3","04_ages_4":"4","04_ages_5":"5","04_ages_6":"6","04_ages_7":"7","04_ages_8":"8","04_ages_9":"9","04_ages_10":"10","04_ages_11":"11","04_ages_12":"12","04_ages_13":"13","04_ages_14":"14","04_ages_15":"15","04_ages_16":"16","04_ages_17":"17","04_ages_18":"18"},"rt":98737.5,"item_order":[0,1,2,3],"radio_events":[12257.099999964237,37167.69999998808,38185.39999997616,79417.39999997616],"checkbox_events":[16244.599999964237,17793.19999998808,20444.80000001192,21038.19999998808,21666,22367.19999998808,23003.30000001192,23728.69999998808,24456.099999964237,25155.5,25815.899999976158,26500.899999976158,27136.599999964237,27880.5,28579.899999976158,29281,30747.30000001192,31785.80000001192,42271.69999998808,43574.69999998808,44724.39999997616,47309.09999996424,48068.89999997616,49437,50205.30000001192,50831.19999998808,51451.09999996424,52103.19999998808,52780.09999996424,54125.5,54728.59999996424,55407,56068,56791.59999996424,57468.30000001192,58161.59999996424,58822,59531.39999997616,60999.19999998808,61659.39999997616,62352.5,63047.19999998808,64392.69999998808,65102.19999998808,65801.5,66439.19999998808,67073.39999997616,68459.39999997616,69226.09999996424,69902.30000001192,70621.59999996424,71305,72038.59999996424,72910.80000001192,82483.19999998808,83184.30000001192,83983.39999997616,84806.89999997616,85548.59999996424,86373.69999998808,87162.89999997616,87904.80000001192,88681.09999996424,89496.59999996424,91027.89999997616,91802.30000001192,92568.80000001192,93418.59999996424,94208.19999998808,95675.30000001192,96500.19999998808,97275.39999997616],"key_events":[],"mouse_events":[11149,12257.099999964237,16244.599999964237,17793.19999998808,20444.80000001192,21038.19999998808,21666,22367.19999998808,23003.30000001192,23728.69999998808,24456.099999964237,25155.5,25815.899999976158,26500.899999976158,27136.599999964237,27880.5,28579.899999976158,29281,30147.099999964237,30747.30000001192,31785.80000001192,37167.69999998808,38185.39999997616,42271.69999998808,43574.69999998808,44724.39999997616,47309.09999996424,48068.89999997616,49437,50205.30000001192,50831.19999998808,51451.09999996424,52103.19999998808,52780.09999996424,53497.19999998808,54125.5,54728.59999996424,55407,56068,56791.59999996424,57468.30000001192,58161.59999996424,58822,59531.39999997616,60999.19999998808,61659.39999997616,62352.5,63047.19999998808,63779.59999996424,64392.69999998808,65102.19999998808,65801.5,66439.19999998808,67073.39999997616,67807,68459.39999997616,69226.09999996424,69902.30000001192,70621.59999996424,71305,72038.59999996424,72910.80000001192,79417.39999997616,82483.19999998808,83184.30000001192,83983.39999997616,84806.89999997616,85548.59999996424,86373.69999998808,87162.89999997616,87904.80000001192,88681.09999996424,89496.59999996424,91027.89999997616,91802.30000001192,92568.80000001192,93418.59999996424,94208.19999998808,95007.09999996424,95675.30000001192,96500.19999998808,97275.39999997616,98732.30000001192],"honeypot":0,"survey":"mace","page":9,"trial_type":"survey-mace","trial_index":17,"time_elapsed":1048376,"internal_node_id":"0.0-17.0","task_version":"prescreen-v0.3","browser_interactions":0},{"responses":{"01":"No","02":"No","03":"Yes","03_ages_9":"9","03_ages_10":"10","03_ages_11":"11","03_ages_12":"12","03_ages_13":"13","03_ages_14":"14","03_ages_15":"15","03_ages_16":"16","03_ages_17":"17","03_ages_18":"18","04":"Yes","04_ages_10":"10","04_ages_11":"11","04_ages_12":"12","04_ages_13":"13","04_ages_14":"14","04_ages_15":"15","04_ages_16":"16","04_ages_17":"17","04_ages_18":"18","05":"Yes","05_ages_8":"8","05_ages_9":"9","05_ages_10":"10","05_ages_11":"11","05_ages_12":"12","05_ages_13":"13","05_ages_14":"14","05_ages_15":"15","05_ages_16":"16","05_ages_17":"17","05_ages_18":"18","06":"Yes","06_ages_17":"17","07":"No","08":"No"},"rt":75706.5,"item_order":[0,1,2,3,4,5,6,7],"radio_events":[5267.100000023842,6789.900000035763,9521.400000035763,32409.30000001192,47883.90000003576,60930.40000003576,73374.19999998808,74569.90000003576],"checkbox_events":[13061.5,13744.800000011921,14357.699999988079,15000.5,15995,17048.600000023842,19299.600000023842,20120.5,21353.5,21979.69999998808,22631.69999998808,23389.900000035763,24074.80000001192,24745.100000023842,26097.100000023842,26798.30000001192,38899.69999998808,39534.10000002384,40170,40871.19999998808,41564.30000001192,42152.90000003576,42778.90000003576,43480.30000001192,44150.40000003576,51063.19999998808,51683.19999998808,52320.60000002384,52987.30000001192,53615.30000001192,54300.10000002384,54968.60000002384,55678.19999998808,56405.40000003576,57153.90000003576,58002.10000002384,62844.19999998808],"key_events":[],"mouse_events":[5267.100000023842,6789.900000035763,9521.400000035763,13061.5,13744.800000011921,14357.699999988079,15000.5,15995,17048.600000023842,18163.600000023842,19299.600000023842,20120.5,20780.5,21353.5,21979.69999998808,22631.69999998808,23389.900000035763,24074.80000001192,24745.100000023842,25413.69999998808,26097.100000023842,26798.30000001192,32409.30000001192,38899.69999998808,39534.10000002384,40170,40871.19999998808,41564.30000001192,42152.90000003576,42778.90000003576,43480.30000001192,44150.40000003576,47002.5,47883.90000003576,51063.19999998808,51683.19999998808,52320.60000002384,52987.30000001192,53615.30000001192,54300.10000002384,54968.60000002384,55678.19999998808,56405.40000003576,57153.90000003576,58002.10000002384,60930.40000003576,62844.19999998808,73374.19999998808,74569.90000003576,75696.10000002384],"honeypot":0,"survey":"mace","page":10,"trial_type":"survey-mace","trial_index":18,"time_elapsed":1124088,"internal_node_id":"0.0-18.0","task_version":"prescreen-v0.3","browser_interactions":0,"instructed":0},{"rt":12428.399999976158,"trial_type":"mental-health-alert","trial_index":19,"time_elapsed":1136519,"internal_node_id":"0.0-19.0","task_version":"prescreen-v0.3","interactions":"[{\"event\":\"blur\",\"trial\":3,\"time\":239814},{\"event\":\"focus\",\"trial\":3,\"time\":247460}]"}]