[{"view_history":[{"page_index":0,"viewing_time":3223.900001525879},{"page_index":1,"viewing_time":2586.5},{"page_index":2,"viewing_time":1890.599998474121},{"page_index":3,"viewing_time":1556.2000007629395}],"rt":9258.20000076294,"trial_type":"instructions","trial_index":0,"time_elapsed":9264,"internal_node_id":"0.0-0.0","task_version":"prescreen-v0.3"},{"rt":22949.20000076294,"responses":{"age":"22","gender-categorical":"Female","gender-free-response":"","ethnicity":"Not Hispanic or Latino","race":["White"],"education":"High school"},"trial_type":"survey-demo","trial_index":1,"time_elapsed":32221,"internal_node_id":"0.0-1.0","task_version":"prescreen-v0.3"},{"responses":{"Q16":"3","Q15":"2","Q05":"1","Q03":"3","Q02":"2","Q14":"3","Q06":"1","Q04":"2","Q08":"3","Q07":"1","Q01":"2","Q17":"3","Q19":"3","Q11":"3","Q12":"3","Q09":"3","Q21":"3","Q10":"3","Q18":"2","Q20":"0","Q13":"2"},"rt":151039.39999961853,"item_order":[15,14,4,2,1,13,5,3,7,6,0,16,18,10,11,8,20,9,17,19,12],"radio_events":[15703.10000038147,22148.89999961853,32831.29999923706,39007.29999923706,44667,48940.89999961853,58838.39999961853,69636.89999961853,74233.29999923706,82035.5,86639.29999923706,90436.70000076294,101524.39999961853,107061.10000038147,113747.29999923706,119370.29999923706,124655.60000038147,129359.89999961853,138597,141171.5,149897.89999961853],"key_events":[],"mouse_events":[15703.10000038147,22148.89999961853,32831.29999923706,39007.29999923706,44667,48940.89999961853,58838.39999961853,69636.89999961853,74233.29999923706,82035.5,86639.29999923706,90436.70000076294,101524.39999961853,106254.79999923706,107061.10000038147,113747.29999923706,119370.29999923706,124655.60000038147,129359.89999961853,136712.79999923706,138597,141171.5,149897.89999961853,151036.70000076294],"straightlining":0.5238095238095238,"zigzagging":0.45,"honeypot":0,"survey":"sns","trial_type":"survey-template","trial_index":2,"time_elapsed":183269,"internal_node_id":"0.0-2.0","task_version":"prescreen-v0.3","browser_interactions":2,"infrequency":0},{"responses":{"Q01":"3","Q09":"1","Q08":"3","Q11":"2","Q07":"2","Q13":"0","Q10":"1","Q12":"2","Q05":"3","Q04":"3","Q02":"2","Q03":"3","Q06":"2"},"rt":89978.79999923706,"item_order":[0,8,7,10,6,12,9,11,4,3,1,2,5],"radio_events":[7962.39999961853,12172.29999923706,17038.5,25298.29999923706,29217.09999847412,32684,38437.29999923706,51508.29999923706,56879.69999885559,70930.89999961853,75661.5,81293.19999885559,85795.19999885559],"key_events":[],"mouse_events":[7962.39999961853,12172.29999923706,17038.5,25298.29999923706,29217.09999847412,32684,38437.29999923706,51508.29999923706,56879.69999885559,70930.89999961853,75661.5,81293.19999885559,85795.19999885559,89976.29999923706],"straightlining":0.38461538461538464,"zigzagging":0.5833333333333334,"honeypot":0,"survey":"bisbas","trial_type":"survey-template","trial_index":3,"time_elapsed":273254,"internal_node_id":"0.0-3.0","task_version":"prescreen-v0.3","browser_interactions":0,"infrequency":0},{"responses":{"Q01":"1","Q02":"2","Q03":"1"},"rt":29192.5,"radio_events":[5647.200000762939,18167.70000076294,28128.20000076294],"key_events":[],"mouse_events":[5647.200000762939,18167.70000076294,28128.20000076294,29191.20000076294],"survey":"map","page":1,"trial_type":"survey-map","trial_index":4,"time_elapsed":302453,"internal_node_id":"0.0-4.0","task_version":"prescreen-v0.3","browser_interactions":0},{"responses":{"Q04":"0","Q05":"0","Q06":"1"},"rt":20374.19999885559,"radio_events":[7184.799999237061,13893.5,18910.60000038147],"key_events":[],"mouse_events":[7184.799999237061,13893.5,18910.60000038147,20372.89999961853],"survey":"map","page":2,"trial_type":"survey-map","trial_index":5,"time_elapsed":322832,"internal_node_id":"0.0-5.0","task_version":"prescreen-v0.3","browser_interactions":0},{"responses":{"Q07":"2","Q08":"4","Q09":"3"},"rt":36202.89999961853,"radio_events":[14300.39999961853,16693,30353.60000038147,33468.20000076294],"key_events":[],"mouse_events":[14300.39999961853,16693,30353.60000038147,33468.20000076294,36201.80000114441],"survey":"map","page":3,"trial_type":"survey-map","trial_index":6,"time_elapsed":359040,"internal_node_id":"0.0-6.0","task_version":"prescreen-v0.3","browser_interactions":0},{"responses":{"Q10":"3","Q11":"1","Q12":"0","Q13":"2","Q16":"0","Q14":"1","Q15":"1"},"rt":68045,"radio_events":[11920.60000038147,15901.60000038147,26816.39999961853,37228.10000038147,38477.89999961853,45953,62472.5,66741.19999885559],"key_events":[],"mouse_events":[11920.60000038147,15901.60000038147,26816.39999961853,37228.10000038147,38477.89999961853,43155.60000038147,45953,62472.5,66741.19999885559,68042.79999923706],"survey":"map","page":4,"trial_type":"survey-map","trial_index":7,"time_elapsed":427091,"internal_node_id":"0.0-7.0","task_version":"prescreen-v0.3","browser_interactions":0,"infrequency":0},{"view_history":[{"page_index":0,"viewing_time":5429},{"page_index":1,"viewing_time":11173}],"rt":16603.5,"trial_type":"instructions","trial_index":8,"time_elapsed":443697,"internal_node_id":"0.0-8.0","task_version":"prescreen-v0.3"},{"responses":{"01":"Yes","01_ages_7":"7","01_ages_8":"8","01_ages_9":"9","01_ages_10":"10","01_ages_11":"11","01_ages_12":"12","01_ages_13":"13","01_ages_14":"14","01_ages_15":"15","01_ages_16":"16","01_ages_17":"17","02":"Yes","02_ages_6":"6","02_ages_7":"7","02_ages_8":"8","02_ages_9":"9","02_ages_10":"10","02_ages_11":"11","02_ages_12":"12","02_ages_13":"13","02_ages_14":"14","02_ages_15":"15","02_ages_16":"16","02_ages_17":"17","02_ages_18":"18","03":"Yes","03_ages_7":"7","03_ages_8":"8","03_ages_9":"9","03_ages_10":"10","03_ages_11":"11","03_ages_12":"12","03_ages_13":"13","03_ages_14":"14","03_ages_15":"15","03_ages_16":"16","04":"Yes","04_ages_5":"5","04_ages_6":"6","04_ages_7":"7","04_ages_8":"8","04_ages_9":"9","04_ages_10":"10","04_ages_11":"11","04_ages_12":"12","04_ages_13":"13","04_ages_14":"14","04_ages_15":"15","04_ages_16":"16","04_ages_17":"17","04_ages_18":"18","05":"No","06":"Yes","06_ages_7":"7","06_ages_8":"8","06_ages_9":"9","06_ages_10":"10","06_ages_11":"11","06_ages_12":"12","06_ages_13":"13","06_ages_14":"14","06_ages_15":"15","06_ages_16":"16","06_ages_17":"17"},"rt":174090.5,"item_order":[0,1,2,3,4,5],"radio_events":[20344,66855.60000038147,93719.19999885559,123740.5,149115.89999961853,154984.79999923706],"checkbox_events":[29081.39999961853,30875.5,31103.89999961853,32005.10000038147,33126.69999885559,34534.10000038147,35763,36968.5,38150.5,39660.39999961853,41480.5,42909.89999961853,44118.89999961853,45158.79999923706,46428.60000038147,47943.19999885559,49580.19999885559,70529.10000038147,74091.79999923706,75356,76389.60000038147,77467.79999923706,77697.19999885559,78738.79999923706,79976,81202.5,82694.79999923706,83911,85832,86795.5,88054.79999923706,89095.79999923706,95804,96870.60000038147,98332.29999923706,99431.60000038147,101461.29999923706,104318.29999923706,105500.60000038147,116380.79999923706,117378,118845.39999961853,126621.69999885559,127623.89999961853,128774,130466.5,131533.1999988556,133495.5,134738.89999961853,135656.79999923706,136711.29999923706,137708.79999923706,140849.1999988556,141789.89999961853,143558.89999961853,144680.6999988556,156646.60000038147,158288.60000038147,159293.5,160518.29999923706,162886.5,163805.79999923706,165147.6999988556,167085.39999961853,168678.5,170161.29999923706,171440.5],"key_events":[],"mouse_events":[0.10000038146972656,19418.29999923706,20344,27832.29999923706,29081.39999961853,30875.5,31103.89999961853,32005.10000038147,33126.69999885559,34534.10000038147,35763,36968.5,38150.5,39660.39999961853,41028,41480.5,42909.89999961853,44118.89999961853,45158.79999923706,46428.60000038147,47943.19999885559,49580.19999885559,66855.60000038147,70529.10000038147,72399.69999885559,72971.60000038147,74091.79999923706,75356,76389.60000038147,77467.79999923706,77697.19999885559,78738.79999923706,79976,81202.5,82694.79999923706,83911,85416.29999923706,85832,86795.5,88054.79999923706,89095.79999923706,93719.19999885559,95804,96870.60000038147,98332.29999923706,99431.60000038147,101461.29999923706,103897.79999923706,104318.29999923706,105500.60000038147,116380.79999923706,117378,118845.39999961853,123740.5,126621.69999885559,127623.89999961853,128774,129964.29999923706,130466.5,131533.1999988556,133495.5,134738.89999961853,135656.79999923706,136711.29999923706,137708.79999923706,138776.10000038147,139783.6999988556,140849.1999988556,141789.89999961853,143558.89999961853,144680.6999988556,149115.89999961853,154984.79999923706,156646.60000038147,157809.29999923706,158288.60000038147,159293.5,160518.29999923706,161537.29999923706,162886.5,163805.79999923706,165147.6999988556,166081.6999988556,167085.39999961853,168678.5,170161.29999923706,171440.5,174087.5],"honeypot":0,"survey":"mace","page":1,"trial_type":"survey-mace","trial_index":9,"time_elapsed":617797,"internal_node_id":"0.0-9.0","task_version":"prescreen-v0.3","browser_interactions":0},{"responses":{"01":"Yes","01_ages_13":"13","01_ages_14":"14","01_ages_15":"15","01_ages_16":"16","01_ages_17":"17","01_ages_18":"18","02":"No","03":"Yes","03_ages_3":"3","03_ages_4":"4","03_ages_5":"5","03_ages_6":"6","03_ages_7":"7","03_ages_8":"8","03_ages_9":"9","03_ages_10":"10","03_ages_11":"11","03_ages_12":"12","04":"Yes","04_ages_4":"4","04_ages_5":"5","04_ages_6":"6","04_ages_7":"7","04_ages_8":"8","04_ages_9":"9","04_ages_10":"10","05":"Yes","05_ages_7":"7","05_ages_8":"8","05_ages_9":"9","05_ages_10":"10","05_ages_11":"11","05_ages_12":"12","05_ages_13":"13","05_ages_14":"14","05_ages_15":"15","06":"No","07":"Yes","07_ages_9":"9","08":"No"},"rt":110273.29999923706,"item_order":[0,1,2,3,4,5,6,7],"radio_events":[8639,24841.5,30465,50489,71605.5,74048.39999961853,99792.79999923706,101226],"checkbox_events":[12078.5,13179.79999923706,13982.70000076294,16034.5,17427.70000076294,18473.29999923706,32181.89999961853,34313.60000038147,35721.79999923706,36706.10000038147,38968.10000038147,39186.5,40420.20000076294,41704.70000076294,43658.5,44817.39999961853,45866.10000038147,49499.10000038147,53454.79999923706,54706.89999961853,55765.79999923706,57134.60000038147,58202.79999923706,59422.89999961853,61630.79999923706,76564.60000038147,77545.20000076294,78415.5,79434.70000076294,82664.89999961853,83791.20000076294,84992.89999961853,87950.89999961853,88982.10000038147,102996.29999923706,107370,108426.5],"key_events":[],"mouse_events":[8639,12078.5,13179.79999923706,13982.70000076294,14928.79999923706,16034.5,17427.70000076294,18473.29999923706,24841.5,30465,32181.89999961853,33129.89999961853,34313.60000038147,35721.79999923706,36706.10000038147,37900.60000038147,38468.60000038147,38968.10000038147,39186.5,40420.20000076294,41704.70000076294,42647.70000076294,43658.5,44817.39999961853,45866.10000038147,47028.89999961853,49499.10000038147,50489,52224.89999961853,53454.79999923706,54706.89999961853,55765.79999923706,57134.60000038147,58202.79999923706,59422.89999961853,60543.89999961853,61630.79999923706,71605.5,74048.39999961853,76564.60000038147,77545.20000076294,78415.5,79434.70000076294,82664.89999961853,83791.20000076294,84992.89999961853,85962,87478,87950.89999961853,88982.10000038147,99792.79999923706,101226,102996.29999923706,106903.70000076294,107370,108426.5,110269.20000076294],"honeypot":0,"survey":"mace","page":2,"trial_type":"survey-mace","trial_index":10,"time_elapsed":728082,"internal_node_id":"0.0-10.0","task_version":"prescreen-v0.3","browser_interactions":0},{"responses":{"01":"Yes","01_ages_8":"8","01_ages_9":"9","01_ages_10":"10","01_ages_11":"11","01_ages_12":"12","01_ages_13":"13","01_ages_14":"14","01_ages_15":"15","01_ages_16":"16","01_ages_17":"17","02":"No","03":"No","04":"No"},"rt":44673.79999923706,"item_order":[0,1,2,3],"radio_events":[17511.70000076294,22789.79999923706,42220.10000038147,43494.10000038147],"checkbox_events":[25745.29999923706,27112,28155.10000038147,28952.79999923706,31244.20000076294,32271.5,33278.20000076294,34354.79999923706,36229.10000038147,37319.10000038147],"key_events":[],"mouse_events":[17511.70000076294,22789.79999923706,25745.29999923706,27112,27742.29999923706,28155.10000038147,28952.79999923706,30082.29999923706,31244.20000076294,32271.5,33278.20000076294,34354.79999923706,35812.60000038147,36229.10000038147,37319.10000038147,42220.10000038147,43494.10000038147,44669.89999961853],"honeypot":0,"survey":"mace","page":3,"trial_type":"survey-mace","trial_index":11,"time_elapsed":772765,"internal_node_id":"0.0-11.0","task_version":"prescreen-v0.3","browser_interactions":0},{"responses":{"01":"No","02":"No"},"rt":13919.89999961853,"item_order":[0,1],"radio_events":[7646.200000762939,12190.29999923706],"checkbox_events":[],"key_events":[],"mouse_events":[7646.200000762939,12190.29999923706,13917.79999923706],"honeypot":0,"survey":"mace","page":4,"trial_type":"survey-mace","trial_index":12,"time_elapsed":786689,"internal_node_id":"0.0-12.0","task_version":"prescreen-v0.3","browser_interactions":0},{"responses":{"01":"Yes","01_ages_3":"3","01_ages_4":"4","01_ages_5":"5","01_ages_6":"6","01_ages_7":"7","01_ages_8":"8","01_ages_9":"9","01_ages_10":"10","01_ages_11":"11","01_ages_12":"12","01_ages_13":"13","01_ages_14":"14","01_ages_15":"15","02":"Yes","02_ages_3":"3","02_ages_4":"4","02_ages_5":"5","02_ages_6":"6","02_ages_7":"7","02_ages_8":"8","02_ages_9":"9","02_ages_10":"10","02_ages_11":"11","02_ages_12":"12","02_ages_13":"13","02_ages_14":"14","02_ages_15":"15","03":"Yes","03_ages_3":"3","03_ages_4":"4","03_ages_5":"5","03_ages_6":"6","03_ages_7":"7","03_ages_8":"8","03_ages_9":"9","03_ages_10":"10","03_ages_11":"11","03_ages_12":"12","03_ages_13":"13","03_ages_14":"14","03_ages_15":"15","04":"No","05":"Yes","05_ages_16":"16"},"rt":130484.79999923706,"item_order":[0,1,2,3,4],"radio_events":[20802.89999961853,69564.10000038147,94566.20000076294,120940,125345.10000038147],"checkbox_events":[22762.39999961853,23573.5,24706.79999923706,25688,26554.5,27957.89999961853,29080.29999923706,41608.5,42822.20000076294,46701,47840.29999923706,48982.29999923706,51291.20000076294,72482.5,73605.5,74711.79999923706,75820.39999961853,76694.5,77740.10000038147,79404.60000038147,80407.79999923706,81793.20000076294,82882.89999961853,84206.20000076294,85185,86222.10000038147,96877.70000076294,97618.60000038147,99373.29999923706,101729.60000038147,102700.10000038147,103675.89999961853,104581.60000038147,105739.20000076294,106795.39999961853,107811.89999961853,108966.39999961853,109884.89999961853,110822.79999923706,127075.60000038147],"key_events":[],"mouse_events":[20802.89999961853,22762.39999961853,23573.5,24706.79999923706,25688,26554.5,27957.89999961853,29080.29999923706,41608.5,42822.20000076294,45624.89999961853,46701,47840.29999923706,48513.79999923706,48982.29999923706,51291.20000076294,69564.10000038147,72072.39999961853,72482.5,73605.5,74711.79999923706,75820.39999961853,76694.5,77740.10000038147,78982.70000076294,79404.60000038147,80407.79999923706,81793.20000076294,82882.89999961853,84206.20000076294,85185,86222.10000038147,94566.20000076294,96877.70000076294,97618.60000038147,98433.29999923706,99373.29999923706,100565.79999923706,101314.20000076294,101729.60000038147,102700.10000038147,103675.89999961853,104581.60000038147,105739.20000076294,106795.39999961853,107811.89999961853,108966.39999961853,109884.89999961853,110822.79999923706,120940,125345.10000038147,127075.60000038147,130481.60000038147],"honeypot":0,"survey":"mace","page":5,"trial_type":"survey-mace","trial_index":13,"time_elapsed":917181,"internal_node_id":"0.0-13.0","task_version":"prescreen-v0.3","browser_interactions":0},{"responses":{"01":"Yes","01_ages_7":"7","01_ages_8":"8","01_ages_9":"9","01_ages_10":"10","01_ages_11":"11","01_ages_12":"12","01_ages_13":"13","02":"Yes","02_ages_7":"7","02_ages_8":"8","02_ages_9":"9","02_ages_10":"10","02_ages_11":"11","02_ages_12":"12","02_ages_13":"13","03":"Yes","03_ages_7":"7","03_ages_8":"8","03_ages_9":"9","03_ages_10":"10","03_ages_11":"11","03_ages_12":"12","03_ages_13":"13","03_ages_14":"14","03_ages_15":"15","03_ages_16":"16","03_ages_17":"17","03_ages_18":"18","04":"Yes","04_ages_5":"5","04_ages_6":"6","04_ages_7":"7","04_ages_8":"8","04_ages_9":"9","04_ages_10":"10","04_ages_11":"11","04_ages_12":"12","04_ages_13":"13","04_ages_14":"14","04_ages_15":"15","04_ages_16":"16","04_ages_17":"17","04_ages_18":"18","05":"Yes","05_ages_17":"17","05_ages_18":"18"},"rt":109175.20000076294,"item_order":[0,1,2,3,4],"radio_events":[21390.39999961853,36721.60000038147,57704.89999961853,78555,103134.39999961853],"checkbox_events":[24093,24988.89999961853,26919.5,28157,29479.60000038147,30617.30000114441,32072.10000038147,38397.20000076294,39422.20000076294,40708.89999961853,41724.89999961853,42673.80000114441,43633.60000038147,45137.5,60903.39999961853,61843.10000038147,63048.60000038147,64113.30000114441,65019.39999961853,65940,68407.89999961853,70162.5,70995.30000114441,71971,72957.20000076294,73972,80477.89999961853,81406.10000038147,82833.5,84092.60000038147,85425.39999961853,86659.10000038147,87560.70000076294,88435.30000114441,89708.60000038147,90556.80000114441,92157.5,93502.10000038147,94468.10000038147,95549.89999961853,104620.5,106390.30000114441],"key_events":[],"mouse_events":[21390.39999961853,24093,24988.89999961853,26919.5,28157,29479.60000038147,30617.30000114441,32072.10000038147,36721.60000038147,38397.20000076294,39422.20000076294,40708.89999961853,41724.89999961853,42673.80000114441,43633.60000038147,45137.5,57704.89999961853,60399.20000076294,60903.39999961853,61843.10000038147,63048.60000038147,64113.30000114441,65019.39999961853,65940,67199.70000076294,67933.89999961853,68407.89999961853,69718,70162.5,70995.30000114441,71971,72957.20000076294,73972,78555,80477.89999961853,81406.10000038147,82833.5,84092.60000038147,85425.39999961853,86659.10000038147,87560.70000076294,88435.30000114441,89708.60000038147,90556.80000114441,91727.60000038147,92157.5,93502.10000038147,94468.10000038147,95549.89999961853,103134.39999961853,104620.5,106390.30000114441,109170.5],"honeypot":0,"survey":"mace","page":6,"trial_type":"survey-mace","trial_index":14,"time_elapsed":1026365,"internal_node_id":"0.0-14.0","task_version":"prescreen-v0.3","browser_interactions":0},{"responses":{"01":"No","02":"No","03":"Yes","03_ages_17":"17","04":"Yes","04_ages_17":"17","05":"No","06":"No","07":"No"},"rt":37525.10000038147,"item_order":[0,1,2,3,4,5,6],"radio_events":[9745.5,11561.10000038147,15333.30000114441,21127.90000152588,29452.30000114441,34770.40000152588,36116.30000114441],"checkbox_events":[17073.60000038147,22493],"key_events":[],"mouse_events":[6084.10000038147,8573.5,9745.5,11561.10000038147,15333.30000114441,17073.60000038147,21127.90000152588,22493,29452.30000114441,31939.20000076294,34770.40000152588,36116.30000114441,37517.90000152588],"honeypot":0,"survey":"mace","page":7,"trial_type":"survey-mace","trial_index":15,"time_elapsed":1063898,"internal_node_id":"0.0-15.0","task_version":"prescreen-v0.3","browser_interactions":0},{"responses":{"01":"No","02":"Yes","02_ages_3":"3","02_ages_4":"4","02_ages_5":"5","02_ages_6":"6","02_ages_7":"7","02_ages_8":"8","02_ages_9":"9","02_ages_10":"10","02_ages_11":"11","02_ages_12":"12","02_ages_13":"13","02_ages_14":"14","02_ages_15":"15","02_ages_16":"16","02_ages_17":"17","02_ages_18":"18","03":"Yes","03_ages_4":"4","03_ages_5":"5","03_ages_6":"6","03_ages_7":"7","03_ages_8":"8","03_ages_9":"9","03_ages_10":"10","03_ages_11":"11","03_ages_12":"12","03_ages_13":"13","03_ages_14":"14","03_ages_15":"15","03_ages_16":"16","03_ages_17":"17","03_ages_18":"18","04":"Yes","04_ages_4":"4","04_ages_5":"5","04_ages_6":"6","04_ages_7":"7","04_ages_8":"8","04_ages_9":"9","04_ages_10":"10","04_ages_11":"11","04_ages_12":"12","04_ages_13":"13","04_ages_14":"14","04_ages_15":"15","04_ages_16":"16","04_ages_17":"17","04_ages_18":"18"},"rt":100740.20000076294,"item_order":[0,1,2,3],"radio_events":[23789.10000038147,28982,53215.10000038147,75090.39999961853],"checkbox_events":[31005.39999961853,31755.89999961853,32587.89999961853,33815.20000076294,35110.10000038147,36450.39999961853,38956.60000038147,40594.29999923706,41431.29999923706,42263.70000076294,43053,43893,45527.60000038147,46593.5,47915.5,49058.60000038147,55062.29999923706,55797.70000076294,56630.29999923706,58294.10000038147,59441,60300.89999961853,61158.20000076294,62187.70000076294,63308,64333.29999923706,65141.60000038147,66742.79999923706,67681.29999923706,68513.5,69516.70000076294,76703.70000076294,79286.39999961853,82060.60000038147,82988.20000076294,84193.60000038147,85046.60000038147,87148.20000076294,88545.60000038147,89696.89999961853,90523.79999923706,91713.60000038147,92534.10000038147,93510,94439.20000076294,95330.79999923706,96523.60000038147,98188.20000076294],"key_events":[],"mouse_events":[23789.10000038147,28982,31005.39999961853,31755.89999961853,32587.89999961853,33815.20000076294,35110.10000038147,36450.39999961853,37728.89999961853,38956.60000038147,40594.29999923706,41431.29999923706,42263.70000076294,43053,43893,45095.70000076294,45527.60000038147,46593.5,47915.5,49058.60000038147,53215.10000038147,55062.29999923706,55797.70000076294,56630.29999923706,57340.10000038147,58294.10000038147,59441,60300.89999961853,61158.20000076294,62187.70000076294,63308,64333.29999923706,65141.60000038147,66349.10000038147,66742.79999923706,67681.29999923706,68513.5,69516.70000076294,75090.39999961853,76703.70000076294,78071.70000076294,79286.39999961853,82060.60000038147,82988.20000076294,84193.60000038147,85046.60000038147,86232.60000038147,87148.20000076294,88545.60000038147,89696.89999961853,90523.79999923706,91713.60000038147,92534.10000038147,93510,94439.20000076294,95330.79999923706,96523.60000038147,98188.20000076294,100736.60000038147],"honeypot":0,"survey":"mace","page":8,"trial_type":"survey-mace","trial_index":16,"time_elapsed":1164646,"internal_node_id":"0.0-16.0","task_version":"prescreen-v0.3","browser_interactions":0},{"responses":{"01":"Yes","01_ages_4":"4","01_ages_5":"5","01_ages_6":"6","01_ages_7":"7","01_ages_8":"8","01_ages_9":"9","01_ages_10":"10","01_ages_11":"11","01_ages_12":"12","01_ages_13":"13","01_ages_14":"14","01_ages_15":"15","01_ages_16":"16","01_ages_17":"17","01_ages_18":"18","02":"No","03":"Yes","03_ages_1":"1","03_ages_2":"2","03_ages_3":"3","03_ages_4":"4","03_ages_5":"5","03_ages_6":"6","03_ages_7":"7","03_ages_8":"8","03_ages_9":"9","03_ages_10":"10","03_ages_11":"11","03_ages_12":"12","03_ages_13":"13","03_ages_14":"14","03_ages_15":"15","03_ages_16":"16","03_ages_17":"17","03_ages_18":"18","04":"Yes","04_ages_1":"1","04_ages_2":"2","04_ages_3":"3","04_ages_4":"4","04_ages_5":"5","04_ages_6":"6","04_ages_7":"7","04_ages_8":"8","04_ages_9":"9","04_ages_10":"10","04_ages_11":"11","04_ages_12":"12","04_ages_13":"13","04_ages_14":"14","04_ages_15":"15","04_ages_16":"16","04_ages_17":"17","04_ages_18":"18"},"rt":129974.30000114441,"item_order":[0,1,2,3],"radio_events":[24903.60000038147,54921.20000076294,59471.30000114441,106541.40000152588],"checkbox_events":[34782.80000114441,36697.90000152588,37928.10000038147,39075.20000076294,41106.80000114441,42291,43203.40000152588,44180.40000152588,45086.60000038147,45929.90000152588,47295.20000076294,49386.40000152588,50631.80000114441,51965.60000038147,53697.80000114441,61928.20000076294,69535.60000038147,74642.60000038147,76178.5,77523,79283.90000152588,80287.30000114441,81621,82552.5,83591.30000114441,84553.60000038147,85582.80000114441,88382.5,89545.40000152588,90894.80000114441,92022.90000152588,93107.40000152588,94493.80000114441,95390.80000114441,96392.10000038147,108671.60000038147,110173.30000114441,111224.70000076294,112158.90000152588,114312.90000152588,115437.40000152588,116713.20000076294,117618.80000114441,118549.20000076294,119417.10000038147,120220.30000114441,121032.60000038147,122516.70000076294,123561,124429.70000076294,125406.90000152588,126278.90000152588,127177.30000114441],"key_events":[],"mouse_events":[24903.60000038147,34371.10000038147,34782.80000114441,36281,36697.90000152588,37928.10000038147,39075.20000076294,41106.80000114441,42291,43203.40000152588,44180.40000152588,45086.60000038147,45929.90000152588,47295.20000076294,48965.40000152588,49386.40000152588,50631.80000114441,51965.60000038147,53697.80000114441,54921.20000076294,59471.30000114441,61928.20000076294,69535.60000038147,74642.60000038147,76178.5,77523,78822.80000114441,79283.90000152588,80287.30000114441,81621,82552.5,83591.30000114441,84553.60000038147,85582.80000114441,86919.30000114441,87380,88382.5,89545.40000152588,90894.80000114441,92022.90000152588,93107.40000152588,94493.80000114441,95390.80000114441,96392.10000038147,106541.40000152588,108671.60000038147,109728.10000038147,110173.30000114441,111224.70000076294,112158.90000152588,113895.60000038147,114312.90000152588,115437.40000152588,116713.20000076294,117618.80000114441,118549.20000076294,119417.10000038147,120220.30000114441,121032.60000038147,121683.70000076294,122516.70000076294,123561,124429.70000076294,125406.90000152588,126278.90000152588,127177.30000114441,129969.80000114441],"honeypot":0,"survey":"mace","page":9,"trial_type":"survey-mace","trial_index":17,"time_elapsed":1294628,"internal_node_id":"0.0-17.0","task_version":"prescreen-v0.3","browser_interactions":0},{"responses":{"01":"No","02":"No","03":"Yes","03_ages_8":"8","03_ages_9":"9","03_ages_10":"10","03_ages_11":"11","03_ages_12":"12","03_ages_13":"13","03_ages_14":"14","03_ages_15":"15","03_ages_16":"16","03_ages_17":"17","03_ages_18":"18","04":"Yes","04_ages_1":"1","04_ages_2":"2","04_ages_3":"3","04_ages_4":"4","04_ages_5":"5","04_ages_6":"6","04_ages_7":"7","04_ages_8":"8","04_ages_9":"9","04_ages_10":"10","04_ages_11":"11","04_ages_12":"12","04_ages_13":"13","04_ages_14":"14","04_ages_15":"15","04_ages_16":"16","04_ages_17":"17","04_ages_18":"18","05":"Yes","05_ages_9":"9","05_ages_10":"10","05_ages_11":"11","05_ages_12":"12","05_ages_13":"13","05_ages_14":"14","05_ages_15":"15","05_ages_16":"16","06":"Yes","06_ages_17":"17","07":"No","08":"No"},"rt":95149.60000038147,"item_order":[0,1,2,3,4,5,6,7],"radio_events":[6242.60000038147,13212.60000038147,14795.20000076294,31680.90000152588,65719.10000038147,79708.40000152588,88821.10000038147,94181.70000076294],"checkbox_events":[17157.40000152588,18054.40000152588,18945.10000038147,20635.60000038147,21664,22629.10000038147,23467.20000076294,24414.90000152588,25478.60000038147,27402.80000114441,28705.20000076294,37407,38593.40000152588,40406.80000114441,42709.80000114441,43962.80000114441,44929.10000038147,46581.10000038147,48812.20000076294,49973.80000114441,51520.40000152588,52422.10000038147,54453.20000076294,55456,56470.80000114441,57442.20000076294,58485.40000152588,60549.30000114441,61610.40000152588,68304.40000152588,69313.80000114441,70853,71685.80000114441,73045.80000114441,73968.40000152588,75754.5,76653.5,81535.20000076294],"key_events":[],"mouse_events":[6242.60000038147,9152.20000076294,13212.60000038147,14795.20000076294,17157.40000152588,18054.40000152588,18945.10000038147,19839.10000038147,20635.60000038147,21664,22629.10000038147,23467.20000076294,24414.90000152588,25478.60000038147,26989.60000038147,27402.80000114441,28705.20000076294,31680.90000152588,36986,37407,38593.40000152588,40406.80000114441,41782.90000152588,42709.80000114441,43962.80000114441,44929.10000038147,46105.30000114441,46581.10000038147,48407.70000076294,48812.20000076294,49973.80000114441,51520.40000152588,52422.10000038147,53355.90000152588,54453.20000076294,55456,56470.80000114441,57442.20000076294,58485.40000152588,59552.10000038147,60549.30000114441,61610.40000152588,65719.10000038147,68304.40000152588,69313.80000114441,70362.30000114441,70853,71685.80000114441,73045.80000114441,73968.40000152588,74881.30000114441,75754.5,76653.5,79708.40000152588,81535.20000076294,88821.10000038147,94181.70000076294,95142.5],"honeypot":0,"survey":"mace","page":10,"trial_type":"survey-mace","trial_index":18,"time_elapsed":1389789,"internal_node_id":"0.0-18.0","task_version":"prescreen-v0.3","browser_interactions":0,"instructed":0},{"rt":16693.60000038147,"trial_type":"mental-health-alert","trial_index":19,"time_elapsed":1406486,"internal_node_id":"0.0-19.0","task_version":"prescreen-v0.3","interactions":"[{\"event\":\"blur\",\"trial\":2,\"time\":61818},{\"event\":\"focus\",\"trial\":2,\"time\":63394}]"}]