[{"view_history":[{"page_index":0,"viewing_time":1843.300000011921},{"page_index":1,"viewing_time":1313.199999988079},{"page_index":2,"viewing_time":1628},{"page_index":3,"viewing_time":832}],"rt":5618.100000023842,"trial_type":"instructions","trial_index":0,"time_elapsed":5643,"internal_node_id":"0.0-0.0","task_version":"prescreen-v0.3"},{"rt":9905.90000000596,"responses":{"age":"26","gender-categorical":"Female","gender-free-response":"","ethnicity":"Not Hispanic or Latino","race":["White"],"education":"Bachelor degree"},"trial_type":"survey-demo","trial_index":1,"time_elapsed":15567,"internal_node_id":"0.0-1.0","task_version":"prescreen-v0.3"},{"responses":{"Q10":"0","Q07":"1","Q18":"1","Q20":"0","Q11":"0","Q05":"0","Q13":"0","Q09":"0","Q06":"0","Q04":"0","Q02":"0","Q16":"0","Q17":"0","Q01":"0","Q15":"0","Q14":"0","Q08":"0","Q21":"3","Q19":"0","Q03":"0","Q12":"0"},"rt":47198.19999998808,"item_order":[9,6,17,19,10,4,12,8,5,3,1,15,16,0,14,13,7,20,18,2,11],"radio_events":[2674.5,5731.0999999940395,9462.09999999404,11238,12429.40000000596,14538.90000000596,15977.90000000596,17812.30000001192,19908.09999999404,21675.40000000596,23762.69999998808,25670.69999998808,27073,28288.5,30962,32563.59999999404,34082.59999999404,38029.19999998808,43807.09999999404,44768.30000001192,46221.40000000596],"key_events":[],"mouse_events":[2674.5,5731.0999999940395,9462.09999999404,11238,12429.40000000596,14538.90000000596,15977.90000000596,17812.30000001192,19908.09999999404,21675.40000000596,23762.69999998808,25670.69999998808,27073,28288.5,30962,32563.59999999404,34082.59999999404,38029.19999998808,43807.09999999404,44768.30000001192,46221.40000000596,47193.09999999404],"straightlining":0.8571428571428571,"zigzagging":0.2,"honeypot":0,"survey":"sns","trial_type":"survey-template","trial_index":2,"time_elapsed":62777,"internal_node_id":"0.0-2.0","task_version":"prescreen-v0.3","browser_interactions":0,"infrequency":0},{"responses":{"Q10":"2","Q06":"3","Q02":"1","Q11":"1","Q04":"3","Q13":"0","Q09":"2","Q07":"3","Q05":"3","Q12":"3","Q01":"3","Q08":"3","Q03":"3"},"rt":34480.39999997616,"item_order":[9,5,1,10,3,12,8,6,4,11,0,7,2],"radio_events":[2862.0999999940395,6071.399999976158,8039.799999982119,10594,17489.899999976158,19083.29999998212,21738.69999998808,23735.69999998808,25552.09999999404,27198.09999999404,29000.59999999404,31828.09999999404,33720.69999998808],"key_events":[],"mouse_events":[2862.0999999940395,6071.399999976158,8039.799999982119,10594,17489.899999976158,19083.29999998212,21738.69999998808,23735.69999998808,25552.09999999404,27198.09999999404,29000.59999999404,31828.09999999404,33720.69999998808,34477.29999998212],"straightlining":0.6153846153846154,"zigzagging":0.25,"honeypot":0,"survey":"bisbas","trial_type":"survey-template","trial_index":3,"time_elapsed":97268,"internal_node_id":"0.0-3.0","task_version":"prescreen-v0.3","browser_interactions":0,"infrequency":0},{"responses":{"Q01":"3","Q02":"3","Q03":"3"},"rt":12919.90000000596,"radio_events":[3666,6264.200000017881,12003.59999999404],"key_events":[],"mouse_events":[3666,6264.200000017881,12003.59999999404,12918.40000000596],"survey":"map","page":1,"trial_type":"survey-map","trial_index":4,"time_elapsed":110195,"internal_node_id":"0.0-4.0","task_version":"prescreen-v0.3","browser_interactions":0},{"responses":{"Q04":"2","Q05":"2","Q06":"2"},"rt":9098.799999982119,"radio_events":[3262.2999999821186,5012.799999982119,8135.9000000059605],"key_events":[],"mouse_events":[3262.2999999821186,5012.799999982119,8135.9000000059605,9097.40000000596],"survey":"map","page":2,"trial_type":"survey-map","trial_index":5,"time_elapsed":119300,"internal_node_id":"0.0-5.0","task_version":"prescreen-v0.3","browser_interactions":0},{"responses":{"Q07":"4","Q08":"4","Q09":"3"},"rt":7564.200000017881,"radio_events":[3314.5,5566.100000023842,6577.100000023842],"key_events":[],"mouse_events":[3314.5,5566.100000023842,6577.100000023842,7562.800000011921],"survey":"map","page":3,"trial_type":"survey-map","trial_index":6,"time_elapsed":126869,"internal_node_id":"0.0-6.0","task_version":"prescreen-v0.3","browser_interactions":0},{"responses":{"Q10":"4","Q11":"4","Q12":"2","Q13":"1","Q16":"0","Q14":"2","Q15":"2"},"rt":21151.69999998808,"radio_events":[3215.5,5171.5999999940395,9395.899999976158,13009.59999999404,15033.5,18838.79999998212,20088],"key_events":[],"mouse_events":[3215.5,5171.5999999940395,9395.899999976158,13009.59999999404,15033.5,18838.79999998212,20088,21148.69999998808],"survey":"map","page":4,"trial_type":"survey-map","trial_index":7,"time_elapsed":148030,"internal_node_id":"0.0-7.0","task_version":"prescreen-v0.3","browser_interactions":0,"infrequency":0},{"view_history":[{"page_index":0,"viewing_time":1738.199999988079},{"page_index":1,"viewing_time":2070.7000000178814}],"rt":3810.0999999940395,"trial_type":"instructions","trial_index":8,"time_elapsed":151842,"internal_node_id":"0.0-8.0","task_version":"prescreen-v0.3"},{"responses":{"01":"Yes","01_ages_10":"10","01_ages_11":"11","01_ages_12":"12","01_ages_13":"13","01_ages_14":"14","01_ages_15":"15","02":"Yes","02_ages_10":"10","02_ages_11":"11","02_ages_12":"12","02_ages_13":"13","02_ages_14":"14","02_ages_15":"15","03":"Yes","03_ages_15":"15","03_ages_16":"16","04":"No","05":"No","06":"No"},"rt":33639,"item_order":[0,1,2,3,4,5],"radio_events":[2809.5,14374.40000000596,25363,29759.5,31082.5,32776.09999999404],"checkbox_events":[6765.800000011921,7446.5999999940395,9368.800000011921,10059.800000011921,10774.800000011921,11439.59999999404,15402.199999988079,16081.90000000596,16879.5,17562.69999998808,18516.40000000596,19199.09999999404,27129.80000001192,28157.30000001192],"key_events":[],"mouse_events":[0,2809.5,6765.800000011921,7446.5999999940395,8152.699999988079,8777.90000000596,9368.800000011921,10059.800000011921,10774.800000011921,11439.59999999404,14374.40000000596,15402.199999988079,16081.90000000596,16879.5,17562.69999998808,18516.40000000596,19199.09999999404,25363,27129.80000001192,28157.30000001192,29759.5,31082.5,32776.09999999404,33631],"honeypot":0,"survey":"mace","page":1,"trial_type":"survey-mace","trial_index":9,"time_elapsed":185493,"internal_node_id":"0.0-9.0","task_version":"prescreen-v0.3","browser_interactions":0},{"responses":{"01":"No","02":"No","03":"No","04":"No","05":"No","06":"Yes","06_ages_10":"10","06_ages_11":"11","06_ages_12":"12","06_ages_13":"13","06_ages_14":"14","06_ages_15":"15","06_ages_16":"16","06_ages_17":"17","06_ages_18":"18","07":"Yes","07_ages_10":"10","07_ages_11":"11","07_ages_12":"12","07_ages_13":"13","07_ages_14":"14","07_ages_15":"15","07_ages_16":"16","07_ages_17":"17","07_ages_18":"18","08":"No"},"rt":31101.5,"item_order":[0,1,2,3,4,5,6,7],"radio_events":[3132.5,5828.700000017881,7110.800000011921,8268.700000017881,10167.40000000596,11334.300000011921,22420.90000000596,30366],"checkbox_events":[13183.40000000596,14080.200000017881,14892.09999999404,15551.09999999404,16315.200000017881,16981.40000000596,17745.09999999404,18731.09999999404,19453.09999999404,23489.59999999404,24136.5,24887.09999999404,25500.30000001192,26135.90000000596,26875.70000001788,27539.90000000596,28199,29029.09999999404],"key_events":[],"mouse_events":[3132.5,5828.700000017881,7110.800000011921,8268.700000017881,10167.40000000596,11334.300000011921,13183.40000000596,14080.200000017881,14892.09999999404,15551.09999999404,16315.200000017881,16981.40000000596,17745.09999999404,18731.09999999404,19453.09999999404,22420.90000000596,23489.59999999404,24136.5,24887.09999999404,25500.30000001192,26135.90000000596,26875.70000001788,27539.90000000596,28199,29029.09999999404,30366,31092.30000001192],"honeypot":0,"survey":"mace","page":2,"trial_type":"survey-mace","trial_index":10,"time_elapsed":216602,"internal_node_id":"0.0-10.0","task_version":"prescreen-v0.3","browser_interactions":0},{"responses":{"01":"No","02":"No","03":"No","04":"No"},"rt":7048.9000000059605,"item_order":[0,1,2,3],"radio_events":[2364.2999999821186,3961.2999999821186,5029.199999988079,6328],"checkbox_events":[],"key_events":[],"mouse_events":[2364.2999999821186,3961.2999999821186,5029.199999988079,6328,7042.9000000059605],"honeypot":0,"survey":"mace","page":3,"trial_type":"survey-mace","trial_index":11,"time_elapsed":223658,"internal_node_id":"0.0-11.0","task_version":"prescreen-v0.3","browser_interactions":0},{"responses":{"01":"Yes","01_ages_15":"15","01_ages_16":"16","02":"No"},"rt":18902.09999999404,"item_order":[0,1],"radio_events":[8470.899999976158,18126.899999976158],"checkbox_events":[11650.799999982119,12546.399999976158,13746.699999988079,14305.5,15110.5,16277],"key_events":[],"mouse_events":[8470.899999976158,11650.799999982119,12546.399999976158,13746.699999988079,14305.5,15110.5,16277,18126.899999976158,18899.59999999404],"honeypot":0,"survey":"mace","page":4,"trial_type":"survey-mace","trial_index":12,"time_elapsed":242565,"internal_node_id":"0.0-12.0","task_version":"prescreen-v0.3","browser_interactions":0},{"responses":{"01":"No","02":"No","03":"No","04":"No","05":"No"},"rt":8414.299999982119,"item_order":[0,1,2,3,4],"radio_events":[3204.199999988079,4338,5858.299999982119,6787.199999988079,7600.699999988079],"checkbox_events":[],"key_events":[],"mouse_events":[3204.199999988079,4338,5858.299999982119,6787.199999988079,7600.699999988079,8406.5],"honeypot":0,"survey":"mace","page":5,"trial_type":"survey-mace","trial_index":13,"time_elapsed":250987,"internal_node_id":"0.0-13.0","task_version":"prescreen-v0.3","browser_interactions":0},{"responses":{"01":"Yes","01_ages_10":"10","01_ages_11":"11","01_ages_12":"12","01_ages_13":"13","02":"Yes","02_ages_10":"10","02_ages_11":"11","02_ages_12":"12","02_ages_13":"13","03":"No","04":"Yes","04_ages_10":"10","04_ages_11":"11","04_ages_12":"12","04_ages_13":"13","05":"Yes","05_ages_10":"10","05_ages_11":"11","05_ages_12":"12","05_ages_13":"13"},"rt":29124.80000001192,"item_order":[0,1,2,3,4],"radio_events":[4531.5,10571.5,18795.20000001788,20153.70000001788,24820.20000001788],"checkbox_events":[7917.5,8582.90000000596,11597.59999999404,12289.200000017881,12979.300000011921,13571.200000017881,14613.300000011921,15206.59999999404,20942.5,21813.5,22493.09999999404,23184.30000001192,25665.5,26323.09999999404,26925.5,27583.20000001788],"key_events":[],"mouse_events":[4531.5,7917.5,8582.90000000596,10571.5,11597.59999999404,12289.200000017881,12979.300000011921,13571.200000017881,14613.300000011921,15206.59999999404,18795.20000001788,20153.70000001788,20942.5,21813.5,22493.09999999404,23184.30000001192,24820.20000001788,25665.5,26323.09999999404,26925.5,27583.20000001788,29119.90000000596],"honeypot":0,"survey":"mace","page":6,"trial_type":"survey-mace","trial_index":14,"time_elapsed":280118,"internal_node_id":"0.0-14.0","task_version":"prescreen-v0.3","browser_interactions":0},{"responses":{"01":"No","02":"No","03":"Yes","03_ages_10":"10","03_ages_11":"11","03_ages_12":"12","03_ages_13":"13","04":"No","05":"No","06":"No","07":"No"},"rt":20525.30000001192,"item_order":[0,1,2,3,4,5,6],"radio_events":[3215.2000000178814,4664.100000023842,6776.200000017881,12528.700000017881,17139.30000001192,18511.80000001192,19717.30000001192],"checkbox_events":[8203.5,8877.40000000596,9857.5,10679.300000011921],"key_events":[],"mouse_events":[3215.2000000178814,4664.100000023842,6776.200000017881,8203.5,8877.40000000596,9857.5,10679.300000011921,12528.700000017881,17139.30000001192,18511.80000001192,19717.30000001192,20516.70000001788],"honeypot":0,"survey":"mace","page":7,"trial_type":"survey-mace","trial_index":15,"time_elapsed":300650,"internal_node_id":"0.0-15.0","task_version":"prescreen-v0.3","browser_interactions":0},{"responses":{"01":"No","02":"No","03":"No","04":"No"},"rt":9467.800000011921,"item_order":[0,1,2,3],"radio_events":[4226.9000000059605,6635.0999999940395,7538.800000011921,8763.09999999404],"checkbox_events":[],"key_events":[],"mouse_events":[4226.9000000059605,5328.5,6635.0999999940395,7538.800000011921,8763.09999999404,9461.90000000596],"honeypot":0,"survey":"mace","page":8,"trial_type":"survey-mace","trial_index":16,"time_elapsed":310124,"internal_node_id":"0.0-16.0","task_version":"prescreen-v0.3","browser_interactions":0},{"responses":{"01":"Yes","01_ages_1":"1","01_ages_2":"2","01_ages_3":"3","01_ages_4":"4","01_ages_5":"5","01_ages_6":"6","01_ages_7":"7","01_ages_8":"8","01_ages_9":"9","01_ages_10":"10","01_ages_11":"11","01_ages_12":"12","01_ages_13":"13","01_ages_14":"14","01_ages_15":"15","01_ages_16":"16","01_ages_17":"17","01_ages_18":"18","02":"Yes","02_ages_1":"1","02_ages_2":"2","02_ages_3":"3","02_ages_4":"4","02_ages_5":"5","02_ages_6":"6","02_ages_7":"7","02_ages_8":"8","02_ages_9":"9","02_ages_10":"10","02_ages_11":"11","02_ages_12":"12","02_ages_13":"13","02_ages_14":"14","02_ages_15":"15","02_ages_16":"16","02_ages_17":"17","02_ages_18":"18","03":"Yes","03_ages_1":"1","03_ages_2":"2","03_ages_3":"3","03_ages_4":"4","03_ages_5":"5","03_ages_6":"6","03_ages_7":"7","03_ages_8":"8","03_ages_9":"9","03_ages_10":"10","03_ages_11":"11","03_ages_12":"12","03_ages_13":"13","03_ages_14":"14","03_ages_15":"15","03_ages_16":"16","03_ages_17":"17","03_ages_18":"18","04":"Yes","04_ages_1":"1","04_ages_2":"2","04_ages_3":"3","04_ages_4":"4","04_ages_5":"5","04_ages_6":"6","04_ages_7":"7","04_ages_8":"8","04_ages_9":"9","04_ages_10":"10","04_ages_11":"11","04_ages_12":"12","04_ages_13":"13","04_ages_14":"14","04_ages_15":"15","04_ages_16":"16","04_ages_17":"17","04_ages_18":"18"},"rt":67237.59999999404,"item_order":[0,1,2,3],"radio_events":[2212.7999999821186,20648,39265.79999998212,53334.79999998212],"checkbox_events":[4885.299999982119,5656.4000000059605,6430.199999988079,7759.9000000059605,8393,9107.799999982119,10841.699999988079,11400.5,12255.5,13151.09999999404,13792.299999982119,14498.799999982119,15221.5,15937.5,16619.09999999404,17292.59999999404,17983.59999999404,18698,21921.79999998212,23373.79999998212,24100.09999999404,24765.90000000596,25396,26030.40000000596,26680.19999998808,27524.69999998808,28200,28873.79999998212,30032.59999999404,31027.19999998808,31980.19999998808,32610.19999998808,33284.29999998212,33976.90000000596,35226.19999998808,35922.40000000596,40407.90000000596,41059.5,41656.59999999404,42306.09999999404,42947.29999998212,43622.09999999404,44182.40000000596,44861.69999998808,45519.09999999404,46162.29999998212,46817.19999998808,47492.29999998212,48036.90000000596,48569.29999998212,49111.40000000596,49678.90000000596,50614.69999998808,51280.29999998212,54866.69999998808,55523.5,56204.09999999404,56894.40000000596,57510.5,58102.5,58794.19999998808,59685.59999999404,60304.69999998808,60889.79999998212,61464,62003.19999998808,62703.19999998808,63271.90000000596,63790,64300.19999998808,64866.29999998212,65967.09999999404],"key_events":[],"mouse_events":[2212.7999999821186,4885.299999982119,5656.4000000059605,6430.199999988079,7143.4000000059605,7759.9000000059605,8393,9107.799999982119,9691.5,10307.799999982119,10841.699999988079,11400.5,12255.5,13151.09999999404,13792.299999982119,14498.799999982119,15221.5,15937.5,16619.09999999404,17292.59999999404,17983.59999999404,18698,20648,21921.79999998212,22668,23373.79999998212,24100.09999999404,24765.90000000596,25396,26030.40000000596,26680.19999998808,27524.69999998808,28200,28873.79999998212,29529.09999999404,30032.59999999404,30640.5,31027.19999998808,31980.19999998808,32610.19999998808,33284.29999998212,33976.90000000596,34765.79999998212,35226.19999998808,35922.40000000596,39265.79999998212,40407.90000000596,41059.5,41656.59999999404,42306.09999999404,42947.29999998212,43622.09999999404,44182.40000000596,44861.69999998808,45519.09999999404,46162.29999998212,46817.19999998808,47492.29999998212,48036.90000000596,48569.29999998212,49111.40000000596,49678.90000000596,50614.69999998808,51280.29999998212,53334.79999998212,54866.69999998808,55523.5,56204.09999999404,56894.40000000596,57510.5,58102.5,58794.19999998808,59685.59999999404,60304.69999998808,60889.79999998212,61464,62003.19999998808,62703.19999998808,63271.90000000596,63790,64300.19999998808,64866.29999998212,65425.09999999404,65967.09999999404,67231.90000000596],"honeypot":0,"survey":"mace","page":9,"trial_type":"survey-mace","trial_index":17,"time_elapsed":377368,"internal_node_id":"0.0-17.0","task_version":"prescreen-v0.3","browser_interactions":0},{"responses":{"01":"No","02":"No","03":"No","04":"No","05":"No","06":"Yes","06_ages_17":"17","07":"Yes","07_ages_1":"1","07_ages_2":"2","07_ages_3":"3","07_ages_4":"4","07_ages_5":"5","07_ages_6":"6","07_ages_7":"7","07_ages_8":"8","07_ages_9":"9","07_ages_10":"10","07_ages_11":"11","07_ages_12":"12","07_ages_13":"13","07_ages_14":"14","07_ages_15":"15","07_ages_16":"16","07_ages_17":"17","07_ages_18":"18","08":"Yes","08_ages_1":"1","08_ages_2":"2","08_ages_3":"3","08_ages_4":"4","08_ages_5":"5","08_ages_6":"6","08_ages_7":"7","08_ages_8":"8","08_ages_9":"9","08_ages_10":"10","08_ages_11":"11","08_ages_12":"12","08_ages_13":"13","08_ages_14":"14","08_ages_15":"15","08_ages_16":"16","08_ages_17":"17","08_ages_18":"18"},"rt":50921.69999998808,"item_order":[0,1,2,3,4,5,6,7],"radio_events":[2485.699999988079,3379.199999988079,4967.5999999940395,7389.199999988079,8818.699999988079,12898,30151.19999998808,48696.29999998212],"checkbox_events":[10849.799999982119,14645.5,15782.299999982119,16543.09999999404,17284,17885.899999976158,18531.899999976158,19175.69999998808,19767.19999998808,21213.19999998808,21993.69999998808,22656.69999998808,23355.5,24146.69999998808,24918.5,26168.09999999404,26744.09999999404,27472,28140.09999999404,31296.59999999404,32468.29999998212,33162.59999999404,33766.19999998808,34482,35132.69999998808,35756.5,36921.59999999404,37570.59999999404,38788.59999999404,39396.29999998212,39995.89999997616,40549.39999997616,41288.09999999404,42475.59999999404,43118.29999998212,43744.59999999404,44301.79999998212],"key_events":[],"mouse_events":[2485.699999988079,3379.199999988079,4967.5999999940395,6049.899999976158,7389.199999988079,8818.699999988079,10849.799999982119,12898,14645.5,15782.299999982119,16543.09999999404,17284,17885.899999976158,18531.899999976158,19175.69999998808,19767.19999998808,20586.79999998212,21213.19999998808,21993.69999998808,22656.69999998808,23355.5,24146.69999998808,24918.5,25631.59999999404,26168.09999999404,26744.09999999404,27472,28140.09999999404,30151.19999998808,31296.59999999404,31946.29999998212,32468.29999998212,33162.59999999404,33766.19999998808,34482,35132.69999998808,35756.5,36397.59999999404,36921.59999999404,37570.59999999404,38273,38788.59999999404,39396.29999998212,39995.89999997616,40549.39999997616,41288.09999999404,41960,42475.59999999404,43118.29999998212,43744.59999999404,44301.79999998212,45648.79999998212,48696.29999998212,50915.19999998808],"honeypot":0,"survey":"mace","page":10,"trial_type":"survey-mace","trial_index":18,"time_elapsed":428300,"internal_node_id":"0.0-18.0","task_version":"prescreen-v0.3","browser_interactions":0,"instructed":0},{"rt":2617.199999988079,"trial_type":"mental-health-alert","trial_index":19,"time_elapsed":430920,"internal_node_id":"0.0-19.0","task_version":"prescreen-v0.3","interactions":"[]"}]