[{"view_history":[{"page_index":0,"viewing_time":4330.899999999994},{"page_index":1,"viewing_time":5161},{"page_index":2,"viewing_time":4121.200000000012},{"page_index":3,"viewing_time":1605.1000000000058}],"rt":15219,"trial_type":"instructions","trial_index":0,"time_elapsed":15231,"internal_node_id":"0.0-0.0","task_version":"prescreen-v0.3"},{"rt":15304,"responses":{"age":"34","gender-categorical":"Female","gender-free-response":"","ethnicity":"Not Hispanic or Latino","race":["White"],"education":"Bachelor degree"},"trial_type":"survey-demo","trial_index":1,"time_elapsed":30546,"internal_node_id":"0.0-1.0","task_version":"prescreen-v0.3"},{"responses":{"Q20":"2","Q03":"1","Q12":"0","Q06":"1","Q01":"2","Q07":"0","Q05":"1","Q10":"0","Q21":"3","Q04":"0","Q18":"0","Q13":"0","Q17":"0","Q08":"0","Q02":"0","Q15":"3","Q16":"3","Q09":"0","Q11":"0","Q14":"0","Q19":"1"},"rt":112740.6,"item_order":[19,2,11,5,0,6,4,9,20,3,17,12,16,7,1,14,15,8,10,13,18],"radio_events":[11056.700000000012,11574.5,18147.399999999994,22368.600000000006,25310,33533.100000000006,41456.899999999994,46063.80000000002,51631.80000000002,56763.30000000002,61003.69999999998,63400.399999999994,66536.30000000002,69875.30000000002,76132.00000000003,83373.69999999998,87415.80000000002,93687.6,96491.4,100554.69999999998,111866.00000000003],"key_events":[],"mouse_events":[11056.700000000012,11574.5,18147.399999999994,22368.600000000006,25310,32532.899999999994,33533.100000000006,41456.899999999994,45341.600000000006,46063.80000000002,51631.80000000002,56763.30000000002,61003.69999999998,63400.399999999994,66536.30000000002,69875.30000000002,76132.00000000003,83373.69999999998,87415.80000000002,93687.6,96491.4,100554.69999999998,111866.00000000003,112738.50000000003],"straightlining":0.5714285714285714,"zigzagging":0.55,"honeypot":0,"survey":"sns","trial_type":"survey-template","trial_index":2,"time_elapsed":143289,"internal_node_id":"0.0-2.0","task_version":"prescreen-v0.3","browser_interactions":0,"infrequency":0},{"responses":{"Q12":"3","Q09":"3","Q08":"3","Q03":"2","Q07":"3","Q06":"3","Q01":"2","Q10":"3","Q02":"3","Q05":"3","Q13":"0","Q04":"2","Q11":"3"},"rt":116970.90000000002,"item_order":[11,8,7,2,6,5,0,9,1,4,12,3,10],"radio_events":[12367.5,16334.600000000035,20684.300000000047,27886.600000000035,29183.800000000047,31888.300000000047,35027.30000000005,37417.30000000005,41144.80000000005,43205.5,45836.80000000005,49846.100000000035,60106,64613.70000000001,65564.5],"key_events":[],"mouse_events":[12367.5,16334.600000000035,20684.300000000047,27886.600000000035,29183.800000000047,31888.300000000047,35027.30000000005,37417.30000000005,41144.80000000005,43205.5,45836.80000000005,49846.100000000035,60106,64613.70000000001,65110.80000000005,65564.5,116967.40000000002],"straightlining":0.6923076923076923,"zigzagging":0.5,"honeypot":0,"survey":"bisbas","trial_type":"survey-template","trial_index":3,"time_elapsed":260269,"internal_node_id":"0.0-3.0","task_version":"prescreen-v0.3","browser_interactions":0,"infrequency":0},{"responses":{"Q01":"2","Q02":"1","Q03":"4"},"rt":29569.899999999965,"radio_events":[11437.699999999953,18323.199999999953,23127.399999999965,28755.5],"key_events":[],"mouse_events":[11437.699999999953,18323.199999999953,23127.399999999965,28755.5,29568.099999999977],"survey":"map","page":1,"trial_type":"survey-map","trial_index":4,"time_elapsed":289848,"internal_node_id":"0.0-4.0","task_version":"prescreen-v0.3","browser_interactions":0},{"responses":{"Q04":"1","Q05":"1","Q06":"3"},"rt":29086.5,"radio_events":[6362.200000000012,20391.20000000001,27411.100000000035],"key_events":[],"mouse_events":[6362.200000000012,20391.20000000001,27411.100000000035,28065.5,29085],"survey":"map","page":2,"trial_type":"survey-map","trial_index":5,"time_elapsed":318940,"internal_node_id":"0.0-5.0","task_version":"prescreen-v0.3","browser_interactions":0},{"responses":{"Q07":"4","Q08":"4","Q09":"2"},"rt":16828.20000000001,"radio_events":[8157.5,12656.399999999965,15934.700000000012],"key_events":[],"mouse_events":[8157.5,12656.399999999965,15934.700000000012,16826.79999999999],"survey":"map","page":3,"trial_type":"survey-map","trial_index":6,"time_elapsed":335768,"internal_node_id":"0.0-6.0","task_version":"prescreen-v0.3","browser_interactions":0},{"responses":{"Q10":"0","Q11":"2","Q12":"0","Q13":"4","Q16":"0","Q14":"0","Q15":"0"},"rt":65220.19999999995,"radio_events":[8088.099999999977,11525.699999999953,17549.099999999977,23256.5,27515,37641.40000000002,60727.79999999993,64077.19999999995],"key_events":[],"mouse_events":[8088.099999999977,11525.699999999953,17549.099999999977,23256.5,27515,37641.40000000002,59765.40000000002,60727.79999999993,64077.19999999995,65217.29999999993],"survey":"map","page":4,"trial_type":"survey-map","trial_index":7,"time_elapsed":400995,"internal_node_id":"0.0-7.0","task_version":"prescreen-v0.3","browser_interactions":0,"infrequency":0},{"view_history":[{"page_index":0,"viewing_time":5765.300000000047},{"page_index":1,"viewing_time":5597.79999999993}],"rt":11363.599999999977,"trial_type":"instructions","trial_index":8,"time_elapsed":412362,"internal_node_id":"0.0-8.0","task_version":"prescreen-v0.3"},{"responses":{"01":"No","02":"Yes","02_ages_5":"5","02_ages_6":"6","02_ages_7":"7","02_ages_8":"8","02_ages_9":"9","02_ages_10":"10","02_ages_11":"11","02_ages_12":"12","02_ages_13":"13","02_ages_14":"14","02_ages_15":"15","02_ages_16":"16","02_ages_17":"17","02_ages_18":"18","03":"Yes","03_ages_3":"3","03_ages_4":"4","03_ages_5":"5","03_ages_6":"6","03_ages_7":"7","03_ages_8":"8","03_ages_9":"9","03_ages_10":"10","03_ages_11":"11","03_ages_12":"12","03_ages_13":"13","03_ages_14":"14","03_ages_15":"15","03_ages_16":"16","03_ages_17":"17","03_ages_18":"18","04":"Yes","04_ages_5":"5","04_ages_6":"6","04_ages_7":"7","04_ages_8":"8","04_ages_9":"9","04_ages_10":"10","04_ages_11":"11","04_ages_12":"12","04_ages_13":"13","04_ages_14":"14","04_ages_15":"15","04_ages_16":"16","04_ages_17":"17","04_ages_18":"18","05":"No","06":"No"},"rt":75817.40000000002,"item_order":[0,1,2,3,4,5],"radio_events":[18920.70000000007,41854.20000000007,55665.90000000002,68504.5,71458.30000000005,73786.6000000001],"checkbox_events":[27221.800000000047,27596.70000000007,28220.5,28695.800000000047,29102.20000000007,31093.400000000023,31628.800000000047,32143.5,32726.300000000047,33095.10000000009,33511.30000000005,33927,34303.60000000009,34937.20000000007,45343.60000000009,46528.60000000009,46965,47292,47659.20000000007,47996,48412.30000000005,48748.5,49065.90000000002,49432.20000000007,49818.30000000005,50254.80000000005,50640.90000000002,51047.90000000002,51443.30000000005,51800,52137.10000000009,52612.70000000007,61738.5,62035.5,62678.40000000002,62956.60000000009,63411.70000000007,63887.20000000007,64309.10000000009,64709.70000000007,65086.10000000009,65403.30000000005,65729.30000000005,66047,66314.40000000002,66523.1000000001],"key_events":[],"mouse_events":[0.2000000000698492,18011.400000000023,18920.70000000007,27221.800000000047,27596.70000000007,28220.5,28695.800000000047,29102.20000000007,31093.400000000023,31628.800000000047,32143.5,32726.300000000047,33095.10000000009,33511.30000000005,33927,34303.60000000009,34937.20000000007,41854.20000000007,45343.60000000009,46528.60000000009,46965,47292,47659.20000000007,47996,48412.30000000005,48748.5,49065.90000000002,49432.20000000007,49818.30000000005,50254.80000000005,50640.90000000002,51047.90000000002,51443.30000000005,51800,52137.10000000009,52612.70000000007,55665.90000000002,61738.5,62035.5,62678.40000000002,62956.60000000009,63411.70000000007,63887.20000000007,64309.10000000009,64709.70000000007,65086.10000000009,65403.30000000005,65729.30000000005,66047,66314.40000000002,66523.1000000001,68504.5,71458.30000000005,73786.6000000001,75808.40000000002],"honeypot":0,"survey":"mace","page":1,"trial_type":"survey-mace","trial_index":9,"time_elapsed":488200,"internal_node_id":"0.0-9.0","task_version":"prescreen-v0.3","browser_interactions":0},{"responses":{"01":"No","02":"No","03":"No","04":"No","05":"No","06":"No","06_ages_12":"12","06_ages_13":"13","06_ages_14":"14","06_ages_15":"15","07":"Yes","07_ages_3":"3","07_ages_4":"4","07_ages_5":"5","07_ages_6":"6","07_ages_7":"7","08":"Yes","08_ages_3":"3","08_ages_4":"4","08_ages_5":"5","08_ages_6":"6","08_ages_7":"7"},"rt":66973.29999999999,"item_order":[0,1,2,3,4,5,6,7],"radio_events":[4999.5,19139.300000000047,19482,19897.800000000047,20185.699999999953,23613.099999999977,27733.5,33870.80000000005,43071.100000000035,54772.199999999895],"checkbox_events":[29725.800000000047,30180.800000000047,30508.199999999953,30834.300000000047,45389.90000000008,45675.49999999994,46280.40000000008,46617.100000000035,46923.99999999994,57040.40000000008,57277.699999999895,57486.40000000008,57684.199999999895,59557.100000000035,62239.99999999994,62875.40000000008],"key_events":[],"mouse_events":[4999.5,19139.300000000047,19482,19897.800000000047,20185.699999999953,23613.099999999977,27733.5,29725.800000000047,30180.800000000047,30508.199999999953,30834.300000000047,33870.80000000005,43071.100000000035,45389.90000000008,45675.49999999994,46280.40000000008,46617.100000000035,46923.99999999994,54772.199999999895,57040.40000000008,57277.699999999895,57486.40000000008,57684.199999999895,59557.100000000035,62239.99999999994,62875.40000000008,66959.49999999994],"honeypot":0,"survey":"mace","page":2,"trial_type":"survey-mace","trial_index":10,"time_elapsed":555192,"internal_node_id":"0.0-10.0","task_version":"prescreen-v0.3","browser_interactions":0},{"responses":{"01":"No","02":"No","03":"No","04":"Yes","04_ages_12":"12","04_ages_13":"13","04_ages_14":"14","04_ages_15":"15","04_ages_16":"16","04_ages_17":"17","04_ages_18":"18"},"rt":23061.800000000047,"item_order":[0,1,2,3],"radio_events":[7936.40000000014,20707.600000000093,21639.100000000093,22233],"checkbox_events":[13406,13910.300000000047,14930.600000000093,15554.200000000186,17288.5,17645.40000000014,17992,18260.200000000186,18496.90000000014],"key_events":[],"mouse_events":[7936.40000000014,13406,13910.300000000047,14930.600000000093,15554.200000000186,17288.5,17645.40000000014,17992,18260.200000000186,18496.90000000014,20707.600000000093,21065.600000000093,21639.100000000093,22233,23055.600000000093],"honeypot":0,"survey":"mace","page":3,"trial_type":"survey-mace","trial_index":11,"time_elapsed":578265,"internal_node_id":"0.0-11.0","task_version":"prescreen-v0.3","browser_interactions":0},{"responses":{"01":"Yes","01_ages_9":"9","01_ages_10":"10","01_ages_14":"14","01_ages_15":"15","01_ages_16":"16","01_ages_17":"17","02":"Yes","02_ages_17":"17"},"rt":35308.60000000009,"item_order":[0,1],"radio_events":[8921.5,9892.40000000014],"checkbox_events":[13568.800000000047,17788.100000000093,19660.800000000047,20037.100000000093,21186.5,29895.5,33393.30000000005],"key_events":[],"mouse_events":[8921.5,9892.40000000014,13568.800000000047,17788.100000000093,19660.800000000047,20037.100000000093,21186.5,29895.5,33393.30000000005,35305.60000000009],"honeypot":0,"survey":"mace","page":4,"trial_type":"survey-mace","trial_index":12,"time_elapsed":613579,"internal_node_id":"0.0-12.0","task_version":"prescreen-v0.3","browser_interactions":0},{"responses":{"01":"Yes","01_ages_6":"6","01_ages_7":"7","01_ages_8":"8","01_ages_9":"9","01_ages_10":"10","01_ages_11":"11","01_ages_12":"12","01_ages_13":"13","02":"No","03":"No","04":"No","05":"No"},"rt":31487.699999999953,"item_order":[0,1,2,3,4],"radio_events":[9624.699999999953,25236.799999999814,26128.699999999953,29794.799999999814,30686.09999999986],"checkbox_events":[15182.5,15864.299999999814,16271.199999999953,16735.899999999907,17082.5,17430.09999999986,17717.09999999986,18053.299999999814],"key_events":[],"mouse_events":[9624.699999999953,15182.5,15864.299999999814,16271.199999999953,16735.899999999907,17082.5,17430.09999999986,17717.09999999986,18053.299999999814,24327.299999999814,25236.799999999814,26128.699999999953,29794.799999999814,30686.09999999986,31479.199999999953],"honeypot":0,"survey":"mace","page":5,"trial_type":"survey-mace","trial_index":13,"time_elapsed":645076,"internal_node_id":"0.0-13.0","task_version":"prescreen-v0.3","browser_interactions":0},{"responses":{"01":"Yes","01_ages_7":"7","01_ages_8":"8","01_ages_9":"9","01_ages_10":"10","01_ages_11":"11","01_ages_12":"12","01_ages_13":"13","01_ages_14":"14","01_ages_15":"15","02":"Yes","02_ages_7":"7","02_ages_8":"8","02_ages_9":"9","02_ages_10":"10","02_ages_11":"11","02_ages_12":"12","02_ages_13":"13","02_ages_14":"14","02_ages_15":"15","02_ages_16":"16","03":"No","04":"Yes","04_ages_11":"11","04_ages_12":"12","04_ages_13":"13","04_ages_14":"14","04_ages_15":"15","04_ages_16":"16","04_ages_17":"17","04_ages_18":"18","05":"Yes","05_ages_4":"4","05_ages_5":"5","05_ages_6":"6","05_ages_7":"7","05_ages_8":"8","05_ages_9":"9","05_ages_10":"10","05_ages_11":"11","05_ages_12":"12","05_ages_13":"13","05_ages_14":"14","05_ages_15":"15"},"rt":73642,"item_order":[0,1,2,3,4],"radio_events":[12679.40000000014,23866.100000000093,48835.200000000186,49968.30000000005,60773.90000000014,64182.10000000009],"checkbox_events":[14889.100000000093,15126.200000000186,15305.600000000093,16216.40000000014,16969.300000000047,17503.90000000014,17880,18197,18514.600000000093,18910.800000000047,19277.200000000186,19683.200000000186,20010.700000000186,20328.200000000186,20723.600000000093,21050.300000000047,21278.700000000186,25530.200000000186,25766.700000000186,26064.800000000047,26440.5,26767.600000000093,27123.90000000014,27451.200000000186,27788.100000000093,28600.100000000093,31969.200000000186,32553.600000000093,33078.200000000186,51897.90000000014,52420.90000000014,52837,53114.90000000014,53293.10000000009,53560.60000000009,53876.80000000005,54045.200000000186,54164.700000000186,54769.60000000009,55254.60000000009,55473,66055.30000000005,66322.40000000014,66697.30000000005,67025.1000000001,67460.5,68629.30000000005,68996.1000000001,69362.40000000014,69749.30000000005,71611.70000000019],"key_events":[],"mouse_events":[12679.40000000014,14889.100000000093,15126.200000000186,15305.600000000093,16216.40000000014,16969.300000000047,17503.90000000014,17880,18197,18514.600000000093,18910.800000000047,19277.200000000186,19683.200000000186,20010.700000000186,20328.200000000186,20723.600000000093,21050.300000000047,21278.700000000186,23866.100000000093,25530.200000000186,25766.700000000186,26064.800000000047,26440.5,26767.600000000093,27123.90000000014,27451.200000000186,27788.100000000093,28600.100000000093,31969.200000000186,32553.600000000093,33078.200000000186,48835.200000000186,49968.30000000005,51897.90000000014,52420.90000000014,52837,53114.90000000014,53293.10000000009,53560.60000000009,53876.80000000005,54045.200000000186,54164.700000000186,54769.60000000009,55254.60000000009,55473,60773.90000000014,64182.10000000009,66055.30000000005,66322.40000000014,66697.30000000005,67025.1000000001,67460.5,68629.30000000005,68996.1000000001,69362.40000000014,69749.30000000005,71611.70000000019,73634.5],"honeypot":0,"survey":"mace","page":6,"trial_type":"survey-mace","trial_index":14,"time_elapsed":718729,"internal_node_id":"0.0-14.0","task_version":"prescreen-v0.3","browser_interactions":0},{"responses":{"01":"No","02":"No","03":"No","04":"No","05":"No","06":"Yes","06_ages_9":"9","06_ages_10":"10","06_ages_11":"11","06_ages_12":"12","06_ages_13":"13","06_ages_14":"14","06_ages_15":"15","06_ages_16":"16","06_ages_17":"17","06_ages_18":"18","07":"Yes","07_ages_9":"9","07_ages_10":"10","07_ages_11":"11","07_ages_12":"12","07_ages_13":"13","07_ages_14":"14","07_ages_15":"15","07_ages_16":"16","07_ages_17":"17","07_ages_18":"18"},"rt":56854.19999999995,"item_order":[0,1,2,3,4,5,6],"radio_events":[22014.899999999907,22747.5,24367.800000000047,27467.300000000047,29998.899999999907,31728,32133.699999999953,34709.5,50858.69999999995],"checkbox_events":[40358.10000000009,40722.80000000005,47063.10000000009,47330.80000000005,47826.69999999995,48202.19999999995,48667.80000000005,49084.69999999995,49520.39999999991,49818,52602.5,52849.5,53265.60000000009,53849.69999999995,54354.80000000005,54681.80000000005,55128.5,55523.89999999991,55921.30000000005,56316.69999999995],"key_events":[],"mouse_events":[22014.899999999907,22747.5,23660.800000000047,24367.800000000047,27467.300000000047,29998.899999999907,31728,32133.699999999953,32868.19999999995,34709.5,40358.10000000009,40722.80000000005,47063.10000000009,47330.80000000005,47826.69999999995,48202.19999999995,48667.80000000005,49084.69999999995,49520.39999999991,49818,50858.69999999995,52602.5,52849.5,53265.60000000009,53849.69999999995,54354.80000000005,54681.80000000005,55128.5,55523.89999999991,55921.30000000005,56316.69999999995,56842.89999999991],"honeypot":0,"survey":"mace","page":7,"trial_type":"survey-mace","trial_index":15,"time_elapsed":775597,"internal_node_id":"0.0-15.0","task_version":"prescreen-v0.3","browser_interactions":0},{"responses":{"01":"No","02":"Yes","02_ages_1":"1","02_ages_2":"2","02_ages_3":"3","02_ages_4":"4","02_ages_5":"5","02_ages_6":"6","02_ages_7":"7","02_ages_8":"8","02_ages_9":"9","02_ages_10":"10","02_ages_11":"11","02_ages_12":"12","02_ages_13":"13","02_ages_14":"14","02_ages_15":"15","02_ages_16":"16","02_ages_17":"17","02_ages_18":"18","03":"Yes","03_ages_1":"1","03_ages_2":"2","03_ages_3":"3","03_ages_4":"4","03_ages_5":"5","03_ages_6":"6","03_ages_7":"7","03_ages_8":"8","03_ages_9":"9","03_ages_10":"10","03_ages_15":"15","03_ages_16":"16","03_ages_17":"17","03_ages_18":"18","04":"Yes","04_ages_5":"5","04_ages_6":"6","04_ages_7":"7","04_ages_8":"8","04_ages_9":"9","04_ages_10":"10","04_ages_11":"11","04_ages_12":"12","04_ages_13":"13","04_ages_14":"14","04_ages_15":"15","04_ages_16":"16","04_ages_17":"17","04_ages_18":"18"},"rt":82221,"item_order":[0,1,2,3],"radio_events":[9080.200000000186,14855.90000000014,27169.90000000014,73428.90000000014],"checkbox_events":[16471.40000000014,16689,16886.600000000093,17153.800000000047,17480.600000000093,17847.200000000186,18292.90000000014,18896.90000000014,19184.800000000047,19591,20086.700000000186,20502.700000000186,20913.5,21272.40000000014,21689.40000000014,22096.300000000047,22484.5,22902.100000000093,23348.5,23706.40000000014,28083.700000000186,28341.600000000093,28590.100000000093,28878.200000000186,29146.5,29434.700000000186,29812,30368.100000000093,30895.5,31302.200000000186,34349.90000000014,34616.60000000009,35201.40000000014,35607.5,75080.5,75357.20000000019,75555.20000000019,75813,76718.70000000019,77002.30000000005,77413,77701.70000000019,78608.1000000001,78836,79014.70000000019,79218.20000000019,79386.5,79547,79693.1000000001,80472.5,80650.70000000019,80810.70000000019],"key_events":[],"mouse_events":[9080.200000000186,14855.90000000014,16471.40000000014,16689,16886.600000000093,17153.800000000047,17480.600000000093,17847.200000000186,18292.90000000014,18896.90000000014,19184.800000000047,19591,20086.700000000186,20502.700000000186,20913.5,21272.40000000014,21689.40000000014,22096.300000000047,22484.5,22902.100000000093,23348.5,23706.40000000014,27169.90000000014,28083.700000000186,28341.600000000093,28590.100000000093,28878.200000000186,29146.5,29434.700000000186,29812,30368.100000000093,30895.5,31302.200000000186,34349.90000000014,34616.60000000009,35201.40000000014,35607.5,73428.90000000014,75080.5,75357.20000000019,75555.20000000019,75813,76718.70000000019,77002.30000000005,77413,77701.70000000019,78608.1000000001,78836,79014.70000000019,79218.20000000019,79386.5,79547,79693.1000000001,80472.5,80650.70000000019,80810.70000000019,82215.30000000005],"honeypot":0,"survey":"mace","page":8,"trial_type":"survey-mace","trial_index":16,"time_elapsed":857824,"internal_node_id":"0.0-16.0","task_version":"prescreen-v0.3","browser_interactions":0},{"responses":{"01":"Yes","01_ages_1":"1","01_ages_2":"2","01_ages_3":"3","01_ages_4":"4","01_ages_5":"5","01_ages_6":"6","01_ages_7":"7","01_ages_8":"8","01_ages_9":"9","01_ages_10":"10","01_ages_11":"11","01_ages_12":"12","01_ages_13":"13","01_ages_14":"14","01_ages_15":"15","01_ages_16":"16","01_ages_17":"17","01_ages_18":"18","02":"No","03":"Yes","03_ages_1":"1","03_ages_2":"2","03_ages_3":"3","03_ages_4":"4","03_ages_5":"5","03_ages_6":"6","03_ages_7":"7","03_ages_8":"8","03_ages_9":"9","03_ages_10":"10","03_ages_11":"11","03_ages_12":"12","03_ages_13":"13","03_ages_14":"14","03_ages_15":"15","03_ages_16":"16","03_ages_17":"17","03_ages_18":"18","04":"Yes","04_ages_1":"1","04_ages_2":"2","04_ages_3":"3","04_ages_4":"4","04_ages_5":"5","04_ages_6":"6","04_ages_7":"7","04_ages_8":"8","04_ages_9":"9","04_ages_10":"10","04_ages_11":"11","04_ages_12":"12","04_ages_13":"13","04_ages_14":"14","04_ages_15":"15","04_ages_16":"16","04_ages_17":"17","04_ages_18":"18"},"rt":196292,"item_order":[0,1,2,3],"radio_events":[128907.80000000005,172050.80000000005,176321,188067.6000000001],"checkbox_events":[135546,135832.40000000014,136139.5,136377.69999999995,136664.19999999995,137011.30000000005,137426.90000000014,137783.80000000005,138081.69999999995,138536.40000000014,138908.1000000001,139494.40000000014,139734.30000000005,140878.30000000005,141156,141418.69999999995,141647.19999999995,141866,142064.6000000001,142193.1000000001,177312.5,177587.19999999995,178072.40000000014,178409.90000000014,179915.69999999995,180179.69999999995,180388.1000000001,180576.6000000001,180775.69999999995,180979.40000000014,181183.69999999995,181391.19999999995,181581.90000000014,181769.1000000001,181928.30000000005,182106.90000000014,182267.90000000014,182444.90000000014,183450.30000000005,184509,189325.90000000014,189582.69999999995,189840.19999999995,190028.69999999995,190296.69999999995,190504.69999999995,190703,190942,191138.1000000001,191356.40000000014,191554.40000000014,191772.6000000001,191960.1000000001,192174.30000000005,192362.30000000005,192531.40000000014,192721.40000000014,192929.6000000001,193118.19999999995,193316.19999999995,193416.40000000014,194273.5,194847.80000000005,195428],"key_events":[],"mouse_events":[128907.80000000005,135546,135832.40000000014,136139.5,136377.69999999995,136664.19999999995,137011.30000000005,137426.90000000014,137783.80000000005,138081.69999999995,138536.40000000014,138908.1000000001,139494.40000000014,139734.30000000005,140878.30000000005,141156,141418.69999999995,141647.19999999995,141866,142064.6000000001,142193.1000000001,172050.80000000005,176321,177312.5,177587.19999999995,178072.40000000014,178409.90000000014,179915.69999999995,180179.69999999995,180388.1000000001,180576.6000000001,180775.69999999995,180979.40000000014,181183.69999999995,181391.19999999995,181581.90000000014,181769.1000000001,181928.30000000005,182106.90000000014,182267.90000000014,182444.90000000014,183450.30000000005,184509,188067.6000000001,189325.90000000014,189582.69999999995,189840.19999999995,190028.69999999995,190296.69999999995,190504.69999999995,190703,190942,191138.1000000001,191356.40000000014,191554.40000000014,191772.6000000001,191960.1000000001,192174.30000000005,192362.30000000005,192531.40000000014,192721.40000000014,192929.6000000001,193118.19999999995,193316.19999999995,193416.40000000014,194273.5,194847.80000000005,195428,196286.19999999995],"honeypot":0,"survey":"mace","page":9,"trial_type":"survey-mace","trial_index":17,"time_elapsed":1054129,"internal_node_id":"0.0-17.0","task_version":"prescreen-v0.3","browser_interactions":0},{"responses":{"01":"No","02":"No","03":"Yes","03_ages_3":"3","03_ages_4":"4","03_ages_5":"5","03_ages_6":"6","03_ages_7":"7","03_ages_8":"8","03_ages_9":"9","03_ages_10":"10","03_ages_11":"11","03_ages_12":"12","03_ages_13":"13","03_ages_14":"14","03_ages_15":"15","03_ages_16":"16","03_ages_17":"17","03_ages_18":"18","04":"No","05":"No","06":"Yes","06_ages_17":"17","07":"Yes","07_ages_1":"1","07_ages_2":"2","07_ages_3":"3","07_ages_4":"4","07_ages_5":"5","07_ages_6":"6","07_ages_7":"7","07_ages_8":"8","07_ages_9":"9","07_ages_10":"10","07_ages_11":"11","07_ages_12":"12","07_ages_13":"13","07_ages_14":"14","07_ages_15":"15","07_ages_16":"16","07_ages_17":"17","07_ages_18":"18","08":"No"},"rt":93217.6000000001,"item_order":[0,1,2,3,4,5,6,7],"radio_events":[2322.899999999907,3413.100000000093,5493.300000000047,37764.60000000009,50455.10000000009,57338.5,61035,92026.5],"checkbox_events":[6850.399999999907,7049.100000000093,7217.5,14061.800000000047,14345.5,14564.699999999953,14742.100000000093,14982.300000000047,15169.899999999907,15369,15557.800000000047,15766.800000000047,15945.300000000047,16143.800000000047,16279.600000000093,16652.399999999907,17336.100000000093,17882.5,18081,19106.600000000093,19334.899999999907,19463.800000000047,20374.699999999953,20536.300000000047,58815.60000000009,62748.30000000005,62926,63139.30000000005,63606.60000000009,64093,64450.89999999991,64828.19999999995,65265.10000000009,65683.19999999995,66090.69999999995,74149.8999999999,74379.19999999995,74556.5,74775.19999999995,75003.3999999999,75240.3999999999,75488.3999999999,76047.69999999995],"key_events":[],"mouse_events":[2322.899999999907,3413.100000000093,5493.300000000047,6850.399999999907,7049.100000000093,7217.5,14061.800000000047,14345.5,14564.699999999953,14742.100000000093,14982.300000000047,15169.899999999907,15369,15557.800000000047,15766.800000000047,15945.300000000047,16143.800000000047,16279.600000000093,16484.5,16652.399999999907,17336.100000000093,17882.5,18081,19106.600000000093,19334.899999999907,19463.800000000047,20374.699999999953,20536.300000000047,37764.60000000009,50455.10000000009,57338.5,58815.60000000009,61035,62748.30000000005,62926,63139.30000000005,63606.60000000009,64093,64450.89999999991,64828.19999999995,65265.10000000009,65683.19999999995,66090.69999999995,74149.8999999999,74379.19999999995,74556.5,74775.19999999995,75003.3999999999,75240.3999999999,75488.3999999999,76047.69999999995,92026.5,93206.5],"honeypot":0,"survey":"mace","page":10,"trial_type":"survey-mace","trial_index":18,"time_elapsed":1147364,"internal_node_id":"0.0-18.0","task_version":"prescreen-v0.3","browser_interactions":0,"instructed":0},{"rt":11832.199999999953,"trial_type":"mental-health-alert","trial_index":19,"time_elapsed":1159201,"internal_node_id":"0.0-19.0","task_version":"prescreen-v0.3","interactions":"[]"}]