[{"view_history":[{"page_index":0,"viewing_time":2585.5},{"page_index":1,"viewing_time":4327.5},{"page_index":2,"viewing_time":3750},{"page_index":3,"viewing_time":1370}],"rt":12033.399999976158,"trial_type":"instructions","trial_index":0,"time_elapsed":12049,"internal_node_id":"0.0-0.0","task_version":"prescreen-v0.3"},{"rt":9017.400000035763,"responses":{"age":"42","gender-categorical":"Female","gender-free-response":"","ethnicity":"Not Hispanic or Latino","race":["White"],"education":"Master degree or higher"},"trial_type":"survey-demo","trial_index":1,"time_elapsed":21069,"internal_node_id":"0.0-1.0","task_version":"prescreen-v0.3"},{"responses":{"Q15":"2","Q04":"1","Q21":"3","Q06":"0","Q19":"2","Q03":"0","Q20":"1","Q07":"0","Q12":"2","Q17":"0","Q08":"1","Q18":"1","Q11":"1","Q09":"1","Q14":"2","Q13":"1","Q10":"0","Q01":"0","Q02":"0","Q16":"0","Q05":"0"},"rt":103946.10000002384,"item_order":[14,3,20,5,18,2,19,6,11,16,7,17,10,8,13,12,9,0,1,15,4],"radio_events":[8270.600000023842,14200.399999976158,20934.399999976158,25724.399999976158,34338.19999998808,38004.19999998808,39986.30000001192,47946.39999997616,53200.19999998808,60020.10000002384,62466.19999998808,67468.10000002384,70190.39999997616,73760,80454.19999998808,83552,88468.5,90458.19999998808,93736.30000001192,96898,102734],"key_events":[],"mouse_events":[8270.600000023842,14200.399999976158,20934.399999976158,25724.399999976158,34338.19999998808,38004.19999998808,39986.30000001192,47946.39999997616,53200.19999998808,58502.39999997616,60020.10000002384,62466.19999998808,67468.10000002384,70190.39999997616,73760,80454.19999998808,83552,87610.19999998808,88468.5,90458.19999998808,93736.30000001192,96898,102734,103944],"straightlining":0.42857142857142855,"zigzagging":0.4,"honeypot":0,"survey":"sns","trial_type":"survey-template","trial_index":2,"time_elapsed":125019,"internal_node_id":"0.0-2.0","task_version":"prescreen-v0.3","browser_interactions":0,"infrequency":0},{"responses":{"Q11":"2","Q06":"2","Q13":"0","Q01":"1","Q05":"3","Q03":"1","Q12":"1","Q08":"3","Q07":"3","Q09":"2","Q04":"2","Q02":"3","Q10":"2"},"rt":59224.299999952316,"item_order":[10,5,12,0,4,2,11,7,6,8,3,1,9],"radio_events":[6365,12504.899999976158,15179,19411,22406.899999976158,28074.899999976158,33163,36378.89999997616,39656.799999952316,42306.89999997616,47182.89999997616,49188.89999997616,54512.799999952316,58514.89999997616],"key_events":[],"mouse_events":[6365,11083.199999988079,11665,12504.899999976158,15179,19411,21776.799999952316,22406.899999976158,28074.899999976158,33163,36378.89999997616,38430.89999997616,39138.89999997616,39656.799999952316,42306.89999997616,47182.89999997616,49188.89999997616,54512.799999952316,58514.89999997616,59222.799999952316],"straightlining":0.38461538461538464,"zigzagging":0.3333333333333333,"honeypot":0,"survey":"bisbas","trial_type":"survey-template","trial_index":3,"time_elapsed":184246,"internal_node_id":"0.0-3.0","task_version":"prescreen-v0.3","browser_interactions":0,"infrequency":0},{"responses":{"Q01":"3","Q02":"3","Q03":"3"},"rt":17344.5,"radio_events":[4893.600000023842,12247.700000047684,15707.5],"key_events":[],"mouse_events":[4893.600000023842,12247.700000047684,15707.5,17343.600000023842],"survey":"map","page":1,"trial_type":"survey-map","trial_index":4,"time_elapsed":201593,"internal_node_id":"0.0-4.0","task_version":"prescreen-v0.3","browser_interactions":0},{"responses":{"Q04":"2","Q05":"2","Q06":"2"},"rt":17980,"radio_events":[11587.399999976158,14811.399999976158,17405.5],"key_events":[],"mouse_events":[10729.5,11587.399999976158,14811.399999976158,17405.5,17979.19999998808],"survey":"map","page":2,"trial_type":"survey-map","trial_index":5,"time_elapsed":219574,"internal_node_id":"0.0-5.0","task_version":"prescreen-v0.3","browser_interactions":0},{"responses":{"Q07":"4","Q08":"4","Q09":"2"},"rt":15386.600000023842,"radio_events":[8057.900000035763,11557.900000035763,14452],"key_events":[],"mouse_events":[7429.900000035763,8057.900000035763,11557.900000035763,14452,15385.900000035763],"survey":"map","page":3,"trial_type":"survey-map","trial_index":6,"time_elapsed":234962,"internal_node_id":"0.0-6.0","task_version":"prescreen-v0.3","browser_interactions":0},{"responses":{"Q10":"3","Q11":"3","Q12":"1","Q13":"2","Q16":"0","Q14":"2","Q15":"2"},"rt":43834.89999997616,"radio_events":[4087.899999976158,5085.899999976158,9143.599999964237,15315.699999988079,19883.899999976158,24820,33775.59999996424,43125.89999997616],"key_events":[],"mouse_events":[4087.899999976158,5085.899999976158,9143.599999964237,15315.699999988079,19395.69999998808,19883.899999976158,24820,33123.799999952316,33775.59999996424,42449.799999952316,43125.89999997616,43833.59999996424],"survey":"map","page":4,"trial_type":"survey-map","trial_index":7,"time_elapsed":278799,"internal_node_id":"0.0-7.0","task_version":"prescreen-v0.3","browser_interactions":0,"infrequency":0},{"view_history":[{"page_index":0,"viewing_time":2881.199999988079},{"page_index":1,"viewing_time":2942.099999964237}],"rt":5823.699999988079,"trial_type":"instructions","trial_index":8,"time_elapsed":284623,"internal_node_id":"0.0-8.0","task_version":"prescreen-v0.3"},{"responses":{"01":"No","02":"No","03":"No","04":"No","05":"No","06":"No"},"rt":18286.600000023842,"item_order":[0,1,2,3,4,5],"radio_events":[7968,11105.800000011921,12615.699999988079,14117.899999976158,15539.800000011921,17734.100000023842],"checkbox_events":[],"key_events":[],"mouse_events":[0.10000002384185791,7968,11105.800000011921,12615.699999988079,14117.899999976158,15539.800000011921,16735.80000001192,17734.100000023842,18284.19999998808],"honeypot":0,"survey":"mace","page":1,"trial_type":"survey-mace","trial_index":9,"time_elapsed":302915,"internal_node_id":"0.0-9.0","task_version":"prescreen-v0.3","browser_interactions":0},{"responses":{"01":"No","02":"No","03":"Yes","03_ages_4":"4","03_ages_5":"5","03_ages_6":"6","03_ages_7":"7","03_ages_8":"8","04":"No","05":"No","06":"No","07":"No","08":"No"},"rt":34167.19999998808,"item_order":[0,1,2,3,4,5,6,7],"radio_events":[2306.100000023842,4178.100000023842,5546.199999988079,20988,24596.5,25744,29070,33434],"checkbox_events":[12150.300000011921,12678.199999988079,13148,13582.100000023842,14148.100000023842],"key_events":[],"mouse_events":[2306.100000023842,4178.100000023842,5546.199999988079,12150.300000011921,12678.199999988079,13148,13582.100000023842,14148.100000023842,20988,24596.5,25744,27428.100000023842,28473.100000023842,29070,30966.100000023842,33434,34164.10000002384],"honeypot":0,"survey":"mace","page":2,"trial_type":"survey-mace","trial_index":10,"time_elapsed":337086,"internal_node_id":"0.0-10.0","task_version":"prescreen-v0.3","browser_interactions":0},{"responses":{"01":"No","02":"No","03":"No","04":"No"},"rt":11231.900000035763,"item_order":[0,1,2,3],"radio_events":[5130.199999988079,7212.100000023842,8840,10145.900000035763],"checkbox_events":[],"key_events":[],"mouse_events":[5130.199999988079,7212.100000023842,8840,10145.900000035763,10506,11230.100000023842],"honeypot":0,"survey":"mace","page":3,"trial_type":"survey-mace","trial_index":11,"time_elapsed":348320,"internal_node_id":"0.0-11.0","task_version":"prescreen-v0.3","browser_interactions":0},{"responses":{"01":"No","02":"No"},"rt":7443.100000023842,"item_order":[0,1],"radio_events":[4720.199999988079,6796.199999988079],"checkbox_events":[],"key_events":[],"mouse_events":[4720.199999988079,6796.199999988079,7442.100000023842],"honeypot":0,"survey":"mace","page":4,"trial_type":"survey-mace","trial_index":12,"time_elapsed":355765,"internal_node_id":"0.0-12.0","task_version":"prescreen-v0.3","browser_interactions":0},{"responses":{"01":"No","02":"No","03":"No","04":"No","05":"No"},"rt":15965,"item_order":[0,1,2,3,4],"radio_events":[6362.900000035763,8548.700000047684,10026.700000047684,12520.700000047684,15547],"checkbox_events":[],"key_events":[],"mouse_events":[6362.900000035763,8548.700000047684,10026.700000047684,12520.700000047684,15547,15962.900000035763],"honeypot":0,"survey":"mace","page":5,"trial_type":"survey-mace","trial_index":13,"time_elapsed":371732,"internal_node_id":"0.0-13.0","task_version":"prescreen-v0.3","browser_interactions":0},{"responses":{"01":"Yes","01_ages_6":"6","01_ages_7":"7","01_ages_8":"8","01_ages_9":"9","01_ages_10":"10","01_ages_11":"11","01_ages_12":"12","01_ages_13":"13","01_ages_14":"14","01_ages_15":"15","02":"Yes","02_ages_6":"6","02_ages_7":"7","02_ages_8":"8","02_ages_9":"9","02_ages_10":"10","02_ages_11":"11","02_ages_12":"12","02_ages_13":"13","02_ages_14":"14","02_ages_15":"15","02_ages_16":"16","02_ages_17":"17","02_ages_18":"18","03":"No","04":"No","05":"No"},"rt":58831.69999998808,"item_order":[0,1,2,3,4],"radio_events":[10939.5,36153.30000001192,53867.39999997616,56917.30000001192,58113.19999998808],"checkbox_events":[17481.399999976158,18033.30000001192,18567.599999964237,19171.30000001192,19715.30000001192,20305.5,21051.69999998808,22239.5,22749.5,25619.5,26311.19999998808,28779.399999976158,38999.39999997616,39409.19999998808,39841.30000001192,40305.69999998808,41547.30000001192,42427.19999998808,42867.30000001192,44573.39999997616,45265.30000001192,45979.30000001192,47309.39999997616,48275.39999997616,48723.19999998808],"key_events":[],"mouse_events":[10939.5,17481.399999976158,18033.30000001192,18567.599999964237,19171.30000001192,19715.30000001192,20305.5,21051.69999998808,22239.5,22749.5,25619.5,26311.19999998808,28779.399999976158,36153.30000001192,38999.39999997616,39409.19999998808,39841.30000001192,40305.69999998808,40769.39999997616,41547.30000001192,41915.39999997616,42427.19999998808,42867.30000001192,43253.39999997616,43803.30000001192,44573.39999997616,45265.30000001192,45627.19999998808,45979.30000001192,47309.39999997616,48275.39999997616,48723.19999998808,53867.39999997616,56917.30000001192,58113.19999998808,58829.59999996424],"honeypot":0,"survey":"mace","page":6,"trial_type":"survey-mace","trial_index":14,"time_elapsed":430567,"internal_node_id":"0.0-14.0","task_version":"prescreen-v0.3","browser_interactions":0},{"responses":{"01":"No","02":"Yes","02_ages_17":"17","03":"No","04":"No","05":"No","06":"Yes","06_ages_17":"17","07":"Yes","07_ages_17":"17"},"rt":32682.100000023842,"item_order":[0,1,2,3,4,5,6],"radio_events":[2927.5,9375.200000047684,10405.200000047684,21569.30000001192,23133.100000023842,24903.100000023842,25885,30107],"checkbox_events":[15931.600000023842,19413.100000023842,20089.5,27417,31019.30000001192],"key_events":[],"mouse_events":[2927.5,9375.200000047684,10405.200000047684,15931.600000023842,19413.100000023842,20089.5,21569.30000001192,23133.100000023842,24903.100000023842,25885,27417,30107,31019.30000001192,32679.100000023842],"honeypot":0,"survey":"mace","page":7,"trial_type":"survey-mace","trial_index":15,"time_elapsed":463251,"internal_node_id":"0.0-15.0","task_version":"prescreen-v0.3","browser_interactions":0},{"responses":{"01":"No","01_ages_12":"12","01_ages_13":"13","01_ages_14":"14","01_ages_15":"15","01_ages_16":"16","01_ages_17":"17","01_ages_18":"18","02":"Yes","02_ages_12":"12","02_ages_13":"13","02_ages_14":"14","02_ages_15":"15","02_ages_16":"16","02_ages_17":"17","02_ages_18":"18","03":"Yes","03_ages_5":"5","03_ages_6":"6","03_ages_7":"7","03_ages_8":"8","03_ages_9":"9","03_ages_10":"10","03_ages_11":"11","03_ages_12":"12","03_ages_13":"13","03_ages_14":"14","03_ages_15":"15","03_ages_16":"16","03_ages_17":"17","03_ages_18":"18","04":"No"},"rt":54948.30000001192,"item_order":[0,1,2,3],"radio_events":[5480.5,24986.600000023842,32132.5,38184.60000002384,54334.5],"checkbox_events":[8932.399999976158,9410.600000023842,9968.5,10448.5,11188.5,12486.399999976158,13004.5,26150.5,26652.399999976158,27030.5,27486.5,27996.399999976158,28460.5,28964.80000001192,43074.5,43530.39999997616,43900.5,44262.39999997616,45016.39999997616,45472.39999997616,45818.30000001192,47092.5,47870.30000001192,48626.5,49340.39999997616,49852.5,51072.5,51582.39999997616],"key_events":[],"mouse_events":[5480.5,8932.399999976158,9410.600000023842,9968.5,10448.5,11188.5,12486.399999976158,13004.5,24986.600000023842,26150.5,26652.399999976158,27030.5,27486.5,27996.399999976158,28460.5,28964.80000001192,32132.5,38184.60000002384,43074.5,43530.39999997616,43900.5,44262.39999997616,44640.39999997616,45016.39999997616,45472.39999997616,45818.30000001192,46236.39999997616,47092.5,47462.5,47870.30000001192,48626.5,49340.39999997616,49852.5,51072.5,51582.39999997616,54334.5,54946.39999997616],"honeypot":0,"survey":"mace","page":8,"trial_type":"survey-mace","trial_index":16,"time_elapsed":518202,"internal_node_id":"0.0-16.0","task_version":"prescreen-v0.3","browser_interactions":0},{"responses":{"01":"Yes","01_ages_1":"1","01_ages_2":"2","01_ages_3":"3","01_ages_4":"4","01_ages_5":"5","01_ages_6":"6","01_ages_7":"7","01_ages_8":"8","01_ages_9":"9","01_ages_10":"10","01_ages_11":"11","01_ages_12":"12","01_ages_13":"13","01_ages_14":"14","01_ages_15":"15","01_ages_16":"16","01_ages_17":"17","01_ages_18":"18","02":"Yes","02_ages_1":"1","02_ages_2":"2","02_ages_3":"3","02_ages_4":"4","02_ages_5":"5","02_ages_6":"6","02_ages_7":"7","02_ages_8":"8","02_ages_9":"9","02_ages_10":"10","02_ages_11":"11","02_ages_12":"12","02_ages_13":"13","02_ages_14":"14","02_ages_15":"15","02_ages_16":"16","02_ages_17":"17","02_ages_18":"18","03":"Yes","03_ages_1":"1","03_ages_2":"2","03_ages_3":"3","03_ages_4":"4","03_ages_5":"5","03_ages_6":"6","03_ages_7":"7","03_ages_8":"8","03_ages_9":"9","03_ages_10":"10","03_ages_11":"11","03_ages_12":"12","03_ages_13":"13","03_ages_14":"14","03_ages_15":"15","03_ages_16":"16","03_ages_17":"17","03_ages_18":"18","04":"Yes","04_ages_1":"1","04_ages_2":"2","04_ages_3":"3","04_ages_4":"4","04_ages_5":"5","04_ages_6":"6","04_ages_7":"7","04_ages_8":"8","04_ages_9":"9","04_ages_10":"10","04_ages_11":"11","04_ages_12":"12","04_ages_13":"13","04_ages_14":"14","04_ages_15":"15","04_ages_16":"16","04_ages_17":"17","04_ages_18":"18"},"rt":67684,"item_order":[0,1,2,3],"radio_events":[2614,22608.19999998808,36554.09999996424,53458.80000001192],"checkbox_events":[6002.099999964237,6450.099999964237,7670.099999964237,9030.199999988079,9556.199999988079,10200.199999988079,11254.199999988079,11718.099999964237,12252,12802.199999988079,13432.300000011921,14344,15720.199999988079,17048.099999964237,17716.19999998808,18110.099999964237,18432,19244.099999964237,24172.099999964237,24698.099999964237,25532.19999998808,26020,26798.399999976158,27449.899999976158,28048.19999998808,28708,29432.099999964237,29848.099999964237,30272.30000001192,30751.899999976158,31224,31704.399999976158,32168.099999964237,32694,33316.09999996424,34156.19999998808,37860.09999996424,38206.30000001192,38582,38968.39999997616,39936,40258.59999996424,40628,41019.89999997616,41406.09999996424,42521.89999997616,44220,44880.09999996424,45548.09999996424,46092.19999998808,46752,47216,47570.19999998808,48104,54904.09999996424,55447.89999997616,56068,57538,57948.19999998808,58356.09999996424,58796.09999996424,59560.09999996424,59967.80000001192,60566,62060.19999998808,63484.89999997616,64262,64694,65150.09999996424,65684.09999996424,66470,67226],"key_events":[],"mouse_events":[2614,4478.099999964237,4910.199999988079,5452,6002.099999964237,6450.099999964237,7011.199999988079,7670.099999964237,8598.199999988079,9030.199999988079,9556.199999988079,10200.199999988079,11254.199999988079,11718.099999964237,12252,12802.199999988079,13164.199999988079,13432.300000011921,14344,15720.199999988079,16560.5,17048.099999964237,17716.19999998808,18110.099999964237,18432,18856.099999964237,19244.099999964237,22608.19999998808,23566.399999976158,24172.099999964237,24698.099999964237,25234,25532.19999998808,26020,26798.399999976158,27449.899999976158,28048.19999998808,28708,29432.099999964237,29848.099999964237,30272.30000001192,30751.899999976158,31224,31704.399999976158,32168.099999964237,32694,33316.09999996424,34156.19999998808,36554.09999996424,37860.09999996424,38206.30000001192,38582,38968.39999997616,39392,39936,40258.59999996424,40628,41019.89999997616,41406.09999996424,41782.30000001192,42176.09999996424,42521.89999997616,44220,44880.09999996424,45548.09999996424,46092.19999998808,46752,47216,47570.19999998808,48104,53458.80000001192,54904.09999996424,55447.89999997616,56068,57224,57538,57948.19999998808,58356.09999996424,58796.09999996424,59174.39999997616,59560.09999996424,59967.80000001192,60566,62060.19999998808,62430.09999996424,62910.5,63484.89999997616,63900.09999996424,64262,64694,65150.09999996424,65684.09999996424,66470,67226,67682.09999996424],"honeypot":0,"survey":"mace","page":9,"trial_type":"survey-mace","trial_index":17,"time_elapsed":585888,"internal_node_id":"0.0-17.0","task_version":"prescreen-v0.3","browser_interactions":0},{"responses":{"01":"No","02":"No","03":"No","04":"No","05":"Yes","05_ages_10":"10","05_ages_11":"11","05_ages_12":"12","05_ages_13":"13","05_ages_14":"14","05_ages_15":"15","06":"Yes","06_ages_17":"17","07":"Yes","07_ages_1":"1","07_ages_2":"2","07_ages_3":"3","07_ages_4":"4","07_ages_5":"5","07_ages_6":"6","07_ages_7":"7","07_ages_8":"8","07_ages_9":"9","07_ages_10":"10","07_ages_11":"11","07_ages_12":"12","07_ages_13":"13","07_ages_14":"14","07_ages_15":"15","07_ages_16":"16","07_ages_17":"17","07_ages_18":"18","08":"Yes","08_ages_1":"1","08_ages_2":"2","08_ages_3":"3","08_ages_4":"4","08_ages_5":"5","08_ages_6":"6","08_ages_7":"7","08_ages_8":"8","08_ages_9":"9","08_ages_10":"10","08_ages_11":"11","08_ages_12":"12","08_ages_13":"13","08_ages_14":"14","08_ages_15":"15","08_ages_16":"16","08_ages_17":"17","08_ages_18":"18"},"rt":58122.80000001192,"item_order":[0,1,2,3,4,5,6,7],"radio_events":[4973.600000023842,5727.5,10783.5,12811.600000023842,16483.400000035763,24305.30000001192,30257.100000023842,44047.200000047684],"checkbox_events":[17985.30000001192,18409.30000001192,19981.5,20383.400000035763,21091.200000047684,21837.5,25635.30000001192,33859.40000003576,34377.200000047684,34895.60000002384,35399.40000003576,35807.40000003576,36201.40000003576,36547.30000001192,37403.40000003576,37749.40000003576,38347.200000047684,38747.200000047684,39337.5,39785.40000003576,40195.30000001192,40643.5,41201.30000001192,41789.40000003576,42143.40000003576,46357.200000047684,47121.200000047684,47765.40000003576,48189.40000003576,48827.40000003576,49691.200000047684,50093.30000001192,50525.200000047684,50893.200000047684,51781.40000003576,54045.200000047684,54471.200000047684,54895.10000002384,55767.30000001192,56145.30000001192,56585.30000001192,57411.200000047684,57789.40000003576],"key_events":[],"mouse_events":[4973.600000023842,5727.5,10783.5,12811.600000023842,16483.400000035763,17985.30000001192,18409.30000001192,19981.5,20383.400000035763,21091.200000047684,21837.5,24305.30000001192,25635.30000001192,30257.100000023842,32435.700000047684,33859.40000003576,34377.200000047684,34895.60000002384,35399.40000003576,35807.40000003576,36201.40000003576,36547.30000001192,36917.40000003576,37403.40000003576,37749.40000003576,38347.200000047684,38747.200000047684,39337.5,39785.40000003576,40195.30000001192,40643.5,41201.30000001192,41789.40000003576,42143.40000003576,44047.200000047684,46011.5,46357.200000047684,46743.5,47121.200000047684,47765.40000003576,48189.40000003576,48827.40000003576,49211.40000003576,49691.200000047684,50093.30000001192,50525.200000047684,50893.200000047684,51781.40000003576,52435.5,54045.200000047684,54471.200000047684,54895.10000002384,55375.30000001192,55767.30000001192,56145.30000001192,56585.30000001192,57411.200000047684,57789.40000003576,58119.60000002384],"honeypot":0,"survey":"mace","page":10,"trial_type":"survey-mace","trial_index":18,"time_elapsed":644014,"internal_node_id":"0.0-18.0","task_version":"prescreen-v0.3","browser_interactions":0,"instructed":0},{"rt":4450.600000023842,"trial_type":"mental-health-alert","trial_index":19,"time_elapsed":648466,"internal_node_id":"0.0-19.0","task_version":"prescreen-v0.3","interactions":"[]"}]