[{"view_history":[{"page_index":0,"viewing_time":3457.9000000059605},{"page_index":1,"viewing_time":5569.5999999940395},{"page_index":2,"viewing_time":3835.2000000178814},{"page_index":3,"viewing_time":1216}],"rt":14079.40000000596,"trial_type":"instructions","trial_index":0,"time_elapsed":14101,"internal_node_id":"0.0-0.0","task_version":"prescreen-v0.3"},{"rt":11382.5,"responses":{"age":"39","gender-categorical":"Female","gender-free-response":"","ethnicity":"Not Hispanic or Latino","race":["White"],"education":"Some college"},"trial_type":"survey-demo","trial_index":1,"time_elapsed":25487,"internal_node_id":"0.0-1.0","task_version":"prescreen-v0.3"},{"responses":{"Q10":"0","Q06":"2","Q17":"1","Q15":"0","Q18":"0","Q04":"0","Q11":"0","Q21":"3","Q14":"0","Q03":"1","Q01":"0","Q08":"1","Q19":"0","Q16":"0","Q13":"0","Q12":"0","Q07":"0","Q02":"0","Q09":"0","Q05":"0","Q20":"1"},"rt":239719.09999999404,"item_order":[9,5,16,14,17,3,10,20,13,2,0,7,18,15,12,11,6,1,8,4,19],"radio_events":[13668.09999999404,18040.19999998808,21823.399999976158,39125.79999998212,170237.79999998212,174175.5,176062.69999998808,179524,189674.19999998808,191885.79999998212,194474.59999999404,198571.59999999404,203980.5,207657.09999999404,211963.59999999404,216700.79999998212,223603.5,226859.69999998808,228895.5,234866.79999998212,238486.5],"key_events":[],"mouse_events":[12945.09999999404,13668.09999999404,18040.19999998808,21823.399999976158,30975.69999998808,35548.89999997616,39125.79999998212,169069.79999998212,170237.79999998212,174175.5,176062.69999998808,179524,187681.89999997616,189108.79999998212,189674.19999998808,191885.79999998212,194474.59999999404,198571.59999999404,203980.5,207657.09999999404,211963.59999999404,216700.79999998212,223603.5,225756.79999998212,226859.69999998808,228895.5,234866.79999998212,238486.5,239717.79999998212],"straightlining":0.7142857142857143,"zigzagging":0.45,"honeypot":0,"survey":"sns","trial_type":"survey-template","trial_index":2,"time_elapsed":265211,"internal_node_id":"0.0-2.0","task_version":"prescreen-v0.3","browser_interactions":0,"infrequency":0},{"responses":{"Q11":"2","Q08":"2","Q01":"2","Q05":"3","Q09":"2","Q12":"1","Q04":"2","Q07":"3","Q13":"0","Q02":"1","Q10":"2","Q03":"2","Q06":"3"},"rt":79675.09999999404,"item_order":[10,7,0,4,8,11,3,6,12,1,9,2,5],"radio_events":[7115.799999982119,11151.299999982119,13181.399999976158,16725.79999998212,21236.5,25160.399999976158,53433.79999998212,56004.59999999404,58607.29999998212,62959.39999997616,66097.29999998212,71526.39999997616,79161.29999998212],"key_events":[],"mouse_events":[7115.799999982119,11151.299999982119,13181.399999976158,16725.79999998212,21236.5,25160.399999976158,53433.79999998212,56004.59999999404,58607.29999998212,62959.39999997616,66097.29999998212,70579.29999998212,71526.39999997616,79161.29999998212,79674.29999998212],"straightlining":0.5384615384615384,"zigzagging":0.75,"honeypot":0,"survey":"bisbas","trial_type":"survey-template","trial_index":3,"time_elapsed":344888,"internal_node_id":"0.0-3.0","task_version":"prescreen-v0.3","browser_interactions":0,"infrequency":0},{"responses":{"Q01":"4","Q02":"4","Q03":"4"},"rt":17884.09999999404,"radio_events":[6344.9000000059605,14216.5,17350.90000000596],"key_events":[],"mouse_events":[6344.9000000059605,13817.5,14216.5,17350.90000000596,17883.5],"survey":"map","page":1,"trial_type":"survey-map","trial_index":4,"time_elapsed":362776,"internal_node_id":"0.0-4.0","task_version":"prescreen-v0.3","browser_interactions":0},{"responses":{"Q04":"3","Q05":"3","Q06":"3"},"rt":11217.799999982119,"radio_events":[5176.399999976158,8385.5,10479.5],"key_events":[],"mouse_events":[5176.399999976158,8385.5,10479.5,11217.399999976158],"survey":"map","page":2,"trial_type":"survey-map","trial_index":5,"time_elapsed":373996,"internal_node_id":"0.0-5.0","task_version":"prescreen-v0.3","browser_interactions":0},{"responses":{"Q07":"4","Q08":"2","Q09":"3"},"rt":17038.59999999404,"radio_events":[5857.200000017881,13985,16375.90000000596],"key_events":[],"mouse_events":[5857.200000017881,13985,16375.90000000596,17038.20000001788],"survey":"map","page":3,"trial_type":"survey-map","trial_index":6,"time_elapsed":391036,"internal_node_id":"0.0-6.0","task_version":"prescreen-v0.3","browser_interactions":0},{"responses":{"Q10":"4","Q11":"4","Q12":"4","Q13":"4","Q16":"0","Q14":"3","Q15":"3"},"rt":172880.80000001192,"radio_events":[153430.09999999404,156097.09999999404,158937.80000001192,161745,165250.09999999404,169470.90000000596,172270],"key_events":[],"mouse_events":[153430.09999999404,156097.09999999404,158937.80000001192,161745,165250.09999999404,169470.90000000596,172270,172880.09999999404],"survey":"map","page":4,"trial_type":"survey-map","trial_index":7,"time_elapsed":563920,"internal_node_id":"0.0-7.0","task_version":"prescreen-v0.3","browser_interactions":0,"infrequency":0},{"view_history":[{"page_index":0,"viewing_time":2684.199999988079},{"page_index":1,"viewing_time":3616.100000023842}],"rt":6300.9000000059605,"trial_type":"instructions","trial_index":8,"time_elapsed":570221,"internal_node_id":"0.0-8.0","task_version":"prescreen-v0.3"},{"responses":{"01":"No","02":"No","03":"No","04":"No","05":"No","06":"No"},"rt":15261,"item_order":[0,1,2,3,4,5],"radio_events":[5289.199999988079,8485.59999999404,10315.799999982119,11933.899999976158,13264.899999976158,14620.59999999404],"checkbox_events":[],"key_events":[],"mouse_events":[0.19999998807907104,5289.199999988079,8485.59999999404,10315.799999982119,11933.899999976158,13264.899999976158,14620.59999999404,15258.899999976158],"honeypot":0,"survey":"mace","page":1,"trial_type":"survey-mace","trial_index":9,"time_elapsed":585488,"internal_node_id":"0.0-9.0","task_version":"prescreen-v0.3","browser_interactions":0},{"responses":{"01":"No","02":"No","03":"Yes","03_ages_4":"4","03_ages_5":"5","03_ages_6":"6","03_ages_7":"7","03_ages_8":"8","03_ages_9":"9","03_ages_10":"10","03_ages_11":"11","04":"Yes","04_ages_4":"4","04_ages_5":"5","04_ages_6":"6","04_ages_7":"7","04_ages_8":"8","04_ages_9":"9","04_ages_10":"10","04_ages_11":"11","05":"Yes","05_ages_4":"4","05_ages_5":"5","05_ages_6":"6","05_ages_7":"7","05_ages_8":"8","05_ages_9":"9","05_ages_10":"10","05_ages_11":"11","06":"No","07":"No","08":"No"},"rt":49080.69999998808,"item_order":[0,1,2,3,4,5,6,7],"radio_events":[2680.0999999940395,9953.299999982119,24627.90000000596,32424.69999998808,38979.79999998212,40342,41624.09999999404,47044.19999998808],"checkbox_events":[15542.199999988079,16013,16553.29999998212,17006.29999998212,17420.09999999404,18607.09999999404,19630.29999998212,20012.19999998808,26186.29999998212,26534,27308.29999998212,27632.90000000596,28064,28472.19999998808,29465.09999999404,29862.19999998808,33942.79999998212,34288.90000000596,34670.09999999404,35024.90000000596,35440.19999998808,35834,36201.09999999404,36990.90000000596],"key_events":[],"mouse_events":[2680.0999999940395,5617.4000000059605,9953.299999982119,15542.199999988079,16013,16553.29999998212,17006.29999998212,17420.09999999404,18186.19999998808,18607.09999999404,18977.09999999404,19630.29999998212,20012.19999998808,24627.90000000596,26186.29999998212,26534,27308.29999998212,27632.90000000596,28064,28472.19999998808,29465.09999999404,29862.19999998808,32424.69999998808,33942.79999998212,34288.90000000596,34670.09999999404,35024.90000000596,35440.19999998808,35834,36201.09999999404,36547.40000000596,36990.90000000596,38979.79999998212,40342,41624.09999999404,42748.5,47044.19999998808,49078.29999998212],"honeypot":0,"survey":"mace","page":2,"trial_type":"survey-mace","trial_index":10,"time_elapsed":634573,"internal_node_id":"0.0-10.0","task_version":"prescreen-v0.3","browser_interactions":0},{"responses":{"01":"No","02":"No","03":"No","04":"No"},"rt":9718.40000000596,"item_order":[0,1,2,3],"radio_events":[4465.800000011921,6602.800000011921,8150.0999999940395,9016.90000000596],"checkbox_events":[],"key_events":[],"mouse_events":[4465.800000011921,6602.800000011921,8150.0999999940395,9016.90000000596,9717.09999999404],"honeypot":0,"survey":"mace","page":3,"trial_type":"survey-mace","trial_index":11,"time_elapsed":644294,"internal_node_id":"0.0-11.0","task_version":"prescreen-v0.3","browser_interactions":0},{"responses":{"01":"No","02":"No"},"rt":7869.5,"item_order":[0,1],"radio_events":[2369.5,7115.700000017881],"checkbox_events":[],"key_events":[],"mouse_events":[2369.5,7115.700000017881,7868.800000011921],"honeypot":0,"survey":"mace","page":4,"trial_type":"survey-mace","trial_index":12,"time_elapsed":652165,"internal_node_id":"0.0-12.0","task_version":"prescreen-v0.3","browser_interactions":0},{"responses":{"01":"No","02":"No","03":"No","04":"No","05":"No"},"rt":53842,"item_order":[0,1,2,3,4],"radio_events":[41803.70000001788,47072.59999999404,49613.59999999404,51535.59999999404,53253.59999999404],"checkbox_events":[],"key_events":[],"mouse_events":[41803.70000001788,47072.59999999404,49613.59999999404,51535.59999999404,53253.59999999404,53840.59999999404],"honeypot":0,"survey":"mace","page":5,"trial_type":"survey-mace","trial_index":13,"time_elapsed":706010,"internal_node_id":"0.0-13.0","task_version":"prescreen-v0.3","browser_interactions":0},{"responses":{"01":"No","02":"No","03":"No","04":"No","05":"No"},"rt":18090.899999976158,"item_order":[0,1,2,3,4],"radio_events":[7957.699999988079,10582.699999988079,13554.59999999404,15772.299999982119,17426.59999999404],"checkbox_events":[],"key_events":[],"mouse_events":[3198.7999999821186,7957.699999988079,10582.699999988079,13554.59999999404,15772.299999982119,17426.59999999404,18089.399999976158],"honeypot":0,"survey":"mace","page":6,"trial_type":"survey-mace","trial_index":14,"time_elapsed":724103,"internal_node_id":"0.0-14.0","task_version":"prescreen-v0.3","browser_interactions":0},{"responses":{"01":"No","02":"No","03":"No","04":"No","05":"No","06":"No","07":"No"},"rt":16033.5,"item_order":[0,1,2,3,4,5,6],"radio_events":[4244.9000000059605,5951.800000011921,9682,11062.5,12259.5,13781.90000000596,15308.700000017881],"checkbox_events":[],"key_events":[],"mouse_events":[4244.9000000059605,5951.800000011921,7767.5,9682,11062.5,12259.5,13781.90000000596,15308.700000017881,16031.5],"honeypot":0,"survey":"mace","page":7,"trial_type":"survey-mace","trial_index":15,"time_elapsed":740140,"internal_node_id":"0.0-15.0","task_version":"prescreen-v0.3","browser_interactions":0},{"responses":{"01":"No","02":"No","03":"No","04":"No"},"rt":31523.69999998808,"item_order":[0,1,2,3],"radio_events":[20329.80000001192,26740.90000000596,28932.59999999404,30971],"checkbox_events":[],"key_events":[],"mouse_events":[19494.59999999404,20329.80000001192,26740.90000000596,28932.59999999404,30971,31522.59999999404],"honeypot":0,"survey":"mace","page":8,"trial_type":"survey-mace","trial_index":16,"time_elapsed":771666,"internal_node_id":"0.0-16.0","task_version":"prescreen-v0.3","browser_interactions":0},{"responses":{"01":"Yes","01_ages_1":"1","01_ages_2":"2","01_ages_3":"3","01_ages_4":"4","01_ages_5":"5","01_ages_6":"6","01_ages_7":"7","01_ages_8":"8","01_ages_9":"9","01_ages_10":"10","01_ages_11":"11","01_ages_12":"12","01_ages_13":"13","01_ages_14":"14","01_ages_15":"15","01_ages_16":"16","01_ages_17":"17","01_ages_18":"18","02":"Yes","02_ages_1":"1","02_ages_2":"2","02_ages_3":"3","02_ages_4":"4","02_ages_5":"5","02_ages_6":"6","02_ages_7":"7","02_ages_8":"8","02_ages_9":"9","02_ages_10":"10","02_ages_11":"11","02_ages_12":"12","02_ages_13":"13","02_ages_14":"14","02_ages_15":"15","02_ages_16":"16","02_ages_17":"17","02_ages_18":"18","03":"Yes","03_ages_1":"1","03_ages_2":"2","03_ages_3":"3","03_ages_4":"4","03_ages_5":"5","03_ages_6":"6","03_ages_7":"7","03_ages_8":"8","03_ages_9":"9","03_ages_10":"10","03_ages_11":"11","03_ages_12":"12","03_ages_13":"13","03_ages_14":"14","03_ages_15":"15","03_ages_16":"16","03_ages_17":"17","03_ages_18":"18","04":"Yes","04_ages_1":"1","04_ages_2":"2","04_ages_3":"3","04_ages_4":"4","04_ages_5":"5","04_ages_6":"6","04_ages_7":"7","04_ages_8":"8","04_ages_9":"9","04_ages_10":"10","04_ages_11":"11","04_ages_12":"12","04_ages_13":"13","04_ages_14":"14","04_ages_15":"15","04_ages_16":"16","04_ages_17":"17","04_ages_18":"18"},"rt":61988.09999999404,"item_order":[0,1,2,3],"radio_events":[5487.0999999940395,22151.20000001788,36745,51286.30000001192],"checkbox_events":[7927.0999999940395,8467.09999999404,8870,10209.300000011921,10972.800000011921,11339.09999999404,11702.300000011921,12369.300000011921,13489,13947.40000000596,15136.200000017881,15558.200000017881,16150.09999999404,16576.80000001192,17288,17829.20000001788,18949.40000000596,19771.09999999404,23518.30000001192,24238.30000001192,24941,25378.09999999404,26105.30000001192,26788.30000001192,27232.59999999404,27625,28538.30000001192,29287.90000000596,29677,30260.30000001192,30688,32133.90000000596,32567.09999999404,33049.09999999404,33630.30000001192,34048.30000001192,37912,38322.90000000596,39058,39466.09999999404,40178.30000001192,40606.80000001192,41272.90000000596,41669.20000001788,42089.80000001192,42518.90000000596,43279.90000000596,43655.90000000596,44108.90000000596,44527.80000001192,44951.90000000596,45883.09999999404,46453.80000001192,46901.20000001788,52442.40000000596,52845.20000001788,53529.70000001788,53860.30000001192,54826.20000001788,55210.30000001192,55618.80000001192,56464.30000001192,56856.20000001788,57251.20000001788,57675.90000000596,58103.20000001788,58987.90000000596,59755.90000000596,60232.80000001192,60670.09999999404,61072.09999999404,61473.30000001192],"key_events":[],"mouse_events":[5487.0999999940395,7927.0999999940395,8467.09999999404,8870,9313.90000000596,10209.300000011921,10660.09999999404,10972.800000011921,11339.09999999404,11702.300000011921,12075,12369.300000011921,12732.40000000596,13489,13947.40000000596,14496.09999999404,15136.200000017881,15558.200000017881,16150.09999999404,16576.80000001192,17288,17829.20000001788,18949.40000000596,19771.09999999404,22151.20000001788,23518.30000001192,24238.30000001192,24941,25378.09999999404,25761.30000001192,26105.30000001192,26788.30000001192,27232.59999999404,27625,28147.20000001788,28538.30000001192,29287.90000000596,29677,30260.30000001192,30688,31239.30000001192,32133.90000000596,32567.09999999404,33049.09999999404,33630.30000001192,34048.30000001192,36745,37912,38322.90000000596,39058,39466.09999999404,39863,40178.30000001192,40606.80000001192,41272.90000000596,41669.20000001788,42089.80000001192,42518.90000000596,42963,43279.90000000596,43655.90000000596,44108.90000000596,44527.80000001192,44951.90000000596,45392.20000001788,45883.09999999404,46453.80000001192,46901.20000001788,51286.30000001192,52442.40000000596,52845.20000001788,53529.70000001788,53860.30000001192,54210.90000000596,54826.20000001788,55210.30000001192,55618.80000001192,56464.30000001192,56856.20000001788,57251.20000001788,57675.90000000596,58103.20000001788,58591.09999999404,58987.90000000596,59409.30000001192,59755.90000000596,60232.80000001192,60670.09999999404,61072.09999999404,61473.30000001192,61987],"honeypot":0,"survey":"mace","page":9,"trial_type":"survey-mace","trial_index":17,"time_elapsed":833656,"internal_node_id":"0.0-17.0","task_version":"prescreen-v0.3","browser_interactions":0},{"responses":{"01":"No","02":"No","03":"No","04":"No","05":"No","06":"Yes","06_ages_17":"17","07":"Yes","07_ages_1":"1","07_ages_2":"2","07_ages_3":"3","07_ages_4":"4","07_ages_5":"5","07_ages_6":"6","07_ages_7":"7","07_ages_8":"8","07_ages_9":"9","07_ages_10":"10","07_ages_11":"11","07_ages_12":"12","07_ages_13":"13","07_ages_14":"14","07_ages_15":"15","07_ages_16":"16","07_ages_17":"17","07_ages_18":"18","08":"Yes","08_ages_1":"1","08_ages_2":"2","08_ages_3":"3","08_ages_4":"4","08_ages_5":"5","08_ages_6":"6","08_ages_7":"7","08_ages_8":"8","08_ages_9":"9","08_ages_10":"10","08_ages_11":"11","08_ages_12":"12","08_ages_13":"13","08_ages_14":"14","08_ages_15":"15","08_ages_16":"16","08_ages_17":"17","08_ages_18":"18"},"rt":51676.40000000596,"item_order":[0,1,2,3,4,5,6,7],"radio_events":[3137.2999999821186,4339.299999982119,6097.199999988079,8047.0999999940395,9853.40000000596,12567.299999982119,21713.5,39630.40000000596],"checkbox_events":[13558.40000000596,23887,25267.90000000596,25649.40000000596,26379.5,26696.09999999404,27058.40000000596,27865.09999999404,28205.29999998212,28988.40000000596,29344,29710.09999999404,30159.40000000596,30536.19999998808,31358.5,31751.09999999404,32717.5,34688.09999999404,35122.40000000596,41432.09999999404,42065,42444.90000000596,43117.90000000596,43848,44573.09999999404,45108.19999998808,45774.19999998808,46188.90000000596,46808.09999999404,47613.19999998808,48019,48487,48878.09999999404,49334.09999999404,49791.09999999404,50541.90000000596,50945.09999999404],"key_events":[],"mouse_events":[3137.2999999821186,4339.299999982119,6097.199999988079,8047.0999999940395,9853.40000000596,12567.299999982119,13558.40000000596,21713.5,23887,24347.5,25267.90000000596,25649.40000000596,26036.09999999404,26379.5,26696.09999999404,27058.40000000596,27452.29999998212,27865.09999999404,28205.29999998212,28706.29999998212,28988.40000000596,29344,29710.09999999404,30159.40000000596,30536.19999998808,30922.29999998212,31358.5,31751.09999999404,32319.5,32717.5,33309,34688.09999999404,35122.40000000596,39294.40000000596,39630.40000000596,41432.09999999404,42065,42444.90000000596,43117.90000000596,43848,44573.09999999404,45108.19999998808,45774.19999998808,46188.90000000596,46808.09999999404,47613.19999998808,48019,48487,48878.09999999404,49334.09999999404,49791.09999999404,50223.19999998808,50541.90000000596,50945.09999999404,51673.19999998808],"honeypot":0,"survey":"mace","page":10,"trial_type":"survey-mace","trial_index":18,"time_elapsed":885337,"internal_node_id":"0.0-18.0","task_version":"prescreen-v0.3","browser_interactions":0,"instructed":0},{"rt":5105.5,"trial_type":"mental-health-alert","trial_index":19,"time_elapsed":890444,"internal_node_id":"0.0-19.0","task_version":"prescreen-v0.3","interactions":"[]"}]