[{"view_history":[{"page_index":0,"viewing_time":5091.399999976158},{"page_index":1,"viewing_time":6325.799999952316},{"page_index":2,"viewing_time":5508.600000023842},{"page_index":3,"viewing_time":1631.5}],"rt":18559.199999928474,"trial_type":"instructions","trial_index":0,"time_elapsed":18577,"internal_node_id":"0.0-0.0","task_version":"prescreen-v0.3"},{"rt":22436.299999952316,"responses":{"age":"20","gender-categorical":"Female","gender-free-response":"","ethnicity":"Hispanic or Latino","race":["White"],"education":"Some college"},"trial_type":"survey-demo","trial_index":1,"time_elapsed":41022,"internal_node_id":"0.0-1.0","task_version":"prescreen-v0.3"},{"responses":{"Q14":"3","Q05":"0","Q01":"2","Q19":"2","Q10":"2","Q16":"3","Q11":"2","Q06":"0","Q17":"2","Q03":"1","Q07":"2","Q08":"3","Q04":"3","Q09":"2","Q02":"3","Q13":"3","Q21":"3","Q15":"3","Q12":"3","Q18":"3","Q20":"2"},"rt":283167.1999999285,"item_order":[13,4,0,18,9,15,10,5,16,2,6,7,3,8,1,12,20,14,11,17,19],"radio_events":[3778.5,8226.600000023842,10448.899999976158,27994.199999928474,31159.699999928474,41419.39999997616,43314.89999997616,49931,56870.799999952316,72623.69999992847,118608.79999995232,122468,136549.5,160890.19999992847,211544.29999995232,217449.60000002384,223936.5,231393.39999997616,234558.19999992847,238799,241728.10000002384,255663.89999997616,263670.5,276772.60000002384,281589.39999997616],"key_events":[],"mouse_events":[3778.5,8226.600000023842,10448.899999976158,27994.199999928474,31159.699999928474,41419.39999997616,43314.89999997616,49931,56870.799999952316,72623.69999992847,118608.79999995232,122468,136549.5,160890.19999992847,211544.29999995232,217449.60000002384,223936.5,231393.39999997616,234558.19999992847,238799,241728.10000002384,245360.89999997616,245565.60000002384,245793.60000002384,247362.89999997616,255663.89999997616,263670.5,276327.10000002384,276772.60000002384,281589.39999997616,283162],"straightlining":0.47619047619047616,"zigzagging":0.45,"honeypot":0,"survey":"sns","trial_type":"survey-template","trial_index":2,"time_elapsed":324201,"internal_node_id":"0.0-2.0","task_version":"prescreen-v0.3","browser_interactions":0,"infrequency":0},{"responses":{"Q05":"2","Q10":"0","Q01":"2","Q07":"3","Q03":"2","Q11":"1","Q13":"0","Q06":"2","Q08":"2","Q04":"3","Q12":"0","Q09":"0","Q02":"3"},"rt":110966,"item_order":[4,9,0,6,2,10,12,5,7,3,11,8,1],"radio_events":[7486.899999976158,12172.099999904633,14709.099999904633,17280.899999976158,20416.599999904633,34304.89999997616,41833.39999997616,56160.199999928474,67401.79999995232,72811,75991,101902.19999992847,104357.59999990463,107638.79999995232,109780.5],"key_events":[],"mouse_events":[7486.899999976158,12172.099999904633,14709.099999904633,17280.899999976158,20416.599999904633,34304.89999997616,41833.39999997616,55430.89999997616,56160.199999928474,67401.79999995232,72811,75991,101902.19999992847,104357.59999990463,107638.79999995232,109780.5,110963.5],"straightlining":0.38461538461538464,"zigzagging":0.5833333333333334,"honeypot":0,"survey":"bisbas","trial_type":"survey-template","trial_index":3,"time_elapsed":435174,"internal_node_id":"0.0-3.0","task_version":"prescreen-v0.3","browser_interactions":2,"infrequency":0},{"responses":{"Q01":"1","Q02":"1","Q03":"1"},"rt":147624,"radio_events":[131083.5,138606.70000004768,139499.30000007153,146079.40000009537],"key_events":[],"mouse_events":[131083.5,138606.70000004768,139499.30000007153,146079.40000009537,147622],"survey":"map","page":1,"trial_type":"survey-map","trial_index":4,"time_elapsed":582806,"internal_node_id":"0.0-4.0","task_version":"prescreen-v0.3","browser_interactions":2},{"responses":{"Q04":"2","Q05":"1","Q06":"0"},"rt":30386.300000071526,"radio_events":[5476.800000071526,14504.700000047684,16429.200000047684,18905.400000095367,25010.600000023842],"key_events":[],"mouse_events":[5476.800000071526,14504.700000047684,16429.200000047684,18905.400000095367,24199.700000047684,25010.600000023842,30385.100000023842],"survey":"map","page":2,"trial_type":"survey-map","trial_index":5,"time_elapsed":613197,"internal_node_id":"0.0-5.0","task_version":"prescreen-v0.3","browser_interactions":0},{"responses":{"Q07":"1","Q08":"2","Q09":"0"},"rt":76119.10000002384,"radio_events":[58647,66650.80000007153,75005.60000002384],"key_events":[],"mouse_events":[58647,66650.80000007153,75005.60000002384,76118.60000002384],"survey":"map","page":3,"trial_type":"survey-map","trial_index":6,"time_elapsed":689319,"internal_node_id":"0.0-6.0","task_version":"prescreen-v0.3","browser_interactions":2},{"responses":{"Q10":"0","Q11":"1","Q12":"0","Q13":"1","Q16":"0","Q14":"1","Q15":"1"},"rt":92850.39999997616,"radio_events":[43958.799999952316,48128.299999952316,49310.699999928474,54898,59589.59999990463,79718.89999997616,83672.09999990463,85624.79999995232,89139.59999990463,90740.69999992847,91867.19999992847],"key_events":[],"mouse_events":[43958.799999952316,48128.299999952316,49310.699999928474,54898,59589.59999990463,79718.89999997616,82474.89999997616,83672.09999990463,85624.79999995232,89139.59999990463,89974.19999992847,90740.69999992847,91867.19999992847,92847.69999992847],"survey":"map","page":4,"trial_type":"survey-map","trial_index":7,"time_elapsed":782174,"internal_node_id":"0.0-7.0","task_version":"prescreen-v0.3","browser_interactions":0,"infrequency":0},{"view_history":[{"page_index":0,"viewing_time":3112.8000000715256},{"page_index":1,"viewing_time":7352.799999952316}],"rt":10466.899999976158,"trial_type":"instructions","trial_index":8,"time_elapsed":792644,"internal_node_id":"0.0-8.0","task_version":"prescreen-v0.3"},{"responses":{"01":"Yes","01_ages_10":"10","01_ages_11":"11","01_ages_12":"12","01_ages_13":"13","01_ages_14":"14","01_ages_15":"15","01_ages_16":"16","01_ages_17":"17","01_ages_18":"18","02":"Yes","02_ages_10":"10","02_ages_11":"11","02_ages_12":"12","02_ages_13":"13","02_ages_14":"14","02_ages_15":"15","02_ages_16":"16","02_ages_17":"17","02_ages_18":"18","03":"Yes","03_ages_12":"12","03_ages_13":"13","03_ages_14":"14","03_ages_15":"15","04":"Yes","04_ages_12":"12","04_ages_13":"13","04_ages_14":"14","04_ages_15":"15","04_ages_16":"16","04_ages_17":"17","04_ages_18":"18","05":"No","06":"No"},"rt":148418,"item_order":[0,1,2,3,4,5],"radio_events":[10316.699999928474,72459.29999995232,84114.89999997616,97873.29999995232,107823,143410.29999995232],"checkbox_events":[17378,40718.799999952316,42033.199999928474,43268,44759,45986.10000002384,47557.699999928474,49194.299999952316,67036.5,74630.39999997616,75156.29999995232,75792,76536.39999997616,77135.19999992847,77750.79999995232,78372.10000002384,78993,79584.29999995232,85466.29999995232,86080.29999995232,86694.5,87359.69999992847,89296,95062.5,100783.89999997616,101367.79999995232,101936.79999995232,102514.79999995232,103092.60000002384,103755.60000002384,104398.29999995232],"key_events":[],"mouse_events":[0.19999992847442627,10316.699999928474,17378,40718.799999952316,42033.199999928474,43268,44759,45986.10000002384,47557.699999928474,49194.299999952316,67036.5,72459.29999995232,74630.39999997616,75156.29999995232,75792,76536.39999997616,77135.19999992847,77750.79999995232,78372.10000002384,78993,79584.29999995232,84114.89999997616,85466.29999995232,86080.29999995232,86694.5,87359.69999992847,89296,95062.5,97873.29999995232,100783.89999997616,101367.79999995232,101936.79999995232,102514.79999995232,103092.60000002384,103755.60000002384,104398.29999995232,107823,143410.29999995232,148410.19999992847],"honeypot":0,"survey":"mace","page":1,"trial_type":"survey-mace","trial_index":9,"time_elapsed":941079,"internal_node_id":"0.0-9.0","task_version":"prescreen-v0.3","browser_interactions":2},{"responses":{"01":"Yes","01_ages_13":"13","02":"No","03":"No","04":"No","05":"Yes","05_ages_12":"12","05_ages_13":"13","06":"No","07":"No","08":"No"},"rt":57854.200000047684,"item_order":[0,1,2,3,4,5,6,7],"radio_events":[3343.2000000476837,21890.700000047684,23118.400000095367,31311.900000095367,35054.300000071526,36908.200000047684,43574,54321.700000047684,56228.40000009537],"checkbox_events":[6214.800000071526,6886.100000023842,11857.200000047684,38035,39626.10000002384],"key_events":[],"mouse_events":[3343.2000000476837,6214.800000071526,6886.100000023842,11857.200000047684,21890.700000047684,23118.400000095367,31311.900000095367,35054.300000071526,36908.200000047684,38035,39626.10000002384,43574,54321.700000047684,56228.40000009537,57844.700000047684],"honeypot":0,"survey":"mace","page":2,"trial_type":"survey-mace","trial_index":10,"time_elapsed":998944,"internal_node_id":"0.0-10.0","task_version":"prescreen-v0.3","browser_interactions":0},{"responses":{"01":"No","02":"No","03":"No","04":"No"},"rt":11594.5,"item_order":[0,1,2,3],"radio_events":[3018.5,5954.600000023842,8213,9910],"checkbox_events":[],"key_events":[],"mouse_events":[3018.5,5954.600000023842,8213,9910,11590.200000047684],"honeypot":0,"survey":"mace","page":3,"trial_type":"survey-mace","trial_index":11,"time_elapsed":1010549,"internal_node_id":"0.0-11.0","task_version":"prescreen-v0.3","browser_interactions":0},{"responses":{"01":"Yes","01_ages_8":"8","01_ages_9":"9","01_ages_10":"10","01_ages_11":"11","02":"No"},"rt":19147.700000047684,"item_order":[0,1],"radio_events":[4237.899999976158,17106.299999952316],"checkbox_events":[5947.799999952316,6736.700000047684,7518.799999952316,8381.700000047684,9382.700000047684,12094.100000023842,13152.799999952316,14074.799999952316],"key_events":[],"mouse_events":[4237.899999976158,5947.799999952316,6736.700000047684,7518.799999952316,8381.700000047684,9382.700000047684,11655.600000023842,12094.100000023842,13152.799999952316,14074.799999952316,17106.299999952316,19145.600000023842],"honeypot":0,"survey":"mace","page":4,"trial_type":"survey-mace","trial_index":12,"time_elapsed":1029704,"internal_node_id":"0.0-12.0","task_version":"prescreen-v0.3","browser_interactions":0},{"responses":{"01":"Yes","01_ages_11":"11","02":"No","03":"No","04":"No","05":"No"},"rt":28736,"item_order":[0,1,2,3,4],"radio_events":[5361.300000071526,20604.800000071526,24016.399999976158,25835.600000023842,27370],"checkbox_events":[10835.300000071526],"key_events":[],"mouse_events":[5361.300000071526,10835.300000071526,20604.800000071526,24016.399999976158,25835.600000023842,27370,28729.300000071526],"honeypot":0,"survey":"mace","page":5,"trial_type":"survey-mace","trial_index":13,"time_elapsed":1058448,"internal_node_id":"0.0-13.0","task_version":"prescreen-v0.3","browser_interactions":0},{"responses":{"01":"Yes","01_ages_10":"10","01_ages_11":"11","01_ages_12":"12","02":"Yes","02_ages_8":"8","02_ages_9":"9","02_ages_10":"10","02_ages_11":"11","02_ages_12":"12","02_ages_13":"13","03":"Yes","03_ages_11":"11","03_ages_12":"12","04":"Yes","04_ages_8":"8","04_ages_9":"9","04_ages_10":"10","04_ages_11":"11","04_ages_12":"12","04_ages_13":"13","04_ages_14":"14","04_ages_15":"15","04_ages_16":"16","04_ages_17":"17","04_ages_18":"18","05":"No"},"rt":98291.79999995232,"item_order":[0,1,2,3,4],"radio_events":[6983.700000047684,59080.200000047684,68585.89999997616,78528.79999995232,91694.79999995232],"checkbox_events":[20641.700000047684,21453.399999976158,22221.899999976158,23069.5,23865.200000047684,24603.600000023842,25450,26290.5,27861.399999976158,46891.5,47483.5,48221.39999997616,49821.200000047684,50319.60000002384,51144.5,51649,52489,53153,54176.799999952316,54938.10000002384,56390.5,60416.60000002384,61476.60000002384,62132.799999952316,62863.700000047684,63726.700000047684,64625.5,74715.10000002384,75431.70000004768,76081.70000004768,79530.10000002384,80283.10000002384,80830.60000002384,81605.10000002384,82196.39999997616,83263.5,83964.5,84570.89999997616,85243.60000002384,85856.79999995232,87661.39999997616,96005.5],"key_events":[],"mouse_events":[6983.700000047684,20641.700000047684,21453.399999976158,22221.899999976158,23069.5,23865.200000047684,24603.600000023842,25450,26290.5,27861.399999976158,46891.5,47483.5,48221.39999997616,48812.700000047684,49383.10000002384,49821.200000047684,50319.60000002384,51144.5,51649,52489,53153,54176.799999952316,54938.10000002384,55536.200000047684,56390.5,59080.200000047684,60416.60000002384,61476.60000002384,62132.799999952316,62863.700000047684,63726.700000047684,64625.5,68585.89999997616,74715.10000002384,75431.70000004768,76081.70000004768,78528.79999995232,79530.10000002384,80283.10000002384,80830.60000002384,81605.10000002384,82196.39999997616,82795.79999995232,83263.5,83964.5,84570.89999997616,85243.60000002384,85856.79999995232,87661.39999997616,91694.79999995232,96005.5,98284.39999997616],"honeypot":0,"survey":"mace","page":6,"trial_type":"survey-mace","trial_index":14,"time_elapsed":1156749,"internal_node_id":"0.0-14.0","task_version":"prescreen-v0.3","browser_interactions":0},{"responses":{"01":"No","02":"No","03":"No","04":"No","05":"No","06":"No","07":"No"},"rt":17256.299999952316,"item_order":[0,1,2,3,4,5,6],"radio_events":[2773.6999999284744,7326.399999976158,9028.399999976158,10466.299999952316,11372.299999952316,15208,16252.699999928474],"checkbox_events":[],"key_events":[],"mouse_events":[2773.6999999284744,7326.399999976158,9028.399999976158,10466.299999952316,11372.299999952316,15208,16252.699999928474,17246.899999976158],"honeypot":0,"survey":"mace","page":7,"trial_type":"survey-mace","trial_index":15,"time_elapsed":1174017,"internal_node_id":"0.0-15.0","task_version":"prescreen-v0.3","browser_interactions":0},{"responses":{"01":"Yes","01_ages_9":"9","01_ages_10":"10","01_ages_11":"11","01_ages_12":"12","01_ages_13":"13","01_ages_14":"14","01_ages_15":"15","01_ages_16":"16","01_ages_17":"17","01_ages_18":"18","02":"Yes","02_ages_9":"9","02_ages_10":"10","02_ages_11":"11","02_ages_12":"12","02_ages_13":"13","02_ages_14":"14","02_ages_15":"15","02_ages_16":"16","02_ages_17":"17","02_ages_18":"18","03":"Yes","03_ages_10":"10","03_ages_11":"11","03_ages_12":"12","03_ages_13":"13","03_ages_14":"14","03_ages_15":"15","03_ages_16":"16","03_ages_17":"17","03_ages_18":"18","04":"No"},"rt":56977.800000071526,"item_order":[0,1,2,3],"radio_events":[9676.800000071526,23092.700000047684,43153.300000071526,55505.700000047684],"checkbox_events":[14645.800000071526,16172.899999976158,16699.200000047684,17261.899999976158,17838.5,18393.5,18934.800000071526,20791.700000047684,21338.700000047684,22002.600000023842,24918.600000023842,25553,26883.300000071526,27913.200000047684,28913.399999976158,29483.200000047684,31982.600000023842,34005.700000047684,34948.200000047684,35621.5,36373,37308.700000047684,45877.10000002384,46360.5,46978.5,47572.5,48514.39999997616,49208.10000002384,49852,50457.60000002384,51115.5],"key_events":[],"mouse_events":[9676.800000071526,14645.800000071526,15412.800000071526,16172.899999976158,16699.200000047684,17261.899999976158,17838.5,18393.5,18934.800000071526,19621.300000071526,20791.700000047684,21338.700000047684,22002.600000023842,23092.700000047684,24918.600000023842,25553,26217.100000023842,26883.300000071526,27913.200000047684,28913.399999976158,29483.200000047684,30391.5,31982.600000023842,34005.700000047684,34948.200000047684,35621.5,36373,37308.700000047684,43153.300000071526,45877.10000002384,46360.5,46978.5,47572.5,48514.39999997616,49208.10000002384,49852,50457.60000002384,51115.5,55505.700000047684,56973.800000071526],"honeypot":0,"survey":"mace","page":8,"trial_type":"survey-mace","trial_index":16,"time_elapsed":1231003,"internal_node_id":"0.0-16.0","task_version":"prescreen-v0.3","browser_interactions":0},{"responses":{"01":"Yes","01_ages_1":"1","01_ages_2":"2","01_ages_3":"3","01_ages_4":"4","01_ages_5":"5","01_ages_6":"6","01_ages_7":"7","01_ages_8":"8","01_ages_9":"9","01_ages_10":"10","01_ages_11":"11","01_ages_18":"18","02":"No","03":"Yes","03_ages_1":"1","03_ages_2":"2","03_ages_3":"3","03_ages_4":"4","03_ages_5":"5","03_ages_6":"6","03_ages_7":"7","03_ages_8":"8","03_ages_9":"9","03_ages_10":"10","03_ages_11":"11","03_ages_12":"12","03_ages_13":"13","03_ages_14":"14","03_ages_15":"15","03_ages_16":"16","03_ages_17":"17","03_ages_18":"18","04":"Yes","04_ages_1":"1","04_ages_2":"2","04_ages_3":"3","04_ages_4":"4","04_ages_5":"5","04_ages_6":"6","04_ages_7":"7","04_ages_8":"8","04_ages_9":"9","04_ages_10":"10","04_ages_11":"11","04_ages_12":"12","04_ages_13":"13","04_ages_14":"14","04_ages_15":"15","04_ages_16":"16","04_ages_17":"17","04_ages_18":"18"},"rt":121850.69999992847,"item_order":[0,1,2,3],"radio_events":[12013.899999976158,12985.600000023842,80287.89999997616,102116.10000002384],"checkbox_events":[15228,15768.199999928474,16295.299999952316,16915.899999976158,17536.600000023842,18157.199999928474,18778,19370.100000023842,20027.600000023842,21078.5,24842.600000023842,25411.399999976158,28867.600000023842,29816.600000023842,34308.10000002384,35694.5,38148.5,38696.799999952316,39303.299999952316,39946,51805.5,52308.39999997616,53119.5,53711.89999997616,60141.10000002384,60739.39999997616,61930.10000002384,62522.199999928474,65481.699999928474,66028.60000002384,66636,67257.29999995232,71026.69999992847,82400.29999995232,82853.39999997616,83335.60000002384,84811,85372.19999992847,85921,86497.10000002384,87155.89999997616,87667,88470.10000002384,89061.5,89632.89999997616,90282.10000002384,90866.89999997616,91442.89999997616,92107.60000002384,92692.39999997616,93306,94137.60000002384,94614.39999997616,95163,96397.29999995232,96901.10000002384,105214.60000002384,105710.29999995232,106236.79999995232,106755.89999997616,107317.5,107844.10000002384,108354.69999992847,108896,109422.10000002384,109940.5,111182.39999997616,111701.60000002384,112197.19999992847,118297.19999992847,118947.10000002384,119509.89999997616,120342,121078.89999997616],"key_events":[],"mouse_events":[12013.899999976158,12985.600000023842,15228,15768.199999928474,16295.299999952316,16915.899999976158,17536.600000023842,18157.199999928474,18778,19370.100000023842,20027.600000023842,21078.5,24308.600000023842,24842.600000023842,25411.399999976158,28867.600000023842,29816.600000023842,34308.10000002384,35694.5,38148.5,38696.799999952316,39303.299999952316,39946,51805.5,52308.39999997616,53119.5,53711.89999997616,60141.10000002384,60739.39999997616,61286.89999997616,61930.10000002384,62522.199999928474,65481.699999928474,66028.60000002384,66636,67257.29999995232,71026.69999992847,80287.89999997616,82400.29999995232,82853.39999997616,83335.60000002384,83948.39999997616,84811,85372.19999992847,85921,86497.10000002384,87155.89999997616,87667,88470.10000002384,89061.5,89632.89999997616,90282.10000002384,90866.89999997616,91442.89999997616,92107.60000002384,92692.39999997616,93306,94137.60000002384,94614.39999997616,95163,95972.60000002384,96397.29999995232,96901.10000002384,102116.10000002384,105214.60000002384,105710.29999995232,106236.79999995232,106755.89999997616,107317.5,107844.10000002384,108354.69999992847,108896,109422.10000002384,109940.5,110531.19999992847,111182.39999997616,111701.60000002384,112197.19999992847,112768.5,118297.19999992847,118947.10000002384,119509.89999997616,120342,121078.89999997616,121846.60000002384],"honeypot":0,"survey":"mace","page":9,"trial_type":"survey-mace","trial_index":17,"time_elapsed":1352860,"internal_node_id":"0.0-17.0","task_version":"prescreen-v0.3","browser_interactions":0},{"responses":{"01":"No","02":"No","03":"Yes","03_ages_12":"12","03_ages_13":"13","03_ages_14":"14","03_ages_15":"15","03_ages_16":"16","03_ages_17":"17","03_ages_18":"18","04":"No","05":"No","06":"Yes","06_ages_17":"17","07":"Yes","07_ages_1":"1","07_ages_2":"2","07_ages_3":"3","07_ages_4":"4","07_ages_5":"5","07_ages_6":"6","07_ages_7":"7","07_ages_8":"8","07_ages_9":"9","07_ages_10":"10","07_ages_11":"11","07_ages_12":"12","07_ages_13":"13","07_ages_18":"18","08":"No"},"rt":72118.10000002384,"item_order":[0,1,2,3,4,5,6,7],"radio_events":[3785,4795,7130.5,24413.5,29992.699999928474,41740.89999997616,65686.19999992847,70090.60000002384],"checkbox_events":[11316.100000023842,11892.199999928474,12434.799999952316,13057.799999952316,13624.5,14171.799999952316,14748.5,15291.100000023842,15816.600000023842,20294.199999928474,20906.899999976158,31234.799999952316,43932.199999928474,44421.10000002384,45532.89999997616,46094.39999997616,46642.699999928474,47204.799999952316,47746.299999952316,48307.699999928474,48876.89999997616,49404.89999997616,52500.799999952316,53231.299999952316,53756.39999997616,54926.39999997616,55825.699999928474,57161,57870.39999997616,58754.39999997616,60704.60000002384,61295.699999928474,61851.299999952316,62522.699999928474],"key_events":[],"mouse_events":[3785,4795,7130.5,10651.199999928474,11316.100000023842,11892.199999928474,12434.799999952316,13057.799999952316,13624.5,14171.799999952316,14748.5,15291.100000023842,15816.600000023842,20294.199999928474,20906.899999976158,24413.5,27743.899999976158,29992.699999928474,31234.799999952316,40995.10000002384,41740.89999997616,43932.199999928474,44421.10000002384,44904.799999952316,45532.89999997616,46094.39999997616,46642.699999928474,47204.799999952316,47746.299999952316,48307.699999928474,48876.89999997616,49404.89999997616,52500.799999952316,53231.299999952316,53756.39999997616,54443.60000002384,54926.39999997616,55341.89999997616,55825.699999928474,56306.299999952316,57161,57870.39999997616,58754.39999997616,60704.60000002384,61295.699999928474,61851.299999952316,62522.699999928474,65686.19999992847,67227.29999995232,70090.60000002384,72107.60000002384],"honeypot":0,"survey":"mace","page":10,"trial_type":"survey-mace","trial_index":18,"time_elapsed":1424993,"internal_node_id":"0.0-18.0","task_version":"prescreen-v0.3","browser_interactions":0,"instructed":0},{"rt":7534.200000047684,"trial_type":"mental-health-alert","trial_index":19,"time_elapsed":1432532,"internal_node_id":"0.0-19.0","task_version":"prescreen-v0.3","interactions":"[{\"event\":\"blur\",\"trial\":3,\"time\":407361},{\"event\":\"focus\",\"trial\":3,\"time\":420264},{\"event\":\"blur\",\"trial\":4,\"time\":460851},{\"event\":\"focus\",\"trial\":4,\"time\":520702},{\"event\":\"blur\",\"trial\":6,\"time\":618235},{\"event\":\"focus\",\"trial\":6,\"time\":659275},{\"event\":\"blur\",\"trial\":9,\"time\":819174},{\"event\":\"focus\",\"trial\":9,\"time\":821397}]"}]