[{"view_history":[{"page_index":0,"viewing_time":6157.099999964237},{"page_index":1,"viewing_time":5894},{"page_index":2,"viewing_time":8923.800000011921},{"page_index":3,"viewing_time":2819}],"rt":23794.30000001192,"trial_type":"instructions","trial_index":0,"time_elapsed":23801,"internal_node_id":"0.0-0.0","task_version":"prescreen-v0.3"},{"rt":30490.30000001192,"responses":{"age":"40","gender-categorical":"Male","gender-free-response":"","ethnicity":"Not Hispanic or Latino","race":["White"],"education":"Less than high school"},"trial_type":"survey-demo","trial_index":1,"time_elapsed":54294,"internal_node_id":"0.0-1.0","task_version":"prescreen-v0.3"},{"responses":{"Q10":"2","Q02":"3","Q17":"1","Q20":"0","Q07":"1","Q04":"2","Q05":"0","Q19":"3","Q13":"3","Q03":"3","Q09":"3","Q14":"3","Q06":"3","Q01":"3","Q21":"3","Q08":"2","Q15":"3","Q18":"3","Q16":"3","Q11":"1","Q12":"1"},"rt":250464.39999997616,"item_order":[9,1,16,19,6,3,4,18,12,2,8,13,5,0,20,7,14,17,15,10,11],"radio_events":[20553.399999976158,42075.19999998808,57830.30000001192,66252.69999998808,97644.69999998808,112721,115324.19999998808,131023.89999997616,135537.09999996424,138784,146993.39999997616,150258.80000001192,159591.69999998808,173322.39999997616,183584.39999997616,184337.69999998808,196612,209346.09999996424,217627.5,221720.5,229561.80000001192,241845.80000001192,247914.69999998808],"key_events":[],"mouse_events":[20553.399999976158,42075.19999998808,57830.30000001192,66252.69999998808,97644.69999998808,112721,115324.19999998808,131023.89999997616,135537.09999996424,138784,146993.39999997616,150258.80000001192,159591.69999998808,173322.39999997616,183584.39999997616,184337.69999998808,196612,209346.09999996424,217627.5,221720.5,229561.80000001192,241845.80000001192,247914.69999998808,250463.5],"straightlining":0.5714285714285714,"zigzagging":0.35,"honeypot":0,"survey":"sns","trial_type":"survey-template","trial_index":2,"time_elapsed":304763,"internal_node_id":"0.0-2.0","task_version":"prescreen-v0.3","browser_interactions":0,"infrequency":0},{"responses":{"Q04":"3","Q03":"3","Q13":"0","Q05":"3","Q02":"3","Q10":"1","Q11":"1","Q07":"3","Q12":"1","Q09":"1","Q06":"1","Q01":"2","Q08":"2"},"rt":186043.30000001192,"item_order":[3,2,12,4,1,9,10,6,11,8,5,0,7],"radio_events":[27786.30000001192,39443.30000001192,47915,65110.30000001192,71067.30000001192,83698,98882.89999997616,109597.59999996424,124895.5,135093.5,145904.89999997616,154337.89999997616,184174.30000001192],"key_events":[],"mouse_events":[27786.30000001192,39443.30000001192,47915,65110.30000001192,71067.30000001192,83698,98882.89999997616,109597.59999996424,124895.5,135093.5,145904.89999997616,154337.89999997616,184174.30000001192,186042.80000001192],"straightlining":0.38461538461538464,"zigzagging":0.25,"honeypot":0,"survey":"bisbas","trial_type":"survey-template","trial_index":3,"time_elapsed":490813,"internal_node_id":"0.0-3.0","task_version":"prescreen-v0.3","browser_interactions":0,"infrequency":0},{"responses":{"Q01":"2","Q02":"1","Q03":"2"},"rt":51930,"radio_events":[26655.400000035763,41317.69999998808,49762.80000001192],"key_events":[],"mouse_events":[26655.400000035763,41317.69999998808,49762.80000001192,51929.80000001192],"survey":"map","page":1,"trial_type":"survey-map","trial_index":4,"time_elapsed":542747,"internal_node_id":"0.0-4.0","task_version":"prescreen-v0.3","browser_interactions":0},{"responses":{"Q04":"1","Q05":"2","Q06":"1"},"rt":56681.80000001192,"radio_events":[25252.200000047684,48017.80000001192,54941.60000002384],"key_events":[],"mouse_events":[25252.200000047684,48017.80000001192,54941.60000002384,56681.5],"survey":"map","page":2,"trial_type":"survey-map","trial_index":5,"time_elapsed":599433,"internal_node_id":"0.0-5.0","task_version":"prescreen-v0.3","browser_interactions":0},{"responses":{"Q07":"4","Q08":"0","Q09":"0"},"rt":45277.40000003576,"radio_events":[16637.30000001192,25791.30000001192,33874.30000001192,39747.80000001192],"key_events":[],"mouse_events":[16637.30000001192,25791.30000001192,33874.30000001192,39747.80000001192,45277.200000047684],"survey":"map","page":3,"trial_type":"survey-map","trial_index":6,"time_elapsed":644714,"internal_node_id":"0.0-6.0","task_version":"prescreen-v0.3","browser_interactions":0},{"responses":{"Q10":"0","Q11":"0","Q12":"0","Q13":"0","Q16":"0","Q14":"1","Q15":"2"},"rt":77639.80000001192,"radio_events":[27837.600000023842,33890.60000002384,40504,49345.30000001192,56705.19999998808,70073.69999998808,70885.60000002384,73886.60000002384],"key_events":[],"mouse_events":[27837.600000023842,33890.60000002384,40504,49345.30000001192,56705.19999998808,70073.69999998808,70885.60000002384,73886.60000002384,77639.30000001192],"survey":"map","page":4,"trial_type":"survey-map","trial_index":7,"time_elapsed":722359,"internal_node_id":"0.0-7.0","task_version":"prescreen-v0.3","browser_interactions":0,"infrequency":0},{"view_history":[{"page_index":0,"viewing_time":4224.800000011921},{"page_index":1,"viewing_time":8063.099999964237}],"rt":12288.399999976158,"trial_type":"instructions","trial_index":8,"time_elapsed":734651,"internal_node_id":"0.0-8.0","task_version":"prescreen-v0.3"},{"responses":{"01":"No","02":"Yes","02_ages_12":"12","02_ages_13":"13","02_ages_14":"14","02_ages_15":"15","02_ages_16":"16","02_ages_17":"17","02_ages_18":"18","03":"No","04":"No","05":"No","06":"No"},"rt":206560,"item_order":[0,1,2,3,4,5],"radio_events":[52956.69999998808,62680.60000002384,147879.5,151252.30000001192,153355.5,162833,191076.80000001192],"checkbox_events":[136630.80000001192,138855.19999998808,139516.60000002384,140211.89999997616,140747.60000002384,141984.60000002384,142882.39999997616],"key_events":[],"mouse_events":[0,52956.69999998808,62680.60000002384,136630.80000001192,138855.19999998808,139516.60000002384,140211.89999997616,140747.60000002384,141984.60000002384,142882.39999997616,147879.5,151252.30000001192,153355.5,162833,191076.80000001192,206558.69999998808],"honeypot":0,"survey":"mace","page":1,"trial_type":"survey-mace","trial_index":9,"time_elapsed":941215,"internal_node_id":"0.0-9.0","task_version":"prescreen-v0.3","browser_interactions":0},{"responses":{"01":"No","02":"No","03":"Yes","03_ages_2":"2","03_ages_3":"3","03_ages_4":"4","03_ages_5":"5","03_ages_6":"6","03_ages_7":"7","03_ages_8":"8","03_ages_9":"9","03_ages_10":"10","03_ages_11":"11","03_ages_12":"12","04":"Yes","04_ages_2":"2","04_ages_3":"3","04_ages_4":"4","04_ages_5":"5","04_ages_6":"6","04_ages_7":"7","04_ages_8":"8","04_ages_9":"9","04_ages_10":"10","04_ages_11":"11","04_ages_12":"12","05":"Yes","05_ages_2":"2","05_ages_3":"3","05_ages_4":"4","05_ages_5":"5","05_ages_6":"6","05_ages_7":"7","05_ages_8":"8","05_ages_9":"9","05_ages_10":"10","05_ages_11":"11","05_ages_12":"12","06":"No","07":"No","08":"No"},"rt":161066.10000002384,"item_order":[0,1,2,3,4,5,6,7],"radio_events":[14674.5,19196.899999976158,23082.399999976158,107694.60000002384,122620.80000001192,144833.10000002384,148959.89999997616,149661.10000002384],"checkbox_events":[66712.89999997616,68639,70193.5,70802.10000002384,71583.80000001192,72725.5,73419.89999997616,74027.89999997616,74789,81710.89999997616,82952.89999997616,113335,113774.39999997616,114249.39999997616,114630.5,115018.60000002384,115460.89999997616,115967.5,116875.39999997616,117535.30000001192,118642.19999998808,119110.39999997616,124384.39999997616,125217.19999998808,125690.10000002384,126063.5,126467.30000001192,126889.30000001192,127316.39999997616,127714.39999997616,128099.30000001192,128559.39999997616,129162.5],"key_events":[],"mouse_events":[14674.5,19196.899999976158,23082.399999976158,66712.89999997616,68639,70193.5,70802.10000002384,71583.80000001192,72725.5,73419.89999997616,74027.89999997616,74789,81710.89999997616,82952.89999997616,107694.60000002384,113335,113774.39999997616,114249.39999997616,114630.5,115018.60000002384,115460.89999997616,115967.5,116875.39999997616,117535.30000001192,118642.19999998808,119110.39999997616,122620.80000001192,124384.39999997616,125217.19999998808,125690.10000002384,126063.5,126467.30000001192,126889.30000001192,127316.39999997616,127714.39999997616,128099.30000001192,128559.39999997616,129162.5,144833.10000002384,148959.89999997616,149661.10000002384,161064.5],"honeypot":0,"survey":"mace","page":2,"trial_type":"survey-mace","trial_index":10,"time_elapsed":1102287,"internal_node_id":"0.0-10.0","task_version":"prescreen-v0.3","browser_interactions":0},{"responses":{"01":"No","02":"No","03":"No","04":"No"},"rt":21662.900000035763,"item_order":[0,1,2,3],"radio_events":[9980.699999988079,16926.600000023842,17555.69999998808,18344.900000035763],"checkbox_events":[],"key_events":[],"mouse_events":[9980.699999988079,16926.600000023842,17555.69999998808,18344.900000035763,21662.100000023842],"honeypot":0,"survey":"mace","page":3,"trial_type":"survey-mace","trial_index":11,"time_elapsed":1123955,"internal_node_id":"0.0-11.0","task_version":"prescreen-v0.3","browser_interactions":0},{"responses":{"01":"Yes","01_ages_12":"12","02":"No"},"rt":35090.80000001192,"item_order":[0,1],"radio_events":[13077.100000023842,17000.600000023842],"checkbox_events":[29613.399999976158],"key_events":[],"mouse_events":[13077.100000023842,17000.600000023842,29613.399999976158,35090.19999998808],"honeypot":0,"survey":"mace","page":4,"trial_type":"survey-mace","trial_index":12,"time_elapsed":1159051,"internal_node_id":"0.0-12.0","task_version":"prescreen-v0.3","browser_interactions":0},{"responses":{"01":"No","02":"No","03":"No","04":"No","05":"No"},"rt":57130.09999996424,"item_order":[0,1,2,3,4],"radio_events":[24916.69999998808,26070.899999976158,37781.09999996424,42571.89999997616,45061.30000001192],"checkbox_events":[],"key_events":[],"mouse_events":[24916.69999998808,26070.899999976158,37781.09999996424,42571.89999997616,45061.30000001192,57129.09999996424],"honeypot":0,"survey":"mace","page":5,"trial_type":"survey-mace","trial_index":13,"time_elapsed":1216186,"internal_node_id":"0.0-13.0","task_version":"prescreen-v0.3","browser_interactions":0},{"responses":{"01":"Yes","01_ages_8":"8","01_ages_9":"9","01_ages_10":"10","01_ages_11":"11","01_ages_12":"12","02":"Yes","02_ages_8":"8","02_ages_9":"9","02_ages_10":"10","02_ages_11":"11","02_ages_12":"12","02_ages_13":"13","03":"No","04":"No","05":"No"},"rt":208567.80000001192,"item_order":[0,1,2,3,4],"radio_events":[26410.80000001192,143672.19999998808,160938.30000001192,162193.80000001192,166062.5],"checkbox_events":[73095.80000001192,73849.30000001192,74536.30000001192,75101.30000001192,75557.30000001192,78586.5,111241,146477.60000002384,147057.5,148486.5,148949.5,149814.5,150525.5],"key_events":[],"mouse_events":[26410.80000001192,73095.80000001192,73849.30000001192,74536.30000001192,75101.30000001192,75557.30000001192,78586.5,111241,143672.19999998808,146477.60000002384,147057.5,148486.5,148949.5,149814.5,150525.5,160938.30000001192,162193.80000001192,166062.5,208566.80000001192],"honeypot":0,"survey":"mace","page":6,"trial_type":"survey-mace","trial_index":14,"time_elapsed":1424760,"internal_node_id":"0.0-14.0","task_version":"prescreen-v0.3","browser_interactions":0},{"responses":{"01":"No","02":"No","03":"Yes","03_ages_12":"12","04":"No","05":"No","06":"Yes","06_ages_12":"12","07":"Yes","07_ages_12":"12"},"rt":114542.69999998808,"item_order":[0,1,2,3,4,5,6],"radio_events":[17823.100000023842,35579,38815.19999998808,65983.69999998808,68761.40000003576,89828.60000002384,105075.30000001192],"checkbox_events":[50492.80000001192,101107.90000003576,106987.80000001192],"key_events":[],"mouse_events":[17823.100000023842,35579,38815.19999998808,50492.80000001192,65983.69999998808,68761.40000003576,89828.60000002384,101107.90000003576,105075.30000001192,106987.80000001192,114541.40000003576],"honeypot":0,"survey":"mace","page":7,"trial_type":"survey-mace","trial_index":15,"time_elapsed":1539309,"internal_node_id":"0.0-15.0","task_version":"prescreen-v0.3","browser_interactions":0},{"responses":{"01":"Yes","01_ages_6":"6","01_ages_7":"7","01_ages_8":"8","01_ages_9":"9","01_ages_10":"10","01_ages_11":"11","01_ages_12":"12","02":"Yes","02_ages_6":"6","02_ages_7":"7","02_ages_8":"8","02_ages_9":"9","02_ages_10":"10","02_ages_11":"11","02_ages_12":"12","03":"No","04":"Yes","04_ages_6":"6","04_ages_7":"7","04_ages_8":"8","04_ages_9":"9","04_ages_10":"10","04_ages_11":"11","04_ages_12":"12"},"rt":205303.19999998808,"item_order":[0,1,2,3],"radio_events":[47072.90000003576,122045.90000003576,129321.90000003576,143661.10000002384],"checkbox_events":[96812.69999998808,105416.30000001192,105961.19999998808,106371.19999998808,110881.10000002384,112127.10000002384,114608.5,123353.69999998808,123745.69999998808,124100,124511.69999998808,124894.90000003576,125375.90000003576,125863.90000003576,197624.10000002384,198060.90000003576,198525.5,199006.10000002384,199474.10000002384,200106.80000001192,200826.10000002384],"key_events":[],"mouse_events":[47072.90000003576,96812.69999998808,105416.30000001192,105961.19999998808,106371.19999998808,110881.10000002384,112127.10000002384,114608.5,122045.90000003576,123353.69999998808,123745.69999998808,124100,124511.69999998808,124894.90000003576,125375.90000003576,125863.90000003576,129321.90000003576,143661.10000002384,197624.10000002384,198060.90000003576,198525.5,199006.10000002384,199474.10000002384,200106.80000001192,200826.10000002384,205302.5],"honeypot":0,"survey":"mace","page":8,"trial_type":"survey-mace","trial_index":16,"time_elapsed":1744617,"internal_node_id":"0.0-16.0","task_version":"prescreen-v0.3","browser_interactions":0},{"responses":{"01":"Yes","01_ages_12":"12","01_ages_13":"13","01_ages_14":"14","01_ages_15":"15","01_ages_16":"16","01_ages_17":"17","01_ages_18":"18","02":"Yes","02_ages_12":"12","02_ages_13":"13","02_ages_14":"14","02_ages_15":"15","02_ages_16":"16","02_ages_17":"17","02_ages_18":"18","03":"Yes","03_ages_1":"1","03_ages_2":"2","03_ages_3":"3","03_ages_4":"4","03_ages_5":"5","03_ages_6":"6","03_ages_7":"7","03_ages_8":"8","03_ages_9":"9","03_ages_10":"10","03_ages_11":"11","03_ages_12":"12","03_ages_13":"13","03_ages_14":"14","03_ages_15":"15","03_ages_16":"16","03_ages_17":"17","03_ages_18":"18","04":"Yes","04_ages_1":"1","04_ages_2":"2","04_ages_3":"3","04_ages_4":"4","04_ages_5":"5","04_ages_6":"6","04_ages_7":"7","04_ages_8":"8","04_ages_9":"9","04_ages_10":"10","04_ages_11":"11","04_ages_12":"12","04_ages_13":"13","04_ages_14":"14","04_ages_15":"15","04_ages_16":"16","04_ages_17":"17","04_ages_18":"18"},"rt":184922.40000003576,"item_order":[0,1,2,3],"radio_events":[13897.400000035763,122868.10000002384,147526.80000001192,173036.60000002384],"checkbox_events":[92676.5,93148.40000003576,93639.40000003576,94367.5,94898.40000003576,95338.19999998808,116061.19999998808,132751,133257,134121.19999998808,134802.80000001192,135203,135537.90000003576,136711.90000003576,158991.19999998808,159400.80000001192,160911.69999998808,161344.5,161719.60000002384,162097.80000001192,162599.5,162910.60000002384,163306.69999998808,164294.80000001192,164647.60000002384,164989.40000003576,165468.80000001192,165841.60000002384,166336.5,166716.40000003576,167165.40000003576,167592.30000001192,174186.30000001192,174522.5,174847.5,175247.5,175639.5,176112.5,176432.5,176828.40000003576,177157.40000003576,177602.80000001192,178051,178398,178841.60000002384,179199.30000001192,179569,180007.5,180941.30000001192,181307.30000001192],"key_events":[],"mouse_events":[13897.400000035763,92676.5,93148.40000003576,93639.40000003576,94367.5,94898.40000003576,95338.19999998808,116061.19999998808,122868.10000002384,132751,133257,134121.19999998808,134802.80000001192,135203,135537.90000003576,135856,136139.90000003576,136359.19999998808,136711.90000003576,137268.90000003576,147526.80000001192,158991.19999998808,159400.80000001192,160911.69999998808,161344.5,161719.60000002384,162097.80000001192,162599.5,162910.60000002384,163306.69999998808,164294.80000001192,164647.60000002384,164989.40000003576,165468.80000001192,165841.60000002384,166336.5,166716.40000003576,167165.40000003576,167592.30000001192,173036.60000002384,174186.30000001192,174522.5,174847.5,175247.5,175639.5,176112.5,176432.5,176828.40000003576,177157.40000003576,177602.80000001192,178051,178398,178841.60000002384,179199.30000001192,179569,180007.5,180439.19999998808,180941.30000001192,181307.30000001192,184921.5],"honeypot":0,"survey":"mace","page":9,"trial_type":"survey-mace","trial_index":17,"time_elapsed":1929546,"internal_node_id":"0.0-17.0","task_version":"prescreen-v0.3","browser_interactions":0},{"responses":{"01":"No","02":"No","03":"No","04":"No","05":"No","06":"Yes","06_ages_17":"17","07":"Yes","07_ages_1":"1","07_ages_2":"2","07_ages_3":"3","07_ages_4":"4","07_ages_5":"5","07_ages_6":"6","07_ages_7":"7","07_ages_8":"8","07_ages_9":"9","07_ages_10":"10","07_ages_11":"11","07_ages_12":"12","07_ages_13":"13","07_ages_14":"14","07_ages_15":"15","07_ages_16":"16","07_ages_17":"17","07_ages_18":"18","08":"Yes","08_ages_1":"1","08_ages_2":"2","08_ages_3":"3","08_ages_4":"4","08_ages_5":"5","08_ages_6":"6","08_ages_7":"7","08_ages_8":"8","08_ages_9":"9","08_ages_10":"10","08_ages_11":"11","08_ages_12":"12","08_ages_13":"13","08_ages_14":"14","08_ages_15":"15","08_ages_16":"16","08_ages_17":"17","08_ages_18":"18"},"rt":94741.30000001192,"item_order":[0,1,2,3,4,5,6,7],"radio_events":[11524.300000011921,13564.699999988079,17199.100000023842,19127.80000001192,24151.69999998808,32079.5,46391.40000003576,80438.19999998808],"checkbox_events":[34635.5,51628.40000003576,52136.19999998808,52479.19999998808,52857.69999998808,53424.19999998808,53763.19999998808,54105.10000002384,54961.30000001192,55261.60000002384,55620.80000001192,55959.19999998808,56954,57281.19999998808,57990.10000002384,58346.19999998808,59311.40000003576,59691.90000003576,60021.30000001192,85639,86163.90000003576,86583.10000002384,86991,87385,87782,88148.10000002384,88675.69999998808,89346.90000003576,89662.69999998808,90107.90000003576,90435.69999998808,90807.90000003576,91221,91596.69999998808,92359,92689.80000001192,93037.80000001192],"key_events":[],"mouse_events":[11524.300000011921,13564.699999988079,17199.100000023842,19127.80000001192,24151.69999998808,32079.5,34635.5,46391.40000003576,51628.40000003576,52136.19999998808,52479.19999998808,52857.69999998808,53424.19999998808,53763.19999998808,54105.10000002384,54448.10000002384,54961.30000001192,55261.60000002384,55620.80000001192,55959.19999998808,56302.30000001192,56954,57281.19999998808,57990.10000002384,58346.19999998808,58850.10000002384,59311.40000003576,59691.90000003576,60021.30000001192,80438.19999998808,85639,86163.90000003576,86583.10000002384,86991,87385,87782,88148.10000002384,88675.69999998808,89012.80000001192,89346.90000003576,89662.69999998808,90107.90000003576,90435.69999998808,90807.90000003576,91221,91596.69999998808,92026.69999998808,92359,92689.80000001192,93037.80000001192,94739.69999998808],"honeypot":0,"survey":"mace","page":10,"trial_type":"survey-mace","trial_index":18,"time_elapsed":2024293,"internal_node_id":"0.0-18.0","task_version":"prescreen-v0.3","browser_interactions":0,"instructed":0},{"rt":17494.599999964237,"trial_type":"mental-health-alert","trial_index":19,"time_elapsed":2041793,"internal_node_id":"0.0-19.0","task_version":"prescreen-v0.3","interactions":"[]"}]