[{"view_history":[{"page_index":0,"viewing_time":89049},{"page_index":1,"viewing_time":2348},{"page_index":2,"viewing_time":2092},{"page_index":3,"viewing_time":1449}],"rt":94938,"trial_type":"instructions","trial_index":0,"time_elapsed":94940,"internal_node_id":"0.0-0.0","task_version":"prescreen-v0.3"},{"rt":16946,"responses":{"age":"40","gender-categorical":"Male","gender-free-response":"","ethnicity":"Not Hispanic or Latino","race":["White"],"education":"Master degree or higher"},"trial_type":"survey-demo","trial_index":1,"time_elapsed":111895,"internal_node_id":"0.0-1.0","task_version":"prescreen-v0.3"},{"responses":{"Q17":"1","Q15":"2","Q06":"3","Q08":"2","Q04":"2","Q18":"3","Q21":"2","Q07":"2","Q05":"3","Q16":"2","Q14":"2","Q12":"2","Q19":"3","Q13":"2","Q10":"2","Q11":"3","Q20":"1","Q09":"2","Q03":"2","Q01":"1","Q02":"2"},"rt":276500,"item_order":[16,14,5,7,3,17,20,6,4,15,13,11,18,12,9,10,19,8,2,0,1],"radio_events":[14310,15970,22873,24088,29841,31769,32803,144082,144858,146104,148032,148793,149671,150470,159109,160104,161820,163081,164908,167487,169596],"key_events":[],"mouse_events":[14310,15970,22873,24088,29841,31769,32803,133914,144082,144858,146104,148032,148793,149671,150470,159109,160104,161820,163081,164908,167487,169596,276500],"straightlining":0.6190476190476191,"zigzagging":0.65,"honeypot":0,"survey":"sns","trial_type":"survey-template","trial_index":2,"time_elapsed":388405,"internal_node_id":"0.0-2.0","task_version":"prescreen-v0.3","browser_interactions":2,"infrequency":0.5},{"responses":{"Q11":"2","Q02":"3","Q10":"2","Q03":"2","Q09":"3","Q01":"3","Q05":"2","Q12":"2","Q04":"3","Q06":"2","Q07":"2","Q08":"2","Q13":"0"},"rt":49027,"item_order":[10,1,9,2,8,0,4,11,3,5,6,7,12],"radio_events":[8551,9749,10597,11575,13049,13660,15431,19883,23112,24053,31632,35598,39174],"key_events":[],"mouse_events":[7179,8551,9749,10597,11575,12508,13049,13660,15431,19883,20909,23112,24053,31632,35598,39174,49027],"straightlining":0.6153846153846154,"zigzagging":0.5,"honeypot":0,"survey":"bisbas","trial_type":"survey-template","trial_index":3,"time_elapsed":437437,"internal_node_id":"0.0-3.0","task_version":"prescreen-v0.3","browser_interactions":0,"infrequency":0},{"responses":{"Q01":"3","Q02":"4","Q03":"3"},"rt":21571,"radio_events":[18865,19868,20802],"key_events":[],"mouse_events":[18865,19868,20802,21571],"survey":"map","page":1,"trial_type":"survey-map","trial_index":4,"time_elapsed":459011,"internal_node_id":"0.0-4.0","task_version":"prescreen-v0.3","browser_interactions":0},{"responses":{"Q04":"3","Q05":"4","Q06":"3"},"rt":126288,"radio_events":[123514,124368,125409],"key_events":[],"mouse_events":[123514,124368,125409,126288],"survey":"map","page":2,"trial_type":"survey-map","trial_index":5,"time_elapsed":585301,"internal_node_id":"0.0-5.0","task_version":"prescreen-v0.3","browser_interactions":2},{"responses":{"Q07":"3","Q08":"4","Q09":"4"},"rt":19852,"radio_events":[7937,15752,19138],"key_events":[],"mouse_events":[7937,15752,19138,19852],"survey":"map","page":3,"trial_type":"survey-map","trial_index":6,"time_elapsed":605155,"internal_node_id":"0.0-6.0","task_version":"prescreen-v0.3","browser_interactions":0},{"responses":{"Q10":"3","Q11":"4","Q12":"3","Q13":"3","Q16":"4","Q14":"3","Q15":"4"},"rt":291347,"radio_events":[33969,39664,40706,43121,44124,46045,47392],"key_events":[],"mouse_events":[33969,39664,40706,43121,44124,46045,47392,291346],"survey":"map","page":4,"trial_type":"survey-map","trial_index":7,"time_elapsed":896505,"internal_node_id":"0.0-7.0","task_version":"prescreen-v0.3","browser_interactions":4,"infrequency":1},{"view_history":[{"page_index":0,"viewing_time":3289},{"page_index":1,"viewing_time":6761}],"rt":10050,"trial_type":"instructions","trial_index":8,"time_elapsed":906557,"internal_node_id":"0.0-8.0","task_version":"prescreen-v0.3"},{"responses":{"01":"No","02":"Yes","02_ages_3":"3","03":"No","04":"Yes","04_ages_5":"5","05":"No","06":"Yes","06_ages_1":"1"},"rt":657802,"item_order":[0,1,2,3,4,5],"radio_events":[195140,563746,621721,627221,634807,654186],"checkbox_events":[617040,628984,636131],"key_events":[],"mouse_events":[0,195140,563746,617040,621721,627221,628984,632169,634807,636131,637698,654186,657801],"honeypot":0,"survey":"mace","page":1,"trial_type":"survey-mace","trial_index":9,"time_elapsed":1564373,"internal_node_id":"0.0-9.0","task_version":"prescreen-v0.3","browser_interactions":4},{"responses":{"01":"No","02":"No","03":"No","04":"Yes","04_ages_2":"2","05":"No","06":"Yes","06_ages_2":"2","07":"No","08":"No"},"rt":492269,"item_order":[0,1,2,3,4,5,6,7],"radio_events":[5959,6827,8793,9991,13256,378788,382997,384107],"checkbox_events":[11244,380658],"key_events":[],"mouse_events":[5959,6827,8793,9991,11244,13256,378788,380658,382997,384107,492269],"honeypot":0,"survey":"mace","page":2,"trial_type":"survey-mace","trial_index":10,"time_elapsed":2056652,"internal_node_id":"0.0-10.0","task_version":"prescreen-v0.3","browser_interactions":4},{"responses":{"01":"Yes","01_ages_2":"2","02":"No","03":"No","04":"No"},"rt":19832,"item_order":[0,1,2,3],"radio_events":[6901,15177,16232,19292],"checkbox_events":[8474],"key_events":[],"mouse_events":[6901,8474,15177,16232,18502,19292,19832],"honeypot":0,"survey":"mace","page":3,"trial_type":"survey-mace","trial_index":11,"time_elapsed":2076490,"internal_node_id":"0.0-11.0","task_version":"prescreen-v0.3","browser_interactions":2},{"responses":{"01":"No","02":"No"},"rt":5466,"item_order":[0,1],"radio_events":[3445,4401],"checkbox_events":[],"key_events":[],"mouse_events":[3445,4401,5465],"honeypot":0,"survey":"mace","page":4,"trial_type":"survey-mace","trial_index":12,"time_elapsed":2081959,"internal_node_id":"0.0-12.0","task_version":"prescreen-v0.3","browser_interactions":0},{"responses":{"01":"No","02":"No","03":"No","04":"No","05":"No"},"rt":16533,"item_order":[0,1,2,3,4],"radio_events":[2311,3408,5338,7403,8077],"checkbox_events":[],"key_events":[],"mouse_events":[2311,3408,5338,7403,8077,16533],"honeypot":0,"survey":"mace","page":5,"trial_type":"survey-mace","trial_index":13,"time_elapsed":2098496,"internal_node_id":"0.0-13.0","task_version":"prescreen-v0.3","browser_interactions":2},{"responses":{"01":"No","02":"No","03":"No","04":"No","05":"No"},"rt":23003,"item_order":[0,1,2,3,4],"radio_events":[17453,18127,18738,20348,21914],"checkbox_events":[],"key_events":[],"mouse_events":[13810,17453,18127,18738,20348,21914,23003],"honeypot":0,"survey":"mace","page":6,"trial_type":"survey-mace","trial_index":14,"time_elapsed":2121504,"internal_node_id":"0.0-14.0","task_version":"prescreen-v0.3","browser_interactions":2},{"responses":{"01":"No","02":"No","03":"No","04":"No","05":"No","06":"No","07":"No"},"rt":25100,"item_order":[0,1,2,3,4,5,6],"radio_events":[10397,15797,16601,20889,21804,23683,24268],"checkbox_events":[],"key_events":[],"mouse_events":[10397,12212,15797,16601,20889,21804,22932,23683,24268,25100],"honeypot":0,"survey":"mace","page":7,"trial_type":"survey-mace","trial_index":15,"time_elapsed":2146614,"internal_node_id":"0.0-15.0","task_version":"prescreen-v0.3","browser_interactions":0},{"responses":{"01":"No","02":"No","03":"No","04":"No"},"rt":47391,"item_order":[0,1,2,3],"radio_events":[43190,44073,44731,45590],"checkbox_events":[],"key_events":[],"mouse_events":[43190,44073,44731,45590,47391],"honeypot":0,"survey":"mace","page":8,"trial_type":"survey-mace","trial_index":16,"time_elapsed":2194009,"internal_node_id":"0.0-16.0","task_version":"prescreen-v0.3","browser_interactions":2},{"responses":{"01":"No","02":"No","03":"No","04":"No"},"rt":78676,"item_order":[0,1,2,3],"radio_events":[5797,6602,7251,7877],"checkbox_events":[],"key_events":[],"mouse_events":[5797,6602,7251,7877,78676],"honeypot":0,"survey":"mace","page":9,"trial_type":"survey-mace","trial_index":17,"time_elapsed":2272694,"internal_node_id":"0.0-17.0","task_version":"prescreen-v0.3","browser_interactions":0},{"responses":{"01":"No","02":"No","03":"No","04":"No","05":"No","06":"Yes","06_ages_17":"17","07":"No","08":"No"},"rt":143090,"item_order":[0,1,2,3,4,5,6,7],"radio_events":[4724,12381,14602,27932,33320,34001,137191,138050],"checkbox_events":[30364],"key_events":[],"mouse_events":[4724,12381,14602,23761,24231,27932,30364,33320,34001,136487,137191,138050,143089],"honeypot":0,"survey":"mace","page":10,"trial_type":"survey-mace","trial_index":18,"time_elapsed":2415792,"internal_node_id":"0.0-18.0","task_version":"prescreen-v0.3","browser_interactions":0,"instructed":0},{"rt":18456,"trial_type":"mental-health-alert","trial_index":19,"time_elapsed":2434251,"internal_node_id":"0.0-19.0","task_version":"prescreen-v0.3","interactions":"[{\"event\":\"focus\",\"trial\":0,\"time\":86772},{\"event\":\"blur\",\"trial\":2,\"time\":162525},{\"event\":\"focus\",\"trial\":2,\"time\":234785},{\"event\":\"blur\",\"trial\":5,\"time\":460841},{\"event\":\"focus\",\"trial\":5,\"time\":544850},{\"event\":\"blur\",\"trial\":7,\"time\":625326},{\"event\":\"focus\",\"trial\":7,\"time\":635261},{\"event\":\"blur\",\"trial\":7,\"time\":709501},{\"event\":\"focus\",\"trial\":7,\"time\":806780},{\"event\":\"blur\",\"trial\":9,\"time\":908155},{\"event\":\"focus\",\"trial\":9,\"time\":1079791},{\"event\":\"blur\",\"trial\":9,\"time\":1462054},{\"event\":\"focus\",\"trial\":9,\"time\":1467760},{\"event\":\"blur\",\"trial\":10,\"time\":1584793},{\"event\":\"focus\",\"trial\":10,\"time\":1585780},{\"event\":\"blur\",\"trial\":10,\"time\":1586991},{\"event\":\"focus\",\"trial\":10,\"time\":1588056},{\"event\":\"blur\",\"trial\":11,\"time\":2057820},{\"event\":\"focus\",\"trial\":11,\"time\":2058805},{\"event\":\"blur\",\"trial\":13,\"time\":2094112},{\"event\":\"focus\",\"trial\":13,\"time\":2097235},{\"event\":\"blur\",\"trial\":14,\"time\":2099860},{\"event\":\"focus\",\"trial\":14,\"time\":2110751},{\"event\":\"blur\",\"trial\":16,\"time\":2147554},{\"event\":\"focus\",\"trial\":16,\"time\":2183611},{\"event\":\"blur\",\"trial\":19,\"time\":2419428},{\"event\":\"focus\",\"trial\":19,\"time\":2420259}]"}]