[{"view_history":[{"page_index":0,"viewing_time":29511.19999998808},{"page_index":1,"viewing_time":13012.800000011921},{"page_index":2,"viewing_time":600708.2999999821},{"page_index":3,"viewing_time":1244.7000000178814}],"rt":644477.1999999881,"trial_type":"instructions","trial_index":0,"time_elapsed":644485,"internal_node_id":"0.0-0.0","task_version":"prescreen-v0.3"},{"rt":17755,"responses":{"age":"36","gender-categorical":"Male","gender-free-response":"","ethnicity":"Not Hispanic or Latino","race":["White"],"education":"Bachelor degree","siblings":"1"},"trial_type":"survey-demo","trial_index":1,"time_elapsed":662244,"internal_node_id":"0.0-1.0","task_version":"prescreen-v0.3"},{"responses":{"Q15":"2","Q05":"2","Q03":"1","Q08":"2","Q01":"2","Q10":"1","Q13":"1","Q04":"1","Q12":"2","Q20":"0","Q09":"1","Q21":"2","Q18":"1","Q06":"1","Q16":"1","Q11":"1","Q02":"2","Q07":"1","Q14":"1","Q17":"1","Q19":"1"},"rt":129586.5,"item_order":[14,4,2,7,0,9,12,3,11,19,8,20,17,5,15,10,1,6,13,16,18],"radio_events":[8851,14356.09999999404,17438.09999999404,21191.90000000596,23701.80000001192,27396,37433.90000000596,41336.09999999404,47937.09999999404,50823.09999999404,55974.09999999404,56616.90000000596,59951.09999999404,67101,73070.20000001788,79930,83231.09999999404,88664.09999999404,96660.09999999404,102200.09999999404,119562,128598.80000001192],"key_events":[],"mouse_events":[8234.300000011921,8851,14356.09999999404,17438.09999999404,21191.90000000596,23701.80000001192,27396,37433.90000000596,41336.09999999404,47937.09999999404,50823.09999999404,55974.09999999404,56616.90000000596,59951.09999999404,67101,73070.20000001788,79930,83231.09999999404,88664.09999999404,95834.30000001192,96660.09999999404,102200.09999999404,117751,118721,119562,128598.80000001192,129584.90000000596],"straightlining":0.6190476190476191,"zigzagging":0.45,"honeypot":0,"survey":"sns","trial_type":"survey-template","trial_index":2,"time_elapsed":791835,"internal_node_id":"0.0-2.0","task_version":"prescreen-v0.3","browser_interactions":0,"infrequency":0.5},{"responses":{"Q05":"2","Q08":"2","Q06":"2","Q11":"2","Q07":"2","Q12":"2","Q13":"0","Q10":"2","Q01":"3","Q02":"2","Q09":"2","Q04":"2","Q03":"2"},"rt":63285.5,"item_order":[4,7,5,10,6,11,12,9,0,1,8,3,2],"radio_events":[5620.600000023842,12004.40000000596,15309.40000000596,24348.600000023842,30815.5,31316.5,34031.5,43363.60000002384,44069.40000000596,46208.60000002384,48952.40000000596,52328.60000002384,57585.40000000596,61723.40000000596],"key_events":[],"mouse_events":[5620.600000023842,12004.40000000596,15309.40000000596,24348.600000023842,26275.30000001192,30815.5,31316.5,34031.5,43363.60000002384,44069.40000000596,46208.60000002384,48952.40000000596,52328.60000002384,57585.40000000596,61723.40000000596,63284.5],"straightlining":0.8461538461538461,"zigzagging":0.16666666666666666,"honeypot":0,"survey":"bisbas","trial_type":"survey-template","trial_index":3,"time_elapsed":855123,"internal_node_id":"0.0-3.0","task_version":"prescreen-v0.3","browser_interactions":0,"infrequency":0},{"responses":{"Q01":"2","Q02":"2","Q03":"1"},"rt":21492.59999999404,"radio_events":[8661.5,13586.399999976158,20046.399999976158],"key_events":[],"mouse_events":[8661.5,13586.399999976158,20046.399999976158,21492.19999998808],"survey":"map","page":1,"trial_type":"survey-map","trial_index":4,"time_elapsed":876618,"internal_node_id":"0.0-4.0","task_version":"prescreen-v0.3","browser_interactions":0},{"responses":{"Q04":"3","Q05":"3","Q06":"3"},"rt":19616.90000000596,"radio_events":[5419.200000017881,9361.40000000596,10082.40000000596,11898,17872.40000000596,18957.30000001192],"key_events":[],"mouse_events":[5419.200000017881,9361.40000000596,10082.40000000596,11132.5,11898,17872.40000000596,18957.30000001192,19616.5],"survey":"map","page":2,"trial_type":"survey-map","trial_index":5,"time_elapsed":896236,"internal_node_id":"0.0-5.0","task_version":"prescreen-v0.3","browser_interactions":0},{"responses":{"Q07":"2","Q08":"2","Q09":"1"},"rt":42333.5,"radio_events":[18683,24679.90000000596,41656],"key_events":[],"mouse_events":[18683,24134.90000000596,24679.90000000596,41656,42333],"survey":"map","page":3,"trial_type":"survey-map","trial_index":6,"time_elapsed":938571,"internal_node_id":"0.0-6.0","task_version":"prescreen-v0.3","browser_interactions":0},{"responses":{"Q10":"2","Q11":"1","Q12":"1","Q13":"2","Q16":"0","Q14":"2","Q15":"2"},"rt":76511.79999998212,"radio_events":[5557.899999976158,16553,17484,24173.899999976158,28778.899999976158,42954,60223,71257.39999997616,72244,76009],"key_events":[],"mouse_events":[5557.899999976158,16553,16958.899999976158,17484,24173.899999976158,28778.899999976158,42954,55584,57998.89999997616,60223,71257.39999997616,72244,76009,76511.09999999404],"survey":"map","page":4,"trial_type":"survey-map","trial_index":7,"time_elapsed":1015085,"internal_node_id":"0.0-7.0","task_version":"prescreen-v0.3","browser_interactions":0,"infrequency":0},{"view_history":[{"page_index":0,"viewing_time":3010.5999999940395},{"page_index":1,"viewing_time":3891.199999988079}],"rt":6902.0999999940395,"trial_type":"instructions","trial_index":8,"time_elapsed":1021988,"internal_node_id":"0.0-8.0","task_version":"prescreen-v0.3"},{"responses":{"01":"No","02":"Yes","02_ages_12":"12","02_ages_13":"13","02_ages_14":"14","03":"No","04":"No","05":"No","06":"No"},"rt":41996.80000001192,"item_order":[0,1,2,3,4,5],"radio_events":[7348.5999999940395,10737,35665.40000000596,37039.30000001192,39605.30000001192,41556.30000001192],"checkbox_events":[16760.59999999404,17161.19999998808,17535.30000001192,17915.40000000596,19150.30000001192,20151.40000000596,21027.19999998808,21732.40000000596,23440.40000000596],"key_events":[],"mouse_events":[0.09999999403953552,7348.5999999940395,8144.300000011921,10737,16760.59999999404,17161.19999998808,17535.30000001192,17915.40000000596,19150.30000001192,20151.40000000596,21027.19999998808,21732.40000000596,23440.40000000596,35665.40000000596,37039.30000001192,39605.30000001192,41556.30000001192,41995.19999998808],"honeypot":0,"survey":"mace","page":1,"trial_type":"survey-mace","trial_index":9,"time_elapsed":1063989,"internal_node_id":"0.0-9.0","task_version":"prescreen-v0.3","browser_interactions":0},{"responses":{"01":"No","02":"No","03":"No","04":"No","05":"No","06":"No","07":"No","08":"No"},"rt":20908.90000000596,"item_order":[0,1,2,3,4,5,6,7],"radio_events":[5887.9000000059605,9153.200000017881,11300.90000000596,13286.100000023842,14791.100000023842,17165.20000001788,18856.20000001788,20398.100000023842],"checkbox_events":[],"key_events":[],"mouse_events":[5318,5887.9000000059605,9153.200000017881,11300.90000000596,13286.100000023842,14791.100000023842,17165.20000001788,18856.20000001788,20398.100000023842,20906],"honeypot":0,"survey":"mace","page":2,"trial_type":"survey-mace","trial_index":10,"time_elapsed":1084900,"internal_node_id":"0.0-10.0","task_version":"prescreen-v0.3","browser_interactions":0},{"responses":{"01":"No","02":"No","03":"No","04":"No"},"rt":16328.5,"item_order":[0,1,2,3],"radio_events":[6426.700000017881,10261,13550.700000017881,15889.59999999404],"checkbox_events":[],"key_events":[],"mouse_events":[6426.700000017881,10261,13550.700000017881,15889.59999999404,16326.800000011921],"honeypot":0,"survey":"mace","page":3,"trial_type":"survey-mace","trial_index":11,"time_elapsed":1101231,"internal_node_id":"0.0-11.0","task_version":"prescreen-v0.3","browser_interactions":0},{"responses":{"01":"No","02":"No"},"rt":11564.199999988079,"item_order":[0,1],"radio_events":[8870.5,10979.40000000596],"checkbox_events":[],"key_events":[],"mouse_events":[8870.5,10603.40000000596,10979.40000000596,11563.40000000596],"honeypot":0,"survey":"mace","page":4,"trial_type":"survey-mace","trial_index":12,"time_elapsed":1112796,"internal_node_id":"0.0-12.0","task_version":"prescreen-v0.3","browser_interactions":0},{"responses":{"01":"No","02":"No","03":"No","04":"No","05":"No"},"rt":38058.09999999404,"item_order":[0,1,2,3,4],"radio_events":[9767.300000011921,15662.40000000596,22241.09999999404,32586.19999998808,37412],"checkbox_events":[],"key_events":[],"mouse_events":[9767.300000011921,15662.40000000596,21463.40000000596,22241.09999999404,32586.19999998808,37412,38056.30000001192],"honeypot":0,"survey":"mace","page":5,"trial_type":"survey-mace","trial_index":13,"time_elapsed":1150857,"internal_node_id":"0.0-13.0","task_version":"prescreen-v0.3","browser_interactions":0},{"responses":{"01":"No","02":"Yes","02_ages_13":"13","02_ages_14":"14","02_ages_15":"15","03":"Yes","03_ages_13":"13","03_ages_14":"14","03_ages_15":"15","04":"Yes","04_ages_13":"13","04_ages_14":"14","04_ages_15":"15","05":"No"},"rt":39391.70000001788,"item_order":[0,1,2,3,4],"radio_events":[3679.800000011921,12198.700000017881,24864.70000001788,30624.70000001788,38817.5],"checkbox_events":[15385,15717.700000017881,16084.59999999404,26695.59999999404,27197.70000001788,27604.70000001788,31638.70000001788,33330.5,33959.70000001788],"key_events":[],"mouse_events":[3679.800000011921,12198.700000017881,15385,15717.700000017881,16084.59999999404,24864.70000001788,26695.59999999404,27197.70000001788,27604.70000001788,30624.70000001788,31638.70000001788,31995.40000000596,32500,33330.5,33959.70000001788,34815.70000001788,38817.5,39390],"honeypot":0,"survey":"mace","page":6,"trial_type":"survey-mace","trial_index":14,"time_elapsed":1190251,"internal_node_id":"0.0-14.0","task_version":"prescreen-v0.3","browser_interactions":0},{"responses":{"01":"No","02":"No","03":"No","04":"No","05":"No","06":"No","07":"No"},"rt":29554.90000000596,"item_order":[0,1,2,3,4,5,6],"radio_events":[3506.0999999940395,6030.300000011921,11001.40000000596,15739.300000011921,21429.19999998808,24656.40000000596,25124.5],"checkbox_events":[],"key_events":[],"mouse_events":[3506.0999999940395,6030.300000011921,11001.40000000596,15739.300000011921,21429.19999998808,24656.40000000596,25124.5,29552.59999999404],"honeypot":0,"survey":"mace","page":7,"trial_type":"survey-mace","trial_index":15,"time_elapsed":1219808,"internal_node_id":"0.0-15.0","task_version":"prescreen-v0.3","browser_interactions":0},{"responses":{"01":"No","02":"No","03":"Yes","03_ages_10":"10","03_ages_11":"11","03_ages_12":"12","03_ages_13":"13","03_ages_14":"14","03_ages_15":"15","03_ages_16":"16","03_ages_17":"17","03_ages_18":"18","04":"No"},"rt":31371.5,"item_order":[0,1,2,3],"radio_events":[8142.299999982119,11366.59999999404,17065.59999999404,30428.59999999404],"checkbox_events":[19258.5,19904.399999976158,20337.5,20786.5,21211.59999999404,21559.399999976158,21996.5,26343.5,27187.5],"key_events":[],"mouse_events":[8142.299999982119,11366.59999999404,17065.59999999404,19258.5,19904.399999976158,20337.5,20786.5,21211.59999999404,21559.399999976158,21996.5,26343.5,26770.29999998212,27187.5,30428.59999999404,31370],"honeypot":0,"survey":"mace","page":8,"trial_type":"survey-mace","trial_index":16,"time_elapsed":1251182,"internal_node_id":"0.0-16.0","task_version":"prescreen-v0.3","browser_interactions":0},{"responses":{"01":"Yes","01_ages_1":"1","01_ages_2":"2","01_ages_3":"3","01_ages_4":"4","01_ages_5":"5","01_ages_6":"6","01_ages_7":"7","01_ages_8":"8","01_ages_9":"9","01_ages_10":"10","01_ages_11":"11","01_ages_12":"12","01_ages_13":"13","01_ages_14":"14","01_ages_15":"15","01_ages_16":"16","01_ages_17":"17","01_ages_18":"18","02":"Yes","02_ages_1":"1","02_ages_2":"2","02_ages_3":"3","02_ages_4":"4","02_ages_5":"5","02_ages_6":"6","02_ages_7":"7","02_ages_8":"8","02_ages_9":"9","02_ages_10":"10","02_ages_11":"11","02_ages_12":"12","02_ages_13":"13","02_ages_14":"14","02_ages_15":"15","02_ages_16":"16","02_ages_17":"17","02_ages_18":"18","03":"Yes","03_ages_1":"1","03_ages_2":"2","03_ages_3":"3","03_ages_4":"4","03_ages_5":"5","03_ages_6":"6","03_ages_7":"7","03_ages_8":"8","03_ages_9":"9","03_ages_10":"10","03_ages_11":"11","03_ages_12":"12","03_ages_13":"13","03_ages_14":"14","03_ages_15":"15","03_ages_16":"16","03_ages_17":"17","03_ages_18":"18","04":"Yes","04_ages_1":"1","04_ages_2":"2","04_ages_3":"3","04_ages_4":"4","04_ages_5":"5","04_ages_6":"6","04_ages_7":"7","04_ages_8":"8","04_ages_9":"9","04_ages_10":"10","04_ages_11":"11","04_ages_12":"12","04_ages_13":"13","04_ages_14":"14","04_ages_15":"15","04_ages_16":"16","04_ages_17":"17","04_ages_18":"18"},"rt":59024.40000000596,"item_order":[0,1,2,3],"radio_events":[4205.800000011921,22509.90000000596,36379.80000001192,48475.5],"checkbox_events":[9266.699999988079,9735.5,10181.90000000596,10703.90000000596,11148.699999988079,11502.90000000596,11875,12238,13188.800000011921,13543.90000000596,13995.90000000596,14319.90000000596,14643.90000000596,15008.90000000596,15777.59999999404,16066,16430.90000000596,16859.90000000596,23467.5,23985.5,24426,24941.69999998808,25363.5,25812.80000001192,26260.90000000596,26768.90000000596,27215.69999998808,27632.40000000596,28211.69999998808,28660.90000000596,29779.59999999404,30198.90000000596,30558.80000001192,31120.90000000596,31585.90000000596,31985.69999998808,37380.80000001192,37739.69999998808,38055,38398.90000000596,38721.69999998808,39068.69999998808,39411.90000000596,39782.90000000596,40129.69999998808,40473,40798.59999999404,41182.90000000596,41808.80000001192,42109.80000001192,42825.80000001192,43166.69999998808,43676.90000000596,44108.80000001192,49295.90000000596,49610.80000001192,50375.90000000596,50799.69999998808,51276.90000000596,51689.69999998808,52064.90000000596,52456.80000001192,52808.80000001192,53323.90000000596,53818.80000001192,54252.90000000596,54646.80000001192,55750.69999998808,56310.90000000596,56841.69999998808,57324.90000000596,58384.80000001192],"key_events":[],"mouse_events":[4205.800000011921,9266.699999988079,9735.5,10181.90000000596,10703.90000000596,11148.699999988079,11502.90000000596,11875,12238,12689.90000000596,13188.800000011921,13543.90000000596,13995.90000000596,14319.90000000596,14643.90000000596,15008.90000000596,15360.90000000596,15777.59999999404,16066,16430.90000000596,16859.90000000596,22509.90000000596,23467.5,23985.5,24426,24941.69999998808,25363.5,25812.80000001192,26260.90000000596,26768.90000000596,27215.69999998808,27632.40000000596,28211.69999998808,28660.90000000596,29153.80000001192,29779.59999999404,30198.90000000596,30558.80000001192,31120.90000000596,31585.90000000596,31985.69999998808,36379.80000001192,37380.80000001192,37739.69999998808,38055,38398.90000000596,38721.69999998808,39068.69999998808,39411.90000000596,39782.90000000596,40129.69999998808,40473,40798.59999999404,41182.90000000596,41808.80000001192,42109.80000001192,42427.90000000596,42825.80000001192,43166.69999998808,43676.90000000596,44108.80000001192,48475.5,49295.90000000596,49610.80000001192,49988.90000000596,50375.90000000596,50799.69999998808,51276.90000000596,51689.69999998808,52064.90000000596,52456.80000001192,52808.80000001192,53323.90000000596,53818.80000001192,54252.90000000596,54646.80000001192,55121.80000001192,55750.69999998808,56310.90000000596,56841.69999998808,57324.90000000596,57742.90000000596,58384.80000001192,59023],"honeypot":0,"survey":"mace","page":9,"trial_type":"survey-mace","trial_index":17,"time_elapsed":1310208,"internal_node_id":"0.0-17.0","task_version":"prescreen-v0.3","browser_interactions":0},{"responses":{"01":"No","02":"No","03":"No","04":"No","05":"No","06":"Yes","06_ages_17":"17","07":"Yes","07_ages_1":"1","07_ages_2":"2","07_ages_3":"3","07_ages_4":"4","07_ages_5":"5","07_ages_6":"6","07_ages_7":"7","07_ages_8":"8","07_ages_9":"9","07_ages_10":"10","07_ages_11":"11","07_ages_12":"12","07_ages_13":"13","07_ages_14":"14","07_ages_15":"15","07_ages_16":"16","07_ages_17":"17","07_ages_18":"18","08":"Yes","08_ages_1":"1","08_ages_2":"2","08_ages_3":"3","08_ages_4":"4","08_ages_5":"5","08_ages_6":"6","08_ages_7":"7","08_ages_8":"8","08_ages_9":"9","08_ages_10":"10","08_ages_11":"11","08_ages_12":"12","08_ages_13":"13","08_ages_14":"14","08_ages_15":"15","08_ages_16":"16","08_ages_17":"17","08_ages_18":"18"},"rt":53524.90000000596,"item_order":[0,1,2,3,4,5,6,7],"radio_events":[6260.9000000059605,7477.9000000059605,10895.700000017881,13055.59999999404,14395.90000000596,16872.59999999404,27853.80000001192,43384.80000001192],"checkbox_events":[19162.5,30556.70000001788,31007.70000001788,31947.20000001788,32615.70000001788,33217.70000001788,33594.59999999404,34140.20000001788,34577.70000001788,34943.59999999404,35653,36003.59999999404,36502.90000000596,37515.59999999404,37884.5,38008.80000001192,38871.70000001788,39360.59999999404,40068.90000000596,40483.59999999404,40886.59999999404,44219.59999999404,44682.59999999404,45183.70000001788,45688.70000001788,46095.59999999404,46459.59999999404,47317.70000001788,47707.70000001788,48206.5,48630.70000001788,49001.80000001192,49532.5,49942.5,50431.80000001192,50798.80000001192,51192.70000001788,51794.5,52230.70000001788],"key_events":[],"mouse_events":[6260.9000000059605,7477.9000000059605,10895.700000017881,13055.59999999404,14395.90000000596,16872.59999999404,19162.5,21415.90000000596,27853.80000001192,30556.70000001788,31007.70000001788,31508.70000001788,31947.20000001788,32371.20000001788,32615.70000001788,33217.70000001788,33594.59999999404,34140.20000001788,34577.70000001788,34943.59999999404,35273.90000000596,35653,36003.59999999404,36502.90000000596,36898.70000001788,37515.59999999404,37884.5,38008.80000001192,38871.70000001788,39360.59999999404,39782.40000000596,40068.90000000596,40483.59999999404,40886.59999999404,43384.80000001192,44219.59999999404,44682.59999999404,45183.70000001788,45688.70000001788,46095.59999999404,46459.59999999404,46860.70000001788,47317.70000001788,47707.70000001788,48206.5,48630.70000001788,49001.80000001192,49532.5,49942.5,50431.80000001192,50798.80000001192,51192.70000001788,51794.5,52230.70000001788,53521.80000001192],"honeypot":0,"survey":"mace","page":10,"trial_type":"survey-mace","trial_index":18,"time_elapsed":1363736,"internal_node_id":"0.0-18.0","task_version":"prescreen-v0.3","browser_interactions":0,"instructed":0},{"rt":6143.699999988079,"trial_type":"mental-health-alert","trial_index":19,"time_elapsed":1369881,"internal_node_id":"0.0-19.0","task_version":"prescreen-v0.3","interactions":"[{\"event\":\"blur\",\"trial\":0,\"time\":6995},{\"event\":\"focus\",\"trial\":0,\"time\":8602},{\"event\":\"blur\",\"trial\":0,\"time\":9206},{\"event\":\"focus\",\"trial\":0,\"time\":12785},{\"event\":\"blur\",\"trial\":0,\"time\":14338},{\"event\":\"focus\",\"trial\":0,\"time\":27309},{\"event\":\"blur\",\"trial\":0,\"time\":36904},{\"event\":\"focus\",\"trial\":0,\"time\":41692},{\"event\":\"blur\",\"trial\":0,\"time\":49676},{\"event\":\"focus\",\"trial\":0,\"time\":70502},{\"event\":\"blur\",\"trial\":0,\"time\":72349},{\"event\":\"focus\",\"trial\":0,\"time\":79769},{\"event\":\"blur\",\"trial\":0,\"time\":87152},{\"event\":\"focus\",\"trial\":0,\"time\":94992},{\"event\":\"blur\",\"trial\":0,\"time\":96119},{\"event\":\"focus\",\"trial\":0,\"time\":110790},{\"event\":\"blur\",\"trial\":0,\"time\":111578},{\"event\":\"focus\",\"trial\":0,\"time\":642247}]"}]