[{"view_history":[{"page_index":0,"viewing_time":3296.39999999851},{"page_index":1,"viewing_time":4119.79999999702},{"page_index":2,"viewing_time":2924.2000000029802},{"page_index":3,"viewing_time":1050}],"rt":11391.69999999553,"trial_type":"instructions","trial_index":0,"time_elapsed":11425,"internal_node_id":"0.0-0.0","task_version":"prescreen-v0.3"},{"rt":17967.5,"responses":{"age":"29","gender-categorical":"Male","gender-free-response":"","ethnicity":"Not Hispanic or Latino","race":["White"],"education":"Associate degree","siblings":"2"},"trial_type":"survey-demo","trial_index":1,"time_elapsed":29402,"internal_node_id":"0.0-1.0","task_version":"prescreen-v0.3"},{"responses":{"Q06":"2","Q16":"0","Q08":"0","Q14":"1","Q13":"1","Q07":"0","Q01":"2","Q03":"1","Q21":"3","Q11":"2","Q20":"0","Q04":"0","Q18":"0","Q02":"0","Q15":"2","Q05":"0","Q10":"1","Q17":"1","Q09":"1","Q19":"0","Q12":"0"},"rt":97235.89999999851,"item_order":[5,15,7,13,12,6,0,2,20,10,19,3,17,1,14,4,9,16,8,18,11],"radio_events":[7878.89999999851,12502.89999999851,14136.89999999851,20091.30000000447,23247.30000000447,28779.20000000298,31175,35323.20000000298,38825.30000000447,41518.80000000447,44523.10000000149,50574.5,53981.20000000298,58710.80000000447,66226.89999999851,73553,76988.89999999851,80197.80000000447,84834.89999999851,92328.89999999851,96031.19999999553],"key_events":[],"mouse_events":[7878.89999999851,12502.89999999851,14136.89999999851,18920.89999999851,19586.80000000447,20091.30000000447,22767.30000000447,23247.30000000447,28240.70000000298,28779.20000000298,31175,35323.20000000298,38825.30000000447,41518.80000000447,44044.30000000447,44523.10000000149,50574.5,53484.89999999851,53981.20000000298,58710.80000000447,66226.89999999851,73553,76988.89999999851,80197.80000000447,84163.19999999553,84834.89999999851,92328.89999999851,95599.30000000447,96031.19999999553,97233.00000000745],"straightlining":0.47619047619047616,"zigzagging":0.3,"honeypot":0,"survey":"sns","trial_type":"survey-template","trial_index":2,"time_elapsed":126646,"internal_node_id":"0.0-2.0","task_version":"prescreen-v0.3","browser_interactions":0,"infrequency":0},{"responses":{"Q04":"0","Q06":"3","Q11":"2","Q03":"2","Q07":"3","Q05":"3","Q02":"0","Q12":"2","Q13":"0","Q01":"3","Q10":"2","Q08":"3","Q09":"2"},"rt":66991.09999999404,"item_order":[3,5,10,2,6,4,1,11,12,0,9,7,8],"radio_events":[9569.09999999404,14777.59999999404,20155.40000000596,26489.29999999702,34875.40000000596,38055,40805.5,47405.5,50561,53478.90000000596,56789,62149.20000000298,66285.40000000596],"key_events":[],"mouse_events":[9569.09999999404,14329.20000000298,14777.59999999404,20155.40000000596,26489.29999999702,34307.09999999404,34875.40000000596,37343.59999999404,38055,40805.5,46619.59999999404,46989.5,47405.5,50561,53478.90000000596,56789,62149.20000000298,66285.40000000596,66989.5],"straightlining":0.38461538461538464,"zigzagging":0.6666666666666666,"honeypot":0,"survey":"bisbas","trial_type":"survey-template","trial_index":3,"time_elapsed":193637,"internal_node_id":"0.0-3.0","task_version":"prescreen-v0.3","browser_interactions":0,"infrequency":0},{"responses":{"Q01":"3","Q02":"1","Q03":"3"},"rt":25006.90000000596,"radio_events":[11253.10000000894,16808.80000001192,22144.70000000298],"key_events":[],"mouse_events":[4625,11253.10000000894,16808.80000001192,22144.70000000298,25005.70000000298],"survey":"map","page":1,"trial_type":"survey-map","trial_index":4,"time_elapsed":218648,"internal_node_id":"0.0-4.0","task_version":"prescreen-v0.3","browser_interactions":0},{"responses":{"Q04":"4","Q05":"3","Q06":"4"},"rt":13047.09999999404,"radio_events":[4778.70000000298,8760.09999999404,12180.39999999106],"key_events":[],"mouse_events":[4778.70000000298,8760.09999999404,12180.39999999106,13046.20000000298],"survey":"map","page":2,"trial_type":"survey-map","trial_index":5,"time_elapsed":231698,"internal_node_id":"0.0-5.0","task_version":"prescreen-v0.3","browser_interactions":0},{"responses":{"Q07":"2","Q08":"0","Q09":"4"},"rt":16939.60000000894,"radio_events":[8870.800000011921,12756.5,16216.70000000298],"key_events":[],"mouse_events":[8870.800000011921,12756.5,16216.70000000298,16938.60000000894],"survey":"map","page":3,"trial_type":"survey-map","trial_index":6,"time_elapsed":248646,"internal_node_id":"0.0-6.0","task_version":"prescreen-v0.3","browser_interactions":0},{"responses":{"Q10":"1","Q11":"0","Q12":"0","Q13":"0","Q16":"0","Q14":"4","Q15":"4"},"rt":33207.40000000596,"radio_events":[3953.7999999970198,9085.60000000894,12473.5,19185.29999999702,22877.70000000298,28135.20000000298,32461.29999999702],"key_events":[],"mouse_events":[3953.7999999970198,8647.40000000596,9085.60000000894,12473.5,18847.5,19185.29999999702,22877.70000000298,28135.20000000298,32461.29999999702,33205.5],"survey":"map","page":4,"trial_type":"survey-map","trial_index":7,"time_elapsed":281857,"internal_node_id":"0.0-7.0","task_version":"prescreen-v0.3","browser_interactions":0,"infrequency":0},{"view_history":[{"page_index":0,"viewing_time":2167.2999999970198},{"page_index":1,"viewing_time":4629.29999999702}],"rt":6797.5999999940395,"trial_type":"instructions","trial_index":8,"time_elapsed":288656,"internal_node_id":"0.0-8.0","task_version":"prescreen-v0.3"},{"responses":{"01":"No","02":"No","03":"No","04":"No","05":"No","06":"No"},"rt":22416.29999999702,"item_order":[0,1,2,3,4,5],"radio_events":[9282.29999999702,12510.29999999702,15026.09999999404,17077.89999999106,19376,21548.09999999404],"checkbox_events":[],"key_events":[],"mouse_events":[0.29999999701976776,8785.59999999404,9282.29999999702,12093.70000000298,12510.29999999702,15026.09999999404,16716,17077.89999999106,18591.79999999702,19376,21548.09999999404,22412.70000000298],"honeypot":0,"survey":"mace","page":1,"trial_type":"survey-mace","trial_index":9,"time_elapsed":311082,"internal_node_id":"0.0-9.0","task_version":"prescreen-v0.3","browser_interactions":0},{"responses":{"01":"No","02":"No","03":"No","04":"No","05":"No","06":"No","07":"No","08":"No"},"rt":24997.5,"item_order":[0,1,2,3,4,5,6,7],"radio_events":[2594.0999999940395,4773.899999991059,7306.29999999702,11937.39999999106,17380,19872,21745.5,24078.39999999106],"checkbox_events":[],"key_events":[],"mouse_events":[2594.0999999940395,4773.899999991059,7306.29999999702,11937.39999999106,17380,18765.89999999106,19134.29999999702,19872,21745.5,23629.5,24078.39999999106,24992.09999999404],"honeypot":0,"survey":"mace","page":2,"trial_type":"survey-mace","trial_index":10,"time_elapsed":336085,"internal_node_id":"0.0-10.0","task_version":"prescreen-v0.3","browser_interactions":0},{"responses":{"01":"No","02":"No","03":"No","04":"No"},"rt":9549.70000000298,"item_order":[0,1,2,3],"radio_events":[2350.9000000059605,6287.20000000298,7432.9000000059605,8675.5],"checkbox_events":[],"key_events":[],"mouse_events":[2350.9000000059605,6287.20000000298,7432.9000000059605,8675.5,9546.90000000596],"honeypot":0,"survey":"mace","page":3,"trial_type":"survey-mace","trial_index":11,"time_elapsed":345639,"internal_node_id":"0.0-11.0","task_version":"prescreen-v0.3","browser_interactions":0},{"responses":{"01":"No","02":"No"},"rt":9073.29999999702,"item_order":[0,1],"radio_events":[2565.2999999970198,8431.09999999404],"checkbox_events":[],"key_events":[],"mouse_events":[2565.2999999970198,7983.399999991059,8431.09999999404,9071.39999999106],"honeypot":0,"survey":"mace","page":4,"trial_type":"survey-mace","trial_index":12,"time_elapsed":354716,"internal_node_id":"0.0-12.0","task_version":"prescreen-v0.3","browser_interactions":0},{"responses":{"01":"No","02":"No","03":"No","04":"No","05":"No"},"rt":18592,"item_order":[0,1,2,3,4],"radio_events":[6086,11297,13789.5,15878.90000000596,17473.20000000298],"checkbox_events":[],"key_events":[],"mouse_events":[6086,11297,13789.5,15878.90000000596,17473.20000000298,18587.40000000596],"honeypot":0,"survey":"mace","page":5,"trial_type":"survey-mace","trial_index":13,"time_elapsed":373312,"internal_node_id":"0.0-13.0","task_version":"prescreen-v0.3","browser_interactions":0},{"responses":{"01":"No","02":"No","03":"No","04":"No","05":"No"},"rt":23983.60000000894,"item_order":[0,1,2,3,4],"radio_events":[2602.7000000029802,8540.800000011921,10865.90000000596,12010.60000000894,23276.10000000894],"checkbox_events":[],"key_events":[],"mouse_events":[2602.7000000029802,6874.100000008941,8540.800000011921,10865.90000000596,12010.60000000894,23276.10000000894,23980.70000000298],"honeypot":0,"survey":"mace","page":6,"trial_type":"survey-mace","trial_index":14,"time_elapsed":397299,"internal_node_id":"0.0-14.0","task_version":"prescreen-v0.3","browser_interactions":0},{"responses":{"01":"No","02":"No","03":"No","04":"Yes","04_ages_6":"6","05":"No","06":"No","07":"No"},"rt":33211.5,"item_order":[0,1,2,3,4,5,6],"radio_events":[2811.5,4045.7999999970198,7643.9000000059605,9581.70000000298,14470,25101.70000000298,31177.20000000298,32467.59999999404],"checkbox_events":[19286.29999999702],"key_events":[],"mouse_events":[2811.5,4045.7999999970198,6137.79999999702,6833.79999999702,7643.9000000059605,9181.79999999702,9581.70000000298,14470,19286.29999999702,23547.59999999404,24107.5,24459.29999999702,25101.70000000298,31177.20000000298,32467.59999999404,33206.09999999404],"honeypot":0,"survey":"mace","page":7,"trial_type":"survey-mace","trial_index":15,"time_elapsed":430516,"internal_node_id":"0.0-15.0","task_version":"prescreen-v0.3","browser_interactions":0},{"responses":{"01":"No","02":"No","03":"No","04":"No"},"rt":18523.30000001192,"item_order":[0,1,2,3],"radio_events":[5582.100000008941,12083.5,15612.40000000596,17206],"checkbox_events":[],"key_events":[],"mouse_events":[4413.800000011921,4830.20000000298,5278.70000000298,5582.100000008941,12083.5,15612.40000000596,17206,18520.30000001192],"honeypot":0,"survey":"mace","page":8,"trial_type":"survey-mace","trial_index":16,"time_elapsed":449044,"internal_node_id":"0.0-16.0","task_version":"prescreen-v0.3","browser_interactions":0},{"responses":{"01":"Yes","01_ages_1":"1","01_ages_2":"2","01_ages_3":"3","01_ages_4":"4","01_ages_5":"5","01_ages_6":"6","01_ages_7":"7","01_ages_8":"8","01_ages_9":"9","01_ages_10":"10","01_ages_11":"11","01_ages_12":"12","01_ages_13":"13","01_ages_14":"14","01_ages_15":"15","01_ages_16":"16","01_ages_17":"17","01_ages_18":"18","02":"Yes","02_ages_1":"1","02_ages_2":"2","02_ages_3":"3","02_ages_4":"4","02_ages_5":"5","02_ages_6":"6","02_ages_7":"7","02_ages_8":"8","02_ages_9":"9","02_ages_10":"10","02_ages_11":"11","02_ages_12":"12","02_ages_13":"13","02_ages_14":"14","02_ages_15":"15","02_ages_16":"16","02_ages_17":"17","02_ages_18":"18","03":"Yes","03_ages_1":"1","03_ages_2":"2","03_ages_3":"3","03_ages_4":"4","03_ages_5":"5","03_ages_6":"6","03_ages_7":"7","03_ages_8":"8","03_ages_9":"9","03_ages_10":"10","03_ages_11":"11","03_ages_12":"12","03_ages_13":"13","03_ages_14":"14","03_ages_15":"15","03_ages_16":"16","03_ages_17":"17","03_ages_18":"18","04":"Yes","04_ages_1":"1","04_ages_2":"2","04_ages_3":"3","04_ages_4":"4","04_ages_5":"5","04_ages_6":"6","04_ages_7":"7","04_ages_8":"8","04_ages_9":"9","04_ages_10":"10","04_ages_11":"11","04_ages_12":"12","04_ages_13":"13","04_ages_14":"14","04_ages_15":"15","04_ages_16":"16","04_ages_17":"17","04_ages_18":"18"},"rt":65339.19999998808,"item_order":[0,1,2,3],"radio_events":[7139,23032.5,37012.29999999702,50292.5],"checkbox_events":[12018.79999999702,12738.89999999106,13026.79999999702,13396.79999999702,13780.79999999702,14132.699999988079,14452.89999999106,15462.5,16152.5,16856.69999998808,17129.19999998808,17529.19999998808,17994.69999998808,18282.79999999702,18602.89999999106,19164.39999999106,20204.79999999702,20508.69999998808,23979.09999999404,24378.5,24747.09999999404,25844.59999999404,26244.79999999702,26630.59999999404,27190.89999999106,28754.19999998808,29040.5,29554.59999999404,29986.5,30884.5,31204.79999999702,31444.69999998808,31909,32366.59999999404,32942.5,33358.5,33758.29999999702,34240.69999998808,38244.5,38710.69999998808,39174.39999999106,39590.5,39944.39999999106,40344.89999999106,41000.39999999106,42171.19999998808,42506.29999999702,42876.69999998808,43260.5,43612.29999999702,44028.79999999702,45278.69999998808,45630.39999999106,46064.89999999106,46432.69999998808,47232.59999999404,53490.79999999702,54114.5,54466.29999999702,55396.59999999404,55812.69999998808,56950.59999999404,57671.5,58104.59999999404,58456.59999999404,58856.39999999106,59514.69999998808,60138.69999998808,61076.29999999702,61604.69999998808,62004.39999999106,62726.29999999702,63159,64329],"key_events":[],"mouse_events":[6250.5999999940395,6778.79999999702,7139,10976.89999999106,11280.89999999106,11650.29999999702,12018.79999999702,12738.89999999106,13026.79999999702,13396.79999999702,13780.79999999702,14132.699999988079,14452.89999999106,14790.699999988079,15126.699999988079,15462.5,16152.5,16856.69999998808,17129.19999998808,17529.19999998808,17994.69999998808,18282.79999999702,18602.89999999106,18922.59999999404,19164.39999999106,19484.59999999404,19868.59999999404,20204.79999999702,20508.69999998808,23032.5,23979.09999999404,24378.5,24747.09999999404,25132.5,25556.89999999106,25844.59999999404,26244.79999999702,26630.59999999404,27190.89999999106,28754.19999998808,29040.5,29554.59999999404,29986.5,30884.5,31204.79999999702,31444.69999998808,31909,32366.59999999404,32942.5,33358.5,33758.29999999702,34240.69999998808,37012.29999999702,38244.5,38710.69999998808,39174.39999999106,39590.5,39944.39999999106,40344.89999999106,41000.39999999106,41434.59999999404,41818.29999999702,42171.19999998808,42506.29999999702,42876.69999998808,43260.5,43612.29999999702,44028.79999999702,44364.59999999404,45278.69999998808,45630.39999999106,46064.89999999106,46432.69999998808,47232.59999999404,50292.5,53490.79999999702,54114.5,54466.29999999702,55396.59999999404,55812.69999998808,56180.39999999106,56950.59999999404,57671.5,58104.59999999404,58456.59999999404,58856.39999999106,59514.69999998808,60138.69999998808,60554.5,61076.29999999702,61604.69999998808,62004.39999999106,62726.29999999702,63159,63574.59999999404,63958.59999999404,64329,64856.5,65336.89999999106],"honeypot":0,"survey":"mace","page":9,"trial_type":"survey-mace","trial_index":17,"time_elapsed":514388,"internal_node_id":"0.0-17.0","task_version":"prescreen-v0.3","browser_interactions":0},{"responses":{"01":"No","02":"No","03":"No","04":"No","05":"No","06":"Yes","06_ages_17":"17","07":"Yes","07_ages_1":"1","07_ages_2":"2","07_ages_3":"3","07_ages_4":"4","07_ages_5":"5","07_ages_6":"6","07_ages_7":"7","07_ages_8":"8","07_ages_9":"9","07_ages_10":"10","07_ages_11":"11","07_ages_12":"12","07_ages_13":"13","07_ages_14":"14","07_ages_15":"15","07_ages_16":"16","07_ages_17":"17","07_ages_18":"18","08":"Yes","08_ages_1":"1","08_ages_2":"2","08_ages_3":"3","08_ages_4":"4","08_ages_5":"5","08_ages_6":"6","08_ages_7":"7","08_ages_8":"8","08_ages_9":"9","08_ages_10":"10","08_ages_11":"11","08_ages_12":"12","08_ages_13":"13","08_ages_14":"14","08_ages_15":"15","08_ages_16":"16","08_ages_17":"17","08_ages_18":"18"},"rt":56065.70000000298,"item_order":[0,1,2,3,4,5,6,7],"radio_events":[4485.4000000059605,5542.70000000298,7562.5,10388.5,13906.60000000894,16422.70000000298,26492.90000000596,40968.40000000596],"checkbox_events":[17952.60000000894,28824.90000000596,29176.79999999702,29980.29999999702,30698.60000000894,31709.10000000894,32076.90000000596,32429.10000000894,32860.79999999702,33439,34079,34497.10000000894,35712.79999999702,36115.10000000894,36706.60000000894,37652.5,38004.29999999702,38612.29999999702,39390.60000000894,42554.70000000298,43306.60000000894,44252.40000000596,45230.60000000894,45966.90000000596,46817.29999999702,47584.70000000298,48594.5,49410.70000000298,49892.79999999702,50324.70000000298,51094.70000000298,52087.10000000894,52569,53416.79999999702,54154.60000000894,54778.79999999702,55290.40000000596],"key_events":[],"mouse_events":[4020.2999999970198,4485.4000000059605,5542.70000000298,7562.5,9029.29999999702,9653.5,10388.5,12232.60000000894,13906.60000000894,16422.70000000298,17952.60000000894,25972.79999999702,26492.90000000596,27814.79999999702,28102.70000000298,28536.29999999702,28824.90000000596,29176.79999999702,29609.5,29980.29999999702,30698.60000000894,31709.10000000894,32076.90000000596,32429.10000000894,32860.79999999702,33439,34079,34497.10000000894,34912.90000000596,35296.79999999702,35712.79999999702,36115.10000000894,36706.60000000894,37299.20000000298,37652.5,38004.29999999702,38612.29999999702,39047,39390.60000000894,40118.20000000298,40616.10000000894,40968.40000000596,42554.70000000298,42954.70000000298,43306.60000000894,44252.40000000596,44668.29999999702,45230.60000000894,45966.90000000596,46817.29999999702,47584.70000000298,48594.5,49410.70000000298,49892.79999999702,50324.70000000298,51094.70000000298,51622.70000000298,52087.10000000894,52569,53416.79999999702,54154.60000000894,54778.79999999702,55290.40000000596,56061.29999999702],"honeypot":0,"survey":"mace","page":10,"trial_type":"survey-mace","trial_index":18,"time_elapsed":570460,"internal_node_id":"0.0-18.0","task_version":"prescreen-v0.3","browser_interactions":0,"instructed":0},{"rt":4252.199999988079,"trial_type":"mental-health-alert","trial_index":19,"time_elapsed":574716,"internal_node_id":"0.0-19.0","task_version":"prescreen-v0.3","interactions":"[]"}]