[{"view_history":[{"page_index":0,"viewing_time":13596.799999999348},{"page_index":1,"viewing_time":12961.300000000847},{"page_index":2,"viewing_time":2179.599999999482},{"page_index":3,"viewing_time":10866.399999998976}],"rt":39613.99999999958,"trial_type":"instructions","trial_index":0,"time_elapsed":39639,"internal_node_id":"0.0-0.0","task_version":"prescreen-v0.3"},{"rt":96954.39999999871,"responses":{"age":"28","gender-categorical":"Male","gender-free-response":"","ethnicity":"Rather not say","race":["White"],"education":"Bachelor degree"},"trial_type":"survey-demo","trial_index":1,"time_elapsed":136659,"internal_node_id":"0.0-1.0","task_version":"prescreen-v0.3"},{"responses":{"Q19":"1","Q20":"0","Q14":"2","Q17":"0","Q04":"1","Q11":"2","Q01":"1","Q12":"1","Q07":"2","Q13":"3","Q03":"0","Q18":"3","Q15":"2","Q05":"2","Q06":"0","Q02":"1","Q09":"1","Q08":"1","Q16":"0","Q21":"3","Q10":"2"},"rt":286003.1999999992,"item_order":[18,19,13,16,3,10,0,11,6,12,2,17,14,4,5,1,8,7,15,20,9],"radio_events":[40699.80000000031,57108.000000000175,68405.60000000003,77805.89999999938,91667.29999999914,101548.80000000045,110713.2999999994,127970.99999999953,143880.4999999993,153633.59999999916,162352.80000000057,181866.9000000009,203268.5999999994,213281.99999999924,226619.5000000007,235313.79999999987,243680.89999999938,250686.49999999977,265281.8000000006,274848.90000000084,285038.00000000047],"key_events":[],"mouse_events":[40699.80000000031,57108.000000000175,68405.60000000003,77805.89999999938,91667.29999999914,101548.80000000045,110713.2999999994,127970.99999999953,143880.4999999993,153633.59999999916,162352.80000000057,181866.9000000009,203268.5999999994,213281.99999999924,226619.5000000007,235313.79999999987,243680.89999999938,250686.49999999977,265281.8000000006,274848.90000000084,285038.00000000047,285962.9999999997],"straightlining":0.3333333333333333,"zigzagging":0.65,"honeypot":0,"survey":"sns","trial_type":"survey-template","trial_index":2,"time_elapsed":422715,"internal_node_id":"0.0-2.0","task_version":"prescreen-v0.3","browser_interactions":0,"infrequency":0},{"responses":{"Q08":"3","Q02":"2","Q11":"3","Q12":"2","Q05":"3","Q04":"2","Q13":"2","Q09":"2","Q10":"2","Q06":"3","Q01":"0","Q03":"3","Q07":"3"},"rt":195922.69999999925,"item_order":[7,1,10,11,4,3,12,8,9,5,0,2,6],"radio_events":[24761.39999999944,32910.2000000003,44634.20000000042,62312.899999999034,72277.39999999909,82016.29999999935,90754.30000000051,119597.39999999874,148552.49999999977,156852.6000000002,162309.79999999912,186182.39999999967,195005.4999999993],"key_events":[],"mouse_events":[24761.39999999944,32910.2000000003,44634.20000000042,62312.899999999034,72277.39999999909,82016.29999999935,90754.30000000051,119597.39999999874,148552.49999999977,156852.6000000002,162309.79999999912,186182.39999999967,195005.4999999993,195907.299999999],"straightlining":0.46153846153846156,"zigzagging":0.6666666666666666,"honeypot":0,"survey":"bisbas","trial_type":"survey-template","trial_index":3,"time_elapsed":618680,"internal_node_id":"0.0-3.0","task_version":"prescreen-v0.3","browser_interactions":0,"infrequency":1},{"responses":{"Q01":"2","Q02":"2","Q03":"2"},"rt":78384.79999999981,"radio_events":[31925.199999999604,44984.30000000005,46489.19999999995,77436.60000000091],"key_events":[],"mouse_events":[31925.199999999604,44984.30000000005,46489.19999999995,77436.60000000091,78372.40000000014],"survey":"map","page":1,"trial_type":"survey-map","trial_index":4,"time_elapsed":697089,"internal_node_id":"0.0-4.0","task_version":"prescreen-v0.3","browser_interactions":0},{"responses":{"Q04":"4","Q05":"4","Q06":"2"},"rt":54419.09999999916,"radio_events":[26804.199999998556,37901.59999999916,50346.09999999881,52492.69999999879],"key_events":[],"mouse_events":[26804.199999998556,37901.59999999916,50346.09999999881,52492.69999999879,54411.69999999867],"survey":"map","page":2,"trial_type":"survey-map","trial_index":5,"time_elapsed":751529,"internal_node_id":"0.0-5.0","task_version":"prescreen-v0.3","browser_interactions":0},{"responses":{"Q07":"2","Q08":"2","Q09":"2"},"rt":51617.400000000955,"radio_events":[23242.50000000035,38590.90000000107,50667.30000000098],"key_events":[],"mouse_events":[23242.50000000035,38590.90000000107,50667.30000000098,51606.7000000003],"survey":"map","page":3,"trial_type":"survey-map","trial_index":6,"time_elapsed":803166,"internal_node_id":"0.0-6.0","task_version":"prescreen-v0.3","browser_interactions":0},{"responses":{"Q10":"4","Q11":"2","Q12":"2","Q13":"2","Q16":"0","Q14":"2","Q15":"4"},"rt":100235.09999999986,"radio_events":[24416.799999999,36540.89999999991,55655.30000000028,64659.90000000049,75940.30000000016,89103.3999999999,99241.20000000042],"key_events":[],"mouse_events":[24416.799999999,36540.89999999991,55655.30000000028,64659.90000000049,75940.30000000016,89103.3999999999,99241.20000000042,100222.99999999988],"survey":"map","page":4,"trial_type":"survey-map","trial_index":7,"time_elapsed":903435,"internal_node_id":"0.0-7.0","task_version":"prescreen-v0.3","browser_interactions":0,"infrequency":0},{"view_history":[{"page_index":0,"viewing_time":9586.399999998277},{"page_index":1,"viewing_time":18448.40000000107}],"rt":28037.19999999879,"trial_type":"instructions","trial_index":8,"time_elapsed":931481,"internal_node_id":"0.0-8.0","task_version":"prescreen-v0.3"},{"responses":{"01":"No","02":"Yes","02_ages_13":"13","02_ages_16":"16","02_ages_18":"18","03":"Yes","03_ages_10":"10","03_ages_16":"16","03_ages_18":"18","04":"No","05":"No","06":"Yes","06_ages_14":"14","06_ages_15":"15","06_ages_18":"18"},"rt":127151.39999999886,"item_order":[0,1,2,3,4,5],"radio_events":[34707.99999999872,44129.999999999185,82277.5999999994,97542.99999999965,108374.29999999946,118623.79999999923],"checkbox_events":[58200.99999999907,60958.999999998836,64772.69999999949,87390.99999999953,89050.40000000002,91247.69999999984,121855.79999999923,122886.89999999956,125984.89999999932],"key_events":[],"mouse_events":[0.8999999990919605,34707.99999999872,44129.999999999185,58200.99999999907,60958.999999998836,64772.69999999949,82277.5999999994,87390.99999999953,89050.40000000002,91247.69999999984,97542.99999999965,108374.29999999946,118623.79999999923,121855.79999999923,122886.89999999956,125984.89999999932,127111.69999999937],"honeypot":0,"survey":"mace","page":1,"trial_type":"survey-mace","trial_index":9,"time_elapsed":1058703,"internal_node_id":"0.0-9.0","task_version":"prescreen-v0.3","browser_interactions":0},{"responses":{"01":"No","02":"No","03":"Yes","03_ages_11":"11","03_ages_15":"15","03_ages_18":"18","04":"No","05":"Yes","05_ages_12":"12","05_ages_14":"14","05_ages_16":"16","06":"No","07":"No","08":"No"},"rt":88367.59999999963,"item_order":[0,1,2,3,4,5,6,7],"radio_events":[15559.999999999534,30487.199999999488,37938.49999999837,53681.899999999674,62880.799999999115,74333.09999999986,81786.29999999981,87362.29999999888],"checkbox_events":[39939.39999999921,42245.49999999907,44161.50000000023,64331.00000000023,64815.09999999986,66583.59999999986],"key_events":[],"mouse_events":[15559.999999999534,30487.199999999488,37938.49999999837,39939.39999999921,42245.49999999907,44161.50000000023,53681.899999999674,62880.799999999115,64331.00000000023,64815.09999999986,66583.59999999986,74333.09999999986,81786.29999999981,87362.29999999888,88323.39999999944],"honeypot":0,"survey":"mace","page":2,"trial_type":"survey-mace","trial_index":10,"time_elapsed":1147109,"internal_node_id":"0.0-10.0","task_version":"prescreen-v0.3","browser_interactions":0},{"responses":{"01":"No","02":"No","03":"No","04":"No"},"rt":54641.79999999935,"item_order":[0,1,2,3],"radio_events":[32933.79999999888,43649.39999999828,48290.69999999949,53186.19999999995],"checkbox_events":[],"key_events":[],"mouse_events":[32933.79999999888,43649.39999999828,48290.69999999949,53186.19999999995,54605.89999999851],"honeypot":0,"survey":"mace","page":3,"trial_type":"survey-mace","trial_index":11,"time_elapsed":1201784,"internal_node_id":"0.0-11.0","task_version":"prescreen-v0.3","browser_interactions":0},{"responses":{"01":"No","02":"No"},"rt":17651.499999999767,"item_order":[0,1],"radio_events":[10467.199999999022,16609.699999999022],"checkbox_events":[],"key_events":[],"mouse_events":[10467.199999999022,16609.699999999022,17641.799999999348],"honeypot":0,"survey":"mace","page":4,"trial_type":"survey-mace","trial_index":12,"time_elapsed":1219464,"internal_node_id":"0.0-12.0","task_version":"prescreen-v0.3","browser_interactions":0},{"responses":{"01":"No","02":"No","03":"No","04":"No","05":"No"},"rt":30477.49999999907,"item_order":[0,1,2,3,4],"radio_events":[10121.399999999907,14948.19999999879,22569.400000000373,25961.60000000056,29696.59999999916],"checkbox_events":[],"key_events":[],"mouse_events":[10121.399999999907,14948.19999999879,22569.400000000373,25961.60000000056,29696.59999999916,30429.099999999395],"honeypot":0,"survey":"mace","page":5,"trial_type":"survey-mace","trial_index":13,"time_elapsed":1249981,"internal_node_id":"0.0-13.0","task_version":"prescreen-v0.3","browser_interactions":0},{"responses":{"01":"No","02":"No","03":"Yes","03_ages_15":"15","03_ages_17":"17","03_ages_18":"18","04":"No","05":"No"},"rt":40743.60000000149,"item_order":[0,1,2,3,4],"radio_events":[14776.700000000186,15310.900000000373,21853.20000000135,31936.10000000079,39875.80000000144],"checkbox_events":[24379.800000000512,24794.700000000186,25210.399999999907],"key_events":[],"mouse_events":[14776.700000000186,15310.900000000373,21853.20000000135,24379.800000000512,24794.700000000186,25210.399999999907,31936.10000000079,39875.80000000144,40696.5],"honeypot":0,"survey":"mace","page":6,"trial_type":"survey-mace","trial_index":14,"time_elapsed":1290773,"internal_node_id":"0.0-14.0","task_version":"prescreen-v0.3","browser_interactions":0},{"responses":{"01":"No","02":"No","03":"Yes","03_ages_13":"13","03_ages_14":"14","03_ages_15":"15","04":"Yes","04_ages_12":"12","04_ages_13":"13","04_ages_14":"14","05":"No","06":"No","07":"No"},"rt":54533.5000000014,"item_order":[0,1,2,3,4,5,6],"radio_events":[9037.800000000047,13451.700000001583,17511.80000000028,18558.700000001583,19451.00000000093,27022.800000000745,27916.000000001164,28757.80000000121,39073.000000000466,46372.69999999995,46891.50000000163],"checkbox_events":[20821.800000001676,21145.30000000028,22018.40000000084,30009.300000001676,31697.100000001257,32683.90000000014],"key_events":[],"mouse_events":[9037.800000000047,13451.700000001583,17511.80000000028,18558.700000001583,19451.00000000093,20821.800000001676,21145.30000000028,22018.40000000084,27022.800000000745,27916.000000001164,28757.80000000121,30009.300000001676,31697.100000001257,32683.90000000014,39073.000000000466,46372.69999999995,46891.50000000163,54467.80000000051],"honeypot":0,"survey":"mace","page":7,"trial_type":"survey-mace","trial_index":15,"time_elapsed":1345361,"internal_node_id":"0.0-15.0","task_version":"prescreen-v0.3","browser_interactions":0},{"responses":{"01":"No","02":"No","03":"No","04":"No"},"rt":58317.69999999949,"item_order":[0,1,2,3],"radio_events":[24784.999999999767,34285.09999999916,46624.900000000605,47479.19999999972,49201.9999999993,49876.50000000023,57695.59999999893],"checkbox_events":[],"key_events":[],"mouse_events":[24784.999999999767,34285.09999999916,46624.900000000605,47479.19999999972,49201.9999999993,49876.50000000023,57695.59999999893,58283.60000000056],"honeypot":0,"survey":"mace","page":8,"trial_type":"survey-mace","trial_index":16,"time_elapsed":1403717,"internal_node_id":"0.0-16.0","task_version":"prescreen-v0.3","browser_interactions":0},{"responses":{"01":"Yes","01_ages_6":"6","01_ages_13":"13","01_ages_15":"15","01_ages_16":"16","01_ages_17":"17","01_ages_18":"18","02":"Yes","02_ages_14":"14","02_ages_15":"15","02_ages_16":"16","03":"Yes","03_ages_12":"12","03_ages_13":"13","03_ages_14":"14","03_ages_15":"15","03_ages_16":"16","03_ages_17":"17","03_ages_18":"18","04":"No"},"rt":68265.90000000037,"item_order":[0,1,2,3],"radio_events":[10159.499999999767,31621.90000000014,43211.19999999972,67246.40000000014],"checkbox_events":[11495.500000000931,13463.200000000186,14248.600000001024,15451.19999999972,16423.600000000093,19780.600000000093,32953.60000000079,33488.499999999534,34149.499999999534,44563.50000000023,45189.700000000885,46223.10000000126,47040.39999999991,48679.40000000107,49580.100000001024,50345.000000001164],"key_events":[],"mouse_events":[10159.499999999767,11495.500000000931,13463.200000000186,14248.600000001024,15451.19999999972,16423.600000000093,19780.600000000093,31621.90000000014,32953.60000000079,33488.499999999534,34149.499999999534,43211.19999999972,44563.50000000023,45189.700000000885,46223.10000000126,47040.39999999991,48679.40000000107,49580.100000001024,50345.000000001164,67246.40000000014,68234.80000000028],"honeypot":0,"survey":"mace","page":9,"trial_type":"survey-mace","trial_index":17,"time_elapsed":1472016,"internal_node_id":"0.0-17.0","task_version":"prescreen-v0.3","browser_interactions":0},{"responses":{"01":"No","02":"No","03":"No","04":"No","05":"No","06":"Yes","06_ages_17":"17","07":"Yes","07_ages_12":"12","07_ages_13":"13","07_ages_14":"14","07_ages_15":"15","07_ages_16":"16","07_ages_17":"17","07_ages_18":"18","08":"Yes","08_ages_1":"1","08_ages_2":"2","08_ages_3":"3","08_ages_4":"4","08_ages_5":"5","08_ages_6":"6","08_ages_7":"7","08_ages_8":"8","08_ages_9":"9","08_ages_10":"10","08_ages_11":"11","08_ages_12":"12","08_ages_13":"13","08_ages_14":"14","08_ages_15":"15","08_ages_18":"18"},"rt":95396.5000000007,"item_order":[0,1,2,3,4,5,6,7],"radio_events":[9285.29999999958,13858.599999999627,20426.400000000373,27168.10000000079,33751.30000000005,34372.60000000056,39876.59999999963,64907.100000000326,79284.9000000006],"checkbox_events":[43460.69999999972,67625.0999999994,68176.90000000037,69135.00000000023,69907.40000000014,70632.99999999977,71150.29999999935,71897.00000000093,81324.59999999986,82052.20000000019,83397.3999999999,84179.29999999981,84869.69999999925,85529.20000000088,86116.90000000107,86692.60000000033,88129.60000000033,88955,89627.89999999967,90234.20000000088,91674.80000000075,92354.99999999953,93124.20000000019,94431.5000000007],"key_events":[],"mouse_events":[9285.29999999958,13858.599999999627,20426.400000000373,27168.10000000079,33751.30000000005,34372.60000000056,39876.59999999963,43460.69999999972,64907.100000000326,66792.80000000121,67625.0999999994,68176.90000000037,69135.00000000023,69907.40000000014,70632.99999999977,71150.29999999935,71897.00000000093,79284.9000000006,81324.59999999986,82052.20000000019,83397.3999999999,84179.29999999981,84869.69999999925,85529.20000000088,86116.90000000107,86692.60000000033,88129.60000000033,88955,89627.89999999967,90234.20000000088,91674.80000000075,92354.99999999953,93124.20000000019,94431.5000000007,95339.79999999981],"honeypot":0,"survey":"mace","page":10,"trial_type":"survey-mace","trial_index":18,"time_elapsed":1567457,"internal_node_id":"0.0-18.0","task_version":"prescreen-v0.3","browser_interactions":0,"instructed":0},{"rt":8202.300000000978,"trial_type":"mental-health-alert","trial_index":19,"time_elapsed":1575673,"internal_node_id":"0.0-19.0","task_version":"prescreen-v0.3","interactions":"[]"}]