[{"view_history":[{"page_index":0,"viewing_time":31987},{"page_index":1,"viewing_time":3526.0000000000073},{"page_index":2,"viewing_time":4130.999999999993},{"page_index":3,"viewing_time":1859}],"rt":41503,"trial_type":"instructions","trial_index":0,"time_elapsed":41507,"internal_node_id":"0.0-0.0","task_version":"prescreen-v0.3"},{"rt":18341,"responses":{"age":"22","gender-categorical":"Female","gender-free-response":"","ethnicity":"Not Hispanic or Latino","race":["White"],"education":"Bachelor degree"},"trial_type":"survey-demo","trial_index":1,"time_elapsed":59854,"internal_node_id":"0.0-1.0","task_version":"prescreen-v0.3"},{"responses":{"Q06":"2","Q07":"0","Q20":"2","Q15":"3","Q19":"2","Q14":"3","Q16":"3","Q02":"1","Q10":"2","Q04":"3","Q03":"2","Q18":"2","Q05":"3","Q12":"1","Q13":"2","Q17":"2","Q21":"3","Q09":"2","Q01":"2","Q08":"3","Q11":"2"},"rt":158700,"item_order":[5,6,19,14,18,13,15,1,9,3,2,17,4,11,12,16,20,8,0,7,10],"radio_events":[11635.000000000015,18162,21923,27021,33666,37180,40426,44669,53024,57473,97550,102837,113428,116172,119522,121809,134867,139635,141693.00000000003,144823,147321,156698],"key_events":[],"mouse_events":[11635.000000000015,18162,21923,27021,33666,37180,40426,44669,53024,57473,97550,101997.00000000003,102837,113428,115126,116172,119522,121809,134867,139635,141693.00000000003,144823,147321,148262,156698,158691],"straightlining":0.5238095238095238,"zigzagging":0.6,"honeypot":0,"survey":"sns","trial_type":"survey-template","trial_index":2,"time_elapsed":218559,"internal_node_id":"0.0-2.0","task_version":"prescreen-v0.3","browser_interactions":0,"infrequency":0},{"responses":{"Q06":"3","Q07":"3","Q12":"2","Q08":"3","Q01":"2","Q13":"0","Q05":"3","Q11":"3","Q10":"2","Q03":"2","Q02":"3","Q09":"2","Q04":"3"},"rt":65559,"item_order":[5,6,11,7,0,12,4,10,9,2,1,8,3],"radio_events":[6791,9665,22204.00000000003,27636,30897,34092,41348,45268,48202,53405,57054,60301,64899],"key_events":[],"mouse_events":[6791,9017,9665,22204.00000000003,27636,30897,34092,40047,40749,41348,45268,48202,53405,57054,60301,64899,65553],"straightlining":0.5384615384615384,"zigzagging":0.6666666666666666,"honeypot":0,"survey":"bisbas","trial_type":"survey-template","trial_index":3,"time_elapsed":284122,"internal_node_id":"0.0-3.0","task_version":"prescreen-v0.3","browser_interactions":0,"infrequency":0},{"responses":{"Q01":"4","Q02":"2","Q03":"3"},"rt":19936,"radio_events":[6300,11563,13270,19112],"key_events":[],"mouse_events":[6300,10870.000000000058,11563,13270,18434,19112,19934],"survey":"map","page":1,"trial_type":"survey-map","trial_index":4,"time_elapsed":304062,"internal_node_id":"0.0-4.0","task_version":"prescreen-v0.3","browser_interactions":0},{"responses":{"Q04":"0","Q05":"0","Q06":"1"},"rt":22582,"radio_events":[10520,15334,21302],"key_events":[],"mouse_events":[9826,10520,15334,21302,22579.00000000006],"survey":"map","page":2,"trial_type":"survey-map","trial_index":5,"time_elapsed":326647,"internal_node_id":"0.0-5.0","task_version":"prescreen-v0.3","browser_interactions":0},{"responses":{"Q07":"3","Q08":"4","Q09":"3"},"rt":19583.00000000006,"radio_events":[9194,14055,18288],"key_events":[],"mouse_events":[8332,8762,9194,14055,18288,19580],"survey":"map","page":3,"trial_type":"survey-map","trial_index":6,"time_elapsed":346233,"internal_node_id":"0.0-6.0","task_version":"prescreen-v0.3","browser_interactions":0},{"responses":{"Q10":"3","Q11":"1","Q12":"2","Q13":"2","Q16":"0","Q14":"1","Q15":"0"},"rt":36282,"radio_events":[5598.000000000058,10415,14867.000000000058,20504,24672,30506,34713],"key_events":[],"mouse_events":[5598.000000000058,9492,10415,14102,14867.000000000058,20504,24672,29582,30506,34713,36277],"survey":"map","page":4,"trial_type":"survey-map","trial_index":7,"time_elapsed":382518,"internal_node_id":"0.0-7.0","task_version":"prescreen-v0.3","browser_interactions":0,"infrequency":0},{"view_history":[{"page_index":0,"viewing_time":3341},{"page_index":1,"viewing_time":3300}],"rt":6641,"trial_type":"instructions","trial_index":8,"time_elapsed":389162,"internal_node_id":"0.0-8.0","task_version":"prescreen-v0.3"},{"responses":{"01":"Yes","01_ages_4":"4","01_ages_5":"5","01_ages_6":"6","01_ages_7":"7","01_ages_8":"8","01_ages_9":"9","01_ages_10":"10","01_ages_11":"11","01_ages_12":"12","01_ages_13":"13","01_ages_14":"14","01_ages_15":"15","01_ages_16":"16","01_ages_17":"17","01_ages_18":"18","02":"Yes","02_ages_4":"4","02_ages_5":"5","02_ages_6":"6","02_ages_7":"7","02_ages_8":"8","02_ages_9":"9","02_ages_10":"10","02_ages_11":"11","02_ages_12":"12","02_ages_13":"13","02_ages_14":"14","02_ages_15":"15","02_ages_16":"16","02_ages_17":"17","02_ages_18":"18","03":"No","04":"Yes","04_ages_15":"15","04_ages_16":"16","04_ages_17":"17","05":"No","06":"No"},"rt":68318,"item_order":[0,1,2,3,4,5],"radio_events":[9067,29925,46727.00000000006,53175,63328.00000000006,67472.00000000006],"checkbox_events":[13373,14488,16900.00000000006,18439,19139,20069,20603,21321,21840.00000000006,22326,23405.00000000006,24126.00000000006,24923,25491,26249,31844,32793,33464,34173,34916,35428,36138.00000000006,37179.00000000006,37808,38645,39346,40002,40877,41522,42377,55073.00000000006,58692,59225],"key_events":[],"mouse_events":[0,9067,13373,14488,16900.00000000006,18439,19139,20069,20603,21321,21840.00000000006,22326,22773,23405.00000000006,24126.00000000006,24923,25491,26249,29925,31844,32793,33464,34173,34916,35428,36138.00000000006,37179.00000000006,37808,38645,39346,40002,40877,41522,42377,46727.00000000006,53175,55073.00000000006,58692,59225,63328.00000000006,67472.00000000006,68310],"honeypot":0,"survey":"mace","page":1,"trial_type":"survey-mace","trial_index":9,"time_elapsed":457486,"internal_node_id":"0.0-9.0","task_version":"prescreen-v0.3","browser_interactions":0},{"responses":{"01":"No","02":"No","03":"No","04":"No","05":"No","06":"No","07":"No","08":"No"},"rt":22916.99999999994,"item_order":[0,1,2,3,4,5,6,7],"radio_events":[3434.999999999942,6714,10490.999999999942,12423,14517.999999999942,16892.99999999994,20445.99999999994,22256.99999999994],"checkbox_events":[],"key_events":[],"mouse_events":[3434.999999999942,6714,10490.999999999942,12423,14517.999999999942,16892.99999999994,20445.99999999994,22256.99999999994,22911],"honeypot":0,"survey":"mace","page":2,"trial_type":"survey-mace","trial_index":10,"time_elapsed":480408,"internal_node_id":"0.0-10.0","task_version":"prescreen-v0.3","browser_interactions":0},{"responses":{"01":"No","02":"No","03":"No","04":"No"},"rt":9992,"item_order":[0,1,2,3],"radio_events":[3944,6922,8196,9423.000000000058],"checkbox_events":[],"key_events":[],"mouse_events":[3944,6922,8196,9423.000000000058,9988],"honeypot":0,"survey":"mace","page":3,"trial_type":"survey-mace","trial_index":11,"time_elapsed":490404,"internal_node_id":"0.0-11.0","task_version":"prescreen-v0.3","browser_interactions":0},{"responses":{"01":"No","02":"No"},"rt":13140,"item_order":[0,1],"radio_events":[9648.000000000058,11418],"checkbox_events":[],"key_events":[],"mouse_events":[9648.000000000058,11418,12555,13137],"honeypot":0,"survey":"mace","page":4,"trial_type":"survey-mace","trial_index":12,"time_elapsed":503547,"internal_node_id":"0.0-12.0","task_version":"prescreen-v0.3","browser_interactions":0},{"responses":{"01":"No","02":"No","03":"No","04":"No","05":"No"},"rt":21865,"item_order":[0,1,2,3,4],"radio_events":[9270,12779,15499.000000000058,17766,20968],"checkbox_events":[],"key_events":[],"mouse_events":[9270,12779,15499.000000000058,17766,20968,21860],"honeypot":0,"survey":"mace","page":5,"trial_type":"survey-mace","trial_index":13,"time_elapsed":525419,"internal_node_id":"0.0-13.0","task_version":"prescreen-v0.3","browser_interactions":0},{"responses":{"01":"No","02":"Yes","02_ages_11":"11","02_ages_12":"12","02_ages_13":"13","03":"Yes","03_ages_11":"11","03_ages_12":"12","03_ages_13":"13","04":"Yes","04_ages_11":"11","04_ages_12":"12","04_ages_13":"13","05":"No"},"rt":35805,"item_order":[0,1,2,3,4],"radio_events":[9765,12461,21040,29138.000000000116,34870],"checkbox_events":[15002,15642,16325,24454,25139,25832,30367,31101,31811.000000000116],"key_events":[],"mouse_events":[9765,12461,15002,15642,16325,21040,23877,24454,25139,25832,28407.000000000116,29138.000000000116,30367,31101,31811.000000000116,34870,35798],"honeypot":0,"survey":"mace","page":6,"trial_type":"survey-mace","trial_index":14,"time_elapsed":561229,"internal_node_id":"0.0-14.0","task_version":"prescreen-v0.3","browser_interactions":0},{"responses":{"01":"No","02":"Yes","02_ages_8":"8","02_ages_9":"9","02_ages_10":"10","03":"Yes","03_ages_7":"7","03_ages_8":"8","03_ages_9":"9","03_ages_10":"10","04":"Yes","04_ages_7":"7","04_ages_8":"8","04_ages_9":"9","04_ages_10":"10","04_ages_11":"11","05":"Yes","05_ages_7":"7","05_ages_8":"8","05_ages_9":"9","06":"No","07":"No"},"rt":42614.99999999988,"item_order":[0,1,2,3,4,5,6],"radio_events":[5830.999999999884,8226,11130,17652.999999999884,23894.999999999884,31824.999999999884,37477.99999999988,41889.99999999988],"checkbox_events":[12880.999999999884,13751.999999999884,14292.999999999884,19583.999999999884,20252.999999999884,20803,21362.999999999884,25833.999999999884,26626.999999999884,27134.999999999884,27681.999999999884,28208.999999999884,33986.99999999988,34433.99999999988,34841.99999999988],"key_events":[],"mouse_events":[5830.999999999884,8226,11130,12880.999999999884,13751.999999999884,14292.999999999884,17652.999999999884,19583.999999999884,20252.999999999884,20803,21362.999999999884,23894.999999999884,25833.999999999884,26626.999999999884,27134.999999999884,27681.999999999884,28208.999999999884,31824.999999999884,33986.99999999988,34433.99999999988,34841.99999999988,37477.99999999988,40644.99999999988,41188.99999999988,41889.99999999988,42607.99999999988],"honeypot":0,"survey":"mace","page":7,"trial_type":"survey-mace","trial_index":15,"time_elapsed":603850,"internal_node_id":"0.0-15.0","task_version":"prescreen-v0.3","browser_interactions":0},{"responses":{"01":"No","02":"No","03":"No","04":"No"},"rt":26955,"item_order":[0,1,2,3],"radio_events":[8611,15190,18100.000000000116,23027,26114],"checkbox_events":[],"key_events":[],"mouse_events":[8611,15190,18100.000000000116,23027,26114,26951.000000000116],"honeypot":0,"survey":"mace","page":8,"trial_type":"survey-mace","trial_index":16,"time_elapsed":630811,"internal_node_id":"0.0-16.0","task_version":"prescreen-v0.3","browser_interactions":0},{"responses":{"01":"Yes","01_ages_4":"4","01_ages_5":"5","01_ages_6":"6","01_ages_7":"7","01_ages_8":"8","01_ages_9":"9","01_ages_10":"10","01_ages_11":"11","01_ages_12":"12","01_ages_13":"13","01_ages_14":"14","01_ages_15":"15","01_ages_16":"16","01_ages_17":"17","01_ages_18":"18","02":"Yes","02_ages_4":"4","02_ages_5":"5","02_ages_6":"6","02_ages_7":"7","02_ages_8":"8","02_ages_9":"9","02_ages_10":"10","02_ages_11":"11","02_ages_12":"12","02_ages_13":"13","02_ages_14":"14","02_ages_15":"15","02_ages_16":"16","02_ages_17":"17","02_ages_18":"18","03":"Yes","03_ages_1":"1","03_ages_2":"2","03_ages_3":"3","03_ages_4":"4","03_ages_5":"5","03_ages_6":"6","03_ages_7":"7","03_ages_8":"8","03_ages_9":"9","03_ages_10":"10","03_ages_11":"11","03_ages_12":"12","03_ages_13":"13","03_ages_14":"14","03_ages_15":"15","03_ages_16":"16","03_ages_17":"17","03_ages_18":"18","04":"Yes","04_ages_1":"1","04_ages_2":"2","04_ages_3":"3","04_ages_4":"4","04_ages_5":"5","04_ages_6":"6","04_ages_7":"7","04_ages_8":"8","04_ages_9":"9","04_ages_10":"10","04_ages_11":"11","04_ages_12":"12","04_ages_13":"13","04_ages_14":"14","04_ages_15":"15","04_ages_16":"16","04_ages_17":"17","04_ages_18":"18"},"rt":70485,"item_order":[0,1,2,3],"radio_events":[4064,22216,37050,54744],"checkbox_events":[8524,10016,10566,11269,11861,13355,13859,14462,15053,15997,16617,17671,18538,19055,19797,24677,25385,25906,26576,27165,27773,28790,29237,29969,30431,31447,32117,32685,33230,33973,38513,39024,39751,40588,41306,41962,42624,43265.00000000012,43705,45684,46563.00000000012,47062,47620,48951,49452,49947,50617,51335,56508,57020.00000000012,58105,58775.00000000012,59592.00000000012,60189,60740,62122,63110,63836,64323.00000000012,65407,66754,67336,67901,68498,69323.00000000012,69839],"key_events":[],"mouse_events":[4064,8524,9330,10016,10566,11269,11861,12395.000000000116,13355,13859,14462,15053,15997,16617,17074,17671,18538,19055,19797,22216,24677,25385,25906,26576,27165,27773,28790,29237,29969,30431,31447,32117,32685,33230,33973,37050,38513,39024,39751,40588,41306,41962,42624,43265.00000000012,43705,44200,44631,45684,46563.00000000012,47062,47620,48343,48951,49452,49947,50617,51335,54744,56508,57020.00000000012,57619,58105,58775.00000000012,59592.00000000012,60189,60740,61444,62122,63110,63836,64323.00000000012,64786,65407,66180,66754,67336,67901,68498,69323.00000000012,69839,70479],"honeypot":0,"survey":"mace","page":9,"trial_type":"survey-mace","trial_index":17,"time_elapsed":701300,"internal_node_id":"0.0-17.0","task_version":"prescreen-v0.3","browser_interactions":0},{"responses":{"01":"No","02":"No","03":"No","04":"No","05":"No","06":"Yes","06_ages_17":"17","07":"Yes","07_ages_1":"1","07_ages_2":"2","07_ages_3":"3","07_ages_4":"4","07_ages_5":"5","07_ages_6":"6","07_ages_7":"7","07_ages_8":"8","07_ages_9":"9","07_ages_10":"10","07_ages_11":"11","07_ages_12":"12","07_ages_13":"13","07_ages_14":"14","07_ages_15":"15","07_ages_16":"16","07_ages_17":"17","07_ages_18":"18","08":"No"},"rt":69224,"item_order":[0,1,2,3,4,5,6,7],"radio_events":[6855,8435,11956,16913,21178,24185,52904,68123],"checkbox_events":[26049.000000000116,56076,56477.00000000012,57115,57578.00000000012,58170,58649,59321,59783,60206,60675,61371.00000000012,61866,62305,62783,63585,64428,65093,65841],"key_events":[],"mouse_events":[6855,8435,11319,11956,16913,21178,24185,26049.000000000116,52904,56076,56477.00000000012,57115,57578.00000000012,58170,58649,59321,59783,60206,60675,61371.00000000012,61866,62305,62783,63585,64028,64428,65093,65841,68123,69218],"honeypot":0,"survey":"mace","page":10,"trial_type":"survey-mace","trial_index":18,"time_elapsed":770530,"internal_node_id":"0.0-18.0","task_version":"prescreen-v0.3","browser_interactions":0,"instructed":0},{"rt":14984,"trial_type":"mental-health-alert","trial_index":19,"time_elapsed":785518,"internal_node_id":"0.0-19.0","task_version":"prescreen-v0.3","interactions":"[]"}]