[{"view_history":[{"page_index":0,"viewing_time":4064.2000000476837},{"page_index":1,"viewing_time":6166.100000023842},{"page_index":2,"viewing_time":5487.099999904633},{"page_index":3,"viewing_time":1485.8000000715256}],"rt":17204.200000047684,"trial_type":"instructions","trial_index":0,"time_elapsed":17236,"internal_node_id":"0.0-0.0","task_version":"prescreen-v0.3"},{"rt":34162.10000002384,"responses":{"age":"65","gender-categorical":"Male","gender-free-response":"","ethnicity":"Not Hispanic or Latino","race":["White"],"education":"Bachelor degree","siblings":"4"},"trial_type":"survey-demo","trial_index":1,"time_elapsed":51409,"internal_node_id":"0.0-1.0","task_version":"prescreen-v0.3"},{"responses":{"Q07":"0","Q01":"3","Q06":"0","Q13":"0","Q04":"3","Q15":"0","Q12":"0","Q08":"0","Q05":"0","Q16":"0","Q11":"2","Q09":"3","Q17":"3","Q18":"2","Q14":"0","Q20":"3","Q03":"3","Q02":"0","Q10":"0","Q19":"3","Q21":"3"},"rt":120842.5,"item_order":[6,0,5,12,3,14,11,7,4,15,10,8,16,17,13,19,2,1,9,18,20],"radio_events":[12676,16047.799999952316,27935.799999952316,30821.700000047684,36374.39999997616,42417.700000047684,46647.700000047684,57034.700000047684,60052.10000002384,63343.39999997616,67958,71657.29999995232,74949.79999995232,80532.5,88085.29999995232,91379.29999995232,93465.89999997616,95763.79999995232,103655.79999995232,106729.20000004768,116203.79999995232,119977.5],"key_events":[],"mouse_events":[12676,16047.799999952316,27935.799999952316,30821.700000047684,36374.39999997616,41379.299999952316,42417.700000047684,46647.700000047684,57034.700000047684,60052.10000002384,63343.39999997616,67958,71657.29999995232,74949.79999995232,80532.5,88085.29999995232,91379.29999995232,93465.89999997616,95763.79999995232,103655.79999995232,106729.20000004768,116203.79999995232,119977.5,120837.5],"straightlining":0.5238095238095238,"zigzagging":0.45,"honeypot":0,"survey":"sns","trial_type":"survey-template","trial_index":2,"time_elapsed":172265,"internal_node_id":"0.0-2.0","task_version":"prescreen-v0.3","browser_interactions":0,"infrequency":0},{"responses":{"Q04":"0","Q06":"1","Q10":"2","Q13":"0","Q05":"0","Q12":"0","Q11":"2","Q03":"0","Q07":"0","Q01":"0","Q02":"0","Q09":"0","Q08":"0"},"rt":63357.10000002384,"item_order":[3,5,9,12,4,11,10,2,6,0,1,8,7],"radio_events":[3999.399999976158,12055.699999928474,18209.5,21054,25268.199999928474,30148.199999928474,41091.799999952316,47307.89999997616,49357.89999997616,50733.699999928474,52438.199999928474,59082.10000002384,62468],"key_events":[],"mouse_events":[3999.399999976158,11161.899999976158,12055.699999928474,18209.5,21054,25268.199999928474,30148.199999928474,40272.60000002384,41091.799999952316,47307.89999997616,49357.89999997616,50733.699999928474,52438.199999928474,59082.10000002384,62468,63353.39999997616],"straightlining":0.7692307692307693,"zigzagging":0.16666666666666666,"honeypot":0,"survey":"bisbas","trial_type":"survey-template","trial_index":3,"time_elapsed":235627,"internal_node_id":"0.0-3.0","task_version":"prescreen-v0.3","browser_interactions":0,"infrequency":0},{"responses":{"Q01":"0","Q02":"0","Q03":"0"},"rt":20492,"radio_events":[9637.399999976158,14702.399999976158,19214.200000047684],"key_events":[],"mouse_events":[9637.399999976158,14702.399999976158,19214.200000047684,20490.100000023842],"survey":"map","page":1,"trial_type":"survey-map","trial_index":4,"time_elapsed":256126,"internal_node_id":"0.0-4.0","task_version":"prescreen-v0.3","browser_interactions":0},{"responses":{"Q04":"0","Q05":"0","Q06":"0"},"rt":14466.299999952316,"radio_events":[8233.799999952316,10792.799999952316,13269.600000023842],"key_events":[],"mouse_events":[8233.799999952316,10792.799999952316,13269.600000023842,14465.200000047684],"survey":"map","page":2,"trial_type":"survey-map","trial_index":5,"time_elapsed":270596,"internal_node_id":"0.0-5.0","task_version":"prescreen-v0.3","browser_interactions":0},{"responses":{"Q07":"0","Q08":"2","Q09":"0"},"rt":23968.100000023842,"radio_events":[9116.799999952316,18023,22951.299999952316],"key_events":[],"mouse_events":[9116.799999952316,16576.799999952316,18023,21973.700000047684,22951.299999952316,23967.100000023842],"survey":"map","page":3,"trial_type":"survey-map","trial_index":6,"time_elapsed":294568,"internal_node_id":"0.0-6.0","task_version":"prescreen-v0.3","browser_interactions":0},{"responses":{"Q10":"0","Q11":"0","Q12":"2","Q13":"0","Q16":"0","Q14":"0","Q15":"0"},"rt":64154.200000047684,"radio_events":[7062.899999976158,10152.600000023842,30708.800000071526,33327.10000002384,39112.60000002384,52608.800000071526,59364.700000047684,62933],"key_events":[],"mouse_events":[7062.899999976158,10152.600000023842,30708.800000071526,33327.10000002384,39112.60000002384,52608.800000071526,59364.700000047684,62933,64151.39999997616],"survey":"map","page":4,"trial_type":"survey-map","trial_index":7,"time_elapsed":358727,"internal_node_id":"0.0-7.0","task_version":"prescreen-v0.3","browser_interactions":0,"infrequency":0},{"view_history":[{"page_index":0,"viewing_time":3007.2000000476837},{"page_index":1,"viewing_time":4598.5}],"rt":7607.200000047684,"trial_type":"instructions","trial_index":8,"time_elapsed":366340,"internal_node_id":"0.0-8.0","task_version":"prescreen-v0.3"},{"responses":{"01":"Yes","01_ages_11":"11","01_ages_12":"12","01_ages_13":"13","01_ages_14":"14","01_ages_15":"15","01_ages_16":"16","01_ages_17":"17","01_ages_18":"18","02":"Yes","02_ages_11":"11","02_ages_12":"12","02_ages_13":"13","02_ages_14":"14","02_ages_15":"15","02_ages_16":"16","02_ages_17":"17","02_ages_18":"18","03":"Yes","03_ages_4":"4","03_ages_5":"5","03_ages_11":"11","03_ages_12":"12","03_ages_13":"13","03_ages_14":"14","03_ages_15":"15","03_ages_16":"16","03_ages_17":"17","03_ages_18":"18","04":"No","05":"No","06":"Yes","06_ages_4":"4","06_ages_5":"5"},"rt":97829.39999997616,"item_order":[0,1,2,3,4,5],"radio_events":[15338,38367.699999928474,49220.09999990463,82229.19999992847,85303,91904.29999995232],"checkbox_events":[19215.699999928474,19731.399999976158,20295.299999952316,21915.099999904633,22383.799999952316,23040.799999952316,24141.099999904633,25652.399999976158,39870.199999928474,40477.89999997616,41136.199999928474,42103,42619.5,43167.299999952316,43887.799999952316,44621.39999997616,50539.39999997616,51149.699999928474,51665.09999990463,52500.699999928474,52979.199999928474,53428.699999928474,53949.59999990463,54559.199999928474,74073.59999990463,74613.69999992847,93793.89999997616,94317.29999995232],"key_events":[],"mouse_events":[1.399999976158142,15338,19215.699999928474,19731.399999976158,20295.299999952316,21008.699999928474,21915.099999904633,22383.799999952316,23040.799999952316,23695.399999976158,24141.099999904633,24684.899999976158,25652.399999976158,38367.699999928474,39870.199999928474,40477.89999997616,41136.199999928474,41641.299999952316,42103,42619.5,43167.299999952316,43887.799999952316,44621.39999997616,49220.09999990463,50539.39999997616,51149.699999928474,51665.09999990463,52500.699999928474,52979.199999928474,53428.699999928474,53949.59999990463,54559.199999928474,74073.59999990463,74613.69999992847,82229.19999992847,85303,91904.29999995232,93793.89999997616,94317.29999995232,97821.09999990463],"honeypot":0,"survey":"mace","page":1,"trial_type":"survey-mace","trial_index":9,"time_elapsed":464187,"internal_node_id":"0.0-9.0","task_version":"prescreen-v0.3","browser_interactions":0},{"responses":{"01":"No","02":"No","03":"Yes","03_ages_4":"4","03_ages_5":"5","04":"Yes","04_ages_4":"4","04_ages_5":"5","05":"Yes","05_ages_4":"4","05_ages_5":"5","06":"No","07":"No","08":"No"},"rt":45049.90000009537,"item_order":[0,1,2,3,4,5,6,7],"radio_events":[7406.200000047684,11657.700000047684,15894.400000095367,28305.100000023842,33519.5,39087.200000047684,41761,43670.200000047684],"checkbox_events":[17716.600000023842,18312.900000095367,29258.800000071526,30024.900000095367,34553.700000047684,36084.700000047684],"key_events":[],"mouse_events":[7406.200000047684,11657.700000047684,15894.400000095367,17716.600000023842,18312.900000095367,28305.100000023842,29258.800000071526,30024.900000095367,33519.5,34553.700000047684,36084.700000047684,39087.200000047684,41761,43670.200000047684,45043.90000009537],"honeypot":0,"survey":"mace","page":2,"trial_type":"survey-mace","trial_index":10,"time_elapsed":509245,"internal_node_id":"0.0-10.0","task_version":"prescreen-v0.3","browser_interactions":0},{"responses":{"01":"No","02":"No","03":"No","04":"No"},"rt":24051,"item_order":[0,1,2,3],"radio_events":[17126.300000071526,18956.5,21171.600000023842,23335.200000047684],"checkbox_events":[],"key_events":[],"mouse_events":[17126.300000071526,18956.5,21171.600000023842,23335.200000047684,24046.700000047684],"honeypot":0,"survey":"mace","page":3,"trial_type":"survey-mace","trial_index":11,"time_elapsed":533300,"internal_node_id":"0.0-11.0","task_version":"prescreen-v0.3","browser_interactions":0},{"responses":{"01":"No","02":"No"},"rt":7033.200000047684,"item_order":[0,1],"radio_events":[3839.2000000476837,5878.799999952316],"checkbox_events":[],"key_events":[],"mouse_events":[3839.2000000476837,5878.799999952316,7030.700000047684],"honeypot":0,"survey":"mace","page":4,"trial_type":"survey-mace","trial_index":12,"time_elapsed":540336,"internal_node_id":"0.0-12.0","task_version":"prescreen-v0.3","browser_interactions":0},{"responses":{"01":"Yes","01_ages_11":"11","01_ages_12":"12","01_ages_13":"13","01_ages_14":"14","02":"Yes","02_ages_11":"11","02_ages_12":"12","02_ages_13":"13","02_ages_14":"14","03":"Yes","03_ages_11":"11","03_ages_12":"12","03_ages_13":"13","03_ages_14":"14","04":"No","05":"No"},"rt":60037.60000002384,"item_order":[0,1,2,3,4],"radio_events":[9652.100000023842,25987,37033.89999997616,47399.5,58965.300000071526],"checkbox_events":[12019.300000071526,12927.700000047684,16391.300000071526,19057.700000047684,26962,28660.399999976158,29527.899999976158,30192.399999976158,38208.200000047684,38761.39999997616,39340.200000047684,39841.89999997616],"key_events":[],"mouse_events":[9652.100000023842,12019.300000071526,12927.700000047684,16391.300000071526,19057.700000047684,25987,26962,27510.399999976158,28660.399999976158,29527.899999976158,30192.399999976158,37033.89999997616,38208.200000047684,38761.39999997616,39340.200000047684,39841.89999997616,47399.5,58965.300000071526,60035.39999997616],"honeypot":0,"survey":"mace","page":5,"trial_type":"survey-mace","trial_index":13,"time_elapsed":600377,"internal_node_id":"0.0-13.0","task_version":"prescreen-v0.3","browser_interactions":0},{"responses":{"01":"Yes","01_ages_11":"11","01_ages_12":"12","01_ages_13":"13","01_ages_14":"14","01_ages_15":"15","01_ages_16":"16","01_ages_17":"17","01_ages_18":"18","02":"No","03":"No","04":"No","05":"No"},"rt":44620.800000071526,"item_order":[0,1,2,3,4],"radio_events":[13400.400000095367,32747.5,35556.90000009537,38266.40000009537,43803.200000047684],"checkbox_events":[16112.800000071526,16926.900000095367,17748.600000023842,18334.700000047684,18905.200000047684,19733.300000071526,20477.600000023842,21022.700000047684],"key_events":[],"mouse_events":[13400.400000095367,16112.800000071526,16926.900000095367,17748.600000023842,18334.700000047684,18905.200000047684,19733.300000071526,20477.600000023842,21022.700000047684,32747.5,35556.90000009537,38266.40000009537,43803.200000047684,44615.800000071526],"honeypot":0,"survey":"mace","page":6,"trial_type":"survey-mace","trial_index":14,"time_elapsed":645004,"internal_node_id":"0.0-14.0","task_version":"prescreen-v0.3","browser_interactions":2},{"responses":{"01":"No","02":"Yes","02_ages_11":"11","02_ages_12":"12","03":"No","04":"No","05":"No","06":"No","07":"No"},"rt":34773.5,"item_order":[0,1,2,3,4,5,6],"radio_events":[6244.600000023842,11562.899999976158,25184,27270.799999952316,29858.100000023842,31596.600000023842,34128.199999928474],"checkbox_events":[17331.899999976158,18162.399999976158],"key_events":[],"mouse_events":[6244.600000023842,11562.899999976158,16300.199999928474,17331.899999976158,18162.399999976158,25184,27270.799999952316,29858.100000023842,31596.600000023842,34128.199999928474,34768.60000002384],"honeypot":0,"survey":"mace","page":7,"trial_type":"survey-mace","trial_index":15,"time_elapsed":679785,"internal_node_id":"0.0-15.0","task_version":"prescreen-v0.3","browser_interactions":0},{"responses":{"01":"Yes","01_ages_11":"11","01_ages_12":"12","01_ages_13":"13","01_ages_14":"14","02":"Yes","02_ages_11":"11","02_ages_12":"12","02_ages_13":"13","02_ages_14":"14","03":"Yes","03_ages_11":"11","03_ages_12":"12","03_ages_13":"13","03_ages_14":"14","03_ages_15":"15","03_ages_16":"16","03_ages_17":"17","03_ages_18":"18","04":"Yes","04_ages_11":"11","04_ages_12":"12","04_ages_13":"13","04_ages_14":"14","04_ages_15":"15","04_ages_16":"16","04_ages_17":"17","04_ages_18":"18"},"rt":80884.30000007153,"item_order":[0,1,2,3],"radio_events":[18434.899999976158,29167,43859.300000071526,55461.5],"checkbox_events":[19482.100000023842,19966.5,20553.300000071526,21031.200000047684,31597.600000023842,32669.899999976158,33750.300000071526,34321.200000047684,34827.5,35399.39999997616,44977.10000002384,45502.700000047684,46835.200000047684,47332.60000002384,47784.5,48480.200000047684,49263.60000002384,49777.89999997616,56407.300000071526,57160.39999997616,57681.800000071526,58209,58691.5,60255.700000047684,61014.300000071526,61686.60000002384],"key_events":[],"mouse_events":[18434.899999976158,19482.100000023842,19966.5,20553.300000071526,21031.200000047684,29167,31597.600000023842,32669.899999976158,33750.300000071526,34321.200000047684,34827.5,35399.39999997616,43859.300000071526,44977.10000002384,45502.700000047684,46002.60000002384,46835.200000047684,47332.60000002384,47784.5,48480.200000047684,49263.60000002384,49777.89999997616,55461.5,56407.300000071526,57160.39999997616,57681.800000071526,58209,58691.5,59167.39999997616,60255.700000047684,61014.300000071526,61686.60000002384,80881.80000007153],"honeypot":0,"survey":"mace","page":8,"trial_type":"survey-mace","trial_index":16,"time_elapsed":760674,"internal_node_id":"0.0-16.0","task_version":"prescreen-v0.3","browser_interactions":0},{"responses":{"01":"No","02":"No","03":"No","04":"No"},"rt":36101.799999952316,"item_order":[0,1,2,3],"radio_events":[7945.399999976158,11439,14630.299999952316,18960.899999976158],"checkbox_events":[],"key_events":[],"mouse_events":[7945.399999976158,11439,14630.299999952316,18960.899999976158,36097.39999997616],"honeypot":0,"survey":"mace","page":9,"trial_type":"survey-mace","trial_index":17,"time_elapsed":796781,"internal_node_id":"0.0-17.0","task_version":"prescreen-v0.3","browser_interactions":0},{"responses":{"01":"No","02":"No","03":"Yes","03_ages_11":"11","03_ages_12":"12","03_ages_13":"13","03_ages_14":"14","03_ages_15":"15","04":"Yes","04_ages_1":"1","04_ages_2":"2","04_ages_3":"3","04_ages_4":"4","04_ages_5":"5","04_ages_6":"6","04_ages_7":"7","04_ages_8":"8","04_ages_9":"9","04_ages_10":"10","04_ages_11":"11","04_ages_12":"12","04_ages_13":"13","04_ages_14":"14","04_ages_15":"15","04_ages_16":"16","04_ages_17":"17","04_ages_18":"18","05":"No","06":"Yes","06_ages_17":"17","07":"No","08":"No"},"rt":54046.39999997616,"item_order":[0,1,2,3,4,5,6,7],"radio_events":[5287.699999928474,8405.199999928474,12830.5,24831,39988.299999952316,43944.199999928474,50872.39999997616,53281],"checkbox_events":[14236.5,14818.100000023842,15568.199999928474,16254.600000023842,17036.199999928474,26088.199999928474,26708.299999952316,27198.5,27693.100000023842,28246.299999952316,28730.399999976158,29184.699999928474,29758,30275.199999928474,30718.699999928474,31570.799999952316,32003,32444.199999928474,32890.39999997616,33390.699999928474,33828.699999928474,34471.10000002384,35032.89999997616,45196.89999997616],"key_events":[],"mouse_events":[5287.699999928474,8405.199999928474,12830.5,14236.5,14818.100000023842,15568.199999928474,16254.600000023842,17036.199999928474,24831,26088.199999928474,26708.299999952316,27198.5,27693.100000023842,28246.299999952316,28730.399999976158,29184.699999928474,29758,30275.199999928474,30718.699999928474,31570.799999952316,32003,32444.199999928474,32890.39999997616,33390.699999928474,33828.699999928474,34471.10000002384,35032.89999997616,39988.299999952316,43944.199999928474,45196.89999997616,50872.39999997616,53281,54041.60000002384],"honeypot":0,"survey":"mace","page":10,"trial_type":"survey-mace","trial_index":18,"time_elapsed":850838,"internal_node_id":"0.0-18.0","task_version":"prescreen-v0.3","browser_interactions":0,"instructed":0},{"rt":4836.599999904633,"trial_type":"mental-health-alert","trial_index":19,"time_elapsed":855678,"internal_node_id":"0.0-19.0","task_version":"prescreen-v0.3","interactions":"[{\"event\":\"blur\",\"trial\":14,\"time\":643018},{\"event\":\"focus\",\"trial\":14,\"time\":643320}]"}]