[{"view_history":[{"page_index":0,"viewing_time":2612.300000011921},{"page_index":1,"viewing_time":1629.8999999761581},{"page_index":2,"viewing_time":1879.300000011921},{"page_index":3,"viewing_time":1325.300000011921}],"rt":7447.899999976158,"trial_type":"instructions","trial_index":0,"time_elapsed":7466,"internal_node_id":"0.0-0.0","task_version":"prescreen-v0.3"},{"rt":21809.599999964237,"responses":{"age":"40","gender-categorical":"Female","gender-free-response":"","ethnicity":"Not Hispanic or Latino","race":["White"],"education":"Associate degree"},"trial_type":"survey-demo","trial_index":1,"time_elapsed":29283,"internal_node_id":"0.0-1.0","task_version":"prescreen-v0.3"},{"responses":{"Q19":"2","Q18":"2","Q05":"2","Q15":"2","Q16":"2","Q11":"3","Q20":"2","Q02":"2","Q06":"1","Q08":"2","Q01":"2","Q21":"2","Q13":"2","Q10":"2","Q12":"2","Q07":"0","Q14":"2","Q09":"2","Q17":"2","Q04":"2","Q03":"2"},"rt":76433,"item_order":[18,17,4,14,15,10,19,1,5,7,0,20,12,9,11,6,13,8,16,3,2],"radio_events":[6397.699999988079,9947,11581.099999964237,16691.899999976158,19758.899999976158,21877.599999964237,23690.899999976158,28371.599999964237,30961.899999976158,32843.799999952316,36072,38002,39750,42456.19999998808,43934.89999997616,47528,49070.5,52947.09999996424,56846.89999997616,61780.69999998808,66207.09999996424,69616.09999996424,71485.79999995232,74343,75270.79999995232],"key_events":[],"mouse_events":[4608.799999952316,6397.699999988079,8507.299999952316,9947,11581.099999964237,16691.899999976158,19758.899999976158,21877.599999964237,23690.899999976158,24300.19999998808,28371.599999964237,30961.899999976158,32843.799999952316,36072,38002,39750,42456.19999998808,43934.89999997616,47528,49070.5,49680.09999996424,52947.09999996424,56846.89999997616,61780.69999998808,66207.09999996424,68467.79999995232,69616.09999996424,71485.79999995232,72977.09999996424,74343,75270.79999995232,76430],"straightlining":0.8571428571428571,"zigzagging":0.2,"honeypot":0,"survey":"sns","trial_type":"survey-template","trial_index":2,"time_elapsed":105721,"internal_node_id":"0.0-2.0","task_version":"prescreen-v0.3","browser_interactions":0,"infrequency":0.5},{"responses":{"Q01":"3","Q09":"2","Q06":"3","Q08":"3","Q11":"3","Q05":"3","Q12":"3","Q13":"0","Q04":"3","Q10":"2","Q02":"3","Q03":"3","Q07":"3"},"rt":36546.30000001192,"item_order":[0,8,5,7,10,4,11,12,3,9,1,2,6],"radio_events":[6217.699999988079,7748.5,10383.899999976158,14081.699999988079,16961.899999976158,19838.80000001192,21581.69999998808,24981.80000001192,27250.30000001192,28995.399999976158,31626.19999998808,33754.5,35509.39999997616],"key_events":[],"mouse_events":[3440.300000011921,6217.699999988079,7748.5,10383.899999976158,14081.699999988079,16961.899999976158,19838.80000001192,21581.69999998808,22081.5,24981.80000001192,27250.30000001192,28995.399999976158,31626.19999998808,33754.5,35509.39999997616,36544.39999997616],"straightlining":0.7692307692307693,"zigzagging":0.5,"honeypot":0,"survey":"bisbas","trial_type":"survey-template","trial_index":3,"time_elapsed":142272,"internal_node_id":"0.0-3.0","task_version":"prescreen-v0.3","browser_interactions":0,"infrequency":0},{"responses":{"Q01":"2","Q02":"2","Q03":"2"},"rt":11057.900000035763,"radio_events":[4224.900000035763,6487.699999988079,9873.699999988079],"key_events":[],"mouse_events":[4224.900000035763,6487.699999988079,9873.699999988079,11056.900000035763],"survey":"map","page":1,"trial_type":"survey-map","trial_index":4,"time_elapsed":153334,"internal_node_id":"0.0-4.0","task_version":"prescreen-v0.3","browser_interactions":0},{"responses":{"Q04":"1","Q05":"1","Q06":"1"},"rt":8974.699999988079,"radio_events":[3060.199999988079,6031,7789.899999976158],"key_events":[],"mouse_events":[3060.199999988079,6031,7789.899999976158,8973.800000011921],"survey":"map","page":2,"trial_type":"survey-map","trial_index":5,"time_elapsed":162312,"internal_node_id":"0.0-5.0","task_version":"prescreen-v0.3","browser_interactions":0},{"responses":{"Q07":"2","Q08":"2","Q09":"2"},"rt":9482.5,"radio_events":[3625.2999999523163,6746.899999976158,8387.699999988079],"key_events":[],"mouse_events":[3625.2999999523163,5271.399999976158,6746.899999976158,8387.699999988079,9481.599999964237],"survey":"map","page":3,"trial_type":"survey-map","trial_index":6,"time_elapsed":171798,"internal_node_id":"0.0-6.0","task_version":"prescreen-v0.3","browser_interactions":0},{"responses":{"Q10":"2","Q11":"2","Q12":"2","Q13":"2","Q16":"0","Q14":"1","Q15":"2"},"rt":20668.5,"radio_events":[3109,4796.699999988079,6221.900000035763,7919.300000011921,9020.900000035763,11589.199999988079,16043,19570.19999998808],"key_events":[],"mouse_events":[3109,4796.699999988079,6221.900000035763,7919.300000011921,9020.900000035763,11589.199999988079,12265.900000035763,16043,19570.19999998808,20666.900000035763],"survey":"map","page":4,"trial_type":"survey-map","trial_index":7,"time_elapsed":192470,"internal_node_id":"0.0-7.0","task_version":"prescreen-v0.3","browser_interactions":0,"infrequency":0},{"view_history":[{"page_index":0,"viewing_time":2576.800000011921},{"page_index":1,"viewing_time":2543}],"rt":5120.400000035763,"trial_type":"instructions","trial_index":8,"time_elapsed":197593,"internal_node_id":"0.0-8.0","task_version":"prescreen-v0.3"},{"responses":{"01":"Yes","01_ages_8":"8","01_ages_9":"9","01_ages_10":"10","01_ages_11":"11","01_ages_12":"12","01_ages_13":"13","01_ages_14":"14","01_ages_15":"15","01_ages_16":"16","01_ages_17":"17","01_ages_18":"18","02":"Yes","02_ages_8":"8","02_ages_9":"9","02_ages_10":"10","02_ages_11":"11","02_ages_12":"12","02_ages_13":"13","02_ages_14":"14","02_ages_15":"15","02_ages_16":"16","02_ages_17":"17","02_ages_18":"18","03":"Yes","03_ages_11":"11","03_ages_12":"12","03_ages_13":"13","03_ages_14":"14","03_ages_15":"15","03_ages_16":"16","03_ages_17":"17","03_ages_18":"18","04":"Yes","04_ages_15":"15","04_ages_16":"16","04_ages_17":"17","04_ages_18":"18","05":"No","06":"Yes","06_ages_10":"10","06_ages_11":"11","06_ages_12":"12","06_ages_13":"13","06_ages_14":"14","06_ages_15":"15","06_ages_16":"16","06_ages_17":"17","06_ages_18":"18"},"rt":78092.5,"item_order":[0,1,2,3,4,5],"radio_events":[4225.800000011921,21656.900000035763,39743.19999998808,52957.5,62648.5,65258.90000003576],"checkbox_events":[10344,10883.400000035763,11590.400000035763,12261.300000011921,12968.800000011921,13610.199999988079,14237.5,14820.900000035763,15411.5,17064.80000001192,18141.30000001192,25319.19999998808,26264.5,27314.400000035763,28059.400000035763,29534.69999998808,30685.30000001192,32638.80000001192,33587.80000001192,34424.10000002384,35263.40000003576,36198.30000001192,42308.19999998808,43783.40000003576,45136.5,45957.69999998808,46770.90000003576,47619.40000003576,48579.80000001192,49409.10000002384,50335.5,51508.5,55768.19999998808,57058.40000003576,58113,58805.60000002384,66323.80000001192,68138.19999998808,68978.19999998808,70365.30000001192,71338.19999998808,72295.5,73144.30000001192,74036.19999998808,75454.80000001192],"key_events":[],"mouse_events":[0.5,4225.800000011921,10344,10883.400000035763,11590.400000035763,12261.300000011921,12968.800000011921,13610.199999988079,14237.5,14820.900000035763,15411.5,17064.80000001192,18141.30000001192,20466,21656.900000035763,24911.80000001192,25319.19999998808,26264.5,27314.400000035763,28059.400000035763,29053.5,29534.69999998808,30685.30000001192,32638.80000001192,33587.80000001192,34424.10000002384,35263.40000003576,36198.30000001192,36718.19999998808,39743.19999998808,41310.69999998808,42308.19999998808,43783.40000003576,45136.5,45957.69999998808,46770.90000003576,47619.40000003576,48579.80000001192,49409.10000002384,50335.5,51508.5,52957.5,55768.19999998808,57058.40000003576,58113,58805.60000002384,59797.10000002384,62648.5,65258.90000003576,66323.80000001192,68138.19999998808,68978.19999998808,70365.30000001192,71338.19999998808,72295.5,73144.30000001192,74036.19999998808,75454.80000001192,78088.69999998808],"honeypot":0,"survey":"mace","page":1,"trial_type":"survey-mace","trial_index":9,"time_elapsed":275693,"internal_node_id":"0.0-9.0","task_version":"prescreen-v0.3","browser_interactions":0},{"responses":{"01":"Yes","01_ages_10":"10","01_ages_11":"11","01_ages_12":"12","01_ages_13":"13","01_ages_14":"14","01_ages_15":"15","01_ages_16":"16","02":"Yes","02_ages_12":"12","02_ages_13":"13","02_ages_14":"14","02_ages_15":"15","03":"Yes","03_ages_5":"5","03_ages_6":"6","03_ages_7":"7","04":"Yes","04_ages_5":"5","04_ages_6":"6","04_ages_7":"7","05":"Yes","05_ages_8":"8","05_ages_9":"9","05_ages_10":"10","06":"No","07":"No","08":"No"},"rt":53851.69999998808,"item_order":[0,1,2,3,4,5,6,7],"radio_events":[3056.800000011921,14295.099999964237,20794.19999998808,29368.80000001192,35621.69999998808,44132,44918.09999996424,47028.39999997616,50502,52103.59999996424],"checkbox_events":[4391.399999976158,5291.199999988079,6148.099999964237,7068.300000011921,7962.800000011921,8843,10451.300000011921,15704.800000011921,16545.5,17514.399999976158,18378.399999976158,22373.5,23260.69999998808,24288.099999964237,30817.30000001192,31694.5,32972.09999996424,38124.19999998808,38532.39999997616,39739.59999996424,40659.19999998808,41608.5],"key_events":[44918.09999996424],"mouse_events":[3056.800000011921,4391.399999976158,5291.199999988079,6148.099999964237,7068.300000011921,7962.800000011921,8843,10451.300000011921,14295.099999964237,15704.800000011921,16545.5,17514.399999976158,18378.399999976158,20794.19999998808,22373.5,23260.69999998808,24288.099999964237,25240.5,29368.80000001192,30817.30000001192,31694.5,32972.09999996424,34485.69999998808,35621.69999998808,38124.19999998808,38532.39999997616,39739.59999996424,40659.19999998808,41608.5,44132,47028.39999997616,47779.19999998808,50502,52103.59999996424,53846.69999998808],"honeypot":0,"survey":"mace","page":2,"trial_type":"survey-mace","trial_index":10,"time_elapsed":329548,"internal_node_id":"0.0-10.0","task_version":"prescreen-v0.3","browser_interactions":0},{"responses":{"01":"No","02":"No","03":"No","04":"No"},"rt":11472.599999964237,"item_order":[0,1,2,3],"radio_events":[3856.899999976158,6774.300000011921,8615.699999988079,10470.199999988079],"checkbox_events":[],"key_events":[],"mouse_events":[3856.899999976158,6774.300000011921,8615.699999988079,10470.199999988079,11469.800000011921],"honeypot":0,"survey":"mace","page":3,"trial_type":"survey-mace","trial_index":11,"time_elapsed":341025,"internal_node_id":"0.0-11.0","task_version":"prescreen-v0.3","browser_interactions":0},{"responses":{"01":"No","02":"No"},"rt":8762.400000035763,"item_order":[0,1],"radio_events":[2334.300000011921,7651.900000035763],"checkbox_events":[],"key_events":[],"mouse_events":[2334.300000011921,7651.900000035763,8760.600000023842],"honeypot":0,"survey":"mace","page":4,"trial_type":"survey-mace","trial_index":12,"time_elapsed":349790,"internal_node_id":"0.0-12.0","task_version":"prescreen-v0.3","browser_interactions":0},{"responses":{"01":"Yes","01_ages_11":"11","01_ages_12":"12","01_ages_13":"13","01_ages_14":"14","02":"Yes","02_ages_11":"11","02_ages_12":"12","02_ages_13":"13","02_ages_14":"14","03":"Yes","03_ages_11":"11","03_ages_12":"12","03_ages_13":"13","03_ages_14":"14","04":"No","05":"No"},"rt":34427.60000002384,"item_order":[0,1,2,3,4],"radio_events":[4510.199999988079,12230.800000011921,19654.19999998808,30430.100000023842,33194.80000001192],"checkbox_events":[6423.100000023842,7290.600000023842,8163.800000011921,9084.199999988079,13936.900000035763,14924.300000011921,15895.699999988079,16860.600000023842,21729.5,22646.900000035763,24517.900000035763,25364.400000035763],"key_events":[],"mouse_events":[4510.199999988079,6423.100000023842,7290.600000023842,8163.800000011921,9084.199999988079,12230.800000011921,13936.900000035763,14924.300000011921,15895.699999988079,16860.600000023842,19654.19999998808,21729.5,22646.900000035763,23568.400000035763,24517.900000035763,25364.400000035763,25959.19999998808,30430.100000023842,33194.80000001192,34424.40000003576],"honeypot":0,"survey":"mace","page":5,"trial_type":"survey-mace","trial_index":13,"time_elapsed":384222,"internal_node_id":"0.0-13.0","task_version":"prescreen-v0.3","browser_interactions":0},{"responses":{"01":"No","02":"No","03":"No","04":"No","05":"No"},"rt":15522.599999964237,"item_order":[0,1,2,3,4],"radio_events":[8631.099999964237,10383.599999964237,11638.299999952316,13398.899999976158,14542.599999964237],"checkbox_events":[],"key_events":[],"mouse_events":[8631.099999964237,10383.599999964237,11638.299999952316,13398.899999976158,14542.599999964237,15519.099999964237],"honeypot":0,"survey":"mace","page":6,"trial_type":"survey-mace","trial_index":14,"time_elapsed":399748,"internal_node_id":"0.0-14.0","task_version":"prescreen-v0.3","browser_interactions":0},{"responses":{"01":"No","02":"No","03":"No","04":"No","05":"No","06":"No","07":"No"},"rt":16473.19999998808,"item_order":[0,1,2,3,4,5,6],"radio_events":[4768.199999988079,6166.400000035763,7656.199999988079,8931.900000035763,10092.600000023842,11249.400000035763,14869.699999988079],"checkbox_events":[],"key_events":[],"mouse_events":[4768.199999988079,6166.400000035763,7656.199999988079,8931.900000035763,10092.600000023842,11249.400000035763,11864.900000035763,14869.699999988079,16468.600000023842],"honeypot":0,"survey":"mace","page":7,"trial_type":"survey-mace","trial_index":15,"time_elapsed":416224,"internal_node_id":"0.0-15.0","task_version":"prescreen-v0.3","browser_interactions":0},{"responses":{"01":"No","02":"Yes","02_ages_9":"9","02_ages_10":"10","02_ages_11":"11","02_ages_12":"12","02_ages_13":"13","02_ages_14":"14","02_ages_15":"15","02_ages_16":"16","02_ages_17":"17","03":"Yes","03_ages_10":"10","03_ages_11":"11","03_ages_12":"12","03_ages_13":"13","04":"Yes","04_ages_10":"10","04_ages_11":"11","04_ages_12":"12","04_ages_13":"13","04_ages_14":"14","04_ages_15":"15","04_ages_16":"16","04_ages_17":"17","04_ages_18":"18"},"rt":46993,"item_order":[0,1,2,3],"radio_events":[6580.699999988079,9557.599999964237,26273.399999976158,35846.19999998808],"checkbox_events":[11296.5,12119.800000011921,14083.399999976158,15295.899999976158,16650.30000001192,17480.399999976158,18356,19236.5,20222,21245.899999976158,22085.899999976158,29076.599999964237,30031.69999998808,31019.5,31880.5,36939.89999997616,38057.19999998808,38858.30000001192,39755.39999997616,41158,42019.39999997616,42890.59999996424,43716.89999997616,44492.80000001192],"key_events":[],"mouse_events":[6580.699999988079,9557.599999964237,11296.5,12119.800000011921,13111.699999988079,14083.399999976158,15295.899999976158,16650.30000001192,17480.399999976158,18356,19236.5,20222,21245.899999976158,22085.899999976158,26273.399999976158,29076.599999964237,30031.69999998808,31019.5,31880.5,32514.30000001192,35846.19999998808,36939.89999997616,38057.19999998808,38858.30000001192,39755.39999997616,41158,42019.39999997616,42890.59999996424,43716.89999997616,44492.80000001192,45192.39999997616,46990],"honeypot":0,"survey":"mace","page":8,"trial_type":"survey-mace","trial_index":16,"time_elapsed":463221,"internal_node_id":"0.0-16.0","task_version":"prescreen-v0.3","browser_interactions":0},{"responses":{"01":"Yes","01_ages_1":"1","01_ages_2":"2","01_ages_3":"3","01_ages_4":"4","01_ages_5":"5","01_ages_6":"6","01_ages_7":"7","01_ages_8":"8","01_ages_9":"9","01_ages_10":"10","01_ages_11":"11","01_ages_12":"12","01_ages_13":"13","01_ages_14":"14","01_ages_15":"15","01_ages_16":"16","01_ages_17":"17","01_ages_18":"18","02":"Yes","02_ages_1":"1","02_ages_2":"2","02_ages_3":"3","02_ages_4":"4","02_ages_5":"5","02_ages_6":"6","02_ages_7":"7","02_ages_8":"8","02_ages_9":"9","02_ages_10":"10","02_ages_11":"11","02_ages_12":"12","02_ages_13":"13","02_ages_14":"14","02_ages_15":"15","02_ages_16":"16","02_ages_17":"17","02_ages_18":"18","03":"Yes","03_ages_1":"1","03_ages_2":"2","03_ages_3":"3","03_ages_4":"4","03_ages_5":"5","03_ages_6":"6","03_ages_7":"7","03_ages_8":"8","03_ages_9":"9","03_ages_10":"10","03_ages_11":"11","03_ages_12":"12","03_ages_13":"13","03_ages_14":"14","03_ages_15":"15","03_ages_16":"16","03_ages_17":"17","03_ages_18":"18","04":"Yes","04_ages_1":"1","04_ages_2":"2","04_ages_3":"3","04_ages_4":"4","04_ages_5":"5","04_ages_6":"6","04_ages_7":"7","04_ages_8":"8","04_ages_9":"9","04_ages_10":"10","04_ages_11":"11","04_ages_12":"12","04_ages_13":"13","04_ages_14":"14","04_ages_15":"15","04_ages_16":"16","04_ages_17":"17","04_ages_18":"18"},"rt":90255.09999996424,"item_order":[0,1,2,3],"radio_events":[3314.5,19619.899999976158,45248.5,67548.89999997616],"checkbox_events":[5064.099999964237,6157.300000011921,6718.399999976158,7323.599999964237,7906.699999988079,8650,9196.699999988079,9728.899999976158,10610.899999976158,12192.599999964237,12688.300000011921,13234.899999976158,13912.899999976158,14430.300000011921,14904,15501.599999964237,15990.199999988079,16558.599999964237,20939.30000001192,21580.69999998808,22244.099999964237,22849,23424.69999998808,25863,28264.69999998808,30286.399999976158,31479,32814.5,33761.5,34877.69999998808,35725.19999998808,36570.59999996424,37589.59999996424,40440.19999998808,42360,43481.80000001192,46838,47941.09999996424,48801,49720,50569.39999997616,51405.09999996424,52448.59999996424,53304.59999996424,54409.09999996424,55230.39999997616,56187.09999996424,57074,57913.59999996424,59014.39999997616,60013.39999997616,60881.09999996424,61733.59999996424,62395,68787.89999997616,69392.89999997616,70901.80000001192,71506.80000001192,73709.39999997616,74681.69999998808,75747.59999996424,76660.59999996424,78138.5,79090.5,79950.89999997616,80770,81774.39999997616,82772.80000001192,83656.69999998808,85006.39999997616,86101.69999998808,86974.5],"key_events":[],"mouse_events":[3314.5,5064.099999964237,5734.5,6157.300000011921,6718.399999976158,7323.599999964237,7906.699999988079,8650,9196.699999988079,9728.899999976158,10610.899999976158,12192.599999964237,12688.300000011921,13234.899999976158,13912.899999976158,14430.300000011921,14904,15501.599999964237,15990.199999988079,16558.599999964237,19619.899999976158,20939.30000001192,21580.69999998808,22244.099999964237,22849,23424.69999998808,24015,24540,25863,28264.69999998808,29131.899999976158,30286.399999976158,31479,32814.5,33761.5,34877.69999998808,35725.19999998808,36570.59999996424,37589.59999996424,38661.30000001192,40440.19999998808,42360,43481.80000001192,45248.5,46838,47941.09999996424,48801,49720,50569.39999997616,51405.09999996424,52448.59999996424,53304.59999996424,54409.09999996424,55230.39999997616,56187.09999996424,57074,57913.59999996424,59014.39999997616,60013.39999997616,60881.09999996424,61733.59999996424,62395,64685.39999997616,67548.89999997616,68787.89999997616,69392.89999997616,70165.59999996424,70901.80000001192,71506.80000001192,73709.39999997616,74681.69999998808,75747.59999996424,76660.59999996424,78138.5,79090.5,79950.89999997616,80770,81774.39999997616,82772.80000001192,83656.69999998808,85006.39999997616,86101.69999998808,86974.5,87412.89999997616,90252.30000001192],"honeypot":0,"survey":"mace","page":9,"trial_type":"survey-mace","trial_index":17,"time_elapsed":553478,"internal_node_id":"0.0-17.0","task_version":"prescreen-v0.3","browser_interactions":0},{"responses":{"01":"No","02":"No","03":"No","04":"No","05":"No","06":"Yes","06_ages_17":"17","07":"Yes","07_ages_9":"9","07_ages_10":"10","07_ages_11":"11","07_ages_12":"12","07_ages_13":"13","08":"Yes","08_ages_1":"1","08_ages_2":"2","08_ages_3":"3","08_ages_4":"4","08_ages_5":"5","08_ages_6":"6","08_ages_7":"7","08_ages_8":"8","08_ages_9":"9","08_ages_10":"10","08_ages_11":"11"},"rt":48475.60000002384,"item_order":[0,1,2,3,4,5,6,7],"radio_events":[2548.600000023842,3780.600000023842,9340.699999988079,10514,12470.5,14219.399999976158,20590.80000001192,30132.600000023842],"checkbox_events":[16158.600000023842,22960,23521.30000001192,24075.19999998808,25051.899999976158,26462.80000001192,31379.30000001192,32130.100000023842,32713.100000023842,33296.19999998808,34418.69999998808,38237.5,39110.30000001192,41129.19999998808,42484.5,43370.80000001192,44557],"key_events":[],"mouse_events":[2548.600000023842,3780.600000023842,9340.699999988079,10514,12470.5,14219.399999976158,16158.600000023842,16792.600000023842,20590.80000001192,22960,23521.30000001192,24075.19999998808,25051.899999976158,26462.80000001192,30132.600000023842,31379.30000001192,32130.100000023842,32713.100000023842,33296.19999998808,33857.60000002384,34418.69999998808,34980.19999998808,37111,38237.5,39110.30000001192,40122.60000002384,41129.19999998808,42484.5,43370.80000001192,44557,45761.69999998808,46453.80000001192,48470.60000002384],"honeypot":0,"survey":"mace","page":10,"trial_type":"survey-mace","trial_index":18,"time_elapsed":601959,"internal_node_id":"0.0-18.0","task_version":"prescreen-v0.3","browser_interactions":0,"instructed":0},{"rt":3114.7000000476837,"trial_type":"mental-health-alert","trial_index":19,"time_elapsed":605076,"internal_node_id":"0.0-19.0","task_version":"prescreen-v0.3","interactions":"[]"}]