[{"view_history":[{"page_index":0,"viewing_time":15805},{"page_index":1,"viewing_time":3043},{"page_index":2,"viewing_time":5228},{"page_index":3,"viewing_time":1365}],"rt":25441,"trial_type":"instructions","trial_index":0,"time_elapsed":25449,"internal_node_id":"0.0-0.0","task_version":"prescreen-v0.3"},{"rt":13934,"responses":{"age":"44","gender-categorical":"Male","gender-free-response":"","ethnicity":"Not Hispanic or Latino","race":["White"],"education":"Bachelor degree","siblings":"1"},"trial_type":"survey-demo","trial_index":1,"time_elapsed":39392,"internal_node_id":"0.0-1.0","task_version":"prescreen-v0.3"},{"responses":{"Q13":"0","Q11":"1","Q07":"2","Q19":"1","Q03":"0","Q21":"3","Q02":"1","Q20":"0","Q09":"1","Q16":"0","Q17":"1","Q15":"0","Q10":"0","Q04":"1","Q08":"1","Q06":"0","Q18":"0","Q05":"1","Q14":"0","Q12":"0","Q01":"1"},"rt":94426,"item_order":[12,10,6,18,2,20,1,19,8,15,16,14,9,3,7,5,17,4,13,11,0],"radio_events":[3065,6513,10957,18918,20940,23738,29246,33237,42051,43124,46011,49315,53167,60055,64574,69379,73184,83353,86216,91617,93309],"key_events":[],"mouse_events":[3065,6513,10957,18918,20940,23738,28798,29246,29886,33237,35996,42051,43124,46011,49315,53167,58297,58833,59330,59694,60055,61071,63942,64574,69379,73184,83353,86216,91617,93309,94426],"straightlining":0.47619047619047616,"zigzagging":0.75,"honeypot":0,"survey":"sns","trial_type":"survey-template","trial_index":2,"time_elapsed":133831,"internal_node_id":"0.0-2.0","task_version":"prescreen-v0.3","browser_interactions":0,"infrequency":0},{"responses":{"Q07":"3","Q01":"0","Q13":"0","Q09":"2","Q02":"1","Q04":"1","Q05":"2","Q03":"1","Q12":"2","Q10":"2","Q11":"2","Q06":"2","Q08":"2"},"rt":84462,"item_order":[6,0,12,8,1,3,4,2,11,9,10,5,7],"radio_events":[2562,4500,7406,13191,14016,18496,22583,28635,32025,33241,37121,37921,83400],"key_events":[],"mouse_events":[2562,4500,7406,10596,13191,14016,16678,18496,22102,22583,23148,28635,31356,32025,33241,35171,36632,37121,37921,83400,84462],"straightlining":0.5384615384615384,"zigzagging":0.4166666666666667,"honeypot":0,"survey":"bisbas","trial_type":"survey-template","trial_index":3,"time_elapsed":218301,"internal_node_id":"0.0-3.0","task_version":"prescreen-v0.3","browser_interactions":0,"infrequency":0},{"responses":{"Q01":"2","Q02":"2","Q03":"3"},"rt":15743,"radio_events":[4821,8848,14025],"key_events":[],"mouse_events":[4821,8336,8848,14025,15743],"survey":"map","page":1,"trial_type":"survey-map","trial_index":4,"time_elapsed":234049,"internal_node_id":"0.0-4.0","task_version":"prescreen-v0.3","browser_interactions":0},{"responses":{"Q04":"2","Q05":"2","Q06":"2"},"rt":8391,"radio_events":[3790,6401,7521],"key_events":[],"mouse_events":[3790,5151,5815,6401,7521,8391],"survey":"map","page":2,"trial_type":"survey-map","trial_index":5,"time_elapsed":242445,"internal_node_id":"0.0-5.0","task_version":"prescreen-v0.3","browser_interactions":0},{"responses":{"Q07":"2","Q08":"4","Q09":"2"},"rt":19399,"radio_events":[10237,11407,18493],"key_events":[],"mouse_events":[10237,11407,18493,19399],"survey":"map","page":3,"trial_type":"survey-map","trial_index":6,"time_elapsed":261847,"internal_node_id":"0.0-6.0","task_version":"prescreen-v0.3","browser_interactions":0},{"responses":{"Q10":"2","Q11":"2","Q12":"3","Q13":"2","Q16":"0","Q14":"2","Q15":"2"},"rt":30204,"radio_events":[4762,5947,12182,17813,21264,27517,29479],"key_events":[],"mouse_events":[4762,5947,12182,17813,20824,21264,22164,27101,27517,29006,29479,30204],"survey":"map","page":4,"trial_type":"survey-map","trial_index":7,"time_elapsed":292056,"internal_node_id":"0.0-7.0","task_version":"prescreen-v0.3","browser_interactions":0,"infrequency":0},{"view_history":[{"page_index":0,"viewing_time":2077},{"page_index":1,"viewing_time":2859}],"rt":4936,"trial_type":"instructions","trial_index":8,"time_elapsed":296994,"internal_node_id":"0.0-8.0","task_version":"prescreen-v0.3"},{"responses":{"01":"No","02":"No","03":"No","04":"No","05":"No","06":"No"},"rt":24222,"item_order":[0,1,2,3,4,5],"radio_events":[9465,14112,16574,17406,19015,22142],"checkbox_events":[],"key_events":[],"mouse_events":[0,9465,12423,14112,16574,17406,19015,22142,24222],"honeypot":0,"survey":"mace","page":1,"trial_type":"survey-mace","trial_index":9,"time_elapsed":321225,"internal_node_id":"0.0-9.0","task_version":"prescreen-v0.3","browser_interactions":0},{"responses":{"01":"No","02":"No","03":"No","04":"No","05":"No","06":"No","07":"No","08":"No"},"rt":25974,"item_order":[0,1,2,3,4,5,6,7],"radio_events":[2176,10808,13238,14583,18253,18949,23897,25283],"checkbox_events":[],"key_events":[],"mouse_events":[2176,6700,7337,10808,12397,13238,14583,16003,18253,18949,19545,23405,23897,24530,24874,25283,25973],"honeypot":0,"survey":"mace","page":2,"trial_type":"survey-mace","trial_index":10,"time_elapsed":347207,"internal_node_id":"0.0-10.0","task_version":"prescreen-v0.3","browser_interactions":0},{"responses":{"01":"No","02":"No","03":"No","04":"No"},"rt":15648,"item_order":[0,1,2,3],"radio_events":[8064,9064,14077,14837],"checkbox_events":[],"key_events":[],"mouse_events":[8064,9064,9933,10862,11351,11831,12431,12856,13218,13593,14077,14837,15648],"honeypot":0,"survey":"mace","page":3,"trial_type":"survey-mace","trial_index":11,"time_elapsed":362860,"internal_node_id":"0.0-11.0","task_version":"prescreen-v0.3","browser_interactions":0},{"responses":{"01":"No","02":"No"},"rt":13047,"item_order":[0,1],"radio_events":[8165,10776],"checkbox_events":[],"key_events":[],"mouse_events":[8165,10776,13047],"honeypot":0,"survey":"mace","page":4,"trial_type":"survey-mace","trial_index":12,"time_elapsed":375911,"internal_node_id":"0.0-12.0","task_version":"prescreen-v0.3","browser_interactions":0},{"responses":{"01":"No","02":"No","03":"No","04":"No","05":"No"},"rt":26024,"item_order":[0,1,2,3,4],"radio_events":[14501,17936,21167,23092,25342],"checkbox_events":[],"key_events":[],"mouse_events":[14501,17936,21167,23092,25342,26024],"honeypot":0,"survey":"mace","page":5,"trial_type":"survey-mace","trial_index":13,"time_elapsed":401942,"internal_node_id":"0.0-13.0","task_version":"prescreen-v0.3","browser_interactions":0},{"responses":{"01":"No","02":"No","03":"No","04":"No","05":"No"},"rt":37950,"item_order":[0,1,2,3,4],"radio_events":[6978,22345,25182,27112,33052],"checkbox_events":[],"key_events":[],"mouse_events":[6978,22345,25182,27112,33052,37950],"honeypot":0,"survey":"mace","page":6,"trial_type":"survey-mace","trial_index":14,"time_elapsed":439898,"internal_node_id":"0.0-14.0","task_version":"prescreen-v0.3","browser_interactions":0},{"responses":{"01":"No","02":"No","03":"No","04":"No","05":"No","06":"No","07":"No"},"rt":13657,"item_order":[0,1,2,3,4,5,6],"radio_events":[3106,4384,5569,6553,9816,10864,13158],"checkbox_events":[],"key_events":[],"mouse_events":[3106,4384,5569,6553,9039,9816,10465,10864,11337,13158,13656],"honeypot":0,"survey":"mace","page":7,"trial_type":"survey-mace","trial_index":15,"time_elapsed":453561,"internal_node_id":"0.0-15.0","task_version":"prescreen-v0.3","browser_interactions":0},{"responses":{"01":"No","02":"No","03":"No","04":"No"},"rt":23326,"item_order":[0,1,2,3],"radio_events":[8634,15857,21869,22549],"checkbox_events":[],"key_events":[],"mouse_events":[8634,15857,21869,22549,23326],"honeypot":0,"survey":"mace","page":8,"trial_type":"survey-mace","trial_index":16,"time_elapsed":476894,"internal_node_id":"0.0-16.0","task_version":"prescreen-v0.3","browser_interactions":0},{"responses":{"01":"Yes","01_ages_1":"1","01_ages_2":"2","01_ages_3":"3","01_ages_4":"4","01_ages_5":"5","01_ages_6":"6","01_ages_7":"7","01_ages_8":"8","01_ages_9":"9","01_ages_10":"10","01_ages_11":"11","01_ages_12":"12","01_ages_13":"13","01_ages_14":"14","01_ages_15":"15","01_ages_16":"16","01_ages_17":"17","01_ages_18":"18","02":"Yes","02_ages_1":"1","02_ages_2":"2","02_ages_3":"3","02_ages_4":"4","02_ages_5":"5","02_ages_6":"6","02_ages_7":"7","02_ages_8":"8","02_ages_9":"9","02_ages_10":"10","02_ages_11":"11","02_ages_12":"12","02_ages_13":"13","02_ages_14":"14","02_ages_15":"15","02_ages_16":"16","02_ages_17":"17","02_ages_18":"18","03":"Yes","03_ages_1":"1","03_ages_2":"2","03_ages_3":"3","03_ages_4":"4","03_ages_5":"5","03_ages_6":"6","03_ages_7":"7","03_ages_8":"8","03_ages_9":"9","03_ages_10":"10","03_ages_11":"11","03_ages_12":"12","03_ages_13":"13","03_ages_14":"14","03_ages_15":"15","03_ages_16":"16","03_ages_17":"17","03_ages_18":"18","04":"Yes","04_ages_1":"1","04_ages_2":"2","04_ages_3":"3","04_ages_4":"4","04_ages_5":"5","04_ages_6":"6","04_ages_7":"7","04_ages_8":"8","04_ages_9":"9","04_ages_10":"10","04_ages_11":"11","04_ages_12":"12","04_ages_13":"13","04_ages_14":"14","04_ages_15":"15","04_ages_16":"16","04_ages_17":"17","04_ages_18":"18"},"rt":130304,"item_order":[0,1,2,3],"radio_events":[4638,33890,37264,42030,43106,46637],"checkbox_events":[15422,15975,18969,19429,19837,20614,21526,21918,22711,23135,23595,24516,24957,25397,26102,27458,28370,29691,50181,51124,53017,54010,54378,54802,55691,56063,56440,56888,57216,57697,57816,58273,59218,59682,60158,60566,60974,61374,61831,63087,64828,65988,67653,99591,100947,101403,101876,102748,103221,103669,104310,105114,105426,105835,106602,108752,110001,111313,112105,112998,115047,115816,116567,117291,117988,118892,119756,120917,122337,122850,123354,123747,126240,127016,127856,128400],"key_events":[43106],"mouse_events":[4638,15422,15975,18969,19429,19837,20237,20614,21061,21526,21918,22334,22711,23135,23595,24051,24516,24957,25397,26102,26613,27029,27458,27898,28370,28866,29331,29691,33505,33890,37264,38616,42030,46637,47834,49740,50181,50652,51124,51540,52001,53017,53626,54010,54378,54802,55227,55691,56063,56440,56888,57216,57697,57816,58273,58721,59218,59682,60158,60566,60974,61374,61831,62239,63087,63952,64444,64828,65612,65988,66669,67165,67653,99591,100150,100555,100947,101403,101876,102324,102748,103221,103669,104310,105114,105426,105835,106194,106602,106954,107315,108140,108752,109232,109584,110001,110345,110865,111313,111754,112105,112594,112998,113487,114663,115047,115423,115816,116207,116567,116946,117291,117988,118451,118892,119388,119756,120917,121473,121857,122337,122850,123354,123747,124171,124811,125256,126240,127016,127856,128400,130304],"honeypot":0,"survey":"mace","page":9,"trial_type":"survey-mace","trial_index":17,"time_elapsed":607208,"internal_node_id":"0.0-17.0","task_version":"prescreen-v0.3","browser_interactions":0},{"responses":{"01":"No","02":"No","03":"No","04":"No","05":"No","06":"Yes","06_ages_17":"17","07":"Yes","07_ages_1":"1","07_ages_2":"2","07_ages_3":"3","07_ages_4":"4","07_ages_5":"5","07_ages_6":"6","07_ages_7":"7","07_ages_8":"8","07_ages_9":"9","07_ages_10":"10","07_ages_11":"11","07_ages_12":"12","07_ages_13":"13","07_ages_14":"14","07_ages_15":"15","07_ages_16":"16","07_ages_17":"17","07_ages_18":"18","08":"Yes","08_ages_1":"1","08_ages_2":"2","08_ages_3":"3","08_ages_4":"4","08_ages_5":"5","08_ages_6":"6","08_ages_7":"7","08_ages_8":"8","08_ages_9":"9","08_ages_10":"10","08_ages_11":"11","08_ages_12":"12","08_ages_13":"13","08_ages_14":"14","08_ages_15":"15","08_ages_16":"16","08_ages_17":"17","08_ages_18":"18"},"rt":63658,"item_order":[0,1,2,3,4,5,6,7],"radio_events":[3471,4748,6501,8149,12651,20524,24034,58442],"checkbox_events":[14167,25027,25495,25896,26368,27706,28601,29638,30695,31544,31960,32792,33217,34093,34654,35102,35494,35902,36887,39549,40005,40494,40950,42611,43348,44261,45446,46290,47507,47915,49116,49565,50353,51266,52041,52467,53347],"key_events":[],"mouse_events":[3471,4748,6501,8149,10178,12651,14167,15472,20524,22201,24034,25027,25495,25896,26368,26777,27345,27706,28145,28601,29114,29638,30199,30695,31135,31544,31960,32383,32792,33217,33693,34093,34654,35102,35494,35902,36271,36887,37351,39549,40005,40494,40950,41510,42067,42611,42988,43348,43780,44261,44701,45061,45446,45890,46290,46738,47098,47507,47915,48723,49116,49565,49969,50353,50801,51266,51642,52041,52467,52931,53347,54172,56545,58442,58911,63658],"honeypot":0,"survey":"mace","page":10,"trial_type":"survey-mace","trial_index":18,"time_elapsed":670876,"internal_node_id":"0.0-18.0","task_version":"prescreen-v0.3","browser_interactions":0,"instructed":0},{"rt":5616,"trial_type":"mental-health-alert","trial_index":19,"time_elapsed":676497,"internal_node_id":"0.0-19.0","task_version":"prescreen-v0.3","interactions":"[{\"event\":\"focus\",\"trial\":0,\"time\":1},{\"event\":\"blur\",\"trial\":0,\"time\":1461},{\"event\":\"focus\",\"trial\":0,\"time\":12097}]"}]