[{"view_history":[{"page_index":0,"viewing_time":4527},{"page_index":1,"viewing_time":3687},{"page_index":2,"viewing_time":3545},{"page_index":3,"viewing_time":1610}],"rt":13369,"trial_type":"instructions","trial_index":0,"time_elapsed":13373,"internal_node_id":"0.0-0.0","task_version":"prescreen-v0.3"},{"rt":29569,"responses":{"age":"57","gender-categorical":"Male","gender-free-response":"","ethnicity":"Not Hispanic or Latino","race":["White"],"education":"Bachelor degree"},"trial_type":"survey-demo","trial_index":1,"time_elapsed":42949,"internal_node_id":"0.0-1.0","task_version":"prescreen-v0.3"},{"responses":{"Q08":"1","Q16":"1","Q09":"2","Q11":"1","Q20":"1","Q12":"1","Q05":"1","Q19":"2","Q15":"2","Q21":"3","Q02":"1","Q17":"1","Q01":"1","Q06":"2","Q14":"2","Q04":"0","Q03":"0","Q07":"2","Q13":"2","Q18":"2","Q10":"1"},"rt":131357,"item_order":[7,15,8,10,19,11,4,18,14,20,1,16,0,5,13,3,2,6,12,17,9],"radio_events":[10225,23236,26409,30912,33919,35452,42069,51707,54911,56531,61583,66218,72659,78136,82151,86785,93050,98816,103602,106254,111438,116110,125722,130377],"key_events":[],"mouse_events":[10225,23236,26409,30354,30912,33919,35073,35452,42069,51707,54023,54911,56531,61583,66218,71953,72659,78136,82151,86785,93050,98816,103602,106254,111438,116110,124280,125052,125722,129752,130377,131354],"straightlining":0.47619047619047616,"zigzagging":0.3,"honeypot":0,"survey":"sns","trial_type":"survey-template","trial_index":2,"time_elapsed":174313,"internal_node_id":"0.0-2.0","task_version":"prescreen-v0.3","browser_interactions":0,"infrequency":0},{"responses":{"Q08":"2","Q12":"1","Q10":"1","Q13":"0","Q05":"2","Q11":"1","Q03":"2","Q04":"2","Q06":"2","Q01":"2","Q07":"2","Q02":"2","Q09":"1"},"rt":79136,"item_order":[7,11,9,12,4,10,2,3,5,0,6,1,8],"radio_events":[9572,16131,23903,27476,33179,39162,49425,55039,63885,67173,70517,73175,77867],"key_events":[],"mouse_events":[9572,15678,16131,23903,27476,33179,38521,39162,49425,55039,63315,63885,66069,67173,70517,73175,77867,79135],"straightlining":0.6153846153846154,"zigzagging":0.4166666666666667,"honeypot":0,"survey":"bisbas","trial_type":"survey-template","trial_index":3,"time_elapsed":253454,"internal_node_id":"0.0-3.0","task_version":"prescreen-v0.3","browser_interactions":0,"infrequency":0},{"responses":{"Q01":"3","Q02":"3","Q03":"3"},"rt":45782,"radio_events":[13533,23419,31061,32882,39548,43038],"key_events":[],"mouse_events":[7421,13533,23419,31061,32882,39045,39548,42578,43038,45781],"survey":"map","page":1,"trial_type":"survey-map","trial_index":4,"time_elapsed":299240,"internal_node_id":"0.0-4.0","task_version":"prescreen-v0.3","browser_interactions":0},{"responses":{"Q04":"3","Q05":"3","Q06":"4"},"rt":23291,"radio_events":[8015,13998,22437],"key_events":[],"mouse_events":[6702,8015,13998,22437,23290],"survey":"map","page":2,"trial_type":"survey-map","trial_index":5,"time_elapsed":322533,"internal_node_id":"0.0-5.0","task_version":"prescreen-v0.3","browser_interactions":0},{"responses":{"Q07":"3","Q08":"0","Q09":"4"},"rt":29378,"radio_events":[11907,23984,28584],"key_events":[],"mouse_events":[11907,23189,23984,28584,29376],"survey":"map","page":3,"trial_type":"survey-map","trial_index":6,"time_elapsed":351913,"internal_node_id":"0.0-6.0","task_version":"prescreen-v0.3","browser_interactions":0},{"responses":{"Q10":"3","Q11":"3","Q12":"2","Q13":"2","Q16":"0","Q14":"2","Q15":"2"},"rt":48561,"radio_events":[6979,10902,18883,25309,32363,40048,43076,46950],"key_events":[],"mouse_events":[6979,10902,18317,18883,23993,25309,29738,30329,32363,40048,43076,46950,48560],"survey":"map","page":4,"trial_type":"survey-map","trial_index":7,"time_elapsed":400478,"internal_node_id":"0.0-7.0","task_version":"prescreen-v0.3","browser_interactions":0,"infrequency":0},{"view_history":[{"page_index":0,"viewing_time":3119},{"page_index":1,"viewing_time":5450}],"rt":8569,"trial_type":"instructions","trial_index":8,"time_elapsed":409048,"internal_node_id":"0.0-8.0","task_version":"prescreen-v0.3"},{"responses":{"01":"No","02":"Yes","02_ages_14":"14","02_ages_15":"15","02_ages_16":"16","02_ages_17":"17","03":"No","04":"No","05":"No","06":"No"},"rt":59808,"item_order":[0,1,2,3,4,5],"radio_events":[9424,12650,40919,43020,45631,48866],"checkbox_events":[29239,35070,36770,58674],"key_events":[],"mouse_events":[0,4620,7361,9424,12650,29239,33416,35070,36770,40919,43020,45107,45631,48866,58674,59805],"honeypot":0,"survey":"mace","page":1,"trial_type":"survey-mace","trial_index":9,"time_elapsed":468868,"internal_node_id":"0.0-9.0","task_version":"prescreen-v0.3","browser_interactions":0},{"responses":{"01":"No","02":"No","03":"No","04":"No","05":"No","06":"No","07":"Yes","07_ages_13":"13","08":"Yes","08_ages_13":"13"},"rt":50894,"item_order":[0,1,2,3,4,5,6,7],"radio_events":[7665,11492,22503,24760,27586,35010,38824,48304],"checkbox_events":[44277,49424],"key_events":[],"mouse_events":[7665,10926,11492,22503,24760,27086,27586,35010,38824,44277,48304,49424,50891],"honeypot":0,"survey":"mace","page":2,"trial_type":"survey-mace","trial_index":10,"time_elapsed":519772,"internal_node_id":"0.0-10.0","task_version":"prescreen-v0.3","browser_interactions":0},{"responses":{"01":"No","02":"No","03":"Yes","03_ages_12":"12","04":"Yes","04_ages_12":"12"},"rt":22804,"item_order":[0,1,2,3],"radio_events":[6691,8674,13699,17689],"checkbox_events":[16186,21698],"key_events":[],"mouse_events":[6691,8674,13699,16186,17689,21698,22802],"honeypot":0,"survey":"mace","page":3,"trial_type":"survey-mace","trial_index":11,"time_elapsed":542582,"internal_node_id":"0.0-11.0","task_version":"prescreen-v0.3","browser_interactions":0},{"responses":{"01":"Yes","01_ages_13":"13","02":"Yes","02_ages_13":"13"},"rt":23913,"item_order":[0,1],"radio_events":[6309,20249],"checkbox_events":[8290,21802],"key_events":[],"mouse_events":[5048,6309,8290,20249,21192,21802,23912],"honeypot":0,"survey":"mace","page":4,"trial_type":"survey-mace","trial_index":12,"time_elapsed":566500,"internal_node_id":"0.0-12.0","task_version":"prescreen-v0.3","browser_interactions":0},{"responses":{"01":"No","02":"No","03":"No","04":"No","05":"No"},"rt":18026,"item_order":[0,1,2,3,4],"radio_events":[8724,11888,14130,15957,17344],"checkbox_events":[],"key_events":[],"mouse_events":[8724,11888,14130,15957,17344,18024],"honeypot":0,"survey":"mace","page":5,"trial_type":"survey-mace","trial_index":13,"time_elapsed":584533,"internal_node_id":"0.0-13.0","task_version":"prescreen-v0.3","browser_interactions":0},{"responses":{"01":"Yes","01_ages_9":"9","01_ages_10":"10","02":"Yes","02_ages_9":"9","02_ages_10":"10","03":"No","04":"No","05":"Yes","05_ages_16":"16"},"rt":69001,"item_order":[0,1,2,3,4],"radio_events":[4694,18124,44664,53976,57116,64004],"checkbox_events":[22196,45741,47343,49687,66410],"key_events":[],"mouse_events":[4694,18124,22196,44664,45741,47343,49687,53976,56374,57116,64004,66410,69000],"honeypot":0,"survey":"mace","page":6,"trial_type":"survey-mace","trial_index":14,"time_elapsed":653544,"internal_node_id":"0.0-14.0","task_version":"prescreen-v0.3","browser_interactions":0},{"responses":{"01":"No","02":"No","03":"Yes","03_ages_8":"8","04":"No","05":"No","06":"No","07":"No"},"rt":32015,"item_order":[0,1,2,3,4,5,6],"radio_events":[8148,10852,14777,25558,27280,29458,30946],"checkbox_events":[18817],"key_events":[],"mouse_events":[8148,10852,14777,18817,25558,27280,29458,30946,32013],"honeypot":0,"survey":"mace","page":7,"trial_type":"survey-mace","trial_index":15,"time_elapsed":685568,"internal_node_id":"0.0-15.0","task_version":"prescreen-v0.3","browser_interactions":0},{"responses":{"01":"Yes","01_ages_12":"12","01_ages_13":"13","01_ages_14":"14","01_ages_15":"15","01_ages_16":"16","01_ages_17":"17","01_ages_18":"18","02":"No","03":"Yes","03_ages_14":"14","03_ages_15":"15","03_ages_16":"16","03_ages_17":"17","04":"Yes","04_ages_12":"12","04_ages_13":"13","04_ages_14":"14","04_ages_15":"15","04_ages_16":"16","04_ages_17":"17"},"rt":65200,"item_order":[0,1,2,3],"radio_events":[9572,27311,39738,51373],"checkbox_events":[11149,12390,12894,13570,14262,14858,15410,40807,41260,41715,42163,43339,44457,58323,58903,59418,59953],"key_events":[],"mouse_events":[7505,9572,11149,12390,12894,13570,14262,14858,15410,27311,39738,40807,41260,41715,42163,43339,44457,51373,58323,58903,59418,59953,65199],"honeypot":0,"survey":"mace","page":8,"trial_type":"survey-mace","trial_index":16,"time_elapsed":750775,"internal_node_id":"0.0-16.0","task_version":"prescreen-v0.3","browser_interactions":0},{"responses":{"01":"Yes","01_ages_5":"5","01_ages_6":"6","01_ages_7":"7","01_ages_8":"8","01_ages_9":"9","01_ages_10":"10","01_ages_11":"11","01_ages_12":"12","01_ages_13":"13","01_ages_14":"14","01_ages_15":"15","01_ages_16":"16","01_ages_17":"17","01_ages_18":"18","02":"Yes","02_ages_1":"1","02_ages_2":"2","02_ages_3":"3","02_ages_4":"4","02_ages_5":"5","02_ages_6":"6","02_ages_7":"7","02_ages_8":"8","02_ages_9":"9","02_ages_10":"10","02_ages_11":"11","02_ages_12":"12","02_ages_13":"13","02_ages_14":"14","02_ages_15":"15","02_ages_16":"16","02_ages_17":"17","02_ages_18":"18","03":"Yes","03_ages_1":"1","03_ages_2":"2","03_ages_3":"3","03_ages_4":"4","03_ages_5":"5","03_ages_6":"6","03_ages_7":"7","03_ages_8":"8","03_ages_9":"9","03_ages_10":"10","03_ages_11":"11","03_ages_12":"12","03_ages_13":"13","03_ages_14":"14","03_ages_15":"15","03_ages_16":"16","03_ages_17":"17","03_ages_18":"18","04":"Yes","04_ages_1":"1","04_ages_2":"2","04_ages_3":"3","04_ages_4":"4","04_ages_5":"5","04_ages_6":"6","04_ages_7":"7","04_ages_8":"8","04_ages_9":"9","04_ages_10":"10","04_ages_11":"11","04_ages_12":"12","04_ages_13":"13","04_ages_14":"14","04_ages_15":"15","04_ages_16":"16","04_ages_17":"17","04_ages_18":"18"},"rt":84257,"item_order":[0,1,2,3],"radio_events":[7334,28326,40199,53451],"checkbox_events":[15868,16590,17124,17637,18128,18522,18974,19614,21056,21616,22372,23228,23678,24184,29716,30352,30783,31209,31654,32074,32446,32890,33333,33824,34276,34732,35138,35651,41357,42184,42608,43041,43446,43859,44294,44710,45119,45546,46758,47321,48004,48699,54628,55117,55946,60543,60958,61388,62393,62953,63789,64357,64905,65421,68432,68997,71413,71825,72932,74349,74833,75917,80648,81197,81747,82219,82997,83637],"key_events":[],"mouse_events":[7334,15868,16590,17124,17637,18128,18522,18974,19614,21056,21616,22034,22372,22826,23228,23678,24184,28326,29716,30352,30783,31209,31654,32074,32446,32890,33333,33824,34276,34732,35138,35651,40199,41357,41719,42184,42608,43041,43446,43859,44294,44710,45119,45546,46022,46758,47321,48004,48699,53451,54628,55117,55531,55946,60543,60958,61388,61902,62393,62953,63789,64357,64905,65421,68432,68997,69405,71413,71825,72932,74349,74833,75917,80648,81197,81747,82219,82997,83637,84255],"honeypot":0,"survey":"mace","page":9,"trial_type":"survey-mace","trial_index":17,"time_elapsed":835042,"internal_node_id":"0.0-17.0","task_version":"prescreen-v0.3","browser_interactions":0},{"responses":{"01":"No","02":"No","03":"No","04":"No","05":"Yes","05_ages_10":"10","05_ages_11":"11","05_ages_12":"12","05_ages_13":"13","05_ages_14":"14","05_ages_15":"15","05_ages_16":"16","05_ages_17":"17","05_ages_18":"18","06":"Yes","06_ages_17":"17","07":"Yes","07_ages_7":"7","07_ages_8":"8","07_ages_9":"9","07_ages_10":"10","07_ages_11":"11","07_ages_12":"12","07_ages_13":"13","07_ages_14":"14","07_ages_15":"15","07_ages_16":"16","07_ages_17":"17","07_ages_18":"18","08":"Yes","08_ages_5":"5","08_ages_6":"6","08_ages_7":"7","08_ages_8":"8","08_ages_9":"9","08_ages_10":"10","08_ages_11":"11","08_ages_12":"12","08_ages_13":"13","08_ages_14":"14","08_ages_15":"15","08_ages_16":"16","08_ages_17":"17","08_ages_18":"18"},"rt":92010,"item_order":[0,1,2,3,4,5,6,7],"radio_events":[2996,11020,13710,14860,15534,19252,21230,24170,42998,50084,60957],"checkbox_events":[29688,30474,31040,31488,31942,32395,33243,33881,34306,44711,72875,73421,73949,74496,74924,75907,76397,77081,77605,78035,79335,79815,83219,83681,84627,85082,85692,86589,87063,87637,88229,89175,89668,90189,90783,91281],"key_events":[],"mouse_events":[2996,11020,13710,14860,15534,19252,21230,24170,29688,30086,30474,31040,31488,31942,32395,32789,33243,33881,34306,42998,44711,50084,60957,72875,73421,73949,74496,74924,75364,75907,76397,77081,77605,78035,78519,79335,79815,83219,83681,84209,84627,85082,85692,86589,87063,87637,88229,88721,89175,89668,90189,90783,91281,92008],"honeypot":0,"survey":"mace","page":10,"trial_type":"survey-mace","trial_index":18,"time_elapsed":927062,"internal_node_id":"0.0-18.0","task_version":"prescreen-v0.3","browser_interactions":0,"instructed":0},{"rt":7678,"trial_type":"mental-health-alert","trial_index":19,"time_elapsed":934744,"internal_node_id":"0.0-19.0","task_version":"prescreen-v0.3","interactions":"[{\"event\":\"focus\",\"trial\":0,\"time\":2}]"}]