[{"view_history":[{"page_index":0,"viewing_time":6553.79999999702},{"page_index":1,"viewing_time":7679.600000008941},{"page_index":2,"viewing_time":6744},{"page_index":3,"viewing_time":2960}],"rt":23938.29999999702,"trial_type":"instructions","trial_index":0,"time_elapsed":23961,"internal_node_id":"0.0-0.0","task_version":"prescreen-v0.3"},{"rt":38314.29999999702,"responses":{"age":"38","gender-categorical":"Male","gender-free-response":"","ethnicity":"Not Hispanic or Latino","race":["Asian"],"education":"High school","siblings":"1"},"trial_type":"survey-demo","trial_index":1,"time_elapsed":62282,"internal_node_id":"0.0-1.0","task_version":"prescreen-v0.3"},{"responses":{"Q11":"0","Q16":"2","Q14":"3","Q01":"1","Q15":"1","Q05":"0","Q12":"0","Q18":"1","Q20":"3","Q04":"2","Q03":"0","Q21":"3","Q17":"0","Q08":"3","Q02":"1","Q13":"2","Q09":"1","Q19":"1","Q10":"0","Q07":"1","Q06":"1"},"rt":179160.29999999702,"item_order":[10,15,13,0,14,4,11,17,19,3,2,20,16,7,1,12,8,18,9,6,5],"radio_events":[11679.40000000596,18295.20000000298,26135.10000000894,31767.10000000894,36671.10000000894,47702.90000000596,53286.79999999702,62351,70919.20000000298,80630.90000000596,83022.79999999702,83710.70000000298,89166.79999999702,94222.79999999702,100846.70000000298,105270.5,109966.5,119574.60000000894,124070.40000000596,135646.5,143758.40000000596,145614.5,153270.29999999702,157798.40000000596,165918.29999999702,173366.20000000298],"key_events":[],"mouse_events":[11679.40000000596,18295.20000000298,26135.10000000894,31767.10000000894,36671.10000000894,47702.90000000596,53286.79999999702,61015.10000000894,62351,70919.20000000298,80630.90000000596,83022.79999999702,83710.70000000298,89166.79999999702,94222.79999999702,100846.70000000298,105270.5,109966.5,119574.60000000894,124070.40000000596,135646.5,143758.40000000596,145310.60000000894,145614.5,153270.29999999702,157798.40000000596,165918.29999999702,171846.20000000298,173366.20000000298,179158.10000000894],"straightlining":0.38095238095238093,"zigzagging":0.55,"honeypot":0,"survey":"sns","trial_type":"survey-template","trial_index":2,"time_elapsed":241452,"internal_node_id":"0.0-2.0","task_version":"prescreen-v0.3","browser_interactions":0,"infrequency":0},{"responses":{"Q04":"3","Q05":"3","Q02":"3","Q06":"2","Q12":"1","Q09":"3","Q01":"2","Q13":"0","Q07":"2","Q08":"2","Q10":"2","Q11":"2","Q03":"3"},"rt":125366.29999999702,"item_order":[3,4,1,5,11,8,0,12,6,7,9,10,2],"radio_events":[14245.5,19181.5,26533.90000000596,31389.40000000596,37509.29999999702,45109.40000000596,48357.29999999702,54045.20000000298,58149.29999999702,62077.20000000298,67109.20000000298,71445.20000000298,77253.20000000298],"key_events":[],"mouse_events":[14245.5,19181.5,26533.90000000596,31389.40000000596,37509.29999999702,45109.40000000596,48357.29999999702,54045.20000000298,58149.29999999702,62077.20000000298,67109.20000000298,71445.20000000298,77253.20000000298,125365.09999999404],"straightlining":0.46153846153846156,"zigzagging":0.3333333333333333,"honeypot":0,"survey":"bisbas","trial_type":"survey-template","trial_index":3,"time_elapsed":366824,"internal_node_id":"0.0-3.0","task_version":"prescreen-v0.3","browser_interactions":0,"infrequency":0},{"responses":{"Q01":"2","Q02":"2","Q03":"3"},"rt":35104.80000001192,"radio_events":[11703.70000000298,17423.70000000298,26615.60000000894,31599.60000000894,33743.60000000894],"key_events":[],"mouse_events":[11703.70000000298,17423.70000000298,26615.60000000894,31599.60000000894,33743.60000000894,35103.60000000894],"survey":"map","page":1,"trial_type":"survey-map","trial_index":4,"time_elapsed":401936,"internal_node_id":"0.0-4.0","task_version":"prescreen-v0.3","browser_interactions":0},{"responses":{"Q04":"3","Q05":"4","Q06":"4"},"rt":22703.5,"radio_events":[8590.60000000894,15846.5,18990.40000000596,20478.40000000596],"key_events":[],"mouse_events":[8590.60000000894,15846.5,18990.40000000596,20478.40000000596,22702.5],"survey":"map","page":2,"trial_type":"survey-map","trial_index":5,"time_elapsed":424647,"internal_node_id":"0.0-5.0","task_version":"prescreen-v0.3","browser_interactions":0},{"responses":{"Q07":"3","Q08":"0","Q09":"2"},"rt":18848.19999998808,"radio_events":[7119.5999999940395,11183.5,17447.59999999404],"key_events":[],"mouse_events":[7119.5999999940395,11183.5,17447.59999999404,18847.59999999404],"survey":"map","page":3,"trial_type":"survey-map","trial_index":6,"time_elapsed":443503,"internal_node_id":"0.0-6.0","task_version":"prescreen-v0.3","browser_interactions":0},{"responses":{"Q10":"2","Q11":"2","Q12":"2","Q13":"3","Q16":"1","Q14":"1","Q15":"2"},"rt":68970.79999999702,"radio_events":[11409.70000000298,14953.79999999702,21649.70000000298,28218.29999999702,33657.59999999404,46241.5,49089.39999999106,57649.39999999106,64153.5,64706,66809.39999999106],"key_events":[],"mouse_events":[6097.79999999702,11409.70000000298,13714.29999999702,14105.59999999404,14953.79999999702,21649.70000000298,28218.29999999702,33657.59999999404,46241.5,49089.39999999106,50265.5,57649.39999999106,63217.5,64153.5,64706,66809.39999999106,68969.79999999702],"survey":"map","page":4,"trial_type":"survey-map","trial_index":7,"time_elapsed":512479,"internal_node_id":"0.0-7.0","task_version":"prescreen-v0.3","browser_interactions":0,"infrequency":1},{"view_history":[{"page_index":0,"viewing_time":2672.8999999910593},{"page_index":1,"viewing_time":8839.90000000596}],"rt":11514.09999999404,"trial_type":"instructions","trial_index":8,"time_elapsed":523998,"internal_node_id":"0.0-8.0","task_version":"prescreen-v0.3"},{"responses":{"01":"Yes","01_ages_18":"18","02":"No","03":"No","04":"No","05":"No","06":"No"},"rt":74240.09999999404,"item_order":[0,1,2,3,4,5],"radio_events":[24701.59999999404,49613,54637.09999999404,61980.90000000596,65572.90000000596,68236.90000000596],"checkbox_events":[34725.29999999702,38933.09999999404,41492.90000000596],"key_events":[],"mouse_events":[0.09999999403953552,24701.59999999404,34725.29999999702,38933.09999999404,41492.90000000596,48492.90000000596,49260.90000000596,49613,54637.09999999404,61980.90000000596,64892.70000000298,65572.90000000596,68236.90000000596,74237.20000000298],"honeypot":0,"survey":"mace","page":1,"trial_type":"survey-mace","trial_index":9,"time_elapsed":598249,"internal_node_id":"0.0-9.0","task_version":"prescreen-v0.3","browser_interactions":0},{"responses":{"01":"No","02":"No","03":"No","04":"No","05":"No","06":"No","07":"No","08":"No"},"rt":23248.5,"item_order":[0,1,2,3,4,5,6,7],"radio_events":[6005,8860.89999999106,11509,13245.699999988079,16172.79999999702,17988.79999999702,20132.79999999702,21436.79999999702],"checkbox_events":[],"key_events":[],"mouse_events":[6005,8860.89999999106,11509,13245.699999988079,16172.79999999702,17988.79999999702,20132.79999999702,21436.79999999702,23244.89999999106],"honeypot":0,"survey":"mace","page":2,"trial_type":"survey-mace","trial_index":10,"time_elapsed":621506,"internal_node_id":"0.0-10.0","task_version":"prescreen-v0.3","browser_interactions":0},{"responses":{"01":"No","02":"No","03":"No","04":"No"},"rt":15039,"item_order":[0,1,2,3],"radio_events":[5557.100000008941,7485.20000000298,10293.10000000894,13037],"checkbox_events":[],"key_events":[],"mouse_events":[5557.100000008941,7485.20000000298,10293.10000000894,13037,15037],"honeypot":0,"survey":"mace","page":3,"trial_type":"survey-mace","trial_index":11,"time_elapsed":636552,"internal_node_id":"0.0-11.0","task_version":"prescreen-v0.3","browser_interactions":0},{"responses":{"01":"No","02":"No"},"rt":12145.40000000596,"item_order":[0,1],"radio_events":[6384.29999999702,8720.29999999702],"checkbox_events":[],"key_events":[],"mouse_events":[6384.29999999702,8720.29999999702,12144.40000000596],"honeypot":0,"survey":"mace","page":4,"trial_type":"survey-mace","trial_index":12,"time_elapsed":648703,"internal_node_id":"0.0-12.0","task_version":"prescreen-v0.3","browser_interactions":0},{"responses":{"01":"No","02":"No","03":"No","04":"No","05":"No"},"rt":29347.5,"item_order":[0,1,2,3,4],"radio_events":[9768.79999999702,13800.70000000298,17152.70000000298,20600.5,26656.5],"checkbox_events":[],"key_events":[],"mouse_events":[9768.79999999702,13800.70000000298,17152.70000000298,20600.5,26656.5,29345],"honeypot":0,"survey":"mace","page":5,"trial_type":"survey-mace","trial_index":13,"time_elapsed":678057,"internal_node_id":"0.0-13.0","task_version":"prescreen-v0.3","browser_interactions":0},{"responses":{"01":"Yes","01_ages_8":"8","01_ages_9":"9","01_ages_10":"10","01_ages_11":"11","01_ages_12":"12","02":"No","03":"Yes","03_ages_8":"8","03_ages_9":"9","03_ages_10":"10","04":"Yes","04_ages_8":"8","04_ages_9":"9","04_ages_10":"10","05":"No"},"rt":85400.09999999404,"item_order":[0,1,2,3,4],"radio_events":[16149.79999999702,50789.70000000298,51709.59999999404,62765.5,70133.59999999404],"checkbox_events":[26469.79999999702,26893.59999999404,27437.79999999702,33781.70000000298,34365.70000000298,54485.5,55133.70000000298,55621.59999999404,64189.59999999404,64653.5,65157.59999999404],"key_events":[],"mouse_events":[16149.79999999702,26469.79999999702,26893.59999999404,27437.79999999702,33781.70000000298,34365.70000000298,41893.59999999404,50789.70000000298,51709.59999999404,54485.5,55133.70000000298,55621.59999999404,62765.5,64189.59999999404,64653.5,65157.59999999404,70133.59999999404,85397.79999999702],"honeypot":0,"survey":"mace","page":6,"trial_type":"survey-mace","trial_index":14,"time_elapsed":763464,"internal_node_id":"0.0-14.0","task_version":"prescreen-v0.3","browser_interactions":0},{"responses":{"01":"No","02":"No","03":"Yes","03_ages_8":"8","03_ages_9":"9","03_ages_10":"10","04":"No","05":"Yes","05_ages_8":"8","06":"No","07":"No"},"rt":78857.39999999106,"item_order":[0,1,2,3,4,5,6],"radio_events":[7262.29999999702,11230.29999999702,15262,23110.09999999404,32221.89999999106,37542.09999999404,39590],"checkbox_events":[17734,18190.20000000298,18598.09999999404,34326],"key_events":[],"mouse_events":[7262.29999999702,11230.29999999702,15262,17734,18190.20000000298,18598.09999999404,23110.09999999404,32221.89999999106,34326,37542.09999999404,39590,78854.09999999404],"honeypot":0,"survey":"mace","page":7,"trial_type":"survey-mace","trial_index":15,"time_elapsed":842329,"internal_node_id":"0.0-15.0","task_version":"prescreen-v0.3","browser_interactions":0},{"responses":{"01":"No","02":"No","03":"No","04":"No"},"rt":26735,"item_order":[0,1,2,3],"radio_events":[8141.79999999702,12101.20000000298,23461,26261.79999999702],"checkbox_events":[],"key_events":[],"mouse_events":[8141.79999999702,12101.20000000298,23461,26261.79999999702,26732.90000000596],"honeypot":0,"survey":"mace","page":8,"trial_type":"survey-mace","trial_index":16,"time_elapsed":869070,"internal_node_id":"0.0-16.0","task_version":"prescreen-v0.3","browser_interactions":0},{"responses":{"01":"Yes","01_ages_1":"1","01_ages_2":"2","01_ages_3":"3","01_ages_4":"4","01_ages_5":"5","01_ages_6":"6","01_ages_7":"7","01_ages_8":"8","01_ages_9":"9","01_ages_10":"10","01_ages_11":"11","01_ages_12":"12","01_ages_13":"13","01_ages_14":"14","01_ages_15":"15","01_ages_16":"16","01_ages_17":"17","01_ages_18":"18","02":"Yes","02_ages_1":"1","02_ages_2":"2","02_ages_3":"3","02_ages_4":"4","02_ages_5":"5","02_ages_6":"6","02_ages_7":"7","02_ages_8":"8","02_ages_9":"9","02_ages_10":"10","02_ages_11":"11","02_ages_12":"12","02_ages_13":"13","02_ages_14":"14","02_ages_15":"15","02_ages_16":"16","02_ages_17":"17","02_ages_18":"18","03":"Yes","03_ages_1":"1","03_ages_2":"2","03_ages_3":"3","03_ages_4":"4","03_ages_5":"5","03_ages_6":"6","03_ages_7":"7","03_ages_8":"8","03_ages_9":"9","03_ages_10":"10","03_ages_11":"11","03_ages_12":"12","03_ages_13":"13","03_ages_14":"14","03_ages_15":"15","03_ages_16":"16","03_ages_17":"17","03_ages_18":"18","04":"Yes","04_ages_1":"1","04_ages_2":"2","04_ages_3":"3","04_ages_4":"4","04_ages_5":"5","04_ages_6":"6","04_ages_16":"16","04_ages_17":"17"},"rt":92953.29999999702,"item_order":[0,1,2,3],"radio_events":[8519.59999999404,38447.39999999106,57487.39999999106,76079.20000000298],"checkbox_events":[16567.5,17023.5,17471.59999999404,17983.59999999404,18407.5,18839.5,20351.5,20791.5,21295.70000000298,22871.5,23255.5,24231.5,24983.5,25399.5,27039.59999999404,27823.5,28319.5,28783.5,40087.5,40535.39999999106,40999.59999999404,41543.39999999106,42111.39999999106,42719.5,43151.39999999106,43559.5,44423.39999999106,44791.59999999404,45631.29999999702,46735.29999999702,47127.5,48247.29999999702,48655.39999999106,49127.39999999106,49711.39999999106,50407.39999999106,58783.29999999702,59151.20000000298,59583.29999999702,59999.39999999106,60447.29999999702,60855.5,61287.29999999702,61671.29999999702,62399.29999999702,62799.09999999404,63591.20000000298,63959.39999999106,64391.29999999702,66175.59999999404,67135.29999999702,67703.29999999702,68159.39999999106,68575.29999999702,81591.09999999404,82103.20000000298,82607.20000000298,83047.20000000298,83767.20000000298,84263.20000000298,87823.09999999404,88471.20000000298],"key_events":[],"mouse_events":[8519.59999999404,16567.5,17023.5,17471.59999999404,17983.59999999404,18407.5,18839.5,19215.59999999404,19624.29999999702,20031.39999999106,20351.5,20791.5,21295.70000000298,21759.5,22151.5,22528.29999999702,22871.5,23255.5,24231.5,24983.5,25399.5,25903.5,26591.39999999106,27039.59999999404,27463.5,27823.5,28319.5,28783.5,38447.39999999106,40087.5,40535.39999999106,40999.59999999404,41543.39999999106,42111.39999999106,42719.5,43151.39999999106,43559.5,43911.29999999702,44423.39999999106,44791.59999999404,45207.39999999106,45631.29999999702,46735.29999999702,47127.5,47567.29999999702,48247.29999999702,48655.39999999106,49127.39999999106,49711.39999999106,50407.39999999106,57487.39999999106,58783.29999999702,59151.20000000298,59583.29999999702,59999.39999999106,60447.29999999702,60855.5,61287.29999999702,61671.29999999702,62071.29999999702,62399.29999999702,62799.09999999404,63175.29999999702,63591.20000000298,63959.39999999106,64391.29999999702,64767.89999999106,65095.29999999702,66175.59999999404,66583.20000000298,67135.29999999702,67703.29999999702,68159.39999999106,68575.29999999702,76079.20000000298,81591.09999999404,82103.20000000298,82607.20000000298,83047.20000000298,83431.09999999404,83767.20000000298,84263.20000000298,87823.09999999404,88471.20000000298,92951.29999999702],"honeypot":0,"survey":"mace","page":9,"trial_type":"survey-mace","trial_index":17,"time_elapsed":962030,"internal_node_id":"0.0-17.0","task_version":"prescreen-v0.3","browser_interactions":0},{"responses":{"01":"No","02":"No","03":"No","04":"No","05":"No","06":"Yes","06_ages_17":"17","07":"Yes","07_ages_1":"1","07_ages_2":"2","07_ages_3":"3","07_ages_4":"4","07_ages_5":"5","07_ages_6":"6","07_ages_7":"7","07_ages_8":"8","07_ages_9":"9","07_ages_10":"10","07_ages_11":"11","07_ages_12":"12","07_ages_13":"13","07_ages_14":"14","07_ages_15":"15","07_ages_16":"16","07_ages_17":"17","07_ages_18":"18","08":"Yes","08_ages_1":"1","08_ages_2":"2","08_ages_3":"3","08_ages_4":"4","08_ages_5":"5","08_ages_6":"6","08_ages_7":"7","08_ages_8":"8","08_ages_9":"9","08_ages_10":"10","08_ages_11":"11","08_ages_12":"12","08_ages_13":"13","08_ages_14":"14","08_ages_15":"15","08_ages_16":"16","08_ages_17":"17","08_ages_18":"18"},"rt":80386.10000000894,"item_order":[0,1,2,3,4,5,6,7],"radio_events":[5510.800000011921,9247.10000000894,9494.70000000298,14686.800000011921,23902.90000000596,30422.60000000894,35646.60000000894,48062.40000000596,67454.20000000298],"checkbox_events":[37958.60000000894,50438.5,50902.40000000596,51414.5,52270.5,53126.40000000596,55302.5,55950.5,56622.40000000596,57358.5,58062.40000000596,58558.5,59574.40000000596,60046.5,60774.5,61230.40000000596,62502.40000000596,63534.40000000596,64022.30000001192,68534.40000000596,68974.40000000596,69406.40000000596,70590.40000000596,71566.30000001192,71966.40000000596,72406.5,72870.40000000596,73382.40000000596,74118.30000001192,75030.60000000894,75790.40000000596,76326.60000000894,76838.30000001192,77294.30000001192,77758.30000001192,78246.40000000596,78774.20000000298],"key_events":[],"mouse_events":[5510.800000011921,8262.800000011921,8550.70000000298,9247.10000000894,9494.70000000298,14686.800000011921,23902.90000000596,30422.60000000894,35646.60000000894,37958.60000000894,48062.40000000596,50438.5,50902.40000000596,51414.5,52270.5,52742.60000000894,53126.40000000596,55302.5,55950.5,56622.40000000596,56998.40000000596,57358.5,57814.80000001192,58062.40000000596,58558.5,59014.5,59574.40000000596,60046.5,60511.80000001192,60774.5,61230.40000000596,62502.40000000596,62918.5,63534.40000000596,64022.30000001192,67454.20000000298,68534.40000000596,68974.40000000596,69406.40000000596,69806.20000000298,70590.40000000596,71030.5,71566.30000001192,71966.40000000596,72406.5,72870.40000000596,73382.40000000596,74118.30000001192,75030.60000000894,75790.40000000596,76326.60000000894,76838.30000001192,77294.30000001192,77758.30000001192,78246.40000000596,78774.20000000298,80382.60000000894],"honeypot":0,"survey":"mace","page":10,"trial_type":"survey-mace","trial_index":18,"time_elapsed":1042424,"internal_node_id":"0.0-18.0","task_version":"prescreen-v0.3","browser_interactions":0,"instructed":0},{"rt":11006.09999999404,"trial_type":"mental-health-alert","trial_index":19,"time_elapsed":1053435,"internal_node_id":"0.0-19.0","task_version":"prescreen-v0.3","interactions":"[]"}]