[{"view_history":[{"page_index":0,"viewing_time":14084.599999997765},{"page_index":1,"viewing_time":26537.400000002235},{"page_index":2,"viewing_time":1221.5},{"page_index":3,"viewing_time":1491.0999999977648}],"rt":43335.5,"trial_type":"instructions","trial_index":0,"time_elapsed":43348,"internal_node_id":"0.0-0.0","task_version":"prescreen-v0.3"},{"rt":13294.699999999255,"responses":{"age":"21","gender-categorical":"Female","gender-free-response":"","ethnicity":"Not Hispanic or Latino","race":["White"],"education":"Bachelor degree"},"trial_type":"survey-demo","trial_index":1,"time_elapsed":56649,"internal_node_id":"0.0-1.0","task_version":"prescreen-v0.3"},{"responses":{"Q02":"1","Q05":"0","Q04":"2","Q21":"3","Q08":"1","Q15":"3","Q20":"2","Q17":"3","Q06":"1","Q03":"2","Q07":"0","Q19":"2","Q11":"2","Q09":"3","Q10":"1","Q01":"2","Q16":"2","Q12":"3","Q13":"3","Q18":"3","Q14":"3"},"rt":102474.90000000224,"item_order":[1,4,3,20,7,14,19,16,5,2,6,18,10,8,9,0,15,11,12,17,13],"radio_events":[5238.199999999255,9623.800000000745,20290.900000002235,24733,35097.5,40424.400000002235,43001.900000002235,49584.900000002235,56435.10000000149,59500.199999999255,68572.80000000075,72803.90000000224,75203.30000000075,81444.5,84589.60000000149,86471,89729.10000000149,94122.90000000224,96805.90000000224,99586.10000000149,101240],"key_events":[],"mouse_events":[5238.199999999255,9623.800000000745,20290.900000002235,24733,32276.699999999255,35097.5,40424.400000002235,43001.900000002235,49584.900000002235,56435.10000000149,59500.199999999255,68572.80000000075,72803.90000000224,75203.30000000075,81444.5,84589.60000000149,86471,89729.10000000149,93490.60000000149,94122.90000000224,96805.90000000224,99586.10000000149,101240,102472.10000000149],"straightlining":0.38095238095238093,"zigzagging":0.4,"honeypot":0,"survey":"sns","trial_type":"survey-template","trial_index":2,"time_elapsed":159135,"internal_node_id":"0.0-2.0","task_version":"prescreen-v0.3","browser_interactions":0,"infrequency":0},{"responses":{"Q12":"1","Q02":"3","Q08":"2","Q07":"3","Q09":"1","Q13":"0","Q11":"1","Q04":"3","Q06":"2","Q05":"2","Q01":"3","Q10":"2","Q03":"3"},"rt":61962.300000000745,"item_order":[11,1,7,6,8,12,10,3,5,4,0,9,2],"radio_events":[21360.300000000745,24960.300000000745,27165,29945.900000002235,32508.10000000149,35832.400000002235,38921.20000000298,43898.900000002235,46923.10000000149,51316.900000002235,57056.400000002235,58515.300000000745,60858],"key_events":[],"mouse_events":[21360.300000000745,24960.300000000745,27165,29945.900000002235,32508.10000000149,35832.400000002235,38921.20000000298,43898.900000002235,46923.10000000149,51316.900000002235,53214.10000000149,57056.400000002235,58515.300000000745,60858,61960.400000002235],"straightlining":0.38461538461538464,"zigzagging":0.6666666666666666,"honeypot":0,"survey":"bisbas","trial_type":"survey-template","trial_index":3,"time_elapsed":221102,"internal_node_id":"0.0-3.0","task_version":"prescreen-v0.3","browser_interactions":0,"infrequency":0},{"responses":{"Q01":"2","Q02":"3","Q03":"1"},"rt":28141.800000000745,"radio_events":[14869.800000000745,18915.300000000745,27216.699999999255],"key_events":[],"mouse_events":[14869.800000000745,18915.300000000745,26487.199999999255,27216.699999999255,28141.10000000149],"survey":"map","page":1,"trial_type":"survey-map","trial_index":4,"time_elapsed":249276,"internal_node_id":"0.0-4.0","task_version":"prescreen-v0.3","browser_interactions":0},{"responses":{"Q04":"2","Q05":"1","Q06":"2"},"rt":29971.800000000745,"radio_events":[8802.10000000149,14144.900000002235,28957.800000000745],"key_events":[],"mouse_events":[8802.10000000149,14144.900000002235,27441.800000000745,28957.800000000745,29971],"survey":"map","page":2,"trial_type":"survey-map","trial_index":5,"time_elapsed":279261,"internal_node_id":"0.0-5.0","task_version":"prescreen-v0.3","browser_interactions":0},{"responses":{"Q07":"1","Q08":"3","Q09":"2"},"rt":11405,"radio_events":[4172.099999997765,7764,10545],"key_events":[],"mouse_events":[4172.099999997765,7131.599999997765,7764,10545,11404.199999999255],"survey":"map","page":3,"trial_type":"survey-map","trial_index":6,"time_elapsed":290670,"internal_node_id":"0.0-6.0","task_version":"prescreen-v0.3","browser_interactions":0},{"responses":{"Q10":"0","Q11":"2","Q12":"0","Q13":"1","Q16":"0","Q14":"1","Q15":"1"},"rt":27358.699999999255,"radio_events":[4204,6766.099999997765,10292.5,16289.39999999851,20449.199999999255,22906.199999999255,26303.199999999255],"key_events":[],"mouse_events":[4204,6766.099999997765,10292.5,16289.39999999851,20449.199999999255,22906.199999999255,26303.199999999255,27357.199999999255],"survey":"map","page":4,"trial_type":"survey-map","trial_index":7,"time_elapsed":318034,"internal_node_id":"0.0-7.0","task_version":"prescreen-v0.3","browser_interactions":0,"infrequency":0},{"view_history":[{"page_index":0,"viewing_time":2079},{"page_index":1,"viewing_time":5536.599999997765}],"rt":7616,"trial_type":"instructions","trial_index":8,"time_elapsed":325652,"internal_node_id":"0.0-8.0","task_version":"prescreen-v0.3"},{"responses":{"01":"Yes","01_ages_11":"11","01_ages_12":"12","01_ages_13":"13","01_ages_14":"14","01_ages_15":"15","01_ages_16":"16","01_ages_17":"17","02":"Yes","02_ages_10":"10","02_ages_11":"11","02_ages_12":"12","02_ages_13":"13","02_ages_14":"14","02_ages_15":"15","02_ages_16":"16","02_ages_17":"17","03":"No","04":"Yes","04_ages_15":"15","04_ages_16":"16","04_ages_17":"17","05":"No","06":"No"},"rt":49134.5,"item_order":[0,1,2,3,4,5],"radio_events":[11316.39999999851,25661.199999999255,35851.099999997765,39839.5,45020.099999997765,48044.099999997765],"checkbox_events":[15559.39999999851,16045.699999999255,16564.5,18121.5,19669.89999999851,20699.5,21429.39999999851,27396,27866.199999999255,28328.199999999255,28774,30314.39999999851,30711.199999999255,31570.89999999851,32194.89999999851,41355.5,41947.199999999255,42344.800000000745],"key_events":[],"mouse_events":[0.19999999925494194,11316.39999999851,15559.39999999851,16045.699999999255,16564.5,17221.199999999255,18121.5,19037,19669.89999999851,20205.300000000745,20699.5,21429.39999999851,25661.199999999255,27396,27866.199999999255,28328.199999999255,28774,29447.099999997765,30314.39999999851,30711.199999999255,31157.800000000745,31570.89999999851,32194.89999999851,35851.099999997765,39839.5,41355.5,41947.199999999255,42344.800000000745,45020.099999997765,48044.099999997765,49130.800000000745],"honeypot":0,"survey":"mace","page":1,"trial_type":"survey-mace","trial_index":9,"time_elapsed":374796,"internal_node_id":"0.0-9.0","task_version":"prescreen-v0.3","browser_interactions":0},{"responses":{"01":"No","02":"No","03":"Yes","03_ages_4":"4","03_ages_5":"5","03_ages_6":"6","03_ages_7":"7","03_ages_8":"8","03_ages_9":"9","03_ages_10":"10","03_ages_11":"11","03_ages_12":"12","03_ages_13":"13","04":"Yes","04_ages_4":"4","04_ages_5":"5","04_ages_6":"6","04_ages_7":"7","04_ages_8":"8","05":"Yes","05_ages_4":"4","05_ages_5":"5","05_ages_6":"6","05_ages_7":"7","05_ages_8":"8","05_ages_9":"9","05_ages_10":"10","05_ages_11":"11","05_ages_12":"12","05_ages_13":"13","06":"No","07":"No","08":"No"},"rt":47044.199999999255,"item_order":[0,1,2,3,4,5,6,7],"radio_events":[3240.7999999970198,6346,8502.599999997765,20679.89999999851,28105.89999999851,42044.099999997765,43811.79999999702,45814.5],"checkbox_events":[10845.599999997765,11266.89999999851,12280.29999999702,12978.099999997765,13650.099999997765,14509.599999997765,16641.89999999851,17201.79999999702,17850,19301.39999999851,22187.699999999255,22641.79999999702,23144.099999997765,23598.599999997765,24206.199999999255,29541.29999999702,31340.79999999702,31794.79999999702,32597.5,33294.79999999702,34365.099999997765,34932.599999997765,35646.099999997765,36206.199999999255,36773.29999999702],"key_events":[],"mouse_events":[3240.7999999970198,6346,8502.599999997765,10845.599999997765,11266.89999999851,11753.29999999702,12280.29999999702,12978.099999997765,13650.099999997765,14509.599999997765,16641.89999999851,17201.79999999702,17850,18425.699999999255,19301.39999999851,20679.89999999851,22187.699999999255,22641.79999999702,23144.099999997765,23598.599999997765,24206.199999999255,26573.599999997765,28105.89999999851,29541.29999999702,31340.79999999702,31794.79999999702,32597.5,33294.79999999702,34365.099999997765,34932.599999997765,35646.099999997765,36206.199999999255,36773.29999999702,42044.099999997765,43811.79999999702,45814.5,47038.89999999851],"honeypot":0,"survey":"mace","page":2,"trial_type":"survey-mace","trial_index":10,"time_elapsed":421847,"internal_node_id":"0.0-10.0","task_version":"prescreen-v0.3","browser_interactions":0},{"responses":{"01":"Yes","01_ages_4":"4","01_ages_5":"5","01_ages_6":"6","01_ages_7":"7","01_ages_8":"8","01_ages_9":"9","01_ages_10":"10","01_ages_11":"11","01_ages_12":"12","01_ages_13":"13","01_ages_14":"14","01_ages_15":"15","01_ages_16":"16","01_ages_17":"17","02":"No","03":"No","04":"No"},"rt":24424.10000000149,"item_order":[0,1,2,3],"radio_events":[3524.89999999851,19863.89999999851,22377.5,23715.199999999255],"checkbox_events":[5828,7272.300000000745,7823.10000000149,8334,8820.39999999851,9217.5,9817.60000000149,10449.699999999255,10912.199999999255,11626.10000000149,12217.699999999255,13685.10000000149,14382.10000000149,14982.300000000745,15525.89999999851,16344.89999999851],"key_events":[],"mouse_events":[3524.89999999851,5828,7272.300000000745,7823.10000000149,8334,8820.39999999851,9217.5,9817.60000000149,10449.699999999255,10912.199999999255,11626.10000000149,12217.699999999255,12882.300000000745,13685.10000000149,14382.10000000149,14982.300000000745,15525.89999999851,16344.89999999851,19863.89999999851,22377.5,23715.199999999255,24421.199999999255],"honeypot":0,"survey":"mace","page":3,"trial_type":"survey-mace","trial_index":11,"time_elapsed":446275,"internal_node_id":"0.0-11.0","task_version":"prescreen-v0.3","browser_interactions":0},{"responses":{"01":"No","02":"No"},"rt":10202.800000000745,"item_order":[0,1],"radio_events":[7541.5,9301.20000000298],"checkbox_events":[],"key_events":[],"mouse_events":[7541.5,9301.20000000298,10201.20000000298],"honeypot":0,"survey":"mace","page":4,"trial_type":"survey-mace","trial_index":12,"time_elapsed":456482,"internal_node_id":"0.0-12.0","task_version":"prescreen-v0.3","browser_interactions":0},{"responses":{"01":"Yes","01_ages_2":"2","01_ages_3":"3","01_ages_4":"4","01_ages_5":"5","01_ages_6":"6","01_ages_7":"7","01_ages_8":"8","01_ages_9":"9","01_ages_10":"10","01_ages_11":"11","02":"No","03":"No","04":"Yes","04_ages_2":"2","04_ages_3":"3","04_ages_4":"4","04_ages_5":"5","04_ages_6":"6","04_ages_7":"7","04_ages_8":"8","04_ages_9":"9","04_ages_10":"10","04_ages_11":"11","04_ages_12":"12","05":"No"},"rt":90895.90000000224,"item_order":[0,1,2,3,4],"radio_events":[46291.699999999255,73685.30000000075,76417.90000000224,78890.60000000149,90072.90000000224],"checkbox_events":[62210.199999999255,64708.699999999255,65852.10000000149,66468.5,67052.10000000149,67757.80000000075,68316.90000000224,69031,69485,70076.90000000224,80001.40000000224,81120.60000000149,81533.5,81995.80000000075,82547.40000000224,83545.80000000075,84639.30000000075,85125.69999999925,85758.19999999925,86383.19999999925,87396.5],"key_events":[],"mouse_events":[46291.699999999255,62210.199999999255,64708.699999999255,65373.5,65852.10000000149,66468.5,67052.10000000149,67757.80000000075,68316.90000000224,69031,69485,70076.90000000224,73685.30000000075,76417.90000000224,78890.60000000149,80001.40000000224,81120.60000000149,81533.5,81995.80000000075,82547.40000000224,83122.69999999925,83545.80000000075,84639.30000000075,85125.69999999925,85758.19999999925,86383.19999999925,87396.5,90072.90000000224,90892.40000000224],"honeypot":0,"survey":"mace","page":5,"trial_type":"survey-mace","trial_index":13,"time_elapsed":547387,"internal_node_id":"0.0-13.0","task_version":"prescreen-v0.3","browser_interactions":0},{"responses":{"01":"Yes","01_ages_6":"6","01_ages_7":"7","01_ages_8":"8","01_ages_9":"9","01_ages_10":"10","01_ages_11":"11","02":"Yes","02_ages_5":"5","02_ages_6":"6","02_ages_7":"7","02_ages_8":"8","02_ages_9":"9","02_ages_10":"10","02_ages_11":"11","02_ages_12":"12","02_ages_13":"13","02_ages_14":"14","02_ages_15":"15","03":"Yes","03_ages_13":"13","03_ages_14":"14","03_ages_15":"15","03_ages_16":"16","03_ages_17":"17","04":"Yes","04_ages_15":"15","04_ages_16":"16","04_ages_17":"17","05":"No"},"rt":41027.79999999702,"item_order":[0,1,2,3,4],"radio_events":[6131.699999999255,16235.79999999702,28602,34554.199999999255,40424.599999997765],"checkbox_events":[7884.29999999702,8532.5,9733.199999999255,11079.39999999851,11736.099999997765,12296,12896.699999999255,13406,18093.199999999255,20258.5,20818,21272.199999999255,22059,22691.199999999255,23250.89999999851,23704.79999999702,24588.79999999702,25034.599999997765,25569.79999999702,29810.79999999702,30783.199999999255,31601.79999999702,32208.5,32746,35495.29999999702,36273.39999999851,37043.599999997765],"key_events":[],"mouse_events":[6131.699999999255,7884.29999999702,8532.5,9733.199999999255,11079.39999999851,11736.099999997765,12296,12896.699999999255,13406,16235.79999999702,18093.199999999255,20258.5,20818,21272.199999999255,21710.099999997765,22059,22691.199999999255,23250.89999999851,23704.79999999702,24588.79999999702,25034.599999997765,25569.79999999702,28602,29810.79999999702,30783.199999999255,31601.79999999702,32208.5,32746,34554.199999999255,35495.29999999702,36273.39999999851,37043.599999997765,39872.79999999702,40424.599999997765,41024.699999999255],"honeypot":0,"survey":"mace","page":6,"trial_type":"survey-mace","trial_index":14,"time_elapsed":588421,"internal_node_id":"0.0-14.0","task_version":"prescreen-v0.3","browser_interactions":0},{"responses":{"01":"No","02":"Yes","02_ages_14":"14","02_ages_15":"15","02_ages_16":"16","02_ages_17":"17","03":"No","04":"No","05":"No","06":"No","07":"No"},"rt":21076.89999999851,"item_order":[0,1,2,3,4,5,6],"radio_events":[3956.39999999851,7069.699999999255,13532.10000000149,14990.300000000745,16726.300000000745,19767.199999999255,20521.699999999255],"checkbox_events":[9169.800000000745,9810.5,10240.300000000745,11026.60000000149],"key_events":[],"mouse_events":[3956.39999999851,7069.699999999255,8423.60000000149,9169.800000000745,9810.5,10240.300000000745,11026.60000000149,13532.10000000149,14990.300000000745,16726.300000000745,19767.199999999255,20521.699999999255,21072.800000000745],"honeypot":0,"survey":"mace","page":7,"trial_type":"survey-mace","trial_index":15,"time_elapsed":609505,"internal_node_id":"0.0-15.0","task_version":"prescreen-v0.3","browser_interactions":0},{"responses":{"01":"Yes","01_ages_4":"4","01_ages_5":"5","01_ages_6":"6","01_ages_7":"7","01_ages_8":"8","01_ages_9":"9","01_ages_10":"10","01_ages_11":"11","01_ages_12":"12","01_ages_13":"13","01_ages_14":"14","01_ages_15":"15","01_ages_16":"16","01_ages_17":"17","02":"No","03":"Yes","03_ages_1":"1","03_ages_2":"2","03_ages_3":"3","03_ages_4":"4","03_ages_5":"5","03_ages_6":"6","03_ages_7":"7","03_ages_8":"8","03_ages_9":"9","03_ages_10":"10","03_ages_11":"11","03_ages_12":"12","03_ages_13":"13","03_ages_14":"14","03_ages_15":"15","03_ages_16":"16","03_ages_17":"17","03_ages_18":"18","04":"No"},"rt":64456.699999999255,"item_order":[0,1,2,3],"radio_events":[8739.199999999255,27891.10000000149,31434.300000000745,63335.10000000149],"checkbox_events":[12242.5,13173.5,13945.199999999255,14553.199999999255,15112.60000000149,15664.199999999255,16459,16913.300000000745,17464.199999999255,17716.199999999255,19215.300000000745,19702.300000000745,20561.10000000149,21388.300000000745,22069.300000000745,23058.5,33428.60000000149,34563.900000002235,35058.400000002235,35504.699999999255,36120.800000000745,51498.699999999255,52520.300000000745,53209.800000000745,54141.800000000745,54928.300000000745,55755.199999999255,56752.5,57304.199999999255,58252.300000000745,58706.400000002235,59282.199999999255,60076.5,60814.199999999255],"key_events":[],"mouse_events":[8026.199999999255,8739.199999999255,12242.5,13173.5,13945.199999999255,14553.199999999255,15112.60000000149,15664.199999999255,16459,16913.300000000745,17464.199999999255,17716.199999999255,18121.10000000149,18834.199999999255,19215.300000000745,19702.300000000745,20561.10000000149,21388.300000000745,22069.300000000745,23058.5,27891.10000000149,31434.300000000745,33428.60000000149,34563.900000002235,35058.400000002235,35504.699999999255,36120.800000000745,51498.699999999255,52520.300000000745,53209.800000000745,54141.800000000745,54928.300000000745,55755.199999999255,56752.5,57304.199999999255,58252.300000000745,58706.400000002235,59282.199999999255,60076.5,60814.199999999255,63335.10000000149,64454.199999999255],"honeypot":0,"survey":"mace","page":8,"trial_type":"survey-mace","trial_index":16,"time_elapsed":673967,"internal_node_id":"0.0-16.0","task_version":"prescreen-v0.3","browser_interactions":0},{"responses":{"01":"Yes","01_ages_1":"1","01_ages_2":"2","01_ages_3":"3","01_ages_4":"4","01_ages_5":"5","01_ages_6":"6","01_ages_7":"7","01_ages_8":"8","01_ages_9":"9","01_ages_10":"10","01_ages_11":"11","01_ages_12":"12","01_ages_13":"13","01_ages_14":"14","01_ages_15":"15","01_ages_16":"16","01_ages_17":"17","01_ages_18":"18","02":"Yes","02_ages_1":"1","02_ages_2":"2","02_ages_3":"3","02_ages_4":"4","02_ages_5":"5","02_ages_6":"6","02_ages_7":"7","02_ages_8":"8","02_ages_9":"9","02_ages_10":"10","02_ages_11":"11","02_ages_12":"12","02_ages_13":"13","02_ages_14":"14","02_ages_15":"15","02_ages_16":"16","02_ages_17":"17","02_ages_18":"18","03":"Yes","03_ages_1":"1","03_ages_2":"2","03_ages_3":"3","03_ages_4":"4","03_ages_5":"5","03_ages_6":"6","03_ages_7":"7","03_ages_8":"8","03_ages_9":"9","03_ages_10":"10","03_ages_11":"11","03_ages_12":"12","03_ages_13":"13","03_ages_14":"14","03_ages_15":"15","03_ages_16":"16","03_ages_17":"17","03_ages_18":"18","04":"Yes","04_ages_1":"1","04_ages_2":"2","04_ages_3":"3","04_ages_4":"4","04_ages_5":"5","04_ages_6":"6","04_ages_7":"7","04_ages_8":"8","04_ages_9":"9","04_ages_10":"10","04_ages_11":"11","04_ages_12":"12","04_ages_13":"13","04_ages_14":"14","04_ages_15":"15","04_ages_16":"16","04_ages_17":"17","04_ages_18":"18"},"rt":101374.80000000075,"item_order":[0,1,2,3],"radio_events":[3139.199999999255,32237.599999997765,53360.199999999255,80681.89999999851],"checkbox_events":[7443.699999999255,8821.599999997765,11602.89999999851,12333,14044.89999999851,16516.5,17440.5,18291.300000000745,19630,20846.300000000745,21599.89999999851,22394,23043,23894.699999999255,24486.5,25483.39999999851,26326.39999999851,28361.599999997765,28841,29294.300000000745,36414.5,37355.300000000745,38677.5,39399.39999999851,40274.599999997765,41256.199999999255,41815.599999997765,42699.39999999851,43153.599999997765,44240.800000000745,45042.699999999255,45780.599999997765,46461.89999999851,46989.099999997765,47686.300000000745,48481,48991.39999999851,49761.89999999851,54415.300000000745,54998.39999999851,55525.599999997765,56327.39999999851,57260.800000000745,57990.300000000745,58849.699999999255,60057.699999999255,60819.89999999851,68388.69999999925,69151.09999999776,69759.09999999776,70295.19999999925,70991.19999999925,71948.30000000075,74591.39999999851,75289.19999999925,76139.80000000075,85100.80000000075,86835.69999999925,87621.80000000075,88380,88992.19999999925,89697.69999999925,91262.19999999925,91830.19999999925,92710.30000000075,93520.30000000075,94591.59999999776,95498.5,96197,96861.69999999925,97624,98337.09999999776,99358.59999999776,100210.59999999776],"key_events":[],"mouse_events":[3139.199999999255,7443.699999999255,8821.599999997765,11602.89999999851,12333,14044.89999999851,14903.199999999255,15672.89999999851,16516.5,17440.5,18291.300000000745,18940.599999997765,19630,20846.300000000745,21599.89999999851,22394,23043,23894.699999999255,24486.5,25483.39999999851,25854.300000000745,26326.39999999851,26821.39999999851,27421.599999997765,27892.199999999255,28361.599999997765,28841,29294.300000000745,32237.599999997765,36414.5,37355.300000000745,38067.099999997765,38677.5,39399.39999999851,39804.300000000745,40274.599999997765,40712.699999999255,41256.199999999255,41815.599999997765,42699.39999999851,43153.599999997765,43834.599999997765,44240.800000000745,45042.699999999255,45780.599999997765,46461.89999999851,46989.099999997765,47686.300000000745,48481,48991.39999999851,49761.89999999851,52744.89999999851,53360.199999999255,54415.300000000745,54998.39999999851,55525.599999997765,56327.39999999851,57260.800000000745,57990.300000000745,58849.699999999255,60057.699999999255,60819.89999999851,68388.69999999925,69151.09999999776,69759.09999999776,70295.19999999925,70991.19999999925,71948.30000000075,74591.39999999851,75289.19999999925,76139.80000000075,80681.89999999851,85100.80000000075,86835.69999999925,87621.80000000075,88380,88992.19999999925,89697.69999999925,91262.19999999925,91830.19999999925,92710.30000000075,93520.30000000075,94591.59999999776,95498.5,96197,96861.69999999925,97624,98337.09999999776,99358.59999999776,100210.59999999776,101372.09999999776],"honeypot":0,"survey":"mace","page":9,"trial_type":"survey-mace","trial_index":17,"time_elapsed":775349,"internal_node_id":"0.0-17.0","task_version":"prescreen-v0.3","browser_interactions":0},{"responses":{"01":"No","02":"No","03":"Yes","03_ages_6":"6","03_ages_7":"7","03_ages_8":"8","03_ages_9":"9","03_ages_10":"10","03_ages_11":"11","03_ages_12":"12","03_ages_13":"13","03_ages_14":"14","03_ages_15":"15","03_ages_16":"16","03_ages_17":"17","03_ages_18":"18","04":"Yes","04_ages_1":"1","04_ages_2":"2","04_ages_3":"3","04_ages_4":"4","04_ages_5":"5","04_ages_6":"6","04_ages_7":"7","04_ages_8":"8","04_ages_9":"9","04_ages_10":"10","04_ages_11":"11","04_ages_12":"12","04_ages_13":"13","04_ages_14":"14","04_ages_15":"15","04_ages_16":"16","04_ages_17":"17","04_ages_18":"18","05":"Yes","05_ages_7":"7","05_ages_8":"8","05_ages_9":"9","05_ages_10":"10","05_ages_11":"11","05_ages_12":"12","05_ages_13":"13","05_ages_14":"14","05_ages_15":"15","05_ages_16":"16","05_ages_17":"17","05_ages_18":"18","06":"Yes","06_ages_17":"17","07":"No","08":"No"},"rt":59847.60000000149,"item_order":[0,1,2,3,4,5,6,7],"radio_events":[2708.10000000149,4759.10000000149,5788.5,17476.699999999255,32565.5,51833.5,57037.10000000149,59218],"checkbox_events":[6875.199999999255,8244.800000000745,8941.60000000149,9444.400000002235,9890.199999999255,10449.699999999255,11074,11705.699999999255,12645.699999999255,13278.199999999255,14308.300000000745,14835.10000000149,15468,18563.300000000745,19406.5,20062.800000000745,20792.60000000149,21254.800000000745,21863.10000000149,22503.300000000745,22957,23460.10000000149,24595,25048.800000000745,25778.10000000149,26686.5,27416.300000000745,28113.199999999255,28615.900000002235,29386,30683.800000000745,35743.300000000745,36448.400000002235,37129.10000000149,38709.800000000745,40411.199999999255,41166.10000000149,43809,44489.300000000745,45218.699999999255,45997.699999999255,46945.900000002235,47229.900000002235,47756.300000000745,48720.900000002235,53187.300000000745],"key_events":[],"mouse_events":[2708.10000000149,4759.10000000149,5788.5,6875.199999999255,8244.800000000745,8941.60000000149,9444.400000002235,9890.199999999255,10449.699999999255,11074,11705.699999999255,12645.699999999255,13278.199999999255,13780.5,14308.300000000745,14835.10000000149,15468,17476.699999999255,18563.300000000745,19017,19406.5,20062.800000000745,20792.60000000149,21254.800000000745,21863.10000000149,22503.300000000745,22957,23460.10000000149,24595,25048.800000000745,25778.10000000149,26686.5,27416.300000000745,28113.199999999255,28615.900000002235,29386,30683.800000000745,32565.5,32991.900000002235,35743.300000000745,36448.400000002235,37129.10000000149,38709.800000000745,39828.199999999255,40411.199999999255,41166.10000000149,42649.400000002235,42838.10000000149,43257.800000000745,43809,44489.300000000745,45218.699999999255,45997.699999999255,46945.900000002235,47229.900000002235,47756.300000000745,48720.900000002235,51833.5,53187.300000000745,57037.10000000149,59218,59842.10000000149],"honeypot":0,"survey":"mace","page":10,"trial_type":"survey-mace","trial_index":18,"time_elapsed":835206,"internal_node_id":"0.0-18.0","task_version":"prescreen-v0.3","browser_interactions":0,"instructed":0},{"rt":4817.699999999255,"trial_type":"mental-health-alert","trial_index":19,"time_elapsed":840026,"internal_node_id":"0.0-19.0","task_version":"prescreen-v0.3","interactions":"[]"}]