[{"view_history":[{"page_index":0,"viewing_time":4694.5},{"page_index":1,"viewing_time":15292},{"page_index":2,"viewing_time":5285.599999904633},{"page_index":3,"viewing_time":3266.2000000476837}],"rt":28540.099999904633,"trial_type":"instructions","trial_index":0,"time_elapsed":28748,"internal_node_id":"0.0-0.0","task_version":"prescreen-v0.3"},{"rt":30419.200000047684,"responses":{"age":"70","gender-categorical":"Male","gender-free-response":"","ethnicity":"Not Hispanic or Latino","race":["White"],"education":"Bachelor degree","siblings":"2"},"trial_type":"survey-demo","trial_index":1,"time_elapsed":59242,"internal_node_id":"0.0-1.0","task_version":"prescreen-v0.3"},{"responses":{"Q13":"1","Q12":"0","Q10":"0","Q17":"0","Q18":"0","Q19":"0","Q04":"2","Q07":"2","Q16":"0","Q20":"2","Q01":"0","Q09":"1","Q05":"0","Q02":"0","Q03":"1","Q11":"0","Q21":"3","Q14":"0","Q08":"0","Q15":"0","Q06":"0"},"rt":146346.5,"item_order":[12,11,9,16,17,18,3,6,15,19,0,8,4,1,2,10,20,13,7,14,5],"radio_events":[13479.200000047684,18015.100000023842,20838.100000023842,25152.600000023842,30473.399999976158,34900.39999997616,41203.800000071526,52122.39999997616,58167.60000002384,61420.5,82255.89999997616,88324.89999997616,91632.10000002384,98552.10000002384,101820.30000007153,105804,110038.80000007153,113311.30000007153,128278.70000004768,131453.80000007153,142736.70000004768],"key_events":[],"mouse_events":[13479.200000047684,18015.100000023842,20838.100000023842,25152.600000023842,30473.399999976158,34900.39999997616,41203.800000071526,52122.39999997616,58167.60000002384,61420.5,64035.39999997616,82255.89999997616,88324.89999997616,91632.10000002384,98552.10000002384,101820.30000007153,105804,110038.80000007153,113311.30000007153,128278.70000004768,131453.80000007153,132734.70000004768,142736.70000004768,146339.20000004768],"straightlining":0.6666666666666666,"zigzagging":0.35,"honeypot":0,"survey":"sns","trial_type":"survey-template","trial_index":2,"time_elapsed":205669,"internal_node_id":"0.0-2.0","task_version":"prescreen-v0.3","browser_interactions":0,"infrequency":0},{"responses":{"Q10":"2","Q08":"2","Q07":"3","Q06":"3","Q11":"2","Q05":"2","Q13":"0","Q12":"0","Q01":"0","Q03":"0","Q02":"0","Q04":"0","Q09":"2"},"rt":54353.300000071526,"item_order":[9,7,6,5,10,4,12,11,0,2,1,3,8],"radio_events":[7663.300000071526,13584.399999976158,16839.100000023842,20342.600000023842,24282.200000047684,28125.5,31027.5,39222.300000071526,41777.60000002384,44611.5,46989.700000047684,50081.800000071526,53191],"key_events":[],"mouse_events":[7663.300000071526,13584.399999976158,16839.100000023842,20342.600000023842,24282.200000047684,28125.5,31027.5,39222.300000071526,41777.60000002384,44611.5,46989.700000047684,50081.800000071526,53191,54350],"straightlining":0.46153846153846156,"zigzagging":0.16666666666666666,"honeypot":0,"survey":"bisbas","trial_type":"survey-template","trial_index":3,"time_elapsed":260038,"internal_node_id":"0.0-3.0","task_version":"prescreen-v0.3","browser_interactions":0,"infrequency":0},{"responses":{"Q01":"2","Q02":"2","Q03":"2"},"rt":41860.199999928474,"radio_events":[14415.599999904633,20994.099999904633,40251.199999928474],"key_events":[],"mouse_events":[14415.599999904633,20994.099999904633,40251.199999928474,41858.09999990463],"survey":"map","page":1,"trial_type":"survey-map","trial_index":4,"time_elapsed":301910,"internal_node_id":"0.0-4.0","task_version":"prescreen-v0.3","browser_interactions":0},{"responses":{"Q04":"2","Q05":"3","Q06":"3"},"rt":22242,"radio_events":[9286.899999976158,13966.899999976158,15787.899999976158,21331.600000023842],"key_events":[],"mouse_events":[9286.899999976158,13966.899999976158,15787.899999976158,21331.600000023842,22241.199999928474],"survey":"map","page":2,"trial_type":"survey-map","trial_index":5,"time_elapsed":324159,"internal_node_id":"0.0-5.0","task_version":"prescreen-v0.3","browser_interactions":0},{"responses":{"Q07":"3","Q08":"3","Q09":"1"},"rt":17144.899999976158,"radio_events":[6837.899999976158,12137.700000047684,16004.200000047684],"key_events":[],"mouse_events":[6837.899999976158,12137.700000047684,16004.200000047684,17143.399999976158],"survey":"map","page":3,"trial_type":"survey-map","trial_index":6,"time_elapsed":341309,"internal_node_id":"0.0-6.0","task_version":"prescreen-v0.3","browser_interactions":0},{"responses":{"Q10":"2","Q11":"1","Q12":"0","Q13":"0","Q16":"0","Q14":"3","Q15":"3"},"rt":63755.10000002384,"radio_events":[7720.199999928474,30711.299999952316,36863.199999928474,44197.39999997616,53047.199999928474,58226.39999997616,62851.799999952316],"key_events":[],"mouse_events":[7720.199999928474,30711.299999952316,36863.199999928474,44197.39999997616,53047.199999928474,58226.39999997616,62851.799999952316,63752.299999952316],"survey":"map","page":4,"trial_type":"survey-map","trial_index":7,"time_elapsed":405073,"internal_node_id":"0.0-7.0","task_version":"prescreen-v0.3","browser_interactions":0,"infrequency":0},{"view_history":[{"page_index":0,"viewing_time":5657.699999928474},{"page_index":1,"viewing_time":4696}],"rt":10354.899999976158,"trial_type":"instructions","trial_index":8,"time_elapsed":415433,"internal_node_id":"0.0-8.0","task_version":"prescreen-v0.3"},{"responses":{"01":"Yes","01_ages_10":"10","01_ages_11":"11","01_ages_12":"12","01_ages_13":"13","01_ages_14":"14","01_ages_15":"15","01_ages_16":"16","01_ages_17":"17","01_ages_18":"18","02":"Yes","02_ages_10":"10","02_ages_11":"11","02_ages_12":"12","02_ages_13":"13","02_ages_14":"14","02_ages_15":"15","03":"No","04":"No","05":"No","06":"No"},"rt":68075.39999997616,"item_order":[0,1,2,3,4,5],"radio_events":[7076.100000023842,42033.10000002384,56791.799999952316,59371.10000002384,61611.299999952316,67038.39999997616],"checkbox_events":[26816.200000047684,27531.899999976158,28341.799999952316,29022.799999952316,29874.100000023842,30731.5,31674.799999952316,32588.299999952316,33902.89999997616,44813,45620.60000002384,46492.799999952316,47203.60000002384,48011.799999952316,49443.39999997616],"key_events":[],"mouse_events":[0.5,7076.100000023842,26816.200000047684,27531.899999976158,28341.799999952316,29022.799999952316,29874.100000023842,30731.5,31674.799999952316,32588.299999952316,33902.89999997616,42033.10000002384,44813,45620.60000002384,46492.799999952316,47203.60000002384,48011.799999952316,49443.39999997616,56791.799999952316,59371.10000002384,61611.299999952316,67038.39999997616,68067.10000002384],"honeypot":0,"survey":"mace","page":1,"trial_type":"survey-mace","trial_index":9,"time_elapsed":483525,"internal_node_id":"0.0-9.0","task_version":"prescreen-v0.3","browser_interactions":0},{"responses":{"01":"No","02":"No","03":"Yes","03_ages_10":"10","03_ages_11":"11","03_ages_12":"12","04":"No","05":"Yes","05_ages_10":"10","05_ages_11":"11","05_ages_12":"12","06":"No","07":"No","08":"No"},"rt":48651.299999952316,"item_order":[0,1,2,3,4,5,6,7],"radio_events":[4019,12183.899999976158,13437,30166.699999928474,32962.699999928474,43197.60000002384,46124.5,47723.699999928474],"checkbox_events":[21293.5,21961.899999976158,23907.100000023842,35960,36664.5,37563.39999997616],"key_events":[],"mouse_events":[4019,7951.199999928474,12183.899999976158,13437,21293.5,21961.899999976158,22620.899999976158,23907.100000023842,30166.699999928474,32962.699999928474,34990.89999997616,35960,36664.5,37563.39999997616,43197.60000002384,46124.5,47723.699999928474,48646.39999997616],"honeypot":0,"survey":"mace","page":2,"trial_type":"survey-mace","trial_index":10,"time_elapsed":532190,"internal_node_id":"0.0-10.0","task_version":"prescreen-v0.3","browser_interactions":0},{"responses":{"01":"No","02":"No","03":"No","04":"No"},"rt":12927,"item_order":[0,1,2,3],"radio_events":[5690,8088.5,10778.199999928474,11875.699999928474],"checkbox_events":[],"key_events":[],"mouse_events":[5690,8088.5,10778.199999928474,11875.699999928474,12921.699999928474],"honeypot":0,"survey":"mace","page":3,"trial_type":"survey-mace","trial_index":11,"time_elapsed":545123,"internal_node_id":"0.0-11.0","task_version":"prescreen-v0.3","browser_interactions":0},{"responses":{"01":"No","02":"No"},"rt":6122.699999928474,"item_order":[0,1],"radio_events":[3460.100000023842,5176.899999976158],"checkbox_events":[],"key_events":[],"mouse_events":[3460.100000023842,5176.899999976158,6119.899999976158],"honeypot":0,"survey":"mace","page":4,"trial_type":"survey-mace","trial_index":12,"time_elapsed":551254,"internal_node_id":"0.0-12.0","task_version":"prescreen-v0.3","browser_interactions":0},{"responses":{"01":"No","02":"No","03":"No","04":"No","05":"No"},"rt":26807.899999976158,"item_order":[0,1,2,3,4],"radio_events":[4734.700000047684,8291.299999952316,12883.899999976158,17895.299999952316,25447.899999976158],"checkbox_events":[],"key_events":[],"mouse_events":[4734.700000047684,8291.299999952316,10533.600000023842,12883.899999976158,17895.299999952316,18972.299999952316,25447.899999976158,26798.5],"honeypot":0,"survey":"mace","page":5,"trial_type":"survey-mace","trial_index":13,"time_elapsed":578075,"internal_node_id":"0.0-13.0","task_version":"prescreen-v0.3","browser_interactions":0},{"responses":{"01":"Yes","01_ages_10":"10","01_ages_11":"11","01_ages_12":"12","01_ages_13":"13","02":"Yes","02_ages_10":"10","02_ages_11":"11","02_ages_12":"12","02_ages_13":"13","03":"No","04":"No","05":"No"},"rt":45205,"item_order":[0,1,2,3,4],"radio_events":[9250.300000071526,23698.100000023842,37748,41437.300000071526,44279.60000002384],"checkbox_events":[12856.200000047684,13472.300000071526,14328.600000023842,15497.100000023842,25879.300000071526,27039.400000095367,27996.100000023842,28787.900000095367],"key_events":[],"mouse_events":[9250.300000071526,12856.200000047684,13472.300000071526,14328.600000023842,15497.100000023842,23698.100000023842,25879.300000071526,26541.200000047684,27039.400000095367,27996.100000023842,28787.900000095367,37748,41437.300000071526,44279.60000002384,45196.700000047684],"honeypot":0,"survey":"mace","page":6,"trial_type":"survey-mace","trial_index":14,"time_elapsed":623293,"internal_node_id":"0.0-14.0","task_version":"prescreen-v0.3","browser_interactions":0},{"responses":{"01":"No","02":"No","03":"No","04":"No","05":"No","06":"No","07":"No"},"rt":19884.600000023842,"item_order":[0,1,2,3,4,5,6],"radio_events":[3972.9000000953674,7074.600000023842,9644,11464.800000071526,13289.600000023842,15017.100000023842,18951.900000095367],"checkbox_events":[],"key_events":[],"mouse_events":[3972.9000000953674,7074.600000023842,9644,11464.800000071526,13289.600000023842,15017.100000023842,18951.900000095367,19872.900000095367],"honeypot":0,"survey":"mace","page":7,"trial_type":"survey-mace","trial_index":15,"time_elapsed":643193,"internal_node_id":"0.0-15.0","task_version":"prescreen-v0.3","browser_interactions":0},{"responses":{"01":"No","02":"No","03":"No","04":"No"},"rt":20114,"item_order":[0,1,2,3],"radio_events":[10090.600000023842,13761.399999976158,17010.100000023842,19224.399999976158],"checkbox_events":[],"key_events":[],"mouse_events":[10090.600000023842,13761.399999976158,17010.100000023842,19224.399999976158,20108.5],"honeypot":0,"survey":"mace","page":8,"trial_type":"survey-mace","trial_index":16,"time_elapsed":663319,"internal_node_id":"0.0-16.0","task_version":"prescreen-v0.3","browser_interactions":0},{"responses":{"01":"Yes","01_ages_1":"1","01_ages_2":"2","01_ages_3":"3","01_ages_4":"4","01_ages_5":"5","01_ages_6":"6","01_ages_7":"7","01_ages_8":"8","01_ages_9":"9","01_ages_10":"10","01_ages_11":"11","01_ages_12":"12","01_ages_13":"13","01_ages_14":"14","01_ages_15":"15","01_ages_16":"16","01_ages_17":"17","01_ages_18":"18","02":"Yes","02_ages_1":"1","02_ages_2":"2","02_ages_3":"3","02_ages_4":"4","02_ages_5":"5","02_ages_6":"6","02_ages_7":"7","02_ages_8":"8","02_ages_9":"9","02_ages_10":"10","02_ages_11":"11","02_ages_12":"12","02_ages_13":"13","02_ages_14":"14","02_ages_15":"15","02_ages_16":"16","02_ages_17":"17","02_ages_18":"18","03":"Yes","03_ages_1":"1","03_ages_2":"2","03_ages_3":"3","03_ages_4":"4","03_ages_5":"5","03_ages_6":"6","03_ages_7":"7","03_ages_8":"8","03_ages_9":"9","03_ages_10":"10","03_ages_11":"11","03_ages_12":"12","03_ages_13":"13","03_ages_14":"14","03_ages_15":"15","03_ages_16":"16","03_ages_17":"17","04":"Yes","04_ages_1":"1","04_ages_2":"2","04_ages_3":"3","04_ages_4":"4","04_ages_5":"5","04_ages_6":"6","04_ages_7":"7","04_ages_8":"8","04_ages_9":"9","04_ages_10":"10","04_ages_11":"11","04_ages_12":"12","04_ages_13":"13","04_ages_14":"14","04_ages_15":"15","04_ages_16":"16","04_ages_17":"17","04_ages_18":"18"},"rt":105160.89999997616,"item_order":[0,1,2,3],"radio_events":[5618.600000023842,31499.100000023842,54345.300000071526,83045.60000002384],"checkbox_events":[11359.300000071526,12328.700000047684,12983.399999976158,13680.700000047684,14951.100000023842,15689.899999976158,17862.700000047684,18509.5,19300,19904.600000023842,20931,21690.399999976158,22514.100000023842,23301,24704.899999976158,25612,26463,27292.399999976158,33383.5,34261.800000071526,35023,35710.89999997616,36604.10000002384,37757.300000071526,38882.39999997616,40412.200000047684,41209.200000047684,41979.5,42794.39999997616,43547.89999997616,44441.60000002384,45290.800000071526,46232.200000047684,46996,47710.700000047684,48464.10000002384,58454.89999997616,59129.200000047684,59747,60430,61273,62137.700000047684,65162.10000002384,65962.60000002384,67038.10000002384,67896.5,68564.70000004768,69232,70435.80000007153,71181.20000004768,71912,72545,73389,87851.89999997616,88477.39999997616,90046.20000004768,91347.20000004768,92121.10000002384,93000,93871.10000002384,94821.60000002384,95708.60000002384,96615.70000004768,97495.10000002384,98519.80000007153,99387.20000004768,100217.80000007153,101005.10000002384,101980.70000004768,103031.39999997616,103860.39999997616],"key_events":[],"mouse_events":[5618.600000023842,11359.300000071526,12328.700000047684,12983.399999976158,13680.700000047684,14951.100000023842,15689.899999976158,17862.700000047684,18509.5,19300,19904.600000023842,20931,21690.399999976158,22514.100000023842,23301,24038.700000047684,24704.899999976158,25612,26463,27292.399999976158,31499.100000023842,33383.5,34261.800000071526,35023,35710.89999997616,36604.10000002384,37757.300000071526,38882.39999997616,39658,40412.200000047684,41209.200000047684,41979.5,42794.39999997616,43547.89999997616,44441.60000002384,45290.800000071526,46232.200000047684,46996,47710.700000047684,48464.10000002384,54345.300000071526,58454.89999997616,59129.200000047684,59747,60430,61273,62137.700000047684,64294.10000002384,65162.10000002384,65962.60000002384,67038.10000002384,67896.5,68564.70000004768,69232,69781.60000002384,70435.80000007153,71181.20000004768,71912,72545,73389,74187.5,83045.60000002384,87851.89999997616,88477.39999997616,89123.10000002384,90046.20000004768,91347.20000004768,92121.10000002384,93000,93871.10000002384,94821.60000002384,95708.60000002384,96615.70000004768,97495.10000002384,98519.80000007153,99387.20000004768,100217.80000007153,101005.10000002384,101980.70000004768,103031.39999997616,103860.39999997616,105155.39999997616],"honeypot":0,"survey":"mace","page":9,"trial_type":"survey-mace","trial_index":17,"time_elapsed":768491,"internal_node_id":"0.0-17.0","task_version":"prescreen-v0.3","browser_interactions":0},{"responses":{"01":"No","02":"No","03":"No","04":"No","05":"No","06":"Yes","06_ages_17":"17","07":"Yes","07_ages_1":"1","07_ages_2":"2","07_ages_3":"3","07_ages_4":"4","07_ages_5":"5","07_ages_6":"6","07_ages_7":"7","07_ages_8":"8","07_ages_9":"9","07_ages_10":"10","07_ages_11":"11","07_ages_12":"12","07_ages_13":"13","07_ages_14":"14","07_ages_15":"15","07_ages_16":"16","07_ages_17":"17","07_ages_18":"18","08":"Yes","08_ages_1":"1","08_ages_2":"2","08_ages_3":"3","08_ages_4":"4","08_ages_5":"5","08_ages_6":"6","08_ages_7":"7","08_ages_8":"8","08_ages_9":"9","08_ages_10":"10","08_ages_11":"11","08_ages_12":"12","08_ages_13":"13","08_ages_14":"14","08_ages_15":"15","08_ages_16":"16","08_ages_17":"17","08_ages_18":"18"},"rt":74170.20000004768,"item_order":[0,1,2,3,4,5,6,7],"radio_events":[9506.399999976158,11648.200000047684,14143.700000047684,16083,18163.799999952316,22073.100000023842,33412.700000047684,56330.5],"checkbox_events":[25349.700000047684,35932.799999952316,36818.60000002384,37476.39999997616,38058.60000002384,39649,40288.89999997616,41230.60000002384,42215,43312,44098.89999997616,44970.200000047684,45772.5,46532.200000047684,47372.5,48237,49087.39999997616,50015.60000002384,51042.39999997616,58172.10000002384,59015.60000002384,59669.299999952316,60344.200000047684,61006.89999997616,61674.5,62340.799999952316,63135.5,63958.700000047684,64647.299999952316,65646.29999995232,66564.39999997616,67293,68026.89999997616,68744.20000004768,69568.70000004768,70467.79999995232,71270.5],"key_events":[],"mouse_events":[9506.399999976158,11648.200000047684,14143.700000047684,16083,18163.799999952316,22073.100000023842,25349.700000047684,33412.700000047684,35932.799999952316,36818.60000002384,37476.39999997616,38058.60000002384,38894.89999997616,39649,40288.89999997616,41230.60000002384,42215,43312,44098.89999997616,44970.200000047684,45772.5,46532.200000047684,47372.5,48237,49087.39999997616,50015.60000002384,51042.39999997616,56330.5,58172.10000002384,59015.60000002384,59669.299999952316,60344.200000047684,61006.89999997616,61674.5,62340.799999952316,63135.5,63958.700000047684,64647.299999952316,65646.29999995232,66564.39999997616,67293,68026.89999997616,68744.20000004768,69568.70000004768,70467.79999995232,71270.5,74159.20000004768],"honeypot":0,"survey":"mace","page":10,"trial_type":"survey-mace","trial_index":18,"time_elapsed":842680,"internal_node_id":"0.0-18.0","task_version":"prescreen-v0.3","browser_interactions":0,"instructed":0},{"rt":16815,"trial_type":"mental-health-alert","trial_index":19,"time_elapsed":859501,"internal_node_id":"0.0-19.0","task_version":"prescreen-v0.3","interactions":"[]"}]