[{"view_history":[{"page_index":0,"viewing_time":2881.5},{"page_index":1,"viewing_time":3457.600000023842},{"page_index":2,"viewing_time":1509.7999999821186},{"page_index":3,"viewing_time":1322.5}],"rt":9172.90000000596,"trial_type":"instructions","trial_index":0,"time_elapsed":9191,"internal_node_id":"0.0-0.0","task_version":"prescreen-v0.3"},{"rt":13475.899999976158,"responses":{"age":"19","gender-categorical":"Other","gender-free-response":"Nonbinary","ethnicity":"Not Hispanic or Latino","race":["White"],"education":"Some college"},"trial_type":"survey-demo","trial_index":1,"time_elapsed":22680,"internal_node_id":"0.0-1.0","task_version":"prescreen-v0.3"},{"responses":{"Q15":"2","Q06":"0","Q03":"0","Q05":"0","Q20":"1","Q21":"3","Q18":"2","Q19":"2","Q10":"3","Q04":"0","Q17":"1","Q01":"2","Q08":"2","Q09":"0","Q11":"0","Q12":"0","Q13":"2","Q07":"1","Q16":"3","Q02":"2","Q14":"2"},"rt":47798.20000001788,"item_order":[14,5,2,4,19,20,17,18,9,3,16,0,7,8,10,11,12,6,15,1,13],"radio_events":[4928.800000011921,6682,8540.800000011921,9997.40000000596,11654.600000023842,13288.300000011921,14897.90000000596,18182.40000000596,20729.5,22291.80000001192,24440.40000000596,26275.90000000596,28571,30957.90000000596,34393.90000000596,36704.70000001788,37388.70000001788,39189.5,42657.30000001192,44243.10000002384,46278.5,47292.40000000596],"key_events":[],"mouse_events":[4928.800000011921,5749,6682,7479,8540.800000011921,9997.40000000596,11654.600000023842,13288.300000011921,14897.90000000596,16934.40000000596,17368.80000001192,18182.40000000596,20729.5,22291.80000001192,24440.40000000596,26275.90000000596,27175.80000001192,28571,30957.90000000596,33323.10000002384,33790.30000001192,34393.90000000596,36704.70000001788,37388.70000001788,39189.5,42657.30000001192,44243.10000002384,46278.5,47292.40000000596,47791.5],"straightlining":0.38095238095238093,"zigzagging":0.4,"honeypot":0,"survey":"sns","trial_type":"survey-template","trial_index":2,"time_elapsed":70581,"internal_node_id":"0.0-2.0","task_version":"prescreen-v0.3","browser_interactions":0,"infrequency":0},{"responses":{"Q10":"2","Q11":"1","Q12":"2","Q07":"2","Q01":"3","Q04":"3","Q13":"0","Q02":"3","Q09":"2","Q08":"2","Q06":"2","Q05":"3","Q03":"3"},"rt":38595.09999999404,"item_order":[9,10,11,6,0,3,12,1,8,7,5,4,2],"radio_events":[2569.4000000059605,7411.4000000059605,9479,10123.5,11202.09999999404,14992,20414.90000000596,23370,28252.19999998808,29620.59999999404,32763.90000000596,35952.90000000596,38149.90000000596],"key_events":[],"mouse_events":[2569.4000000059605,6131.300000011921,7411.4000000059605,9134.199999988079,9479,10123.5,11202.09999999404,13552.199999988079,14679.199999988079,14992,19328.30000001192,20414.90000000596,21237.59999999404,23370,28252.19999998808,29620.59999999404,32763.90000000596,35952.90000000596,38149.90000000596,38592.19999998808],"straightlining":0.46153846153846156,"zigzagging":0.5833333333333334,"honeypot":0,"survey":"bisbas","trial_type":"survey-template","trial_index":3,"time_elapsed":109183,"internal_node_id":"0.0-3.0","task_version":"prescreen-v0.3","browser_interactions":0,"infrequency":0},{"responses":{"Q01":"3","Q02":"2","Q03":"4"},"rt":10773.200000017881,"radio_events":[4559.4000000059605,8461.800000011921,10324.600000023842],"key_events":[],"mouse_events":[4559.4000000059605,7037.9000000059605,8461.800000011921,9878.300000011921,10324.600000023842,10771.200000017881],"survey":"map","page":1,"trial_type":"survey-map","trial_index":4,"time_elapsed":119963,"internal_node_id":"0.0-4.0","task_version":"prescreen-v0.3","browser_interactions":0},{"responses":{"Q04":"2","Q05":"1","Q06":"2"},"rt":6872,"radio_events":[3757.0999999940395,4851.9000000059605,6099.300000011921],"key_events":[],"mouse_events":[3095.5999999940395,3757.0999999940395,4851.9000000059605,6099.300000011921,6870.699999988079],"survey":"map","page":2,"trial_type":"survey-map","trial_index":5,"time_elapsed":126840,"internal_node_id":"0.0-5.0","task_version":"prescreen-v0.3","browser_interactions":0},{"responses":{"Q07":"2","Q08":"0","Q09":"4"},"rt":9433.90000000596,"radio_events":[5039.600000023842,7115.300000011921,9022.200000017881],"key_events":[],"mouse_events":[5039.600000023842,7115.300000011921,9022.200000017881,9432],"survey":"map","page":3,"trial_type":"survey-map","trial_index":6,"time_elapsed":136278,"internal_node_id":"0.0-6.0","task_version":"prescreen-v0.3","browser_interactions":0},{"responses":{"Q10":"2","Q11":"3","Q12":"3","Q13":"3","Q16":"0","Q14":"2","Q15":"2"},"rt":40026,"radio_events":[21517,22602.100000023842,27970.30000001192,30467.5,33490.30000001192,38690.10000002384,39477.10000002384],"key_events":[],"mouse_events":[18633.600000023842,19333.70000001788,20285.30000001192,20824.70000001788,21307.90000000596,21517,22602.100000023842,26869.100000023842,27970.30000001192,30467.5,33490.30000001192,37626,38690.10000002384,39477.10000002384,40023.40000000596],"survey":"map","page":4,"trial_type":"survey-map","trial_index":7,"time_elapsed":176311,"internal_node_id":"0.0-7.0","task_version":"prescreen-v0.3","browser_interactions":0,"infrequency":0},{"view_history":[{"page_index":0,"viewing_time":1392.7999999821186},{"page_index":1,"viewing_time":4208.600000023842}],"rt":5602.299999982119,"trial_type":"instructions","trial_index":8,"time_elapsed":181916,"internal_node_id":"0.0-8.0","task_version":"prescreen-v0.3"},{"responses":{"01":"Yes","01_ages_13":"13","01_ages_14":"14","01_ages_15":"15","01_ages_16":"16","01_ages_17":"17","01_ages_18":"18","02":"Yes","02_ages_8":"8","02_ages_9":"9","02_ages_10":"10","02_ages_11":"11","02_ages_12":"12","02_ages_13":"13","02_ages_14":"14","02_ages_15":"15","02_ages_16":"16","02_ages_17":"17","02_ages_18":"18","03":"No","04":"No","05":"No","06":"Yes","06_ages_13":"13"},"rt":49454.40000000596,"item_order":[0,1,2,3,4,5],"radio_events":[9059.90000000596,21279.5,35966.19999998808,37719.40000000596,38340.5,42437.40000000596],"checkbox_events":[12270.699999988079,12560.800000011921,12920.300000011921,13834.5,14057.300000011921,16725.90000000596,27478.69999998808,28177.09999999404,28452.30000001192,28780.80000001192,29184.19999998808,29592.90000000596,29930,30840.19999998808,31186.5,31580.40000000596,31918.5,47675.40000000596],"key_events":[],"mouse_events":[0.19999998807907104,7935,9059.90000000596,12270.699999988079,12560.800000011921,12920.300000011921,13834.5,14057.300000011921,14299.90000000596,14847,15714.40000000596,16725.90000000596,20845.09999999404,21279.5,27478.69999998808,27783.30000001192,28177.09999999404,28452.30000001192,28780.80000001192,29184.19999998808,29592.90000000596,29930,30389.40000000596,30840.19999998808,31186.5,31580.40000000596,31918.5,34596.80000001192,35966.19999998808,37719.40000000596,38340.5,42437.40000000596,47675.40000000596,49446.30000001192],"honeypot":0,"survey":"mace","page":1,"trial_type":"survey-mace","trial_index":9,"time_elapsed":231380,"internal_node_id":"0.0-9.0","task_version":"prescreen-v0.3","browser_interactions":0},{"responses":{"01":"No","02":"No","03":"No","04":"No","05":"No","06":"No","07":"No","08":"No"},"rt":13295,"item_order":[0,1,2,3,4,5,6,7],"radio_events":[2590.699999988079,4723.9000000059605,5440.199999988079,6218.5999999940395,7782.300000011921,8721.800000011921,9992.699999988079,11097.199999988079],"checkbox_events":[],"key_events":[],"mouse_events":[2590.699999988079,3476.4000000059605,4723.9000000059605,5440.199999988079,6218.5999999940395,7782.300000011921,8721.800000011921,9992.699999988079,11097.199999988079,13285.5],"honeypot":0,"survey":"mace","page":2,"trial_type":"survey-mace","trial_index":10,"time_elapsed":244684,"internal_node_id":"0.0-10.0","task_version":"prescreen-v0.3","browser_interactions":0},{"responses":{"01":"No","02":"No","03":"No","04":"No"},"rt":6774.699999988079,"item_order":[0,1,2,3],"radio_events":[3996.9000000059605,4827.699999988079,5406.0999999940395,6179.9000000059605],"checkbox_events":[],"key_events":[],"mouse_events":[3996.9000000059605,4513.699999988079,4827.699999988079,5406.0999999940395,6179.9000000059605,6767.800000011921],"honeypot":0,"survey":"mace","page":3,"trial_type":"survey-mace","trial_index":11,"time_elapsed":251464,"internal_node_id":"0.0-11.0","task_version":"prescreen-v0.3","browser_interactions":0},{"responses":{"01":"No","02":"No"},"rt":4729.4000000059605,"item_order":[0,1],"radio_events":[2538.2000000178814,3367.5],"checkbox_events":[],"key_events":[],"mouse_events":[2538.2000000178814,2939.300000011921,3367.5,3875.2000000178814,4726.5],"honeypot":0,"survey":"mace","page":4,"trial_type":"survey-mace","trial_index":12,"time_elapsed":256200,"internal_node_id":"0.0-12.0","task_version":"prescreen-v0.3","browser_interactions":0},{"responses":{"01":"No","02":"No","03":"No","04":"No","05":"No"},"rt":13587.700000017881,"item_order":[0,1,2,3,4],"radio_events":[6299.200000017881,7375.4000000059605,9066.90000000596,9797.40000000596,10978.300000011921],"checkbox_events":[],"key_events":[],"mouse_events":[6299.200000017881,7375.4000000059605,8640.5,9066.90000000596,9797.40000000596,10978.300000011921,13580.5],"honeypot":0,"survey":"mace","page":5,"trial_type":"survey-mace","trial_index":13,"time_elapsed":269794,"internal_node_id":"0.0-13.0","task_version":"prescreen-v0.3","browser_interactions":0},{"responses":{"01":"Yes","01_ages_5":"5","01_ages_6":"6","01_ages_7":"7","01_ages_8":"8","01_ages_9":"9","01_ages_10":"10","01_ages_11":"11","01_ages_12":"12","01_ages_13":"13","01_ages_14":"14","01_ages_15":"15","01_ages_16":"16","01_ages_17":"17","01_ages_18":"18","02":"Yes","02_ages_5":"5","02_ages_6":"6","02_ages_7":"7","02_ages_8":"8","02_ages_9":"9","02_ages_10":"10","02_ages_11":"11","02_ages_12":"12","02_ages_13":"13","02_ages_14":"14","02_ages_15":"15","02_ages_16":"16","02_ages_17":"17","02_ages_18":"18","03":"Yes","03_ages_8":"8","03_ages_9":"9","03_ages_10":"10","03_ages_11":"11","03_ages_12":"12","03_ages_13":"13","03_ages_14":"14","03_ages_15":"15","03_ages_16":"16","03_ages_17":"17","03_ages_18":"18","04":"Yes","04_ages_8":"8","04_ages_9":"9","04_ages_10":"10","04_ages_11":"11","04_ages_12":"12","04_ages_13":"13","04_ages_14":"14","04_ages_15":"15","04_ages_16":"16","04_ages_17":"17","04_ages_18":"18","05":"Yes","05_ages_8":"8","05_ages_9":"9"},"rt":41461.79999998212,"item_order":[0,1,2,3,4],"radio_events":[2861.199999988079,14614.59999999404,22855.69999998808,32101.899999976158,39129.79999998212],"checkbox_events":[4420.5,7154.5,7486.0999999940395,8344.799999982119,9279.899999976158,9715.59999999404,10290.399999976158,10696.299999982119,11049.59999999404,11524.299999982119,11919.399999976158,12352.799999982119,13023.399999976158,13660.199999988079,15588.59999999404,15856.699999988079,16207,16771.399999976158,17069.59999999404,17519.79999998212,17888.79999998212,18306.899999976158,18735.19999998808,19202.09999999404,19635.19999998808,20070.5,21455.69999998808,21819.899999976158,23652.59999999404,24071.19999998808,25003.5,25332.79999998212,25801.09999999404,26935.5,27772.29999998212,28519,29527,29800.19999998808,30201.5,33333.69999998808,33740.09999999404,34205.79999998212,34681.19999998808,35647.89999997616,35964.5,36345,36783.29999998212,37489.69999998808,37757.5,38101,39953.09999999404,40465.89999997616],"key_events":[],"mouse_events":[2861.199999988079,4420.5,7154.5,7486.0999999940395,7932.0999999940395,8344.799999982119,8965.5,9279.899999976158,9715.59999999404,10051.299999982119,10290.399999976158,10696.299999982119,11049.59999999404,11524.299999982119,11919.399999976158,12352.799999982119,13023.399999976158,13339.199999988079,13660.199999988079,14239.899999976158,14614.59999999404,15588.59999999404,15856.699999988079,16207,16771.399999976158,17069.59999999404,17519.79999998212,17888.79999998212,18306.899999976158,18735.19999998808,19202.09999999404,19635.19999998808,20070.5,20400.29999998212,20770.399999976158,21109.19999998808,21455.69999998808,21819.899999976158,22394.19999998808,22855.69999998808,23652.59999999404,24071.19999998808,24487.399999976158,25003.5,25332.79999998212,25801.09999999404,26217.69999998808,26935.5,27225.59999999404,27772.29999998212,28519,29172.5,29527,29800.19999998808,30201.5,31282.79999998212,32101.899999976158,33333.69999998808,33740.09999999404,34205.79999998212,34681.19999998808,35100.29999998212,35647.89999997616,35964.5,36345,36783.29999998212,37151.5,37489.69999998808,37757.5,38101,39129.79999998212,39953.09999999404,40465.89999997616,41454.39999997616],"honeypot":0,"survey":"mace","page":6,"trial_type":"survey-mace","trial_index":14,"time_elapsed":311262,"internal_node_id":"0.0-14.0","task_version":"prescreen-v0.3","browser_interactions":0},{"responses":{"01":"No","02":"Yes","02_ages_8":"8","02_ages_9":"9","03":"Yes","03_ages_8":"8","03_ages_9":"9","04":"No","05":"No","06":"No","07":"No"},"rt":22836,"item_order":[0,1,2,3,4,5,6],"radio_events":[5161.5,7077,12041.199999988079,16453.399999976158,17955.09999999404,20637.59999999404,21701.399999976158,22373.79999998212],"checkbox_events":[9620.199999988079,9854,13162.899999976158,13650.199999988079],"key_events":[],"mouse_events":[5161.5,7077,7399.899999976158,9620.199999988079,9854,12041.199999988079,13162.899999976158,13650.199999988079,15742.5,16149.699999988079,16453.399999976158,17955.09999999404,20323.79999998212,20637.59999999404,21701.399999976158,22373.79999998212,22827.09999999404],"honeypot":0,"survey":"mace","page":7,"trial_type":"survey-mace","trial_index":15,"time_elapsed":334105,"internal_node_id":"0.0-15.0","task_version":"prescreen-v0.3","browser_interactions":0},{"responses":{"01":"No","02":"No","03":"Yes","03_ages_8":"8","03_ages_9":"9","03_ages_10":"10","03_ages_11":"11","03_ages_12":"12","03_ages_13":"13","03_ages_14":"14","03_ages_15":"15","03_ages_16":"16","03_ages_17":"17","03_ages_18":"18","04":"Yes","04_ages_13":"13","04_ages_14":"14","04_ages_15":"15","04_ages_16":"16","04_ages_17":"17","04_ages_18":"18"},"rt":23948.5,"item_order":[0,1,2,3],"radio_events":[5904.399999976158,9952.699999988079,11112.699999988079,18562.399999976158],"checkbox_events":[13034,13395.699999988079,13759.09999999404,14225.5,14586.59999999404,14997.199999988079,15760.899999976158,16494,16864.899999976158,17202.29999998212,17572.29999998212,20276.59999999404,20732,21485.09999999404,22017.5,23052.79999998212,23336],"key_events":[],"mouse_events":[5904.399999976158,9952.699999988079,11112.699999988079,13034,13395.699999988079,13759.09999999404,14225.5,14586.59999999404,14997.199999988079,15351.59999999404,15760.899999976158,16173.299999982119,16494,16864.899999976158,17202.29999998212,17572.29999998212,18562.399999976158,19970.69999998808,20276.59999999404,20732,21194.59999999404,21485.09999999404,22017.5,22362,22707.59999999404,23052.79999998212,23336,23672.29999998212,23944.5],"honeypot":0,"survey":"mace","page":8,"trial_type":"survey-mace","trial_index":16,"time_elapsed":358060,"internal_node_id":"0.0-16.0","task_version":"prescreen-v0.3","browser_interactions":0},{"responses":{"01":"Yes","01_ages_1":"1","01_ages_2":"2","01_ages_3":"3","01_ages_4":"4","01_ages_5":"5","01_ages_6":"6","01_ages_7":"7","01_ages_8":"8","01_ages_9":"9","01_ages_10":"10","01_ages_11":"11","01_ages_12":"12","01_ages_13":"13","01_ages_14":"14","01_ages_15":"15","01_ages_16":"16","01_ages_17":"17","01_ages_18":"18","02":"Yes","02_ages_1":"1","02_ages_2":"2","02_ages_3":"3","02_ages_4":"4","02_ages_5":"5","02_ages_6":"6","02_ages_7":"7","02_ages_8":"8","02_ages_9":"9","02_ages_10":"10","02_ages_11":"11","02_ages_12":"12","02_ages_13":"13","02_ages_14":"14","02_ages_15":"15","02_ages_16":"16","02_ages_17":"17","02_ages_18":"18","03":"Yes","03_ages_1":"1","03_ages_2":"2","03_ages_3":"3","03_ages_4":"4","03_ages_5":"5","03_ages_6":"6","03_ages_7":"7","03_ages_8":"8","03_ages_9":"9","03_ages_10":"10","03_ages_11":"11","03_ages_12":"12","03_ages_13":"13","03_ages_14":"14","03_ages_15":"15","03_ages_16":"16","03_ages_17":"17","03_ages_18":"18","04":"Yes","04_ages_1":"1","04_ages_2":"2","04_ages_3":"3","04_ages_4":"4","04_ages_5":"5","04_ages_6":"6","04_ages_7":"7","04_ages_8":"8","04_ages_9":"9","04_ages_10":"10","04_ages_11":"11","04_ages_12":"12","04_ages_13":"13","04_ages_14":"14","04_ages_15":"15","04_ages_16":"16","04_ages_17":"17","04_ages_18":"18"},"rt":45737.5,"item_order":[0,1,2,3],"radio_events":[1671.699999988079,12768.899999976158,24614.59999999404,34812.09999999404],"checkbox_events":[3508.399999976158,4578.399999976158,4828.5,5486.399999976158,6123.199999988079,6533.199999988079,6886.699999988079,7378.699999988079,7765.5999999940395,8191.5,8625.899999976158,8997.799999982119,9426.199999988079,9832.799999982119,10241.199999988079,10629.899999976158,11047.799999982119,11667.799999982119,13569.09999999404,14042.699999988079,14689.09999999404,15096.699999988079,15442.09999999404,15886,16373.899999976158,17157.29999998212,17430.09999999404,17807.899999976158,18169.29999998212,18604.59999999404,18978.79999998212,20134.69999998808,20915.19999998808,21252.19999998808,21541.59999999404,23007.5,23353.79999998212,23834.899999976158,25372.69999998808,27352.69999998808,27634.899999976158,28334.59999999404,28687.899999976158,29025.79999998212,29362.29999998212,29831.79999998212,30265.399999976158,31069.899999976158,31359.5,31744.19999998808,32181.69999998808,32559.5,32960.09999999404,33387.19999998808,33765.29999998212,34127.09999999404,36260.09999999404,36540.09999999404,37233.69999998808,37838.19999998808,38247.5,39069.69999998808,39432.09999999404,40140,41080,41756.5,42133.89999997616,42543.39999997616,43075.59999999404,43463.19999998808,44001,44394.69999998808,44852.5,45257],"key_events":[],"mouse_events":[1671.699999988079,3508.399999976158,3752.7999999821186,4118.399999976158,4578.399999976158,4828.5,5134.5999999940395,5486.399999976158,6123.199999988079,6533.199999988079,6886.699999988079,7378.699999988079,7765.5999999940395,8191.5,8625.899999976158,8997.799999982119,9426.199999988079,9832.799999982119,10241.199999988079,10629.899999976158,11047.799999982119,11402.199999988079,11667.799999982119,12768.899999976158,13569.09999999404,14042.699999988079,14315.5,14689.09999999404,15096.699999988079,15442.09999999404,15886,16373.899999976158,16805.09999999404,17157.29999998212,17430.09999999404,17807.899999976158,18169.29999998212,18604.59999999404,18978.79999998212,19417.09999999404,20134.69999998808,20915.19999998808,21252.19999998808,21541.59999999404,21928.79999998212,22700.69999998808,23007.5,23353.79999998212,23834.899999976158,24614.59999999404,25372.69999998808,25726.19999998808,26627.69999998808,27352.69999998808,27634.899999976158,27930.09999999404,28334.59999999404,28687.899999976158,29025.79999998212,29362.29999998212,29831.79999998212,30265.399999976158,30678.79999998212,31069.899999976158,31359.5,31744.19999998808,32181.69999998808,32559.5,32960.09999999404,33387.19999998808,33765.29999998212,34127.09999999404,34812.09999999404,36260.09999999404,36540.09999999404,36953.5,37233.69999998808,37838.19999998808,38247.5,38730.19999998808,39069.69999998808,39432.09999999404,40140,40678.19999998808,41080,41458.19999998808,41756.5,42133.89999997616,42543.39999997616,43075.59999999404,43463.19999998808,44001,44394.69999998808,44852.5,45257,45732.29999998212],"honeypot":0,"survey":"mace","page":9,"trial_type":"survey-mace","trial_index":17,"time_elapsed":403803,"internal_node_id":"0.0-17.0","task_version":"prescreen-v0.3","browser_interactions":0},{"responses":{"01":"No","02":"No","03":"Yes","03_ages_14":"14","03_ages_15":"15","03_ages_16":"16","03_ages_17":"17","03_ages_18":"18","04":"Yes","04_ages_6":"6","04_ages_7":"7","04_ages_8":"8","04_ages_9":"9","04_ages_10":"10","04_ages_11":"11","04_ages_12":"12","04_ages_13":"13","04_ages_14":"14","04_ages_15":"15","04_ages_16":"16","04_ages_17":"17","04_ages_18":"18","05":"Yes","05_ages_1":"1","05_ages_2":"2","05_ages_3":"3","05_ages_4":"4","05_ages_5":"5","05_ages_6":"6","05_ages_7":"7","05_ages_8":"8","05_ages_9":"9","05_ages_10":"10","05_ages_11":"11","05_ages_12":"12","05_ages_13":"13","05_ages_14":"14","05_ages_15":"15","05_ages_16":"16","05_ages_17":"17","05_ages_18":"18","06":"Yes","06_ages_17":"17","07":"Yes","07_ages_1":"1","07_ages_2":"2","07_ages_3":"3","07_ages_4":"4","07_ages_5":"5","07_ages_6":"6","07_ages_7":"7","07_ages_8":"8","07_ages_9":"9","07_ages_10":"10","07_ages_11":"11","07_ages_12":"12","07_ages_13":"13","07_ages_14":"14","07_ages_15":"15","07_ages_16":"16","07_ages_17":"17","07_ages_18":"18","08":"Yes","08_ages_1":"1","08_ages_2":"2","08_ages_3":"3","08_ages_4":"4","08_ages_5":"5","08_ages_6":"6","08_ages_7":"7","08_ages_8":"8","08_ages_9":"9","08_ages_10":"10","08_ages_11":"11","08_ages_12":"12","08_ages_13":"13","08_ages_14":"14","08_ages_15":"15","08_ages_16":"16","08_ages_17":"17","08_ages_18":"18"},"rt":78425.80000001192,"item_order":[0,1,2,3,4,5,6,7],"radio_events":[2561.7000000178814,3604.600000023842,4863.4000000059605,17928.90000000596,27191.80000001192,47665.60000002384,57395.90000000596,68840.10000002384],"checkbox_events":[6286.100000023842,7117.100000023842,8026.300000011921,8307.300000011921,8609.700000017881,9000,9360.40000000596,19554.70000001788,20442.30000001192,21270.80000001192,21640,22101.100000023842,22613,23459,23859.80000001192,24278.5,24639.90000000596,25432.5,25711.80000001192,26057.600000023842,41013.10000002384,41316.90000000596,43667.30000001192,44626.30000001192,45293.90000000596,45592.60000002384,45875.10000002384,48728.80000001192,49913.90000000596,50219.20000001788,51048.40000000596,51673.70000001788,51926.30000001192,52561.30000001192,53229.70000001788,53599.80000001192,54323.40000000596,54593.80000001192,55377,58902.70000001788,59191.90000000596,59641.30000001192,60069.90000000596,60481.20000001788,60977.90000000596,61282.70000001788,62049.5,62370.20000001788,62819.40000000596,63270.60000002384,63745.40000000596,64405.80000001192,65644,66601.60000002384,66891,67309.30000001192,67617.30000001192,69992.40000000596,70451,70846.60000002384,71280.40000000596,71732.5,72105.80000001192,72558.80000001192,72953.20000001788,73314.10000002384,73751.10000002384,75020.10000002384,75313.90000000596,75735.90000000596,76268.5,76674.80000001192,77104.90000000596,77823.10000002384,78102.20000001788],"key_events":[],"mouse_events":[2561.7000000178814,3604.600000023842,4863.4000000059605,6286.100000023842,6674.4000000059605,7117.100000023842,8026.300000011921,8307.300000011921,8609.700000017881,9000,9360.40000000596,17928.90000000596,19554.70000001788,19966.80000001192,20442.30000001192,20851.600000023842,21270.80000001192,21640,22101.100000023842,22613,23110.600000023842,23459,23859.80000001192,24278.5,24639.90000000596,25038.100000023842,25432.5,25711.80000001192,26057.600000023842,27191.80000001192,41013.10000002384,41316.90000000596,43667.30000001192,44262.20000001788,44626.30000001192,44905.90000000596,45293.90000000596,45592.60000002384,45875.10000002384,47665.60000002384,48728.80000001192,49599.20000001788,49913.90000000596,50219.20000001788,50525.80000001192,51048.40000000596,51338.5,51673.70000001788,51926.30000001192,52199.60000002384,52561.30000001192,52883.40000000596,53229.70000001788,53599.80000001192,54017.40000000596,54323.40000000596,54593.80000001192,54960.70000001788,55377,56659.20000001788,57079.10000002384,57395.90000000596,58490.40000000596,58902.70000001788,59191.90000000596,59641.30000001192,60069.90000000596,60481.20000001788,60977.90000000596,61282.70000001788,61734.60000002384,62049.5,62370.20000001788,62819.40000000596,63270.60000002384,63745.40000000596,64405.80000001192,65644,66209.40000000596,66601.60000002384,66891,67309.30000001192,67617.30000001192,68840.10000002384,69671.10000002384,69992.40000000596,70451,70846.60000002384,71280.40000000596,71732.5,72105.80000001192,72558.80000001192,72953.20000001788,73314.10000002384,73751.10000002384,74159.5,75020.10000002384,75313.90000000596,75735.90000000596,76268.5,76674.80000001192,77104.90000000596,77492.30000001192,77823.10000002384,78102.20000001788,78416.80000001192],"honeypot":0,"survey":"mace","page":10,"trial_type":"survey-mace","trial_index":18,"time_elapsed":482236,"internal_node_id":"0.0-18.0","task_version":"prescreen-v0.3","browser_interactions":0,"instructed":0},{"rt":4256.100000023842,"trial_type":"mental-health-alert","trial_index":19,"time_elapsed":486495,"internal_node_id":"0.0-19.0","task_version":"prescreen-v0.3","interactions":"[]"}]