[{"view_history":[{"page_index":0,"viewing_time":78434},{"page_index":1,"viewing_time":20594},{"page_index":2,"viewing_time":1198},{"page_index":3,"viewing_time":848}],"rt":101076,"trial_type":"instructions","trial_index":0,"time_elapsed":101080,"internal_node_id":"0.0-0.0","task_version":"prescreen-v0.3"},{"rt":190604,"responses":{"age":"43","gender-categorical":"Male","gender-free-response":"","ethnicity":"Not Hispanic or Latino","race":["White"],"education":"Master degree or higher"},"trial_type":"survey-demo","trial_index":1,"time_elapsed":291751,"internal_node_id":"0.0-1.0","task_version":"prescreen-v0.3"},{"responses":{"Q08":"2","Q06":"1","Q05":"2","Q13":"1","Q10":"2","Q12":"1","Q18":"2","Q03":"1","Q07":"2","Q01":"1","Q15":"2","Q09":"1","Q20":"2","Q11":"1","Q21":"2","Q17":"1","Q14":"2","Q16":"1","Q04":"2","Q19":"1","Q02":"2"},"rt":84285,"item_order":[7,5,4,12,9,11,17,2,6,0,14,8,19,10,20,16,13,15,3,18,1],"radio_events":[28363,30418,31930,32890,35691,38890,40459,43994,46403,48986,50435,52971,54442,56850,58603,60186,64394,67194,68203,79298,80162],"key_events":[],"mouse_events":[28363,30418,31930,32890,35691,36474,37210,38890,40459,42922,43994,44875,46403,48986,50435,52971,54442,55531,56850,58603,60186,64394,67194,68203,78330,79298,80162,84284],"straightlining":0.5238095238095238,"zigzagging":1,"honeypot":0,"survey":"sns","trial_type":"survey-template","trial_index":2,"time_elapsed":376049,"internal_node_id":"0.0-2.0","task_version":"prescreen-v0.3","browser_interactions":2,"infrequency":0.5},{"responses":{"Q05":"3","Q10":"2","Q07":"1","Q01":"2","Q02":"1","Q08":"2","Q11":"1","Q09":"2","Q03":"1","Q12":"2","Q04":"3","Q13":"2","Q06":"2"},"rt":146745,"item_order":[4,9,6,0,1,7,10,8,2,11,3,12,5],"radio_events":[112001,114696,117208,119360,121945,123072,123944,128969,133128,134616,138360,139609,145608],"key_events":[],"mouse_events":[111072,112001,113304,114696,117208,117992,119360,120512,121017,121945,123072,123944,128969,133128,134616,137304,138360,139609,145608,146745],"straightlining":0.5384615384615384,"zigzagging":0.9166666666666666,"honeypot":0,"survey":"bisbas","trial_type":"survey-template","trial_index":3,"time_elapsed":522798,"internal_node_id":"0.0-3.0","task_version":"prescreen-v0.3","browser_interactions":8,"infrequency":1},{"responses":{"Q01":"3","Q02":"2","Q03":"3"},"rt":74276,"radio_events":[66788,68131,69171],"key_events":[],"mouse_events":[66788,67483,68131,69171,74276],"survey":"map","page":1,"trial_type":"survey-map","trial_index":4,"time_elapsed":597077,"internal_node_id":"0.0-4.0","task_version":"prescreen-v0.3","browser_interactions":2},{"responses":{"Q04":"3","Q05":"2","Q06":"4"},"rt":203981,"radio_events":[32356,33764,37508],"key_events":[],"mouse_events":[31308,32356,33764,35364,37508,203981],"survey":"map","page":2,"trial_type":"survey-map","trial_index":5,"time_elapsed":801062,"internal_node_id":"0.0-5.0","task_version":"prescreen-v0.3","browser_interactions":8},{"responses":{"Q07":"3","Q08":"2","Q09":"3"},"rt":94348,"radio_events":[90147,91515,92323],"key_events":[],"mouse_events":[89090,90147,91515,92323,94348],"survey":"map","page":3,"trial_type":"survey-map","trial_index":6,"time_elapsed":895412,"internal_node_id":"0.0-6.0","task_version":"prescreen-v0.3","browser_interactions":2},{"responses":{"Q10":"2","Q11":"3","Q12":"2","Q13":"3","Q16":"2","Q14":"3","Q15":"2"},"rt":28229,"radio_events":[3260,4771,5620,6587,7931,9123,10540],"key_events":[],"mouse_events":[2491,3260,3907,4443,4771,5620,6587,7931,9123,10540,28229],"survey":"map","page":4,"trial_type":"survey-map","trial_index":7,"time_elapsed":923644,"internal_node_id":"0.0-7.0","task_version":"prescreen-v0.3","browser_interactions":0,"infrequency":1},{"view_history":[{"page_index":0,"viewing_time":120070},{"page_index":1,"viewing_time":663}],"rt":120734,"trial_type":"instructions","trial_index":8,"time_elapsed":1044381,"internal_node_id":"0.0-8.0","task_version":"prescreen-v0.3"},{"responses":{"01":"No","02":"Yes","02_ages_11":"11","03":"No","04":"No","05":"No","06":"No"},"rt":32096,"item_order":[0,1,2,3,4,5],"radio_events":[3199,11573,21724,23557,24629,25565],"checkbox_events":[18565],"key_events":[],"mouse_events":[0,3199,11573,18565,21724,23557,24629,25565,29997,32095],"honeypot":0,"survey":"mace","page":1,"trial_type":"survey-mace","trial_index":9,"time_elapsed":1076623,"internal_node_id":"0.0-9.0","task_version":"prescreen-v0.3","browser_interactions":4},{"responses":{"01":"Yes","01_ages_15":"15","02":"Yes","02_ages_13":"13","03":"No","04":"No","05":"No","06":"No","07":"Yes","07_ages_16":"16","08":"No"},"rt":93462,"item_order":[0,1,2,3,4,5,6,7],"radio_events":[71804,73563,76084,76588,78683,82148,83780,86780],"checkbox_events":[72788,74564,85412],"key_events":[],"mouse_events":[71804,72788,73563,74564,76084,76588,78068,78683,82148,82740,83780,85412,86780,93461],"honeypot":0,"survey":"mace","page":2,"trial_type":"survey-mace","trial_index":10,"time_elapsed":1170097,"internal_node_id":"0.0-10.0","task_version":"prescreen-v0.3","browser_interactions":2},{"responses":{"01":"No","02":"Yes","02_ages_16":"16","03":"No","04":"Yes","04_ages_14":"14"},"rt":101280,"item_order":[0,1,2,3],"radio_events":[89535,90150,94479,96447,97550],"checkbox_events":[93102,99351],"key_events":[],"mouse_events":[89126,89535,90150,92495,93102,94479,96447,97550,99351,101280],"honeypot":0,"survey":"mace","page":3,"trial_type":"survey-mace","trial_index":11,"time_elapsed":1271382,"internal_node_id":"0.0-11.0","task_version":"prescreen-v0.3","browser_interactions":4},{"responses":{"01":"Yes","01_ages_17":"17","02":"No"},"rt":129094,"item_order":[0,1],"radio_events":[125067,128394],"checkbox_events":[127282],"key_events":[],"mouse_events":[125067,127282,128394,129094],"honeypot":0,"survey":"mace","page":4,"trial_type":"survey-mace","trial_index":12,"time_elapsed":1400481,"internal_node_id":"0.0-12.0","task_version":"prescreen-v0.3","browser_interactions":4},{"responses":{"01":"Yes","01_ages_14":"14","02":"No","03":"No","04":"No","05":"No"},"rt":147676,"item_order":[0,1,2,3,4],"radio_events":[138674,141218,143954,144650,145851],"checkbox_events":[140546],"key_events":[],"mouse_events":[138674,139619,140546,141218,143954,144650,145851,147676],"honeypot":0,"survey":"mace","page":5,"trial_type":"survey-mace","trial_index":13,"time_elapsed":1548166,"internal_node_id":"0.0-13.0","task_version":"prescreen-v0.3","browser_interactions":2},{"responses":{"01":"No","02":"No","03":"No","04":"No","05":"No"},"rt":90841,"item_order":[0,1,2,3,4],"radio_events":[81464,82217,84608,85504,86592],"checkbox_events":[],"key_events":[],"mouse_events":[81464,82217,82991,84608,85504,86592,90841],"honeypot":0,"survey":"mace","page":6,"trial_type":"survey-mace","trial_index":14,"time_elapsed":1639012,"internal_node_id":"0.0-14.0","task_version":"prescreen-v0.3","browser_interactions":4},{"responses":{"01":"No","02":"No","03":"No","04":"No","05":"No","06":"No","07":"No"},"rt":201571,"item_order":[0,1,2,3,4,5,6],"radio_events":[189288,189944,190408,192224,192872,193761,194463],"checkbox_events":[],"key_events":[],"mouse_events":[189288,189944,190408,190889,192224,192872,193761,194463,201571],"honeypot":0,"survey":"mace","page":7,"trial_type":"survey-mace","trial_index":15,"time_elapsed":1840590,"internal_node_id":"0.0-15.0","task_version":"prescreen-v0.3","browser_interactions":2},{"responses":{"01":"No","02":"Yes","02_ages_12":"12","03":"No","04":"Yes","04_ages_10":"10"},"rt":101028,"item_order":[0,1,2,3],"radio_events":[91735,92726,96709,98350],"checkbox_events":[95111,99405],"key_events":[],"mouse_events":[91735,92726,94150,95111,96709,97725,98350,99405,101028],"honeypot":0,"survey":"mace","page":8,"trial_type":"survey-mace","trial_index":16,"time_elapsed":1941629,"internal_node_id":"0.0-16.0","task_version":"prescreen-v0.3","browser_interactions":2},{"responses":{"01":"No","02":"No","03":"No","04":"No"},"rt":6939,"item_order":[0,1,2,3],"radio_events":[3011,3690,4402,5602],"checkbox_events":[],"key_events":[],"mouse_events":[3011,3690,4402,5602,6939],"honeypot":0,"survey":"mace","page":9,"trial_type":"survey-mace","trial_index":17,"time_elapsed":1948588,"internal_node_id":"0.0-17.0","task_version":"prescreen-v0.3","browser_interactions":0},{"responses":{"01":"No","02":"Yes","02_ages_15":"15","03":"No","04":"No","05":"No","06":"Yes","06_ages_17":"17","07":"No","08":"No"},"rt":31474,"item_order":[0,1,2,3,4,5,6,7],"radio_events":[2535,4304,6679,8824,10703,23399,24303,28888],"checkbox_events":[3505,13047],"key_events":[],"mouse_events":[2535,3505,4304,6679,8824,10703,13047,23399,24303,25160,28888,31474],"honeypot":0,"survey":"mace","page":10,"trial_type":"survey-mace","trial_index":18,"time_elapsed":1980070,"internal_node_id":"0.0-18.0","task_version":"prescreen-v0.3","browser_interactions":0,"instructed":0},{"rt":1886,"trial_type":"mental-health-alert","trial_index":19,"time_elapsed":1981963,"internal_node_id":"0.0-19.0","task_version":"prescreen-v0.3","interactions":"[{\"event\":\"focus\",\"trial\":0,\"time\":722},{\"event\":\"blur\",\"trial\":0,\"time\":8667},{\"event\":\"focus\",\"trial\":0,\"time\":77478},{\"event\":\"blur\",\"trial\":1,\"time\":106212},{\"event\":\"focus\",\"trial\":1,\"time\":113315},{\"event\":\"blur\",\"trial\":1,\"time\":113845},{\"event\":\"focus\",\"trial\":1,\"time\":151745},{\"event\":\"blur\",\"trial\":1,\"time\":157643},{\"event\":\"focus\",\"trial\":1,\"time\":160663},{\"event\":\"blur\",\"trial\":1,\"time\":163353},{\"event\":\"focus\",\"trial\":1,\"time\":267854},{\"event\":\"blur\",\"trial\":2,\"time\":293578},{\"event\":\"focus\",\"trial\":2,\"time\":316865},{\"event\":\"blur\",\"trial\":3,\"time\":377814},{\"event\":\"focus\",\"trial\":3,\"time\":382125},{\"event\":\"blur\",\"trial\":3,\"time\":383375},{\"event\":\"focus\",\"trial\":3,\"time\":385908},{\"event\":\"blur\",\"trial\":3,\"time\":387440},{\"event\":\"focus\",\"trial\":3,\"time\":434102},{\"event\":\"blur\",\"trial\":3,\"time\":435453},{\"event\":\"focus\",\"trial\":3,\"time\":482320},{\"event\":\"blur\",\"trial\":4,\"time\":524134},{\"event\":\"focus\",\"trial\":4,\"time\":588331},{\"event\":\"blur\",\"trial\":5,\"time\":598151},{\"event\":\"focus\",\"trial\":5,\"time\":625892},{\"event\":\"blur\",\"trial\":5,\"time\":635553},{\"event\":\"focus\",\"trial\":5,\"time\":749875},{\"event\":\"blur\",\"trial\":5,\"time\":750951},{\"event\":\"focus\",\"trial\":5,\"time\":752731},{\"event\":\"blur\",\"trial\":5,\"time\":753787},{\"event\":\"focus\",\"trial\":5,\"time\":796532},{\"event\":\"blur\",\"trial\":6,\"time\":803174},{\"event\":\"focus\",\"trial\":6,\"time\":888985},{\"event\":\"blur\",\"trial\":8,\"time\":925500},{\"event\":\"focus\",\"trial\":8,\"time\":926142},{\"event\":\"blur\",\"trial\":8,\"time\":926934},{\"event\":\"focus\",\"trial\":8,\"time\":1033284},{\"event\":\"blur\",\"trial\":8,\"time\":1034261},{\"event\":\"focus\",\"trial\":8,\"time\":1042731},{\"event\":\"blur\",\"trial\":9,\"time\":1049839},{\"event\":\"focus\",\"trial\":9,\"time\":1056033},{\"event\":\"blur\",\"trial\":9,\"time\":1071623},{\"event\":\"focus\",\"trial\":9,\"time\":1074464},{\"event\":\"blur\",\"trial\":10,\"time\":1078736},{\"event\":\"focus\",\"trial\":10,\"time\":1144927},{\"event\":\"blur\",\"trial\":11,\"time\":1172684},{\"event\":\"focus\",\"trial\":11,\"time\":1231924},{\"event\":\"blur\",\"trial\":11,\"time\":1232806},{\"event\":\"focus\",\"trial\":11,\"time\":1255485},{\"event\":\"blur\",\"trial\":12,\"time\":1272317},{\"event\":\"focus\",\"trial\":12,\"time\":1280966},{\"event\":\"blur\",\"trial\":12,\"time\":1281192},{\"event\":\"focus\",\"trial\":12,\"time\":1394582},{\"event\":\"blur\",\"trial\":13,\"time\":1401917},{\"event\":\"focus\",\"trial\":13,\"time\":1538074},{\"event\":\"blur\",\"trial\":14,\"time\":1549192},{\"event\":\"focus\",\"trial\":14,\"time\":1594220},{\"event\":\"blur\",\"trial\":14,\"time\":1595213},{\"event\":\"focus\",\"trial\":14,\"time\":1627616},{\"event\":\"blur\",\"trial\":15,\"time\":1641161},{\"event\":\"focus\",\"trial\":15,\"time\":1826643},{\"event\":\"blur\",\"trial\":16,\"time\":1842076},{\"event\":\"focus\",\"trial\":16,\"time\":1926165}]"}]