[{"view_history":[{"page_index":0,"viewing_time":2793.800000011921},{"page_index":1,"viewing_time":1304.4000000357628},{"page_index":2,"viewing_time":2682.5},{"page_index":3,"viewing_time":1036.3999999761581}],"rt":7817.900000035763,"trial_type":"instructions","trial_index":0,"time_elapsed":7835,"internal_node_id":"0.0-0.0","task_version":"prescreen-v0.3"},{"rt":11857,"responses":{"age":"22","gender-categorical":"Female","gender-free-response":"","ethnicity":"Not Hispanic or Latino","race":["Asian","White"],"education":"Bachelor degree"},"trial_type":"survey-demo","trial_index":1,"time_elapsed":19698,"internal_node_id":"0.0-1.0","task_version":"prescreen-v0.3"},{"responses":{"Q07":"0","Q17":"0","Q13":"1","Q03":"0","Q21":"3","Q18":"1","Q04":"1","Q12":"0","Q20":"0","Q01":"1","Q16":"2","Q05":"1","Q19":"0","Q09":"1","Q02":"0","Q15":"1","Q14":"2","Q06":"0","Q08":"2","Q10":"0","Q11":"1"},"rt":124006.29999995232,"item_order":[6,16,12,2,20,17,3,11,19,0,15,4,18,8,1,14,13,5,7,9,10],"radio_events":[8915.599999964237,12215.699999988079,43661.69999998808,45686.799999952316,50267.09999996424,58163.5,60799.5,66350.09999996424,67093.89999997616,71604.39999997616,74626.59999996424,76715.89999997616,80308.5,91907.69999998808,96744.19999998808,100170.09999996424,104274.39999997616,109117.19999998808,111635,115614.69999998808,118400,121502.39999997616,123385.39999997616],"key_events":[],"mouse_events":[8915.599999964237,12215.699999988079,16788.299999952316,43661.69999998808,45686.799999952316,50267.09999996424,57325.89999997616,58163.5,60799.5,66350.09999996424,67093.89999997616,71604.39999997616,74626.59999996424,76715.89999997616,79912.89999997616,80308.5,90878.59999996424,91361.5,91907.69999998808,96744.19999998808,100170.09999996424,104274.39999997616,109117.19999998808,111635,115614.69999998808,118400,121502.39999997616,123385.39999997616,124002],"straightlining":0.42857142857142855,"zigzagging":0.65,"honeypot":0,"survey":"sns","trial_type":"survey-template","trial_index":2,"time_elapsed":143717,"internal_node_id":"0.0-2.0","task_version":"prescreen-v0.3","browser_interactions":2,"infrequency":0},{"responses":{"Q11":"2","Q13":"0","Q06":"3","Q05":"1","Q12":"2","Q10":"1","Q02":"2","Q01":"2","Q07":"3","Q03":"3","Q09":"2","Q08":"3","Q04":"2"},"rt":48317,"item_order":[10,12,5,4,11,9,1,0,6,2,8,7,3],"radio_events":[8829.800000011921,11030.200000047684,15389.400000035763,20128.5,24093.700000047684,25858.200000047684,27235.30000001192,29601.400000035763,32268.700000047684,33835.200000047684,37593.700000047684,42531.5,46796.40000003576],"key_events":[],"mouse_events":[7832.900000035763,8829.800000011921,11030.200000047684,15389.400000035763,16909.100000023842,20128.5,24093.700000047684,25360.200000047684,25858.200000047684,27235.30000001192,29230.200000047684,29601.400000035763,32268.700000047684,33835.200000047684,37593.700000047684,42531.5,43077.5,46796.40000003576,48314.5],"straightlining":0.46153846153846156,"zigzagging":0.6666666666666666,"honeypot":0,"survey":"bisbas","trial_type":"survey-template","trial_index":3,"time_elapsed":192041,"internal_node_id":"0.0-3.0","task_version":"prescreen-v0.3","browser_interactions":0,"infrequency":0},{"responses":{"Q01":"4","Q02":"3","Q03":"4"},"rt":13719.899999976158,"radio_events":[6816.899999976158,10933.299999952316,13267.099999964237],"key_events":[],"mouse_events":[6816.899999976158,10933.299999952316,13267.099999964237,13718.699999988079],"survey":"map","page":1,"trial_type":"survey-map","trial_index":4,"time_elapsed":205768,"internal_node_id":"0.0-4.0","task_version":"prescreen-v0.3","browser_interactions":0},{"responses":{"Q04":"3","Q05":"2","Q06":"3"},"rt":9322,"radio_events":[4636.300000011921,6904.100000023842,8918.199999988079],"key_events":[],"mouse_events":[4636.300000011921,6904.100000023842,8918.199999988079,9321.300000011921],"survey":"map","page":2,"trial_type":"survey-map","trial_index":5,"time_elapsed":215097,"internal_node_id":"0.0-5.0","task_version":"prescreen-v0.3","browser_interactions":0},{"responses":{"Q07":"3","Q08":"3","Q09":"4"},"rt":11011.600000023842,"radio_events":[3771.199999988079,7711.300000011921,9752.900000035763],"key_events":[],"mouse_events":[3771.199999988079,7711.300000011921,9752.900000035763,10172.5,10488.699999988079,11010.5],"survey":"map","page":3,"trial_type":"survey-map","trial_index":6,"time_elapsed":226112,"internal_node_id":"0.0-6.0","task_version":"prescreen-v0.3","browser_interactions":0},{"responses":{"Q10":"2","Q11":"3","Q12":"1","Q13":"2","Q16":"0","Q14":"2","Q15":"2"},"rt":32739.19999998808,"radio_events":[5690.800000011921,8262.400000035763,12465.5,14270.100000023842,18131.100000023842,21946.19999998808,30387.80000001192,32104.80000001192],"key_events":[],"mouse_events":[5690.800000011921,8262.400000035763,12465.5,14270.100000023842,18131.100000023842,21946.19999998808,30387.80000001192,32104.80000001192,32737.100000023842],"survey":"map","page":4,"trial_type":"survey-map","trial_index":7,"time_elapsed":258858,"internal_node_id":"0.0-7.0","task_version":"prescreen-v0.3","browser_interactions":0,"infrequency":0},{"view_history":[{"page_index":0,"viewing_time":2444.900000035763},{"page_index":1,"viewing_time":1305.8999999761581}],"rt":3751.199999988079,"trial_type":"instructions","trial_index":8,"time_elapsed":262614,"internal_node_id":"0.0-8.0","task_version":"prescreen-v0.3"},{"responses":{"01":"Yes","01_ages_11":"11","01_ages_12":"12","01_ages_13":"13","01_ages_14":"14","01_ages_15":"15","01_ages_16":"16","01_ages_17":"17","01_ages_18":"18","02":"Yes","02_ages_4":"4","02_ages_5":"5","02_ages_6":"6","02_ages_7":"7","02_ages_8":"8","02_ages_9":"9","02_ages_10":"10","02_ages_11":"11","02_ages_12":"12","02_ages_13":"13","02_ages_14":"14","02_ages_15":"15","02_ages_16":"16","02_ages_17":"17","02_ages_18":"18","03":"No","04":"Yes","04_ages_6":"6","04_ages_7":"7","04_ages_8":"8","04_ages_9":"9","04_ages_10":"10","04_ages_11":"11","04_ages_12":"12","04_ages_13":"13","04_ages_14":"14","04_ages_15":"15","04_ages_16":"16","04_ages_17":"17","04_ages_18":"18","05":"Yes","05_ages_5":"5","05_ages_6":"6","05_ages_7":"7","05_ages_8":"8","06":"No"},"rt":66012.29999995232,"item_order":[0,1,2,3,4,5],"radio_events":[7670.799999952316,28212.19999998808,45446.5,46150.59999996424,60086.5,65585.5],"checkbox_events":[14175.399999976158,15441.299999952316,15741.599999964237,16446.69999998808,16904.099999964237,17561.799999952316,18259,18701.799999952316,19096.899999976158,19809.299999952316,21122,21613.299999952316,22199.19999998808,22745.099999964237,23196.599999964237,23774.299999952316,31964.099999964237,32437.5,32857.59999996424,33395.59999996424,33783.299999952316,34281.69999998808,34622.799999952316,35452.799999952316,37067.09999996424,37423.299999952316,37904.89999997616,38586.19999998808,38998,39455.89999997616,39916.19999998808,50154.19999998808,50733.19999998808,51200.39999997616,52797.59999996424,53217.59999996424,53581.19999998808,53969.19999998808,54673.69999998808,55006.19999998808,55544.19999998808,55900.299999952316,56407.09999996424,56747.299999952316,61391.59999996424,61827.299999952316,62317.19999998808,63148.799999952316],"key_events":[],"mouse_events":[0.09999996423721313,7670.799999952316,13550.399999976158,14175.399999976158,14570.799999952316,15093.399999976158,15441.299999952316,15741.599999964237,16446.69999998808,16904.099999964237,17561.799999952316,18259,18701.799999952316,19096.899999976158,19809.299999952316,21122,21613.299999952316,22199.19999998808,22745.099999964237,23196.599999964237,23774.299999952316,27626.69999998808,28212.19999998808,31964.099999964237,32437.5,32857.59999996424,33395.59999996424,33783.299999952316,34281.69999998808,34622.799999952316,34993.89999997616,35452.799999952316,36046.299999952316,36694.799999952316,37067.09999996424,37423.299999952316,37904.89999997616,38586.19999998808,38998,39455.89999997616,39916.19999998808,44204.59999996424,44821.59999996424,45446.5,46150.59999996424,50154.19999998808,50733.19999998808,51200.39999997616,51564.5,52797.59999996424,53217.59999996424,53581.19999998808,53969.19999998808,54673.69999998808,55006.19999998808,55544.19999998808,55900.299999952316,56407.09999996424,56747.299999952316,60086.5,61391.59999996424,61827.299999952316,62317.19999998808,63148.799999952316,65585.5,66005.79999995232],"honeypot":0,"survey":"mace","page":1,"trial_type":"survey-mace","trial_index":9,"time_elapsed":328636,"internal_node_id":"0.0-9.0","task_version":"prescreen-v0.3","browser_interactions":0},{"responses":{"01":"No","02":"No","03":"Yes","03_ages_4":"4","03_ages_5":"5","03_ages_6":"6","03_ages_7":"7","04":"No","05":"No","06":"No","07":"No","08":"No"},"rt":14507,"item_order":[0,1,2,3,4,5,6,7],"radio_events":[2138.900000035763,3823,4543.5,9251.700000047684,10731.200000047684,11989.800000011921,13548.600000023842,13967.100000023842],"checkbox_events":[6411.400000035763,6846.900000035763,7202.400000035763,7835.600000023842],"key_events":[],"mouse_events":[2138.900000035763,3823,4543.5,5912.800000011921,6411.400000035763,6846.900000035763,7202.400000035763,7835.600000023842,9251.700000047684,10731.200000047684,11989.800000011921,13034.200000047684,13548.600000023842,13967.100000023842,14498.400000035763],"honeypot":0,"survey":"mace","page":2,"trial_type":"survey-mace","trial_index":10,"time_elapsed":343150,"internal_node_id":"0.0-10.0","task_version":"prescreen-v0.3","browser_interactions":0},{"responses":{"01":"Yes","01_ages_11":"11","01_ages_12":"12","01_ages_13":"13","02":"No","03":"No","04":"No"},"rt":10403.399999976158,"item_order":[0,1,2,3],"radio_events":[4178,8221.399999976158,8871.300000011921,9503.600000023842],"checkbox_events":[6323.399999976158,6616.699999988079,6932.800000011921],"key_events":[],"mouse_events":[4178,6323.399999976158,6616.699999988079,6932.800000011921,8221.399999976158,8871.300000011921,9503.600000023842,10398.899999976158],"honeypot":0,"survey":"mace","page":3,"trial_type":"survey-mace","trial_index":11,"time_elapsed":353560,"internal_node_id":"0.0-11.0","task_version":"prescreen-v0.3","browser_interactions":0},{"responses":{"01":"No","02":"No"},"rt":4604.100000023842,"item_order":[0,1],"radio_events":[2956.2000000476837,3612.7000000476837],"checkbox_events":[],"key_events":[],"mouse_events":[2956.2000000476837,3612.7000000476837,4602],"honeypot":0,"survey":"mace","page":4,"trial_type":"survey-mace","trial_index":12,"time_elapsed":358169,"internal_node_id":"0.0-12.0","task_version":"prescreen-v0.3","browser_interactions":0},{"responses":{"01":"No","02":"No","03":"No","04":"No","05":"No"},"rt":16423.700000047684,"item_order":[0,1,2,3,4],"radio_events":[4367.700000047684,8664.900000035763,11204,13626,15690.400000035763],"checkbox_events":[],"key_events":[],"mouse_events":[4367.700000047684,6843.900000035763,8664.900000035763,10808,11204,13626,15690.400000035763,16418.5],"honeypot":0,"survey":"mace","page":5,"trial_type":"survey-mace","trial_index":13,"time_elapsed":374600,"internal_node_id":"0.0-13.0","task_version":"prescreen-v0.3","browser_interactions":0},{"responses":{"01":"No","02":"Yes","02_ages_7":"7","02_ages_8":"8","02_ages_9":"9","02_ages_10":"10","02_ages_11":"11","02_ages_12":"12","03":"Yes","03_ages_13":"13","03_ages_14":"14","03_ages_15":"15","03_ages_16":"16","03_ages_17":"17","04":"No","05":"No"},"rt":28896,"item_order":[0,1,2,3,4],"radio_events":[4672.5,12558.299999952316,14504.099999964237,22085.799999952316,26905.599999964237,28535.19999998808],"checkbox_events":[16261.399999976158,16712.399999976158,17163.099999964237,17511.099999964237,17922.899999976158,18516.69999998808,23043.19999998808,23360.299999952316,23731.799999952316,24048.599999964237,25076.799999952316],"key_events":[],"mouse_events":[4672.5,12558.299999952316,14504.099999964237,16261.399999976158,16712.399999976158,17163.099999964237,17511.099999964237,17922.899999976158,18516.69999998808,20597.19999998808,21413.399999976158,22085.799999952316,23043.19999998808,23360.299999952316,23731.799999952316,24048.599999964237,25076.799999952316,26905.599999964237,28020.19999998808,28535.19999998808,28891.099999964237],"honeypot":0,"survey":"mace","page":6,"trial_type":"survey-mace","trial_index":14,"time_elapsed":403503,"internal_node_id":"0.0-14.0","task_version":"prescreen-v0.3","browser_interactions":0},{"responses":{"01":"No","02":"Yes","02_ages_16":"16","02_ages_17":"17","02_ages_18":"18","03":"No","04":"No","05":"No","06":"No","07":"No"},"rt":14080.5,"item_order":[0,1,2,3,4,5,6],"radio_events":[1879.199999988079,3960.699999988079,7418.600000023842,8107.199999988079,9943.100000023842,10931.699999988079,13021],"checkbox_events":[4910.300000011921,5662.600000023842,6026.199999988079],"key_events":[],"mouse_events":[1879.199999988079,3462.100000023842,3960.699999988079,4910.300000011921,5377.699999988079,5662.600000023842,6026.199999988079,7418.600000023842,8107.199999988079,8955,9571.399999976158,9943.100000023842,10409.899999976158,10931.699999988079,11786.800000011921,12221.800000011921,13021,13361,14073.600000023842],"honeypot":0,"survey":"mace","page":7,"trial_type":"survey-mace","trial_index":15,"time_elapsed":417591,"internal_node_id":"0.0-15.0","task_version":"prescreen-v0.3","browser_interactions":0},{"responses":{"01":"Yes","01_ages_5":"5","01_ages_6":"6","01_ages_7":"7","01_ages_8":"8","01_ages_9":"9","01_ages_10":"10","01_ages_11":"11","01_ages_12":"12","01_ages_13":"13","01_ages_14":"14","01_ages_15":"15","01_ages_16":"16","01_ages_17":"17","01_ages_18":"18","02":"Yes","02_ages_6":"6","02_ages_7":"7","02_ages_8":"8","02_ages_9":"9","02_ages_10":"10","02_ages_17":"17","02_ages_18":"18","03":"Yes","03_ages_1":"1","03_ages_2":"2","03_ages_3":"3","03_ages_4":"4","03_ages_5":"5","03_ages_6":"6","03_ages_7":"7","03_ages_8":"8","03_ages_9":"9","03_ages_10":"10","03_ages_11":"11","03_ages_12":"12","03_ages_13":"13","03_ages_14":"14","03_ages_15":"15","03_ages_16":"16","03_ages_17":"17","03_ages_18":"18","04":"Yes","04_ages_16":"16","04_ages_17":"17","04_ages_18":"18"},"rt":46066.5,"item_order":[0,1,2,3],"radio_events":[10342,23714.600000023842,30140.899999976158,43340.10000002384],"checkbox_events":[14045.399999976158,14361.699999988079,14758.5,15223.800000011921,15659.800000011921,16220.600000023842,16664.69999998808,17012.5,17773,18199.19999998808,18667,19464.899999976158,19925.5,20250.19999998808,24538.100000023842,25164.100000023842,25606.600000023842,25915.19999998808,26421.100000023842,27418.69999998808,27744.30000001192,31003.80000001192,31351.899999976158,31881.399999976158,32341.100000023842,32665.69999998808,33456.19999998808,33742,35720,36036.30000001192,36764.89999997616,37080.89999997616,37428.30000001192,38094.5,38416.89999997616,39392.30000001192,39716.5,40135.39999997616,40610.89999997616,44258,44899.19999998808,45192.5],"key_events":[],"mouse_events":[10342,14045.399999976158,14361.699999988079,14758.5,15223.800000011921,15659.800000011921,16220.600000023842,16664.69999998808,17012.5,17463.69999998808,17773,18199.19999998808,18667,19117.5,19464.899999976158,19925.5,20250.19999998808,23714.600000023842,24538.100000023842,25164.100000023842,25606.600000023842,25915.19999998808,26421.100000023842,27418.69999998808,27744.30000001192,29666,30140.899999976158,31003.80000001192,31351.899999976158,31881.399999976158,32341.100000023842,32665.69999998808,33456.19999998808,33742,34176.60000002384,35720,36036.30000001192,36463.10000002384,36764.89999997616,37080.89999997616,37428.30000001192,38094.5,38416.89999997616,38925.10000002384,39392.30000001192,39716.5,40135.39999997616,40610.89999997616,43340.10000002384,44258,44551.10000002384,44899.19999998808,45192.5,46062.60000002384],"honeypot":0,"survey":"mace","page":8,"trial_type":"survey-mace","trial_index":16,"time_elapsed":463665,"internal_node_id":"0.0-16.0","task_version":"prescreen-v0.3","browser_interactions":0},{"responses":{"01":"Yes","01_ages_1":"1","01_ages_2":"2","01_ages_3":"3","01_ages_4":"4","01_ages_5":"5","01_ages_6":"6","01_ages_7":"7","01_ages_8":"8","01_ages_9":"9","01_ages_10":"10","02":"No","03":"Yes","03_ages_1":"1","03_ages_2":"2","03_ages_3":"3","03_ages_4":"4","03_ages_5":"5","03_ages_6":"6","03_ages_7":"7","03_ages_8":"8","03_ages_9":"9","03_ages_10":"10","03_ages_11":"11","03_ages_12":"12","03_ages_13":"13","03_ages_14":"14","03_ages_15":"15","03_ages_16":"16","03_ages_17":"17","03_ages_18":"18","04":"Yes","04_ages_1":"1","04_ages_2":"2","04_ages_3":"3","04_ages_4":"4","04_ages_5":"5","04_ages_6":"6","04_ages_7":"7","04_ages_8":"8","04_ages_9":"9","04_ages_10":"10","04_ages_11":"11","04_ages_12":"12","04_ages_13":"13","04_ages_14":"14","04_ages_15":"15","04_ages_16":"16","04_ages_17":"17","04_ages_18":"18"},"rt":42306.10000002384,"item_order":[0,1,2,3],"radio_events":[6708.100000023842,17516.600000023842,20080.30000001192,31643],"checkbox_events":[8426,8805.100000023842,9302.900000035763,9683.300000011921,10182.400000035763,10545.300000011921,11036.900000035763,11455.400000035763,11962.300000011921,12349.700000047684,20951.600000023842,21260,21608.100000023842,21987.900000035763,22335.5,22794.900000035763,23395.80000001192,23855,24591.700000047684,25010.900000035763,25359.100000023842,25722.900000035763,26213.700000047684,26617.400000035763,26973.80000001192,27693.400000035763,27994.30000001192,28468.600000023842,32770.5,33098.5,33849.700000047684,34151.10000002384,34475.200000047684,34958.200000047684,35589.700000047684,36248.90000003576,36762.700000047684,37426.90000003576,37861.30000001192,38550.700000047684,38930.80000001192,39540.10000002384,39912.30000001192,40488.90000003576,40988.30000001192,41256.80000001192],"key_events":[],"mouse_events":[6708.100000023842,8426,8805.100000023842,9302.900000035763,9683.300000011921,10182.400000035763,10545.300000011921,11036.900000035763,11455.400000035763,11962.300000011921,12349.700000047684,17516.600000023842,19653.5,20080.30000001192,20951.600000023842,21260,21608.100000023842,21987.900000035763,22335.5,22794.900000035763,23395.80000001192,23855,24298.700000047684,24591.700000047684,25010.900000035763,25359.100000023842,25722.900000035763,26213.700000047684,26617.400000035763,26973.80000001192,27693.400000035763,27994.30000001192,28468.600000023842,31136,31643,32770.5,33098.5,33573.40000003576,33849.700000047684,34151.10000002384,34475.200000047684,34958.200000047684,35306.60000002384,35589.700000047684,36248.90000003576,36762.700000047684,37426.90000003576,37861.30000001192,38550.700000047684,38930.80000001192,39540.10000002384,39912.30000001192,40488.90000003576,40988.30000001192,41256.80000001192,42302],"honeypot":0,"survey":"mace","page":9,"trial_type":"survey-mace","trial_index":17,"time_elapsed":505978,"internal_node_id":"0.0-17.0","task_version":"prescreen-v0.3","browser_interactions":0},{"responses":{"01":"No","02":"No","03":"No","04":"No","05":"No","06":"Yes","06_ages_17":"17","07":"Yes","07_ages_1":"1","07_ages_2":"2","07_ages_3":"3","07_ages_4":"4","07_ages_5":"5","07_ages_6":"6","07_ages_7":"7","07_ages_8":"8","07_ages_9":"9","07_ages_10":"10","07_ages_11":"11","07_ages_12":"12","07_ages_13":"13","07_ages_14":"14","07_ages_15":"15","07_ages_16":"16","07_ages_17":"17","07_ages_18":"18","08":"Yes","08_ages_1":"1","08_ages_2":"2","08_ages_3":"3","08_ages_4":"4","08_ages_5":"5","08_ages_6":"6","08_ages_7":"7","08_ages_17":"17","08_ages_18":"18"},"rt":36453.200000047684,"item_order":[0,1,2,3,4,5,6,7],"radio_events":[1990.2000000476837,4673.400000035763,5179,6105.300000011921,8669.100000023842,9389,13741.600000023842,29726.100000023842],"checkbox_events":[10774.400000035763,16337,16700.80000001192,17777.700000047684,18086.200000047684,18623.30000001192,19060.100000023842,20230.80000001192,20665.700000047684,21085.400000035763,21584,22026.900000035763,22794.900000035763,23459.400000035763,23901.700000047684,25002.600000023842,25326.80000001192,26237.400000035763,26609.100000023842,31998.5,32378.200000047684,32860.200000047684,33272.40000003576,33620,34395.80000001192,34806.5,35669.80000001192,36026.5],"key_events":[],"mouse_events":[1990.2000000476837,3984.300000011921,4673.400000035763,5179,6105.300000011921,6832.200000047684,8669.100000023842,9389,10774.400000035763,13741.600000023842,16337,16700.80000001192,17159.700000047684,17777.700000047684,18086.200000047684,18623.30000001192,19060.100000023842,19525.5,20230.80000001192,20665.700000047684,21085.400000035763,21584,22026.900000035763,22794.900000035763,23459.400000035763,23901.700000047684,24488.100000023842,25002.600000023842,25326.80000001192,25984.100000023842,26237.400000035763,26609.100000023842,29203.700000047684,29726.100000023842,31998.5,32378.200000047684,32860.200000047684,33272.40000003576,33620,33976.5,34395.80000001192,34806.5,35669.80000001192,36026.5,36445.30000001192],"honeypot":0,"survey":"mace","page":10,"trial_type":"survey-mace","trial_index":18,"time_elapsed":542439,"internal_node_id":"0.0-18.0","task_version":"prescreen-v0.3","browser_interactions":0,"instructed":0},{"rt":2210.5,"trial_type":"mental-health-alert","trial_index":19,"time_elapsed":544653,"internal_node_id":"0.0-19.0","task_version":"prescreen-v0.3","interactions":"[{\"event\":\"blur\",\"trial\":2,\"time\":37281},{\"event\":\"focus\",\"trial\":2,\"time\":62350}]"}]