[{"view_history":[{"page_index":0,"viewing_time":2400.699999809265},{"page_index":1,"viewing_time":4319.700000286102},{"page_index":2,"viewing_time":2902.7999997138977},{"page_index":3,"viewing_time":922.3000001907349}],"rt":10546.299999713898,"trial_type":"instructions","trial_index":0,"time_elapsed":10577,"internal_node_id":"0.0-0.0","task_version":"prescreen-v0.3"},{"rt":21469.300000190735,"responses":{"age":"28","gender-categorical":"Male","gender-free-response":"","ethnicity":"Hispanic or Latino","race":["Rather not say"],"education":"Some college"},"trial_type":"survey-demo","trial_index":1,"time_elapsed":32050,"internal_node_id":"0.0-1.0","task_version":"prescreen-v0.3"},{"responses":{"Q07":"1","Q19":"0","Q16":"2","Q20":"0","Q18":"1","Q03":"1","Q17":"1","Q04":"0","Q13":"2","Q14":"2","Q09":"1","Q21":"3","Q08":"2","Q01":"1","Q11":"1","Q02":"1","Q15":"2","Q06":"1","Q12":"1","Q10":"1","Q05":"1"},"rt":165411,"item_order":[6,18,15,19,17,2,16,3,12,13,8,20,7,0,10,1,14,5,11,9,4],"radio_events":[18827.799999713898,31555.099999904633,34390.199999809265,39835.59999990463,43435.40000009537,45707.90000009537,53988.199999809265,56245.699999809265,61682.7999997139,77905.59999990463,81175.69999980927,84543.2999997139,89290.59999990463,95816,99820.90000009537,103488.2999997139,107493.5,110755.69999980927,137403.59999990463,147813.7999997139,153033.7999997139,157804,164427],"key_events":[],"mouse_events":[18827.799999713898,31555.099999904633,34390.199999809265,39835.59999990463,43435.40000009537,45707.90000009537,53358,53988.199999809265,56245.699999809265,61682.7999997139,77905.59999990463,81175.69999980927,84543.2999997139,89290.59999990463,95816,99820.90000009537,103488.2999997139,107493.5,110755.69999980927,137403.59999990463,147813.7999997139,153033.7999997139,157804,164427,165409.09999990463],"straightlining":0.5714285714285714,"zigzagging":0.4,"honeypot":0,"survey":"sns","trial_type":"survey-template","trial_index":2,"time_elapsed":197467,"internal_node_id":"0.0-2.0","task_version":"prescreen-v0.3","browser_interactions":0,"infrequency":0},{"responses":{"Q01":"2","Q02":"1","Q04":"2","Q11":"2","Q13":"0","Q10":"2","Q06":"2","Q05":"3","Q07":"3","Q03":"2","Q12":"1","Q08":"2","Q09":"2"},"rt":83651,"item_order":[0,1,3,10,12,9,5,4,6,2,11,7,8],"radio_events":[8904.199999809265,12669.299999713898,18227,24729.39999961853,30009.39999961853,34734.89999961853,39714.7999997139,44935,47724.699999809265,59192.2999997139,70675,75602.39999961853,79510.69999980927],"key_events":[],"mouse_events":[8904.199999809265,12669.299999713898,18227,24729.39999961853,30009.39999961853,34734.89999961853,39714.7999997139,44935,47724.699999809265,59192.2999997139,70675,75602.39999961853,79510.69999980927,83650.09999990463],"straightlining":0.6153846153846154,"zigzagging":0.5,"honeypot":0,"survey":"bisbas","trial_type":"survey-template","trial_index":3,"time_elapsed":281120,"internal_node_id":"0.0-3.0","task_version":"prescreen-v0.3","browser_interactions":0,"infrequency":0},{"responses":{"Q01":"2","Q02":"2","Q03":"2"},"rt":32067,"radio_events":[14269.10000038147,21648.700000286102,30979],"key_events":[],"mouse_events":[14269.10000038147,21648.700000286102,30528.900000095367,30979,32066.400000095367],"survey":"map","page":1,"trial_type":"survey-map","trial_index":4,"time_elapsed":313190,"internal_node_id":"0.0-4.0","task_version":"prescreen-v0.3","browser_interactions":0},{"responses":{"Q04":"1","Q05":"2","Q06":"2"},"rt":22603.39999961853,"radio_events":[5839.89999961853,16955.099999904633,21117.599999904633],"key_events":[],"mouse_events":[5839.89999961853,16955.099999904633,21117.599999904633,22602.699999809265],"survey":"map","page":2,"trial_type":"survey-map","trial_index":5,"time_elapsed":335796,"internal_node_id":"0.0-5.0","task_version":"prescreen-v0.3","browser_interactions":0},{"responses":{"Q07":"2","Q08":"2","Q09":"2"},"rt":72921.5,"radio_events":[56698.40000009537,69215.69999980927,72021.09999990463],"key_events":[],"mouse_events":[56698.40000009537,69215.69999980927,71616.2999997139,72021.09999990463,72920.90000009537],"survey":"map","page":3,"trial_type":"survey-map","trial_index":6,"time_elapsed":408718,"internal_node_id":"0.0-6.0","task_version":"prescreen-v0.3","browser_interactions":2},{"responses":{"Q10":"2","Q11":"3","Q12":"1","Q13":"2","Q16":"0","Q14":"3","Q15":"3"},"rt":117742.19999980927,"radio_events":[44668,50083,57620.59999990463,61490.39999961853,62638.199999809265,73108.19999980927,73288.19999980927,85993.5,114591.19999980927,116909],"key_events":[],"mouse_events":[44668,50083,55100.5,55685.59999990463,56406.5,57620.59999990463,61490.39999961853,62638.199999809265,73108.19999980927,73288.19999980927,85993.5,86878.5,104623.69999980927,106678.59999990463,114591.19999980927,116909,117321.09999990463,117741.39999961853],"survey":"map","page":4,"trial_type":"survey-map","trial_index":7,"time_elapsed":526462,"internal_node_id":"0.0-7.0","task_version":"prescreen-v0.3","browser_interactions":2,"infrequency":0},{"view_history":[{"page_index":0,"viewing_time":4054.699999809265},{"page_index":1,"viewing_time":33877.800000190735}],"rt":37933.5,"trial_type":"instructions","trial_index":8,"time_elapsed":564397,"internal_node_id":"0.0-8.0","task_version":"prescreen-v0.3"},{"responses":{"01":"Yes","01_ages_8":"8","01_ages_9":"9","01_ages_10":"10","01_ages_11":"11","01_ages_12":"12","01_ages_13":"13","01_ages_14":"14","01_ages_15":"15","01_ages_16":"16","01_ages_17":"17","01_ages_18":"18","02":"Yes","02_ages_7":"7","02_ages_8":"8","02_ages_9":"9","02_ages_10":"10","02_ages_11":"11","02_ages_12":"12","02_ages_13":"13","02_ages_14":"14","02_ages_15":"15","02_ages_16":"16","02_ages_17":"17","02_ages_18":"18","03":"Yes","03_ages_11":"11","03_ages_12":"12","03_ages_13":"13","03_ages_14":"14","03_ages_15":"15","03_ages_16":"16","03_ages_17":"17","03_ages_18":"18","04":"No","05":"No","06":"Yes","06_ages_16":"16","06_ages_17":"17"},"rt":75012.69999980927,"item_order":[0,1,2,3,4,5],"radio_events":[11499.5,33744.699999809265,47649.699999809265,61607.39999961853,64007.2999997139,67473],"checkbox_events":[15954.699999809265,16351.799999713898,16914.39999961853,17432.299999713898,17814.5,18219.199999809265,19074.599999904633,20221.799999713898,20657.199999809265,21054.299999713898,21797.099999904633,22524.599999904633,28119.5,37412,37779.699999809265,38432.199999809265,38964.59999990463,39347.39999961853,40607.09999990463,41034.7999997139,41620,42317.199999809265,43127.39999961853,43734.699999809265,44192.09999990463,50709.89999961853,52599.89999961853,53837.39999961853,54310.09999990463,54692.5,55187.39999961853,56042.7999997139,56514.699999809265,68777.39999961853,73510],"key_events":[],"mouse_events":[0.19999980926513672,11499.5,15954.699999809265,16351.799999713898,16914.39999961853,17432.299999713898,17814.5,18219.199999809265,19074.599999904633,20221.799999713898,20657.199999809265,21054.299999713898,21490.5,21797.099999904633,22524.599999904633,28119.5,33744.699999809265,37412,37779.699999809265,38432.199999809265,38964.59999990463,39347.39999961853,40006.89999961853,40607.09999990463,41034.7999997139,41620,42317.199999809265,43127.39999961853,43734.699999809265,44192.09999990463,47649.699999809265,50709.89999961853,52599.89999961853,53837.39999961853,54310.09999990463,54692.5,55187.39999961853,56042.7999997139,56514.699999809265,61607.39999961853,64007.2999997139,67473,68777.39999961853,73510,75010.39999961853],"honeypot":0,"survey":"mace","page":1,"trial_type":"survey-mace","trial_index":9,"time_elapsed":639416,"internal_node_id":"0.0-9.0","task_version":"prescreen-v0.3","browser_interactions":0},{"responses":{"01":"Yes","01_ages_16":"16","02":"No","03":"Yes","03_ages_5":"5","03_ages_6":"6","03_ages_7":"7","04":"No","05":"Yes","05_ages_5":"5","05_ages_6":"6","05_ages_7":"7","06":"No","07":"No","08":"No"},"rt":62480.7000002861,"item_order":[0,1,2,3,4,5,6,7],"radio_events":[11221,16628.400000095367,20198.200000286102,22763.5,37148.7000002861,40793.60000038147,55478.800000190735,58561.40000009537,61936.5],"checkbox_events":[12510.900000095367,25396.10000038147,26483.400000095367,27758.300000190735,28171.60000038147,28995.900000095367,42368.60000038147,43216.300000190735,52283.800000190735],"key_events":[],"mouse_events":[11221,12510.900000095367,16628.400000095367,20198.200000286102,22763.5,25396.10000038147,25830.900000095367,26483.400000095367,27443.400000095367,27758.300000190735,28171.60000038147,28995.900000095367,37148.7000002861,40793.60000038147,42368.60000038147,42886.10000038147,43216.300000190735,52283.800000190735,55478.800000190735,58561.40000009537,61936.5,62476.7000002861],"honeypot":0,"survey":"mace","page":2,"trial_type":"survey-mace","trial_index":10,"time_elapsed":701901,"internal_node_id":"0.0-10.0","task_version":"prescreen-v0.3","browser_interactions":0},{"responses":{"01":"Yes","01_ages_10":"10","01_ages_11":"11","01_ages_12":"12","02":"No","03":"No","04":"No"},"rt":35228.699999809265,"item_order":[0,1,2,3],"radio_events":[15741.699999809265,31409.5,32954.59999990463,34641.90000009537],"checkbox_events":[19349.299999713898,19791.799999713898,20241.799999713898,21996.699999809265,24741.900000095367],"key_events":[],"mouse_events":[15741.699999809265,19349.299999713898,19791.799999713898,20241.799999713898,21996.699999809265,23009.599999904633,24741.900000095367,31409.5,32954.59999990463,34641.90000009537,35227.199999809265],"honeypot":0,"survey":"mace","page":3,"trial_type":"survey-mace","trial_index":11,"time_elapsed":737133,"internal_node_id":"0.0-11.0","task_version":"prescreen-v0.3","browser_interactions":0},{"responses":{"01":"No","02":"No"},"rt":14419.400000095367,"item_order":[0,1],"radio_events":[10893.5,13721.199999809265],"checkbox_events":[],"key_events":[],"mouse_events":[10893.5,13721.199999809265,14418.400000095367],"honeypot":0,"survey":"mace","page":4,"trial_type":"survey-mace","trial_index":12,"time_elapsed":751554,"internal_node_id":"0.0-12.0","task_version":"prescreen-v0.3","browser_interactions":0},{"responses":{"01":"No","02":"No","03":"No","04":"Yes","04_ages_6":"6","04_ages_7":"7","04_ages_8":"8","04_ages_9":"9","04_ages_10":"10","04_ages_11":"11","04_ages_12":"12","04_ages_13":"13","04_ages_14":"14","05":"No"},"rt":49049.09999990463,"item_order":[0,1,2,3,4],"radio_events":[6522.199999809265,16106.900000095367,28301.900000095367,32307,47584.7999997139],"checkbox_events":[35007,35682.59999990463,36154.40000009537,36604.5,37999.40000009537,38922.2999997139,39334.59999990463,40144.5,41712],"key_events":[],"mouse_events":[6522.199999809265,16106.900000095367,28301.900000095367,32307,34534.59999990463,35007,35682.59999990463,36154.40000009537,36604.5,37999.40000009537,38457.09999990463,38922.2999997139,39334.59999990463,40144.5,40992,41712,42709.90000009537,43309.59999990463,47584.7999997139,49047.199999809265],"honeypot":0,"survey":"mace","page":5,"trial_type":"survey-mace","trial_index":13,"time_elapsed":800606,"internal_node_id":"0.0-13.0","task_version":"prescreen-v0.3","browser_interactions":0},{"responses":{"01":"Yes","01_ages_6":"6","01_ages_7":"7","01_ages_8":"8","01_ages_9":"9","01_ages_10":"10","01_ages_11":"11","01_ages_12":"12","01_ages_13":"13","01_ages_14":"14","01_ages_15":"15","01_ages_16":"16","01_ages_17":"17","01_ages_18":"18","02":"Yes","02_ages_6":"6","02_ages_7":"7","02_ages_8":"8","02_ages_9":"9","02_ages_10":"10","02_ages_11":"11","02_ages_12":"12","02_ages_13":"13","02_ages_14":"14","02_ages_15":"15","03":"Yes","03_ages_7":"7","03_ages_8":"8","03_ages_9":"9","03_ages_10":"10","03_ages_11":"11","03_ages_12":"12","03_ages_13":"13","03_ages_14":"14","03_ages_15":"15","03_ages_16":"16","03_ages_17":"17","03_ages_18":"18","04":"Yes","04_ages_8":"8","04_ages_9":"9","04_ages_10":"10","04_ages_11":"11","04_ages_12":"12","04_ages_13":"13","04_ages_14":"14","04_ages_15":"15","04_ages_16":"16","04_ages_17":"17","04_ages_18":"18","05":"Yes","05_ages_9":"9","05_ages_10":"10","05_ages_11":"11","05_ages_12":"12","05_ages_13":"13"},"rt":102238.5,"item_order":[0,1,2,3,4],"radio_events":[15318,33550.5,48505.59999990463,66978.69999980927,88361.19999980927],"checkbox_events":[17260.400000095367,18175.400000095367,18850.599999904633,20042.900000095367,20605.5,21032.799999713898,21685.5,22338.900000095367,22856.599999904633,23396.699999809265,24055.699999809265,24746.400000095367,25241,34916.7999997139,35410.40000009537,36003.199999809265,36558.199999809265,37128.5,38515.7999997139,38965.59999990463,39978.40000009537,40885.59999990463,41695.5,51236.5,51910.7999997139,55008.199999809265,55623.40000009537,56253.199999809265,57086.7999997139,57618.2999997139,62635.90000009537,63289.5,63813.90000009537,64219.7999997139,64706.40000009537,68470.7999997139,69160.69999980927,70541.09999990463,71028.59999990463,71838.40000009537,72971.09999990463,73571.59999990463,74200.90000009537,74696.09999990463,75168.40000009537,75918.7999997139,76563.59999990463,77981.19999980927,82593.90000009537,83501.2999997139,92501.19999980927,98141.19999980927,98681.2999997139,99071.19999980927,99941.09999990463],"key_events":[],"mouse_events":[15318,17260.400000095367,17658,18175.400000095367,18850.599999904633,20042.900000095367,20605.5,21032.799999713898,21685.5,22338.900000095367,22856.599999904633,23396.699999809265,24055.699999809265,24746.400000095367,25241,33550.5,34916.7999997139,35410.40000009537,36003.199999809265,36558.199999809265,37128.5,37997.90000009537,38515.7999997139,38965.59999990463,39483.699999809265,39978.40000009537,40885.59999990463,41695.5,48505.59999990463,51236.5,51910.7999997139,52428.699999809265,52938.09999990463,53958.199999809265,55008.199999809265,55623.40000009537,56253.199999809265,56680.90000009537,57086.7999997139,57618.2999997139,62635.90000009537,63289.5,63813.90000009537,64219.7999997139,64706.40000009537,66978.69999980927,68470.7999997139,68800.69999980927,69160.69999980927,69565.90000009537,70541.09999990463,71028.59999990463,71838.40000009537,72971.09999990463,73571.59999990463,74200.90000009537,74696.09999990463,75168.40000009537,75918.7999997139,76563.59999990463,77508.59999990463,77981.19999980927,82593.90000009537,83501.2999997139,88361.19999980927,92067.2999997139,92501.19999980927,98141.19999980927,98681.2999997139,99071.19999980927,99941.09999990463,102236.5],"honeypot":0,"survey":"mace","page":6,"trial_type":"survey-mace","trial_index":14,"time_elapsed":902847,"internal_node_id":"0.0-14.0","task_version":"prescreen-v0.3","browser_interactions":0},{"responses":{"01":"Yes","01_ages_11":"11","01_ages_12":"12","01_ages_13":"13","01_ages_14":"14","02":"Yes","02_ages_11":"11","02_ages_12":"12","02_ages_13":"13","03":"Yes","03_ages_12":"12","03_ages_13":"13","03_ages_14":"14","04":"Yes","04_ages_12":"12","04_ages_13":"13","04_ages_14":"14","05":"No","06":"No","07":"No"},"rt":78350.7999997139,"item_order":[0,1,2,3,4,5,6],"radio_events":[4637,12894.599999904633,38874.89999961853,57077.5,71372.69999980927,73975.5,77672.59999990463],"checkbox_events":[6272.099999904633,6594.699999809265,7105.5,7554.89999961853,16419.699999809265,16779.699999809265,17162.199999809265,18377.299999713898,23687.099999904633,40135.09999990463,40697.89999961853,41469.59999990463,44162.39999961853,49135.09999990463,51137.39999961853,54557.2999997139,59575.89999961853,60114.699999809265,64240.199999809265],"key_events":[],"mouse_events":[4637,6272.099999904633,6594.699999809265,7105.5,7554.89999961853,12894.599999904633,16419.699999809265,16779.699999809265,17162.199999809265,18377.299999713898,23687.099999904633,38874.89999961853,40135.09999990463,40697.89999961853,41469.59999990463,44162.39999961853,49135.09999990463,51137.39999961853,54557.2999997139,57077.5,59575.89999961853,60114.699999809265,64240.199999809265,71372.69999980927,73975.5,77672.59999990463,78348.09999990463],"honeypot":0,"survey":"mace","page":7,"trial_type":"survey-mace","trial_index":15,"time_elapsed":981202,"internal_node_id":"0.0-15.0","task_version":"prescreen-v0.3","browser_interactions":0},{"responses":{"01":"Yes","01_ages_7":"7","01_ages_8":"8","01_ages_9":"9","01_ages_10":"10","01_ages_11":"11","01_ages_12":"12","01_ages_13":"13","01_ages_14":"14","02":"Yes","02_ages_13":"13","02_ages_14":"14","02_ages_15":"15","02_ages_16":"16","02_ages_17":"17","02_ages_18":"18","03":"Yes","03_ages_11":"11","03_ages_12":"12","03_ages_13":"13","03_ages_14":"14","03_ages_15":"15","03_ages_16":"16","03_ages_17":"17","04":"Yes","04_ages_11":"11","04_ages_12":"12","04_ages_13":"13","04_ages_14":"14","04_ages_15":"15","04_ages_16":"16","04_ages_17":"17","04_ages_18":"18"},"rt":85512.39999961853,"item_order":[0,1,2,3],"radio_events":[13171.299999713898,50769.199999809265,61119.39999961853,70502.69999980927],"checkbox_events":[26949.5,27796.699999809265,28659.199999809265,29214,30159.199999809265,37246.89999961853,37771.7999997139,40013.89999961853,40966.699999809265,41769.09999990463,42400.2999997139,43299.7999997139,44424.2999997139,45121.7999997139,45556.699999809265,47221.89999961853,52232.89999961853,52839.5,53334.59999990463,54265,54707,56041.699999809265,62312,65598.39999961853,65941.7999997139,66460.09999990463,66858.39999961853,67292.5,72549.69999980927,73809.39999961853,74446.89999961853,75361.89999961853,75834.39999961853,77260.09999990463,77927.09999990463,80222.09999990463,82224.69999980927],"key_events":[],"mouse_events":[12608.699999809265,13171.299999713898,25801.699999809265,26949.5,27437,27796.699999809265,28156.599999904633,28659.199999809265,29214,30159.199999809265,37246.89999961853,37771.7999997139,40013.89999961853,40966.699999809265,41769.09999990463,42400.2999997139,43299.7999997139,44424.2999997139,45121.7999997139,45556.699999809265,47221.89999961853,50769.199999809265,52232.89999961853,52839.5,53334.59999990463,54265,54707,55381.699999809265,56041.699999809265,61119.39999961853,62312,65598.39999961853,65941.7999997139,66460.09999990463,66858.39999961853,67292.5,70502.69999980927,72549.69999980927,72933.5,73277,73809.39999961853,74446.89999961853,75361.89999961853,75834.39999961853,76329.59999990463,77260.09999990463,77927.09999990463,80222.09999990463,82224.69999980927,85510.39999961853],"honeypot":0,"survey":"mace","page":8,"trial_type":"survey-mace","trial_index":16,"time_elapsed":1066717,"internal_node_id":"0.0-16.0","task_version":"prescreen-v0.3","browser_interactions":0},{"responses":{"01":"No","02":"No","03":"Yes","03_ages_4":"4","03_ages_5":"5","03_ages_6":"6","03_ages_7":"7","03_ages_8":"8","04":"Yes","04_ages_7":"7","04_ages_8":"8","04_ages_9":"9","04_ages_10":"10","04_ages_11":"11","04_ages_12":"12","04_ages_13":"13","04_ages_14":"14","04_ages_15":"15","04_ages_16":"16"},"rt":130272.30000019073,"item_order":[0,1,2,3],"radio_events":[63317.7000002861,68147.5,71417.5,73870,90857.7000002861,103090.5,105055.5],"checkbox_events":[76742.5,77327.5,77912.7000002861,79150.10000038147,80477.60000038147,80935.10000038147,81476.10000038147,81985.10000038147,82487.7000002861,82952.7000002861,84145.10000038147,108221,108993.10000038147,109960.7000002861,110635.30000019073,111572.90000009537,112091.40000009537,112503.80000019073,113216.2000002861,113778.10000038147,114318,115150.7000002861,115623,125185.80000019073,126558,127503.2000002861,128605.80000019073],"key_events":[],"mouse_events":[63317.7000002861,68147.5,71417.5,73870,76742.5,77327.5,77912.7000002861,79150.10000038147,80477.60000038147,80935.10000038147,81476.10000038147,81985.10000038147,82487.7000002861,82952.7000002861,84145.10000038147,90857.7000002861,96857.90000009537,103090.5,105055.5,108221,108993.10000038147,109960.7000002861,110635.30000019073,111572.90000009537,112091.40000009537,112503.80000019073,112901.5,113216.2000002861,113778.10000038147,114318,115150.7000002861,115623,125185.80000019073,125973.10000038147,126558,127503.2000002861,128605.80000019073,130270.90000009537],"honeypot":0,"survey":"mace","page":9,"trial_type":"survey-mace","trial_index":17,"time_elapsed":1196993,"internal_node_id":"0.0-17.0","task_version":"prescreen-v0.3","browser_interactions":0},{"responses":{"01":"Yes","01_ages_13":"13","01_ages_14":"14","01_ages_15":"15","01_ages_16":"16","01_ages_17":"17","01_ages_18":"18","02":"Yes","02_ages_8":"8","02_ages_9":"9","02_ages_10":"10","02_ages_11":"11","02_ages_12":"12","02_ages_13":"13","02_ages_14":"14","02_ages_15":"15","02_ages_16":"16","02_ages_17":"17","02_ages_18":"18","03":"Yes","03_ages_8":"8","03_ages_9":"9","03_ages_10":"10","03_ages_11":"11","03_ages_12":"12","03_ages_13":"13","03_ages_14":"14","03_ages_15":"15","03_ages_16":"16","03_ages_17":"17","03_ages_18":"18","04":"Yes","04_ages_8":"8","04_ages_9":"9","04_ages_10":"10","04_ages_11":"11","04_ages_12":"12","04_ages_13":"13","04_ages_14":"14","04_ages_15":"15","04_ages_16":"16","04_ages_17":"17","04_ages_18":"18","05":"Yes","05_ages_6":"6","05_ages_7":"7","05_ages_8":"8","05_ages_9":"9","05_ages_10":"10","05_ages_11":"11","05_ages_12":"12","05_ages_13":"13","05_ages_14":"14","05_ages_15":"15","05_ages_16":"16","05_ages_17":"17","05_ages_18":"18","06":"Yes","06_ages_17":"17","07":"No","08":"No"},"rt":85296.5,"item_order":[0,1,2,3,4,5,6,7],"radio_events":[5732.60000038147,19255.5,35568.10000038147,50418.2000002861,62725.800000190735,76728.60000038147,82173.80000019073,84783.7000002861],"checkbox_events":[8254.300000190735,8575.400000095367,8952,10189.10000038147,10908.5,11380.400000095367,13225.5,16067.800000190735,20252.900000095367,20560.60000038147,21393.10000038147,22630.60000038147,23065.400000095367,23553.10000038147,24026.10000038147,24595.5,25218,26050.60000038147,26680.400000095367,27670.60000038147,29695.60000038147,30101.200000286102,31383.10000038147,36700.5,37165.5,37683.10000038147,38718.2000002861,39378.2000002861,39828.800000190735,40406.40000009537,40908.5,41605.800000190735,42094.2000002861,43262.90000009537,51791.800000190735,52286.10000038147,52938.7000002861,54580.90000009537,55030.7000002861,55645.90000009537,56141,56830.7000002861,57258.40000009537,57798.10000038147,58945.800000190735,64660.7000002861,65223.300000190735,66888.10000038147,67368.30000019073,67833.60000038147,68628.5,69685.90000009537,70309.10000038147,70917.90000009537,71486.10000038147,72318.40000009537,72858.30000019073,73303.90000009537,77965.90000009537],"key_events":[],"mouse_events":[5732.60000038147,8254.300000190735,8575.400000095367,8952,10189.10000038147,10908.5,11380.400000095367,13225.5,16067.800000190735,19255.5,20252.900000095367,20560.60000038147,20987.900000095367,21393.10000038147,22630.60000038147,23065.400000095367,23553.10000038147,24026.10000038147,24595.5,25218,26050.60000038147,26680.400000095367,27670.60000038147,29695.60000038147,30101.200000286102,31383.10000038147,35568.10000038147,36700.5,37165.5,37683.10000038147,38380.800000190735,38718.2000002861,39378.2000002861,39828.800000190735,40406.40000009537,40908.5,41605.800000190735,42094.2000002861,43262.90000009537,50418.2000002861,51791.800000190735,52286.10000038147,52938.7000002861,54580.90000009537,55030.7000002861,55645.90000009537,56141,56830.7000002861,57258.40000009537,57798.10000038147,58945.800000190735,62725.800000190735,64660.7000002861,65223.300000190735,66888.10000038147,67368.30000019073,67833.60000038147,68628.5,69685.90000009537,70309.10000038147,70917.90000009537,71486.10000038147,72318.40000009537,72858.30000019073,73303.90000009537,76728.60000038147,77965.90000009537,82173.80000019073,84783.7000002861,85293.7000002861],"honeypot":0,"survey":"mace","page":10,"trial_type":"survey-mace","trial_index":18,"time_elapsed":1282292,"internal_node_id":"0.0-18.0","task_version":"prescreen-v0.3","browser_interactions":0,"instructed":0},{"rt":3107.0999999046326,"trial_type":"mental-health-alert","trial_index":19,"time_elapsed":1285400,"internal_node_id":"0.0-19.0","task_version":"prescreen-v0.3","interactions":"[{\"event\":\"blur\",\"trial\":0,\"time\":159},{\"event\":\"focus\",\"trial\":0,\"time\":728},{\"event\":\"blur\",\"trial\":6,\"time\":347363},{\"event\":\"focus\",\"trial\":6,\"time\":378373},{\"event\":\"blur\",\"trial\":7,\"time\":412590},{\"event\":\"focus\",\"trial\":7,\"time\":442961},{\"event\":\"blur\",\"trial\":8,\"time\":539767},{\"event\":\"focus\",\"trial\":8,\"time\":557687}]"}]