[{"view_history":[{"page_index":0,"viewing_time":4950.900000035763},{"page_index":1,"viewing_time":1829.5999999642372},{"page_index":2,"viewing_time":3314.800000011921},{"page_index":3,"viewing_time":969.6999999880791}],"rt":11066.199999988079,"trial_type":"instructions","trial_index":0,"time_elapsed":11120,"internal_node_id":"0.0-0.0","task_version":"prescreen-v0.3"},{"rt":13353.099999964237,"responses":{"age":"20","gender-categorical":"Female","gender-free-response":"","ethnicity":"Not Hispanic or Latino","race":["White"],"education":"Associate degree"},"trial_type":"survey-demo","trial_index":1,"time_elapsed":24482,"internal_node_id":"0.0-1.0","task_version":"prescreen-v0.3"},{"responses":{"Q18":"1","Q10":"2","Q11":"2","Q07":"1","Q15":"3","Q08":"1","Q19":"1","Q13":"2","Q16":"2","Q03":"2","Q12":"1","Q04":"1","Q06":"1","Q17":"2","Q21":"3","Q02":"0","Q01":"1","Q14":"2","Q05":"0","Q20":"0","Q09":"0"},"rt":143854.69999998808,"item_order":[17,9,10,6,14,7,18,12,15,2,11,3,5,16,20,1,0,13,4,19,8],"radio_events":[5677.300000011921,15319.100000023842,19293.69999998808,26085.19999998808,66057.40000003576,70054.60000002384,75485.5,81537.90000003576,82859,85051,89624.80000001192,92656,95295,99465.40000003576,122811.10000002384,127525.19999998808,130173.30000001192,134795.40000003576,139904.90000003576,140563.40000003576,142992.90000003576],"key_events":[],"mouse_events":[5677.300000011921,15319.100000023842,19293.69999998808,26085.19999998808,66057.40000003576,70054.60000002384,75485.5,79011.60000002384,81537.90000003576,82859,85051,89624.80000001192,92656,95295,98771.90000003576,99465.40000003576,122811.10000002384,127525.19999998808,130173.30000001192,134795.40000003576,138693.5,139904.90000003576,140563.40000003576,142992.90000003576,143851.5],"straightlining":0.38095238095238093,"zigzagging":0.45,"honeypot":0,"survey":"sns","trial_type":"survey-template","trial_index":2,"time_elapsed":168346,"internal_node_id":"0.0-2.0","task_version":"prescreen-v0.3","browser_interactions":0,"infrequency":0},{"responses":{"Q12":"0","Q06":"3","Q11":"1","Q10":"0","Q02":"1","Q09":"0","Q01":"3","Q07":"3","Q03":"3","Q04":"3","Q05":"3","Q13":"0","Q08":"2"},"rt":60243.19999998808,"item_order":[11,5,10,9,1,8,0,6,2,3,4,12,7],"radio_events":[8564.300000011921,14584.100000023842,20652.19999998808,24984.600000023842,27697.19999998808,32238,33820.39999997616,37856.5,40200.89999997616,42098.89999997616,46890.30000001192,48864.30000001192,59431.5],"key_events":[],"mouse_events":[8564.300000011921,14584.100000023842,20652.19999998808,24984.600000023842,27697.19999998808,32238,33820.39999997616,37856.5,40200.89999997616,42098.89999997616,46890.30000001192,48864.30000001192,59431.5,60241],"straightlining":0.46153846153846156,"zigzagging":0.5,"honeypot":0,"survey":"bisbas","trial_type":"survey-template","trial_index":3,"time_elapsed":228596,"internal_node_id":"0.0-3.0","task_version":"prescreen-v0.3","browser_interactions":0,"infrequency":0},{"responses":{"Q01":"2","Q02":"3","Q03":"3"},"rt":45830,"radio_events":[5857.599999964237,7313.099999964237,15036.5,45042.5],"key_events":[],"mouse_events":[5857.599999964237,7313.099999964237,15036.5,45042.5,45829.09999996424],"survey":"map","page":1,"trial_type":"survey-map","trial_index":4,"time_elapsed":274431,"internal_node_id":"0.0-4.0","task_version":"prescreen-v0.3","browser_interactions":0},{"responses":{"Q04":"2","Q05":"3","Q06":"2"},"rt":72386.69999998808,"radio_events":[63995.19999998808,67635.19999998808,68667.60000002384,71439.90000003576],"key_events":[],"mouse_events":[63995.19999998808,67635.19999998808,68667.60000002384,71439.90000003576,72385.80000001192],"survey":"map","page":2,"trial_type":"survey-map","trial_index":5,"time_elapsed":346822,"internal_node_id":"0.0-5.0","task_version":"prescreen-v0.3","browser_interactions":0},{"responses":{"Q07":"1","Q08":"4","Q09":"3"},"rt":14092,"radio_events":[5827.800000011921,10883.300000011921,13425.300000011921],"key_events":[],"mouse_events":[5827.800000011921,10883.300000011921,13425.300000011921,14091.199999988079],"survey":"map","page":3,"trial_type":"survey-map","trial_index":6,"time_elapsed":360917,"internal_node_id":"0.0-6.0","task_version":"prescreen-v0.3","browser_interactions":0},{"responses":{"Q10":"1","Q11":"1","Q12":"0","Q13":"1","Q16":"0","Q14":"2","Q15":"2"},"rt":70353.70000004768,"radio_events":[7640.200000047684,10811.900000035763,13854.200000047684,23690.400000035763,24475.900000035763,29581.600000023842,66536.5,69573.80000001192],"key_events":[],"mouse_events":[7640.200000047684,10811.900000035763,13854.200000047684,22435.600000023842,23690.400000035763,24475.900000035763,29581.600000023842,66536.5,69573.80000001192,70352],"survey":"map","page":4,"trial_type":"survey-map","trial_index":7,"time_elapsed":431274,"internal_node_id":"0.0-7.0","task_version":"prescreen-v0.3","browser_interactions":0,"infrequency":0},{"view_history":[{"page_index":0,"viewing_time":1945.3999999761581},{"page_index":1,"viewing_time":3713.100000023842}],"rt":5659.5,"trial_type":"instructions","trial_index":8,"time_elapsed":436936,"internal_node_id":"0.0-8.0","task_version":"prescreen-v0.3"},{"responses":{"01":"Yes","01_ages_6":"6","01_ages_7":"7","01_ages_8":"8","01_ages_9":"9","01_ages_10":"10","01_ages_11":"11","01_ages_12":"12","01_ages_13":"13","01_ages_14":"14","01_ages_15":"15","01_ages_16":"16","01_ages_17":"17","01_ages_18":"18","02":"Yes","02_ages_6":"6","02_ages_7":"7","02_ages_8":"8","02_ages_9":"9","02_ages_10":"10","02_ages_11":"11","02_ages_12":"12","02_ages_13":"13","02_ages_14":"14","02_ages_15":"15","02_ages_16":"16","02_ages_17":"17","02_ages_18":"18","03":"Yes","03_ages_10":"10","03_ages_11":"11","03_ages_12":"12","03_ages_13":"13","03_ages_14":"14","03_ages_15":"15","03_ages_16":"16","03_ages_17":"17","03_ages_18":"18","04":"Yes","04_ages_9":"9","04_ages_10":"10","04_ages_11":"11","04_ages_14":"14","04_ages_15":"15","05":"No","06":"Yes","06_ages_17":"17","06_ages_18":"18"},"rt":95180.69999998808,"item_order":[0,1,2,3,4,5],"radio_events":[3216,27431.19999998808,39682.19999998808,56864.40000003576,86061.60000002384,89359.40000003576],"checkbox_events":[14159.600000023842,15214,15629.800000011921,16837.900000035763,18243.80000001192,19057.900000035763,19533.900000035763,20248.100000023842,20883.69999998808,21917.69999998808,22465.100000023842,23024.19999998808,23413.400000035763,28567.80000001192,28973.30000001192,29734,30151.69999998808,30791.30000001192,31715.80000001192,32288.600000023842,32876.60000002384,33605.90000003576,34375.80000001192,34999.80000001192,35679.60000002384,36413.80000001192,44009.90000003576,47103.80000001192,47461.80000001192,47889.19999998808,48603.30000001192,49013.19999998808,50702.10000002384,51105.80000001192,54283.90000003576,76881.80000001192,77556,77922.69999998808,78359.19999998808,79555.69999998808,80202,80517.60000002384,82277.19999998808,84357.90000003576,91323.60000002384,91753.19999998808],"key_events":[],"mouse_events":[0.10000002384185791,3216,14159.600000023842,14634.699999988079,15214,15629.800000011921,16257.699999988079,16837.900000035763,17535.69999998808,18243.80000001192,19057.900000035763,19533.900000035763,20248.100000023842,20883.69999998808,21917.69999998808,22465.100000023842,23024.19999998808,23413.400000035763,27431.19999998808,28567.80000001192,28973.30000001192,29734,30151.69999998808,30791.30000001192,31715.80000001192,32288.600000023842,32876.60000002384,33605.90000003576,34375.80000001192,34999.80000001192,35679.60000002384,36413.80000001192,39682.19999998808,44009.90000003576,47103.80000001192,47461.80000001192,47889.19999998808,48603.30000001192,49013.19999998808,50702.10000002384,51105.80000001192,54283.90000003576,56864.40000003576,76881.80000001192,77243.19999998808,77556,77922.69999998808,78359.19999998808,79555.69999998808,79883.69999998808,80202,80517.60000002384,82277.19999998808,84357.90000003576,86061.60000002384,89359.40000003576,91323.60000002384,91753.19999998808,95176.60000002384],"honeypot":0,"survey":"mace","page":1,"trial_type":"survey-mace","trial_index":9,"time_elapsed":532129,"internal_node_id":"0.0-9.0","task_version":"prescreen-v0.3","browser_interactions":0},{"responses":{"01":"Yes","01_ages_9":"9","01_ages_10":"10","01_ages_11":"11","01_ages_14":"14","01_ages_17":"17","01_ages_18":"18","02":"No","03":"Yes","03_ages_3":"3","03_ages_4":"4","03_ages_5":"5","03_ages_6":"6","03_ages_7":"7","04":"No","05":"No","06":"No","07":"No","08":"No"},"rt":170657.59999996424,"item_order":[0,1,2,3,4,5,6,7],"radio_events":[119170.19999998808,141442.69999998808,143364.69999998808,155420.29999995232,160758.39999997616,168157.89999997616,168954.09999996424,169982.09999996424],"checkbox_events":[122390.39999997616,123248,123724.29999995232,124128.29999995232,124808.59999996424,125162.39999997616,125812.39999997616,126158.19999998808,126544.29999995232,126916.19999998808,127466,128277.89999997616,129124.29999995232,130550.19999998808,134190.69999998808,136220.79999995232,146198.19999998808,147044.19999998808,147512.29999995232,148064.89999997616,148800.09999996424,149666.29999995232,150956.39999997616],"key_events":[],"mouse_events":[119170.19999998808,122390.39999997616,123248,123724.29999995232,124128.29999995232,124808.59999996424,125162.39999997616,125508.29999995232,125812.39999997616,126158.19999998808,126544.29999995232,126916.19999998808,127466,128277.89999997616,128705.19999998808,129124.29999995232,130550.19999998808,134190.69999998808,136220.79999995232,141442.69999998808,143364.69999998808,146198.19999998808,147044.19999998808,147512.29999995232,148064.89999997616,148407,148800.09999996424,149110.09999996424,149666.29999995232,150956.39999997616,155420.29999995232,160758.39999997616,168157.89999997616,168954.09999996424,169982.09999996424,170652.09999996424],"honeypot":0,"survey":"mace","page":2,"trial_type":"survey-mace","trial_index":10,"time_elapsed":702793,"internal_node_id":"0.0-10.0","task_version":"prescreen-v0.3","browser_interactions":0},{"responses":{"01":"No","02":"No","03":"No","04":"No"},"rt":7779.199999988079,"item_order":[0,1,2,3],"radio_events":[3070.600000023842,4360.900000035763,6564.600000023842,7298.300000011921],"checkbox_events":[],"key_events":[],"mouse_events":[3070.600000023842,4360.900000035763,5944.300000011921,6564.600000023842,7298.300000011921,7776.100000023842],"honeypot":0,"survey":"mace","page":3,"trial_type":"survey-mace","trial_index":11,"time_elapsed":710577,"internal_node_id":"0.0-11.0","task_version":"prescreen-v0.3","browser_interactions":0},{"responses":{"01":"Yes","01_ages_18":"18","02":"Yes","02_ages_18":"18"},"rt":53995,"item_order":[0,1],"radio_events":[50410,52143],"checkbox_events":[51386.10000002384,53329.30000001192],"key_events":[],"mouse_events":[50410,51386.10000002384,52143,53329.30000001192,53993.60000002384],"honeypot":0,"survey":"mace","page":4,"trial_type":"survey-mace","trial_index":12,"time_elapsed":764576,"internal_node_id":"0.0-12.0","task_version":"prescreen-v0.3","browser_interactions":0},{"responses":{"01":"Yes","01_ages_14":"14","01_ages_15":"15","01_ages_16":"16","01_ages_17":"17","01_ages_18":"18","02":"No","03":"No","04":"No","05":"No"},"rt":41213.10000002384,"item_order":[0,1,2,3,4],"radio_events":[21932.100000023842,30438.19999998808,33455.80000001192,36445.30000001192,40323.39999997616],"checkbox_events":[24156,24783.899999976158,25557.899999976158,25971.80000001192,26348.399999976158],"key_events":[],"mouse_events":[21932.100000023842,24156,24783.899999976158,25557.899999976158,25971.80000001192,26348.399999976158,30438.19999998808,33455.80000001192,36445.30000001192,40323.39999997616,41209.5],"honeypot":0,"survey":"mace","page":5,"trial_type":"survey-mace","trial_index":13,"time_elapsed":805795,"internal_node_id":"0.0-13.0","task_version":"prescreen-v0.3","browser_interactions":0},{"responses":{"01":"No","02":"No","03":"No","04":"No","05":"No"},"rt":28122.399999976158,"item_order":[0,1,2,3,4],"radio_events":[6881.599999964237,17038,21556.899999976158,26516.69999998808,27603.399999976158],"checkbox_events":[],"key_events":[],"mouse_events":[6881.599999964237,17038,21556.899999976158,26516.69999998808,27603.399999976158,28118.69999998808],"honeypot":0,"survey":"mace","page":6,"trial_type":"survey-mace","trial_index":14,"time_elapsed":833923,"internal_node_id":"0.0-14.0","task_version":"prescreen-v0.3","browser_interactions":0},{"responses":{"01":"No","02":"No","03":"No","04":"No","05":"No","06":"No","07":"No"},"rt":80722.39999997616,"item_order":[0,1,2,3,4,5,6],"radio_events":[61663.39999997616,63725.30000001192,64455.19999998808,66631.80000001192,78095.10000002384,79291.30000001192,80000.69999998808],"checkbox_events":[],"key_events":[],"mouse_events":[61663.39999997616,63725.30000001192,64455.19999998808,66631.80000001192,78095.10000002384,79291.30000001192,80000.69999998808,80717.60000002384],"honeypot":0,"survey":"mace","page":7,"trial_type":"survey-mace","trial_index":15,"time_elapsed":914653,"internal_node_id":"0.0-15.0","task_version":"prescreen-v0.3","browser_interactions":0},{"responses":{"01":"No","02":"No","03":"Yes","03_ages_8":"8","03_ages_9":"9","03_ages_10":"10","03_ages_11":"11","03_ages_12":"12","03_ages_13":"13","03_ages_14":"14","03_ages_15":"15","03_ages_16":"16","03_ages_17":"17","03_ages_18":"18","04":"No"},"rt":65691.70000004768,"item_order":[0,1,2,3],"radio_events":[24710.80000001192,42488.60000002384,44536.40000003576,64966.40000003576],"checkbox_events":[51714.60000002384,52136.200000047684,52628.700000047684,53442.700000047684,54324.700000047684,54944.700000047684,55718.30000001192,56274.700000047684,57012.5,57754.60000002384,58323],"key_events":[],"mouse_events":[24710.80000001192,42488.60000002384,44536.40000003576,51714.60000002384,52136.200000047684,52628.700000047684,53060.30000001192,53442.700000047684,54324.700000047684,54944.700000047684,55718.30000001192,56274.700000047684,57012.5,57754.60000002384,58323,64966.40000003576,65688.80000001192],"honeypot":0,"survey":"mace","page":8,"trial_type":"survey-mace","trial_index":16,"time_elapsed":980350,"internal_node_id":"0.0-16.0","task_version":"prescreen-v0.3","browser_interactions":0},{"responses":{"01":"Yes","01_ages_1":"1","01_ages_2":"2","01_ages_3":"3","01_ages_4":"4","01_ages_5":"5","01_ages_6":"6","01_ages_7":"7","01_ages_8":"8","01_ages_9":"9","01_ages_10":"10","01_ages_11":"11","01_ages_12":"12","01_ages_13":"13","01_ages_14":"14","01_ages_15":"15","01_ages_16":"16","01_ages_17":"17","01_ages_18":"18","02":"Yes","02_ages_1":"1","02_ages_2":"2","02_ages_3":"3","02_ages_4":"4","02_ages_5":"5","02_ages_6":"6","02_ages_7":"7","02_ages_8":"8","02_ages_9":"9","02_ages_10":"10","02_ages_11":"11","02_ages_12":"12","02_ages_13":"13","02_ages_14":"14","02_ages_15":"15","02_ages_16":"16","02_ages_17":"17","02_ages_18":"18","03":"Yes","03_ages_1":"1","03_ages_2":"2","03_ages_3":"3","03_ages_4":"4","03_ages_5":"5","03_ages_6":"6","03_ages_7":"7","03_ages_8":"8","03_ages_9":"9","03_ages_10":"10","03_ages_11":"11","03_ages_12":"12","03_ages_13":"13","03_ages_14":"14","03_ages_15":"15","03_ages_16":"16","03_ages_17":"17","03_ages_18":"18","04":"Yes","04_ages_1":"1","04_ages_2":"2","04_ages_3":"3","04_ages_4":"4","04_ages_5":"5","04_ages_6":"6","04_ages_7":"7","04_ages_8":"8","04_ages_9":"9","04_ages_10":"10","04_ages_11":"11","04_ages_12":"12","04_ages_13":"13","04_ages_14":"14","04_ages_15":"15","04_ages_16":"16","04_ages_17":"17","04_ages_18":"18"},"rt":97728.19999998808,"item_order":[0,1,2,3],"radio_events":[8056.300000011921,30910.80000001192,59952.60000002384,74508],"checkbox_events":[12848.199999988079,14710.199999988079,20118.399999976158,20803.80000001192,21340.19999998808,21819.899999976158,22496.30000001192,23175.80000001192,23564.100000023842,24035.600000023842,24780,25534.69999998808,26184,26756.19999998808,32005.899999976158,32736.600000023842,33423.60000002384,33955.80000001192,34368.10000002384,34964.39999997616,35713.60000002384,36383.19999998808,36769.69999998808,37219.89999997616,37953.80000001192,38993.69999998808,39647.60000002384,40066,61782.10000002384,62887.69999998808,63652.69999998808,64022,65070.60000002384,65484.30000001192,66008.30000001192,66687.19999998808,67474.5,68116,68660.60000002384,69275.89999997616,69845.89999997616,70244.69999998808,76783.80000001192,77309.5,78042.10000002384,78581.80000001192,79395.80000001192,80114.60000002384,80595.69999998808,81644.5,82830.39999997616,83223.60000002384,83700.30000001192,84547,86722,87119.80000001192,87529.60000002384,87950.5,88400.69999998808,88801.89999997616,89260.60000002384,90136.30000001192,90599.39999997616,91597.69999998808,92050,92908.30000001192,93798,94655.5,95269.89999997616,95789.30000001192,96339.30000001192,97119.89999997616],"key_events":[],"mouse_events":[8056.300000011921,12160.600000023842,12848.199999988079,14710.199999988079,15440.199999988079,20118.399999976158,20803.80000001192,21340.19999998808,21819.899999976158,22496.30000001192,23175.80000001192,23564.100000023842,24035.600000023842,24424,24780,25534.69999998808,26184,26756.19999998808,30910.80000001192,32005.899999976158,32736.600000023842,33423.60000002384,33955.80000001192,34368.10000002384,34964.39999997616,35377.89999997616,35713.60000002384,36116.89999997616,36383.19999998808,36769.69999998808,37219.89999997616,37953.80000001192,38491,38993.69999998808,39647.60000002384,40066,59952.60000002384,61257.69999998808,61782.10000002384,62390.10000002384,62887.69999998808,63276.30000001192,63652.69999998808,64022,64626.10000002384,65070.60000002384,65484.30000001192,66008.30000001192,66687.19999998808,67474.5,68116,68660.60000002384,69275.89999997616,69845.89999997616,70244.69999998808,74508,76783.80000001192,77309.5,78042.10000002384,78581.80000001192,79395.80000001192,80114.60000002384,80595.69999998808,81064.39999997616,81644.5,82830.39999997616,83223.60000002384,83700.30000001192,84101.69999998808,84547,86722,87119.80000001192,87529.60000002384,87950.5,88400.69999998808,88801.89999997616,89260.60000002384,90136.30000001192,90599.39999997616,91597.69999998808,92050,92581.5,92908.30000001192,93798,94655.5,95269.89999997616,95789.30000001192,96339.30000001192,97119.89999997616,97724.30000001192],"honeypot":0,"survey":"mace","page":9,"trial_type":"survey-mace","trial_index":17,"time_elapsed":1078083,"internal_node_id":"0.0-17.0","task_version":"prescreen-v0.3","browser_interactions":0},{"responses":{"01":"No","02":"No","03":"Yes","03_ages_13":"13","03_ages_14":"14","03_ages_15":"15","03_ages_16":"16","03_ages_17":"17","03_ages_18":"18","04":"Yes","04_ages_9":"9","04_ages_10":"10","04_ages_11":"11","04_ages_12":"12","04_ages_13":"13","04_ages_14":"14","04_ages_15":"15","04_ages_16":"16","04_ages_17":"17","04_ages_18":"18","05":"No","06":"Yes","06_ages_17":"17","07":"Yes","07_ages_1":"1","07_ages_2":"2","07_ages_3":"3","07_ages_4":"4","07_ages_5":"5","07_ages_6":"6","07_ages_7":"7","07_ages_8":"8","07_ages_9":"9","07_ages_10":"10","07_ages_11":"11","07_ages_12":"12","07_ages_13":"13","07_ages_14":"14","07_ages_15":"15","07_ages_16":"16","07_ages_17":"17","07_ages_18":"18","08":"Yes","08_ages_12":"12","08_ages_13":"13","08_ages_14":"14","08_ages_15":"15","08_ages_16":"16","08_ages_17":"17","08_ages_18":"18"},"rt":87502.69999998808,"item_order":[0,1,2,3,4,5,6,7],"radio_events":[3913.300000011921,5366.5,8411.199999988079,18866.69999998808,34422.80000001192,40358.30000001192,44668.60000002384,70082.90000003576],"checkbox_events":[10534.5,11119.300000011921,11892.900000035763,12355.300000011921,12899,13318.400000035763,24496.30000001192,25134.19999998808,25810.400000035763,26295.19999998808,26763,27209.400000035763,27999.100000023842,28578.69999998808,29607.19999998808,30110.80000001192,41430.90000003576,49472.69999998808,50737.90000003576,51383.10000002384,51789.10000002384,53448.40000003576,54119,54533.19999998808,54948.80000001192,55406.69999998808,56152.30000001192,56804.90000003576,57253.40000003576,57684.69999998808,58083,58522.80000001192,59602.90000003576,60135.19999998808,60612.80000001192,61168.80000001192,61946.40000003576,62637.19999998808,63172.60000002384,74326.69999998808,74740.80000001192,75344.30000001192,76356.10000002384,76702.5,78120.80000001192,79788.80000001192,80503.30000001192,83207.30000001192,84784.60000002384,85478.80000001192,85947.19999998808,86340.69999998808],"key_events":[],"mouse_events":[3913.300000011921,5366.5,8411.199999988079,10534.5,11119.300000011921,11539.199999988079,11892.900000035763,12355.300000011921,12899,13318.400000035763,18866.69999998808,24496.30000001192,25134.19999998808,25810.400000035763,26295.19999998808,26763,27209.400000035763,27999.100000023842,28578.69999998808,29156.600000023842,29607.19999998808,30110.80000001192,34422.80000001192,40358.30000001192,41430.90000003576,44668.60000002384,48198.60000002384,49472.69999998808,49811.30000001192,50362.69999998808,50737.90000003576,51383.10000002384,51789.10000002384,53448.40000003576,54119,54533.19999998808,54948.80000001192,55406.69999998808,55791.5,56152.30000001192,56528.30000001192,56804.90000003576,57253.40000003576,57684.69999998808,58083,58522.80000001192,59602.90000003576,60135.19999998808,60612.80000001192,61168.80000001192,61625.30000001192,61946.40000003576,62637.19999998808,63172.60000002384,70082.90000003576,74326.69999998808,74740.80000001192,75344.30000001192,76356.10000002384,76702.5,77013.30000001192,78120.80000001192,79788.80000001192,80094.90000003576,80503.30000001192,83207.30000001192,83593.19999998808,83938.60000002384,84784.60000002384,85478.80000001192,85947.19999998808,86340.69999998808,87497.19999998808],"honeypot":0,"survey":"mace","page":10,"trial_type":"survey-mace","trial_index":18,"time_elapsed":1165594,"internal_node_id":"0.0-18.0","task_version":"prescreen-v0.3","browser_interactions":0,"instructed":0},{"rt":3995,"trial_type":"mental-health-alert","trial_index":19,"time_elapsed":1169592,"internal_node_id":"0.0-19.0","task_version":"prescreen-v0.3","interactions":"[]"}]