[{"view_history":[{"page_index":0,"viewing_time":39439},{"page_index":1,"viewing_time":4013},{"page_index":2,"viewing_time":3354},{"page_index":3,"viewing_time":2744}],"rt":49550,"trial_type":"instructions","trial_index":0,"time_elapsed":49553,"internal_node_id":"0.0-0.0","task_version":"prescreen-v0.3"},{"rt":16184,"responses":{"age":"37","gender-categorical":"Male","gender-free-response":"","ethnicity":"Not Hispanic or Latino","race":["White"],"education":"Master degree or higher"},"trial_type":"survey-demo","trial_index":1,"time_elapsed":65754,"internal_node_id":"0.0-1.0","task_version":"prescreen-v0.3"},{"responses":{"Q18":"2","Q07":"3","Q12":"1","Q20":"1","Q02":"2","Q14":"3","Q16":"2","Q19":"3","Q09":"1","Q01":"2","Q08":"1","Q13":"2","Q04":"1","Q21":"2","Q06":"1","Q05":"2","Q10":"3","Q15":"1","Q03":"1","Q11":"2","Q17":"1"},"rt":134249,"item_order":[17,6,11,19,1,13,15,18,8,0,7,12,3,20,5,4,9,14,2,10,16],"radio_events":[40445,45578,49636,54507,58009,60684,62667,74890,78368,79698,83736,86295,89809,91988,99302,102047,104602,105849,108453,113071,115290,116889,118433],"key_events":[],"mouse_events":[39603,40445,44946,45578,49636,54507,57553,58009,60684,62667,74890,76559,78368,79698,83736,86295,89809,91988,99302,102047,104602,105849,108453,112558,113071,115290,116889,117935,118433,134249],"straightlining":0.42857142857142855,"zigzagging":0.75,"honeypot":0,"survey":"sns","trial_type":"survey-template","trial_index":2,"time_elapsed":200012,"internal_node_id":"0.0-2.0","task_version":"prescreen-v0.3","browser_interactions":14,"infrequency":0.5},{"responses":{"Q05":"2","Q01":"3","Q11":"2","Q13":"1","Q08":"3","Q04":"2","Q10":"3","Q09":"2","Q02":"3","Q12":"2","Q07":"3","Q03":"2","Q06":"3"},"rt":91677,"item_order":[4,0,10,12,7,3,9,8,1,11,6,2,5],"radio_events":[53222,55142,58661,62152,65441,67231,70887,74499,78407,81154,83580,86326,88825,90785],"key_events":[],"mouse_events":[48964,51523,53222,54134,55142,58661,62152,65441,67231,70887,73326,74499,78407,81154,83580,85669,86326,88825,90785,91677],"straightlining":0.46153846153846156,"zigzagging":0.9166666666666666,"honeypot":0,"survey":"bisbas","trial_type":"survey-template","trial_index":3,"time_elapsed":291693,"internal_node_id":"0.0-3.0","task_version":"prescreen-v0.3","browser_interactions":6,"infrequency":0.5},{"responses":{"Q01":"3","Q02":"2","Q03":"3"},"rt":60691,"radio_events":[9192,49417,51839,58857],"key_events":[],"mouse_events":[8460,9192,21656,44946,49417,51839,58857,60691],"survey":"map","page":1,"trial_type":"survey-map","trial_index":4,"time_elapsed":352389,"internal_node_id":"0.0-4.0","task_version":"prescreen-v0.3","browser_interactions":2},{"responses":{"Q04":"4","Q05":"2","Q06":"3"},"rt":13268,"radio_events":[5094,8319,11585],"key_events":[],"mouse_events":[4685,5094,8319,11585,13268],"survey":"map","page":2,"trial_type":"survey-map","trial_index":5,"time_elapsed":365659,"internal_node_id":"0.0-5.0","task_version":"prescreen-v0.3","browser_interactions":0},{"responses":{"Q07":"4","Q08":"2","Q09":"3"},"rt":15497,"radio_events":[6810,10925,14655],"key_events":[],"mouse_events":[6810,10925,14655,15497],"survey":"map","page":3,"trial_type":"survey-map","trial_index":6,"time_elapsed":381160,"internal_node_id":"0.0-6.0","task_version":"prescreen-v0.3","browser_interactions":0},{"responses":{"Q10":"4","Q11":"2","Q12":"3","Q13":"2","Q16":"3","Q14":"2","Q15":"3"},"rt":24940,"radio_events":[4562,7439,10690,13875,17298,20180,24270],"key_events":[],"mouse_events":[4562,7439,10690,13875,17298,20180,23342,24270,24940],"survey":"map","page":4,"trial_type":"survey-map","trial_index":7,"time_elapsed":406106,"internal_node_id":"0.0-7.0","task_version":"prescreen-v0.3","browser_interactions":0,"infrequency":1},{"view_history":[{"page_index":0,"viewing_time":600486},{"page_index":1,"viewing_time":7749}],"rt":608236,"trial_type":"instructions","trial_index":8,"time_elapsed":1014342,"internal_node_id":"0.0-8.0","task_version":"prescreen-v0.3"},{"responses":{"01":"No","02":"No","03":"Yes","03_ages_3":"3","03_ages_11":"11","04":"No","05":"No","06":"No"},"rt":55266,"item_order":[0,1,2,3,4,5],"radio_events":[12388,18294,23032,28561,42047,48275,52091],"checkbox_events":[30516,36897],"key_events":[],"mouse_events":[0,12388,14141,18294,23032,28561,30516,36897,42047,48275,52091,55266],"honeypot":0,"survey":"mace","page":1,"trial_type":"survey-mace","trial_index":9,"time_elapsed":1069635,"internal_node_id":"0.0-9.0","task_version":"prescreen-v0.3","browser_interactions":0},{"responses":{"01":"Yes","01_ages_12":"12","02":"No","03":"No","04":"No","05":"No","06":"Yes","06_ages_18":"18","07":"No","08":"No"},"rt":60178,"item_order":[0,1,2,3,4,5,6,7],"radio_events":[9878,30504,33550,35275,38193,42214,46757,55033,59160],"checkbox_events":[12116,13075,18924,49054],"key_events":[],"mouse_events":[9878,12116,13075,18924,30504,33550,34887,35275,38193,42214,46757,49054,55033,59160,60178],"honeypot":0,"survey":"mace","page":2,"trial_type":"survey-mace","trial_index":10,"time_elapsed":1129824,"internal_node_id":"0.0-10.0","task_version":"prescreen-v0.3","browser_interactions":0},{"responses":{"01":"No","02":"Yes","02_ages_11":"11","03":"No","04":"No"},"rt":20031,"item_order":[0,1,2,3],"radio_events":[7314,11468,15553,19194],"checkbox_events":[12624],"key_events":[],"mouse_events":[7314,10320,11468,12624,15553,19194,20031],"honeypot":0,"survey":"mace","page":3,"trial_type":"survey-mace","trial_index":11,"time_elapsed":1149865,"internal_node_id":"0.0-11.0","task_version":"prescreen-v0.3","browser_interactions":0},{"responses":{"01":"Yes","01_ages_18":"18","02":"No"},"rt":13529,"item_order":[0,1],"radio_events":[6910,12820],"checkbox_events":[8463],"key_events":[],"mouse_events":[6910,8463,12820,13529],"honeypot":0,"survey":"mace","page":4,"trial_type":"survey-mace","trial_index":12,"time_elapsed":1163398,"internal_node_id":"0.0-12.0","task_version":"prescreen-v0.3","browser_interactions":0},{"responses":{"01":"No","02":"No","03":"No","04":"Yes","04_ages_15":"15","05":"No"},"rt":40759,"item_order":[0,1,2,3,4],"radio_events":[14217,18441,25051,35232,39782],"checkbox_events":[36430],"key_events":[],"mouse_events":[14217,18441,25051,29032,35232,36430,39782,40759],"honeypot":0,"survey":"mace","page":5,"trial_type":"survey-mace","trial_index":13,"time_elapsed":1204170,"internal_node_id":"0.0-13.0","task_version":"prescreen-v0.3","browser_interactions":4},{"responses":{"01":"No","02":"Yes","02_ages_15":"15","03":"No","04":"No","05":"No"},"rt":37992,"item_order":[0,1,2,3,4],"radio_events":[18223,25400,30104,34583,37353],"checkbox_events":[26587],"key_events":[],"mouse_events":[18223,25400,26587,29547,30104,33629,33954,34583,36753,37353,37992],"honeypot":0,"survey":"mace","page":6,"trial_type":"survey-mace","trial_index":14,"time_elapsed":1242170,"internal_node_id":"0.0-14.0","task_version":"prescreen-v0.3","browser_interactions":4},{"responses":{"01":"No","02":"No","03":"No","04":"No","05":"No","06":"No","07":"No"},"rt":38414,"item_order":[0,1,2,3,4,5,6],"radio_events":[4220,7835,10611,15200,21368,26233,28137,36995],"checkbox_events":[22478,35980],"key_events":[],"mouse_events":[4220,7835,10611,15200,21368,22478,26233,27710,28137,35980,36995,38414],"honeypot":0,"survey":"mace","page":7,"trial_type":"survey-mace","trial_index":15,"time_elapsed":1280593,"internal_node_id":"0.0-15.0","task_version":"prescreen-v0.3","browser_interactions":0},{"responses":{"01":"Yes","01_ages_15":"15","02":"Yes","02_ages_18":"18","03":"No","04":"No"},"rt":44707,"item_order":[0,1,2,3],"radio_events":[14057,22398,32238,33133,43361],"checkbox_events":[15428,17374,18686,34314],"key_events":[],"mouse_events":[14057,15428,17374,18686,22398,32238,33133,34314,43361,44707],"honeypot":0,"survey":"mace","page":8,"trial_type":"survey-mace","trial_index":16,"time_elapsed":1325312,"internal_node_id":"0.0-16.0","task_version":"prescreen-v0.3","browser_interactions":2},{"responses":{"01":"Yes","01_ages_15":"15","02":"Yes","02_ages_18":"18","03":"Yes","03_ages_18":"18","04":"No"},"rt":59796,"item_order":[0,1,2,3],"radio_events":[7677,22051,26930,52272,58434],"checkbox_events":[16953,24438,53234],"key_events":[],"mouse_events":[7677,16953,22051,24438,26930,52272,53234,58434,59796],"honeypot":0,"survey":"mace","page":9,"trial_type":"survey-mace","trial_index":17,"time_elapsed":1385118,"internal_node_id":"0.0-17.0","task_version":"prescreen-v0.3","browser_interactions":0},{"responses":{"01":"No","02":"Yes","02_ages_15":"15","03":"Yes","03_ages_15":"15","04":"No","05":"No","06":"Yes","06_ages_17":"17","07":"No","08":"Yes","08_ages_15":"15"},"rt":122721,"item_order":[0,1,2,3,4,5,6,7],"radio_events":[61922,71659,81162,88732,90081,95643,102730,103400,107367],"checkbox_events":[76244,84066,97097,108775],"key_events":[],"mouse_events":[61922,71659,76244,81162,84066,88732,90081,95643,97097,102730,103400,107367,108775,122721],"honeypot":0,"survey":"mace","page":10,"trial_type":"survey-mace","trial_index":18,"time_elapsed":1507852,"internal_node_id":"0.0-18.0","task_version":"prescreen-v0.3","browser_interactions":4,"instructed":0},{"rt":394071,"trial_type":"mental-health-alert","trial_index":19,"time_elapsed":1901924,"internal_node_id":"0.0-19.0","task_version":"prescreen-v0.3","interactions":"[{\"event\":\"focus\",\"trial\":0,\"time\":35803},{\"event\":\"blur\",\"trial\":2,\"time\":76578},{\"event\":\"focus\",\"trial\":2,\"time\":81726},{\"event\":\"blur\",\"trial\":2,\"time\":89147},{\"event\":\"focus\",\"trial\":2,\"time\":91830},{\"event\":\"blur\",\"trial\":2,\"time\":92992},{\"event\":\"focus\",\"trial\":2,\"time\":98306},{\"event\":\"blur\",\"trial\":2,\"time\":131332},{\"event\":\"focus\",\"trial\":2,\"time\":134256},{\"event\":\"blur\",\"trial\":2,\"time\":135208},{\"event\":\"focus\",\"trial\":2,\"time\":137044},{\"event\":\"blur\",\"trial\":2,\"time\":186339},{\"event\":\"focus\",\"trial\":2,\"time\":195461},{\"event\":\"blur\",\"trial\":2,\"time\":196203},{\"event\":\"focus\",\"trial\":2,\"time\":198282},{\"event\":\"blur\",\"trial\":3,\"time\":203357},{\"event\":\"focus\",\"trial\":3,\"time\":209243},{\"event\":\"blur\",\"trial\":3,\"time\":214804},{\"event\":\"focus\",\"trial\":3,\"time\":219709},{\"event\":\"blur\",\"trial\":3,\"time\":224325},{\"event\":\"focus\",\"trial\":3,\"time\":245921},{\"event\":\"blur\",\"trial\":4,\"time\":315737},{\"event\":\"focus\",\"trial\":4,\"time\":334232},{\"event\":\"blur\",\"trial\":8,\"time\":414405},{\"event\":\"focus\",\"trial\":8,\"time\":425323},{\"event\":\"blur\",\"trial\":8,\"time\":427280},{\"event\":\"focus\",\"trial\":8,\"time\":677324},{\"event\":\"blur\",\"trial\":8,\"time\":678693},{\"event\":\"focus\",\"trial\":8,\"time\":882352},{\"event\":\"blur\",\"trial\":8,\"time\":884111},{\"event\":\"focus\",\"trial\":8,\"time\":1005385},{\"event\":\"blur\",\"trial\":13,\"time\":1167197},{\"event\":\"focus\",\"trial\":13,\"time\":1170255},{\"event\":\"blur\",\"trial\":13,\"time\":1172922},{\"event\":\"focus\",\"trial\":13,\"time\":1174126},{\"event\":\"blur\",\"trial\":14,\"time\":1206583},{\"event\":\"focus\",\"trial\":14,\"time\":1209886},{\"event\":\"blur\",\"trial\":14,\"time\":1214530},{\"event\":\"focus\",\"trial\":14,\"time\":1217055},{\"event\":\"blur\",\"trial\":16,\"time\":1284548},{\"event\":\"focus\",\"trial\":16,\"time\":1286004},{\"event\":\"blur\",\"trial\":18,\"time\":1387230},{\"event\":\"focus\",\"trial\":18,\"time\":1398900},{\"event\":\"blur\",\"trial\":18,\"time\":1434526},{\"event\":\"focus\",\"trial\":18,\"time\":1442803},{\"event\":\"blur\",\"trial\":19,\"time\":1512971},{\"event\":\"focus\",\"trial\":19,\"time\":1514328},{\"event\":\"blur\",\"trial\":19,\"time\":1517353},{\"event\":\"focus\",\"trial\":19,\"time\":1522814},{\"event\":\"blur\",\"trial\":19,\"time\":1525926},{\"event\":\"focus\",\"trial\":19,\"time\":1897852},{\"event\":\"blur\",\"trial\":19,\"time\":1898678},{\"event\":\"focus\",\"trial\":19,\"time\":1899872}]"}]