[{"view_history":[{"page_index":0,"viewing_time":2956.2999999970198},{"page_index":1,"viewing_time":3890.7000000029802},{"page_index":2,"viewing_time":3778.0999999940395},{"page_index":3,"viewing_time":1891.9000000059605}],"rt":12517.5,"trial_type":"instructions","trial_index":0,"time_elapsed":12528,"internal_node_id":"0.0-0.0","task_version":"prescreen-v0.3"},{"rt":29236.40000000596,"responses":{"age":"31","gender-categorical":"Male","gender-free-response":"","ethnicity":"Not Hispanic or Latino","race":["White"],"education":"Some college","siblings":"1"},"trial_type":"survey-demo","trial_index":1,"time_elapsed":41768,"internal_node_id":"0.0-1.0","task_version":"prescreen-v0.3"},{"responses":{"Q13":"1","Q04":"0","Q16":"0","Q21":"3","Q14":"1","Q05":"0","Q08":"1","Q18":"0","Q06":"1","Q20":"0","Q15":"0","Q01":"0","Q10":"0","Q07":"0","Q02":"0","Q17":"0","Q09":"0","Q11":"0","Q03":"0","Q19":"0","Q12":"0"},"rt":84238.29999999702,"item_order":[12,3,15,20,13,4,7,17,5,19,14,0,9,6,1,16,8,10,2,18,11],"radio_events":[15018.79999999702,17043.90000000596,20026.79999999702,23995,27083.90000000596,33736,36138.10000000894,39950.10000000894,47260,49342.79999999702,53089.90000000596,54898.10000000894,56688.79999999702,59152.79999999702,64344.90000000596,66206.90000000596,70984.79999999702,72639.90000000596,73981.79999999702,78767.79999999702,83116.79999999702],"key_events":[],"mouse_events":[11084.20000000298,15018.79999999702,17043.90000000596,20026.79999999702,23995,27083.90000000596,33736,36138.10000000894,39950.10000000894,47260,49342.79999999702,53089.90000000596,54898.10000000894,56688.79999999702,59152.79999999702,64344.90000000596,66206.90000000596,70984.79999999702,72639.90000000596,73981.79999999702,78767.79999999702,83116.79999999702,84237],"straightlining":0.7619047619047619,"zigzagging":0.35,"honeypot":0,"survey":"sns","trial_type":"survey-template","trial_index":2,"time_elapsed":126010,"internal_node_id":"0.0-2.0","task_version":"prescreen-v0.3","browser_interactions":0,"infrequency":0},{"responses":{"Q06":"3","Q04":"1","Q03":"1","Q10":"2","Q01":"1","Q09":"2","Q07":"3","Q13":"0","Q12":"2","Q08":"3","Q05":"3","Q02":"0","Q11":"2"},"rt":46601.70000000298,"item_order":[5,3,2,9,0,8,6,12,11,7,4,1,10],"radio_events":[4294,8323.90000000596,11131.90000000596,13150.10000000894,15386.90000000596,16758.79999999702,18789.10000000894,22291.10000000894,26147.20000000298,30965,35877.90000000596,38657.79999999702,40402.70000000298,45606.79999999702],"key_events":[],"mouse_events":[4294,8323.90000000596,11131.90000000596,13150.10000000894,15386.90000000596,16758.79999999702,18789.10000000894,22291.10000000894,26147.20000000298,30965,34874.70000000298,35877.90000000596,38657.79999999702,40402.70000000298,45606.79999999702,46601],"straightlining":0.3076923076923077,"zigzagging":0.5833333333333334,"honeypot":0,"survey":"bisbas","trial_type":"survey-template","trial_index":3,"time_elapsed":172613,"internal_node_id":"0.0-3.0","task_version":"prescreen-v0.3","browser_interactions":0,"infrequency":0},{"responses":{"Q01":"3","Q02":"3","Q03":"3"},"rt":22031.59999999404,"radio_events":[10542.09999999404,15631.20000000298,21462.09999999404],"key_events":[],"mouse_events":[8439.20000000298,10542.09999999404,13806,14978.09999999404,15631.20000000298,20131.5,20896.09999999404,21462.09999999404,22031.09999999404],"survey":"map","page":1,"trial_type":"survey-map","trial_index":4,"time_elapsed":194647,"internal_node_id":"0.0-4.0","task_version":"prescreen-v0.3","browser_interactions":0},{"responses":{"Q04":"4","Q05":"3","Q06":"4"},"rt":20743.40000000596,"radio_events":[6295.20000000298,14826.20000000298,19658.29999999702],"key_events":[],"mouse_events":[6295.20000000298,14826.20000000298,19658.29999999702,20743],"survey":"map","page":2,"trial_type":"survey-map","trial_index":5,"time_elapsed":215392,"internal_node_id":"0.0-5.0","task_version":"prescreen-v0.3","browser_interactions":0},{"responses":{"Q07":"2","Q08":"2","Q09":"2"},"rt":17181.20000000298,"radio_events":[7830.5,10996.40000000596,14073.60000000894,16131.5],"key_events":[],"mouse_events":[7830.5,10996.40000000596,14073.60000000894,16131.5,17180.90000000596],"survey":"map","page":3,"trial_type":"survey-map","trial_index":6,"time_elapsed":232574,"internal_node_id":"0.0-6.0","task_version":"prescreen-v0.3","browser_interactions":0},{"responses":{"Q10":"4","Q11":"3","Q12":"3","Q13":"3","Q16":"0","Q14":"4","Q15":"4"},"rt":41440.59999999404,"radio_events":[7521.899999991059,15167.89999999106,22142,27446,30938.79999999702,35971,40260],"key_events":[],"mouse_events":[7521.899999991059,13275.89999999106,14066.79999999702,15167.89999999106,22142,27446,28945,30938.79999999702,35971,40260,41440],"survey":"map","page":4,"trial_type":"survey-map","trial_index":7,"time_elapsed":274016,"internal_node_id":"0.0-7.0","task_version":"prescreen-v0.3","browser_interactions":0,"infrequency":0},{"view_history":[{"page_index":0,"viewing_time":3944.2000000029802},{"page_index":1,"viewing_time":6089.0999999940395}],"rt":10033.79999999702,"trial_type":"instructions","trial_index":8,"time_elapsed":284050,"internal_node_id":"0.0-8.0","task_version":"prescreen-v0.3"},{"responses":{"01":"Yes","01_ages_7":"7","01_ages_8":"8","01_ages_9":"9","01_ages_10":"10","02":"Yes","02_ages_7":"7","02_ages_8":"8","02_ages_9":"9","02_ages_10":"10","03":"No","04":"No","05":"No","06":"No"},"rt":42019.59999999404,"item_order":[0,1,2,3,4,5],"radio_events":[9719,21131.79999999702,23108.69999998808,31894.69999998808,34388.69999998808,37113.69999998808,40605.79999999702],"checkbox_events":[14746,15360.699999988079,15951.89999999106,16534.89999999106,25267.79999999702,25746.79999999702,26244.59999999404,26749.89999999106,27213.79999999702,27965.59999999404],"key_events":[],"mouse_events":[0,9719,14746,15360.699999988079,15951.89999999106,16534.89999999106,19848.29999999702,21131.79999999702,23108.69999998808,24111.69999998808,24712.59999999404,25267.79999999702,25746.79999999702,26244.59999999404,26749.89999999106,27213.79999999702,27965.59999999404,29395.89999999106,31894.69999998808,34388.69999998808,37113.69999998808,40605.79999999702,42018],"honeypot":0,"survey":"mace","page":1,"trial_type":"survey-mace","trial_index":9,"time_elapsed":326074,"internal_node_id":"0.0-9.0","task_version":"prescreen-v0.3","browser_interactions":0},{"responses":{"01":"No","02":"No","03":"Yes","03_ages_4":"4","03_ages_5":"5","04":"No","05":"Yes","05_ages_4":"4","05_ages_5":"5","05_ages_6":"6","05_ages_7":"7","06":"No","07":"No","08":"No"},"rt":37933.60000000894,"item_order":[0,1,2,3,4,5,6,7],"radio_events":[6011.4000000059605,8873.40000000596,10675.40000000596,16801.29999999702,19493.20000000298,34238.20000000298,35470.40000000596,37018.29999999702],"checkbox_events":[12331.29999999702,12905.40000000596,21539.29999999702,21953.20000000298,22479.40000000596,23805.29999999702],"key_events":[],"mouse_events":[6011.4000000059605,8873.40000000596,10675.40000000596,12331.29999999702,12905.40000000596,13918.40000000596,16801.29999999702,19493.20000000298,20579.40000000596,21539.29999999702,21953.20000000298,22479.40000000596,23071.79999999702,23805.29999999702,26197.20000000298,34238.20000000298,35470.40000000596,37018.29999999702,37931.29999999702],"honeypot":0,"survey":"mace","page":2,"trial_type":"survey-mace","trial_index":10,"time_elapsed":364011,"internal_node_id":"0.0-10.0","task_version":"prescreen-v0.3","browser_interactions":0},{"responses":{"01":"No","02":"No","03":"No","04":"No"},"rt":16749.89999999106,"item_order":[0,1,2,3],"radio_events":[9243.79999999702,10824.79999999702,14549.699999988079,15390],"checkbox_events":[],"key_events":[],"mouse_events":[9243.79999999702,10824.79999999702,14549.699999988079,15390,16748.69999998808],"honeypot":0,"survey":"mace","page":3,"trial_type":"survey-mace","trial_index":11,"time_elapsed":380763,"internal_node_id":"0.0-11.0","task_version":"prescreen-v0.3","browser_interactions":0},{"responses":{"01":"No","02":"No"},"rt":11863,"item_order":[0,1],"radio_events":[8301.20000000298,10738.29999999702],"checkbox_events":[],"key_events":[],"mouse_events":[7559.20000000298,8301.20000000298,10738.29999999702,11862.40000000596],"honeypot":0,"survey":"mace","page":4,"trial_type":"survey-mace","trial_index":12,"time_elapsed":392627,"internal_node_id":"0.0-12.0","task_version":"prescreen-v0.3","browser_interactions":0},{"responses":{"01":"No","02":"No","03":"No","04":"No","05":"Yes","05_ages_12":"12","05_ages_13":"13"},"rt":30570.09999999404,"item_order":[0,1,2,3,4],"radio_events":[13776.699999988079,16102.699999988079,18133.79999999702,20940.79999999702,26077.69999998808],"checkbox_events":[28634.79999999702,29278.69999998808],"key_events":[],"mouse_events":[13776.699999988079,16102.699999988079,18133.79999999702,20940.79999999702,26077.69999998808,28634.79999999702,29278.69999998808,30568.79999999702],"honeypot":0,"survey":"mace","page":5,"trial_type":"survey-mace","trial_index":13,"time_elapsed":423199,"internal_node_id":"0.0-13.0","task_version":"prescreen-v0.3","browser_interactions":0},{"responses":{"01":"Yes","01_ages_8":"8","01_ages_9":"9","01_ages_10":"10","02":"Yes","02_ages_8":"8","02_ages_9":"9","02_ages_10":"10","02_ages_11":"11","03":"No","04":"Yes","04_ages_9":"9","04_ages_10":"10","04_ages_11":"11","05":"No"},"rt":39419,"item_order":[0,1,2,3,4],"radio_events":[15409.5,23995.5,30943.5,32903.40000000596,38841.5],"checkbox_events":[17260.5,17834.40000000596,19026.5,20175.60000000894,20811.60000000894,26517.30000001192,27379.30000001192,27839.30000001192,28712.60000000894,34057.40000000596,34650.5,35212.40000000596],"key_events":[],"mouse_events":[15409.5,17260.5,17834.40000000596,19026.5,20175.60000000894,20811.60000000894,21367.5,23995.5,25187.30000001192,25504.40000000596,26517.30000001192,27024.5,27379.30000001192,27839.30000001192,28712.60000000894,30943.5,32903.40000000596,34057.40000000596,34650.5,35212.40000000596,38841.5,39417.60000000894],"honeypot":0,"survey":"mace","page":6,"trial_type":"survey-mace","trial_index":14,"time_elapsed":462619,"internal_node_id":"0.0-14.0","task_version":"prescreen-v0.3","browser_interactions":0},{"responses":{"01":"Yes","01_ages_13":"13","02":"No","03":"Yes","03_ages_12":"12","03_ages_13":"13","04":"No","05":"No","06":"No","07":"No"},"rt":24899,"item_order":[0,1,2,3,4,5,6],"radio_events":[3814.2999999970198,10313.10000000894,15113.29999999702,19724.60000000894,21046.40000000596,22468.10000000894,24078.29999999702],"checkbox_events":[5512.4000000059605,16356.29999999702,16841.29999999702],"key_events":[],"mouse_events":[3814.2999999970198,5512.4000000059605,10313.10000000894,15113.29999999702,16356.29999999702,16841.29999999702,19724.60000000894,21046.40000000596,22468.10000000894,24078.29999999702,24897.10000000894],"honeypot":0,"survey":"mace","page":7,"trial_type":"survey-mace","trial_index":15,"time_elapsed":487521,"internal_node_id":"0.0-15.0","task_version":"prescreen-v0.3","browser_interactions":0},{"responses":{"01":"No","02":"No","03":"Yes","03_ages_7":"7","03_ages_8":"8","03_ages_9":"9","03_ages_10":"10","04":"Yes","04_ages_7":"7","04_ages_8":"8","04_ages_9":"9","04_ages_10":"10"},"rt":32702.5,"item_order":[0,1,2,3],"radio_events":[8919.29999999702,13291.29999999702,17476.20000000298,26344.20000000298],"checkbox_events":[19550.29999999702,20402.29999999702,21017.10000000894,21481.20000000298,27338.29999999702,30740.29999999702,31371.29999999702,31845.20000000298],"key_events":[],"mouse_events":[8919.29999999702,13291.29999999702,17476.20000000298,19550.29999999702,19957.29999999702,20402.29999999702,21017.10000000894,21481.20000000298,22097.29999999702,26344.20000000298,27338.29999999702,27829.29999999702,30740.29999999702,31371.29999999702,31845.20000000298,32701.29999999702],"honeypot":0,"survey":"mace","page":8,"trial_type":"survey-mace","trial_index":16,"time_elapsed":520225,"internal_node_id":"0.0-16.0","task_version":"prescreen-v0.3","browser_interactions":0},{"responses":{"01":"Yes","01_ages_1":"1","01_ages_2":"2","01_ages_3":"3","01_ages_4":"4","01_ages_5":"5","01_ages_6":"6","01_ages_7":"7","01_ages_8":"8","01_ages_9":"9","01_ages_10":"10","01_ages_11":"11","01_ages_12":"12","01_ages_13":"13","01_ages_14":"14","01_ages_15":"15","01_ages_16":"16","01_ages_17":"17","01_ages_18":"18","02":"Yes","02_ages_1":"1","02_ages_2":"2","02_ages_3":"3","02_ages_4":"4","02_ages_5":"5","02_ages_6":"6","02_ages_7":"7","02_ages_8":"8","02_ages_9":"9","02_ages_10":"10","02_ages_11":"11","02_ages_12":"12","02_ages_13":"13","02_ages_14":"14","02_ages_15":"15","02_ages_16":"16","02_ages_17":"17","02_ages_18":"18","03":"Yes","03_ages_1":"1","03_ages_2":"2","03_ages_3":"3","03_ages_4":"4","03_ages_5":"5","03_ages_6":"6","03_ages_7":"7","03_ages_8":"8","03_ages_9":"9","03_ages_10":"10","03_ages_11":"11","03_ages_12":"12","03_ages_13":"13","03_ages_14":"14","03_ages_15":"15","03_ages_16":"16","03_ages_17":"17","03_ages_18":"18","04":"Yes","04_ages_1":"1","04_ages_2":"2","04_ages_3":"3","04_ages_4":"4","04_ages_5":"5","04_ages_6":"6","04_ages_7":"7","04_ages_8":"8","04_ages_9":"9","04_ages_10":"10","04_ages_11":"11","04_ages_12":"12","04_ages_13":"13","04_ages_14":"14","04_ages_15":"15","04_ages_16":"16","04_ages_17":"17","04_ages_18":"18"},"rt":66126.09999999404,"item_order":[0,1,2,3],"radio_events":[7267,22813.09999999404,37649,53953],"checkbox_events":[9411.09999999404,11556,12069.09999999404,12496.09999999404,13211,13756.09999999404,14112.90000000596,14474,15186.20000000298,15544.09999999404,15987.09999999404,16616.09999999404,17602.09999999404,18049.09999999404,18740.20000000298,19155,19543,20217.90000000596,25128.90000000596,25753,26230.09999999404,26884.90000000596,27308.09999999404,27773.09999999404,28495,29062,29490,30160.09999999404,30616,31647.09999999404,32028.09999999404,32436.09999999404,32875.90000000596,33295,33674,34065,38531.90000000596,38895,39874,40240,41402.79999999702,41577.20000000298,42466.90000000596,42921.09999999404,43298.09999999404,43484.09999999404,43923.09999999404,44195.09999999404,44557,44833.20000000298,46108.09999999404,46900.09999999404,47546.09999999404,48000,48846.90000000596,50038.09999999404,55391,56060.09999999404,57434,57921,58528.90000000596,59098.90000000596,59651.79999999702,60116.09999999404,60534,60991.09999999404,61381,62071.90000000596,62489.09999999404,62899.90000000596,63529,63856.79999999702,64013.90000000596,64351.90000000596,64814.09999999404,65510.90000000596],"key_events":[],"mouse_events":[7267,9411.09999999404,10306.20000000298,11556,12069.09999999404,12496.09999999404,13211,13756.09999999404,14112.90000000596,14474,14822.90000000596,15186.20000000298,15544.09999999404,15987.09999999404,16616.09999999404,17052.90000000596,17602.09999999404,18049.09999999404,18740.20000000298,19155,19543,20217.90000000596,22813.09999999404,24168.20000000298,24760.90000000596,25128.90000000596,25753,26230.09999999404,26884.90000000596,27308.09999999404,27773.09999999404,28495,29062,29490,30160.09999999404,30616,31132.90000000596,31647.09999999404,32028.09999999404,32436.09999999404,32875.90000000596,33295,33674,34065,37649,38531.90000000596,38895,39249.90000000596,39593.90000000596,39874,40240,40499,40675.09999999404,40832,40972.09999999404,41226.90000000596,41402.79999999702,41577.20000000298,41707.90000000596,41866.20000000298,42016,42167,42308.90000000596,42466.90000000596,42619.90000000596,42765.09999999404,42921.09999999404,43298.09999999404,43484.09999999404,43923.09999999404,44195.09999999404,44557,44833.20000000298,45113.40000000596,45310.79999999702,45800.79999999702,46108.09999999404,46900.09999999404,47546.09999999404,48000,48846.90000000596,50038.09999999404,53953,55391,56060.09999999404,56809,57434,57921,58528.90000000596,59098.90000000596,59651.79999999702,60116.09999999404,60534,60991.09999999404,61381,61760.90000000596,62071.90000000596,62489.09999999404,62899.90000000596,63312.20000000298,63529,63708.09999999404,63856.79999999702,64013.90000000596,64178,64351.90000000596,64533.90000000596,64814.09999999404,65510.90000000596,66124.90000000596],"honeypot":0,"survey":"mace","page":9,"trial_type":"survey-mace","trial_index":17,"time_elapsed":586354,"internal_node_id":"0.0-17.0","task_version":"prescreen-v0.3","browser_interactions":0},{"responses":{"01":"No","02":"No","03":"Yes","03_ages_15":"15","03_ages_16":"16","03_ages_17":"17","03_ages_18":"18","04":"No","05":"No","06":"Yes","06_ages_17":"17","07":"Yes","07_ages_1":"1","07_ages_2":"2","07_ages_3":"3","07_ages_4":"4","07_ages_5":"5","07_ages_6":"6","07_ages_7":"7","07_ages_8":"8","07_ages_9":"9","07_ages_10":"10","07_ages_11":"11","07_ages_12":"12","07_ages_13":"13","07_ages_14":"14","07_ages_15":"15","07_ages_16":"16","07_ages_17":"17","07_ages_18":"18","08":"Yes","08_ages_1":"1","08_ages_2":"2","08_ages_3":"3","08_ages_4":"4","08_ages_5":"5","08_ages_6":"6","08_ages_7":"7","08_ages_8":"8","08_ages_9":"9","08_ages_10":"10","08_ages_11":"11","08_ages_12":"12","08_ages_13":"13","08_ages_14":"14","08_ages_15":"15","08_ages_16":"16","08_ages_17":"17","08_ages_18":"18"},"rt":57074.90000000596,"item_order":[0,1,2,3,4,5,6,7],"radio_events":[6663.4000000059605,8375.70000000298,10285.70000000298,12558.40000000596,17718.5,21363.59999999404,24453.5,28909.40000000596,42346.59999999404],"checkbox_events":[13795.5,14378.5,14989.5,15651.40000000596,26098.5,31477.5,33046.59999999404,33680.40000000596,34114.5,34559.40000000596,35041.40000000596,35657.5,36152.40000000596,36612.40000000596,37327.40000000596,37842.40000000596,38275.40000000596,38711.40000000596,39077.40000000596,39600.29999999702,40278.40000000596,40808.40000000596,41119.5,45553.5,45901.70000000298,46570.5,46898.5,47638.40000000596,48004.40000000596,48371.40000000596,49290.70000000298,49729.5,50084.40000000596,50726.5,51706.5,52199.5,53311.59999999404,54020.59999999404,54969.5,55693.59999999404,56113.40000000596],"key_events":[],"mouse_events":[6663.4000000059605,8375.70000000298,10285.70000000298,12558.40000000596,13795.5,14378.5,14989.5,15651.40000000596,17718.5,21363.59999999404,22380.5,24453.5,26098.5,28909.40000000596,30843.70000000298,31477.5,33046.59999999404,33680.40000000596,34114.5,34559.40000000596,35041.40000000596,35657.5,36152.40000000596,36612.40000000596,37327.40000000596,37842.40000000596,38275.40000000596,38711.40000000596,39077.40000000596,39600.29999999702,40278.40000000596,40808.40000000596,41119.5,42346.59999999404,43283.29999999702,43484.40000000596,43637.29999999702,43813.40000000596,43979.59999999404,44116.70000000298,44263.40000000596,44405.5,44563.59999999404,44714.5,44872.59999999404,45553.5,45901.70000000298,46218.70000000298,46570.5,46898.5,47265.59999999404,47638.40000000596,48004.40000000596,48371.40000000596,49290.70000000298,49729.5,50084.40000000596,50404.59999999404,50726.5,51044.59999999404,51379.40000000596,51706.5,52199.5,52903.40000000596,53311.59999999404,53735.59999999404,54020.59999999404,54969.5,55693.59999999404,56113.40000000596,57072.70000000298],"honeypot":0,"survey":"mace","page":10,"trial_type":"survey-mace","trial_index":18,"time_elapsed":643431,"internal_node_id":"0.0-18.0","task_version":"prescreen-v0.3","browser_interactions":0,"instructed":0},{"rt":8391.89999999106,"trial_type":"mental-health-alert","trial_index":19,"time_elapsed":651824,"internal_node_id":"0.0-19.0","task_version":"prescreen-v0.3","interactions":"[{\"event\":\"blur\",\"trial\":1,\"time\":26530},{\"event\":\"focus\",\"trial\":1,\"time\":30012}]"}]