[{"view_history":[{"page_index":0,"viewing_time":3816.599999964237},{"page_index":1,"viewing_time":6905.900000035763},{"page_index":2,"viewing_time":4897.899999976158},{"page_index":3,"viewing_time":1611.199999988079}],"rt":17232.399999976158,"trial_type":"instructions","trial_index":0,"time_elapsed":17244,"internal_node_id":"0.0-0.0","task_version":"prescreen-v0.3"},{"rt":12219.300000011921,"responses":{"age":"43","gender-categorical":"Male","gender-free-response":"","ethnicity":"Not Hispanic or Latino","race":["Asian"],"education":"Associate degree"},"trial_type":"survey-demo","trial_index":1,"time_elapsed":29469,"internal_node_id":"0.0-1.0","task_version":"prescreen-v0.3"},{"responses":{"Q20":"0","Q06":"1","Q16":"1","Q02":"0","Q17":"0","Q03":"0","Q09":"0","Q11":"1","Q12":"0","Q21":"3","Q15":"2","Q01":"1","Q18":"0","Q13":"2","Q07":"0","Q04":"2","Q05":"0","Q19":"0","Q14":"2","Q08":"1","Q10":"0"},"rt":104611.19999998808,"item_order":[19,5,15,1,16,2,8,10,11,20,14,0,17,12,6,3,4,18,13,7,9],"radio_events":[3390.800000011921,14780.800000011921,19040.899999976158,22930,27316.80000001192,29173.599999964237,31665,35378.39999997616,42626.69999998808,45133.69999998808,52366.09999996424,55652.69999998808,61497.09999996424,65622.80000001192,76420.39999997616,81831,88162,94763.19999998808,96746.59999996424,100332.5,102903.19999998808],"key_events":[],"mouse_events":[3390.800000011921,13995.800000011921,14780.800000011921,19040.899999976158,22930,27316.80000001192,29173.599999964237,31665,35378.39999997616,40866,42626.69999998808,45133.69999998808,52366.09999996424,55652.69999998808,61497.09999996424,65622.80000001192,74691,75309.69999998808,75817.09999996424,76420.39999997616,81307.59999996424,81831,88162,94001.69999998808,94763.19999998808,96746.59999996424,100332.5,102903.19999998808,104609.09999996424],"straightlining":0.5238095238095238,"zigzagging":0.5,"honeypot":0,"survey":"sns","trial_type":"survey-template","trial_index":2,"time_elapsed":134087,"internal_node_id":"0.0-2.0","task_version":"prescreen-v0.3","browser_interactions":0,"infrequency":0},{"responses":{"Q01":"2","Q04":"3","Q11":"2","Q08":"3","Q13":"0","Q06":"3","Q12":"2","Q05":"3","Q03":"2","Q09":"3","Q02":"2","Q07":"3","Q10":"2"},"rt":76270.89999997616,"item_order":[0,3,10,7,12,5,11,4,2,8,1,6,9],"radio_events":[5870.899999976158,12027.099999964237,17103.69999998808,18690.5,24021,27464.5,38992.30000001192,46489.59999996424,50353.19999998808,55239.89999997616,62726.69999998808,66352.89999997616,72508.80000001192,75063.80000001192],"key_events":[],"mouse_events":[5870.899999976158,11066.899999976158,12027.099999964237,17103.69999998808,18690.5,22815.399999976158,23394.099999964237,24021,27464.5,38992.30000001192,46489.59999996424,49797.59999996424,50353.19999998808,55239.89999997616,62726.69999998808,64313.69999998808,66352.89999997616,72508.80000001192,74500.30000001192,75063.80000001192,76269.69999998808],"straightlining":0.46153846153846156,"zigzagging":1,"honeypot":0,"survey":"bisbas","trial_type":"survey-template","trial_index":3,"time_elapsed":210363,"internal_node_id":"0.0-3.0","task_version":"prescreen-v0.3","browser_interactions":0,"infrequency":0},{"responses":{"Q01":"4","Q02":"3","Q03":"4"},"rt":26129.69999998808,"radio_events":[8356.199999988079,12917.5,17915.30000001192,25411.19999998808],"key_events":[],"mouse_events":[7642.699999988079,8356.199999988079,12917.5,17915.30000001192,23753.600000023842,24419.69999998808,24919.399999976158,25411.19999998808,26128.899999976158],"survey":"map","page":1,"trial_type":"survey-map","trial_index":4,"time_elapsed":236496,"internal_node_id":"0.0-4.0","task_version":"prescreen-v0.3","browser_interactions":0},{"responses":{"Q04":"2","Q05":"2","Q06":"3"},"rt":16710,"radio_events":[5380.399999976158,9456.899999976158,12830.699999988079,14987.699999988079],"key_events":[],"mouse_events":[5380.399999976158,9456.899999976158,12830.699999988079,14987.699999988079,15717.5,16709.399999976158],"survey":"map","page":2,"trial_type":"survey-map","trial_index":5,"time_elapsed":253209,"internal_node_id":"0.0-5.0","task_version":"prescreen-v0.3","browser_interactions":0},{"responses":{"Q07":"4","Q08":"4","Q09":"2"},"rt":15739.300000011921,"radio_events":[7131.600000023842,10208.199999988079,13444.800000011921],"key_events":[],"mouse_events":[7131.600000023842,10208.199999988079,13444.800000011921,15738.600000023842],"survey":"map","page":3,"trial_type":"survey-map","trial_index":6,"time_elapsed":268951,"internal_node_id":"0.0-6.0","task_version":"prescreen-v0.3","browser_interactions":0},{"responses":{"Q10":"3","Q11":"2","Q12":"4","Q13":"1","Q16":"0","Q14":"2","Q15":"1"},"rt":57176.80000001192,"radio_events":[5389.899999976158,10687.600000023842,20008.899999976158,37401.30000001192,42026.19999998808,50963.10000002384,56271.19999998808],"key_events":[],"mouse_events":[4787.300000011921,5389.899999976158,10085.399999976158,10687.600000023842,18003.100000023842,20008.899999976158,36830.39999997616,37401.30000001192,42026.19999998808,50963.10000002384,56271.19999998808,57175.5],"survey":"map","page":4,"trial_type":"survey-map","trial_index":7,"time_elapsed":326131,"internal_node_id":"0.0-7.0","task_version":"prescreen-v0.3","browser_interactions":0,"infrequency":0},{"view_history":[{"page_index":0,"viewing_time":3066.100000023842},{"page_index":1,"viewing_time":4636.600000023842}],"rt":7703.400000035763,"trial_type":"instructions","trial_index":8,"time_elapsed":333836,"internal_node_id":"0.0-8.0","task_version":"prescreen-v0.3"},{"responses":{"01":"Yes","01_ages_7":"7","01_ages_8":"8","01_ages_9":"9","01_ages_10":"10","01_ages_11":"11","01_ages_12":"12","01_ages_13":"13","01_ages_14":"14","01_ages_15":"15","01_ages_16":"16","01_ages_17":"17","01_ages_18":"18","02":"Yes","02_ages_7":"7","02_ages_8":"8","02_ages_9":"9","02_ages_10":"10","02_ages_11":"11","02_ages_12":"12","02_ages_13":"13","02_ages_14":"14","02_ages_15":"15","02_ages_16":"16","02_ages_17":"17","02_ages_18":"18","03":"Yes","03_ages_8":"8","04":"No","05":"No","06":"Yes","06_ages_9":"9","06_ages_10":"10","06_ages_11":"11","06_ages_12":"12","06_ages_14":"14"},"rt":85317.80000001192,"item_order":[0,1,2,3,4,5],"radio_events":[7178.5,34276.69999998808,50310.19999998808,57695.30000001192,60067.30000001192,64651.40000003576],"checkbox_events":[12119.300000011921,19265.69999998808,21828.30000001192,22565.900000035763,23446.600000023842,23898.600000023842,24398.600000023842,25929.80000001192,26540.69999998808,27365.69999998808,28135.5,29168.5,36275.80000001192,36863.10000002384,37450.10000002384,38004.90000003576,38648,39178.80000001192,39782,40305.60000002384,40924.19999998808,41503.5,42003.5,43852.30000001192,54450.60000002384,66808.90000003576,72877.60000002384,81435,82965.90000003576,84101],"key_events":[],"mouse_events":[0,7178.5,12119.300000011921,19265.69999998808,21828.30000001192,22565.900000035763,23010.100000023842,23446.600000023842,23898.600000023842,24398.600000023842,25104.69999998808,25358.80000001192,25929.80000001192,26540.69999998808,27365.69999998808,28135.5,29168.5,33808.30000001192,34276.69999998808,36275.80000001192,36863.10000002384,37450.10000002384,38004.90000003576,38648,39178.80000001192,39782,40305.60000002384,40924.19999998808,41503.5,42003.5,43352.10000002384,43852.30000001192,50310.19999998808,54450.60000002384,57695.30000001192,60067.30000001192,64651.40000003576,66808.90000003576,72877.60000002384,81435,82014.10000002384,82490.30000001192,82965.90000003576,83688.5,84101,85315.10000002384],"honeypot":0,"survey":"mace","page":1,"trial_type":"survey-mace","trial_index":9,"time_elapsed":419161,"internal_node_id":"0.0-9.0","task_version":"prescreen-v0.3","browser_interactions":0},{"responses":{"01":"No","02":"No","03":"Yes","03_ages_2":"2","03_ages_3":"3","03_ages_4":"4","03_ages_5":"5","03_ages_6":"6","03_ages_7":"7","03_ages_8":"8","03_ages_9":"9","03_ages_10":"10","03_ages_11":"11","03_ages_12":"12","03_ages_13":"13","04":"Yes","04_ages_2":"2","04_ages_3":"3","04_ages_4":"4","04_ages_5":"5","04_ages_6":"6","04_ages_7":"7","04_ages_8":"8","04_ages_9":"9","05":"Yes","05_ages_2":"2","05_ages_3":"3","05_ages_4":"4","05_ages_5":"5","05_ages_6":"6","05_ages_7":"7","05_ages_8":"8","05_ages_9":"9","05_ages_10":"10","05_ages_11":"11","05_ages_12":"12","05_ages_13":"13","06":"No","07":"No","08":"No"},"rt":60644.200000047684,"item_order":[0,1,2,3,4,5,6,7],"radio_events":[4950.100000023842,8535.700000047684,12089.200000047684,28020.100000023842,39024.30000001192,52469.5,59118.40000003576,59688.60000002384],"checkbox_events":[14913.600000023842,15374.100000023842,16207.600000023842,17198.80000001192,17897,18610.600000023842,19205.700000047684,19895.80000001192,20411.30000001192,21125.200000047684,22181,24402.5,24925.600000023842,26060.5,31186.30000001192,31630,32146.200000047684,32685.400000035763,33177.200000047684,34597.60000002384,35351.40000003576,36398.30000001192,40793,41824.700000047684,43569.60000002384,44173.10000002384,45036.90000003576,45607.60000002384,46147.60000002384,46742.5,47829.30000001192,48431.80000001192,49003,49589.700000047684],"key_events":[],"mouse_events":[4950.100000023842,8535.700000047684,10241.400000035763,12089.200000047684,14913.600000023842,15374.100000023842,15873.900000035763,16207.600000023842,16730.600000023842,17198.80000001192,17897,18610.600000023842,19205.700000047684,19895.80000001192,20411.30000001192,21125.200000047684,21800.400000035763,22181,24402.5,24925.600000023842,25584.200000047684,26060.5,28020.100000023842,31186.30000001192,31630,32146.200000047684,32685.400000035763,33177.200000047684,33780.10000002384,34049.90000003576,34597.60000002384,35351.40000003576,36398.30000001192,39024.30000001192,40793,41316.80000001192,41824.700000047684,42467.60000002384,42848.200000047684,43078.200000047684,43569.60000002384,44173.10000002384,45036.90000003576,45607.60000002384,46147.60000002384,46742.5,47313.5,47829.30000001192,48431.80000001192,49003,49589.700000047684,52469.5,58593.80000001192,59118.40000003576,59688.60000002384,60640.90000003576],"honeypot":0,"survey":"mace","page":2,"trial_type":"survey-mace","trial_index":10,"time_elapsed":479811,"internal_node_id":"0.0-10.0","task_version":"prescreen-v0.3","browser_interactions":0},{"responses":{"01":"No","02":"No","03":"No","04":"No"},"rt":11408.100000023842,"item_order":[0,1,2,3],"radio_events":[6360.800000011921,7177.5,8669,10493.600000023842],"checkbox_events":[],"key_events":[],"mouse_events":[6360.800000011921,7177.5,8669,9978.100000023842,10493.600000023842,11406.199999988079],"honeypot":0,"survey":"mace","page":3,"trial_type":"survey-mace","trial_index":11,"time_elapsed":491222,"internal_node_id":"0.0-11.0","task_version":"prescreen-v0.3","browser_interactions":0},{"responses":{"01":"No","02":"No"},"rt":14201,"item_order":[0,1],"radio_events":[12367.800000011921,13192.699999988079],"checkbox_events":[],"key_events":[],"mouse_events":[12367.800000011921,13192.699999988079,14199.900000035763],"honeypot":0,"survey":"mace","page":4,"trial_type":"survey-mace","trial_index":12,"time_elapsed":505426,"internal_node_id":"0.0-12.0","task_version":"prescreen-v0.3","browser_interactions":0},{"responses":{"01":"No","02":"No","03":"No","04":"No","05":"No"},"rt":33541.10000002384,"item_order":[0,1,2,3,4],"radio_events":[25003.100000023842,26248.80000001192,28906.5,31103.600000023842,32546.900000035763],"checkbox_events":[],"key_events":[],"mouse_events":[25003.100000023842,26248.80000001192,28906.5,31103.600000023842,32546.900000035763,33538.80000001192],"honeypot":0,"survey":"mace","page":5,"trial_type":"survey-mace","trial_index":13,"time_elapsed":538971,"internal_node_id":"0.0-13.0","task_version":"prescreen-v0.3","browser_interactions":0},{"responses":{"01":"No","02":"No","03":"No","04":"No","05":"No"},"rt":19534.80000001192,"item_order":[0,1,2,3,4],"radio_events":[8965.600000023842,12884.5,14867.800000011921,17747.80000001192,18517.100000023842],"checkbox_events":[],"key_events":[],"mouse_events":[8965.600000023842,12884.5,14867.800000011921,17747.80000001192,18517.100000023842,19532.600000023842],"honeypot":0,"survey":"mace","page":6,"trial_type":"survey-mace","trial_index":14,"time_elapsed":558511,"internal_node_id":"0.0-14.0","task_version":"prescreen-v0.3","browser_interactions":0},{"responses":{"01":"No","02":"Yes","02_ages_11":"11","03":"No","04":"Yes","04_ages_9":"9","05":"No","06":"Yes","06_ages_11":"11","06_ages_13":"13","07":"No"},"rt":37066.60000002384,"item_order":[0,1,2,3,4,5,6],"radio_events":[4182.600000023842,7966.300000011921,14083.399999976158,15741.100000023842,19421.600000023842,26909.69999998808,30249.5,32161.5],"checkbox_events":[10736,21999.5,30979.399999976158,34890],"key_events":[],"mouse_events":[3190.699999988079,4182.600000023842,7966.300000011921,10736,14083.399999976158,15741.100000023842,19421.600000023842,21999.5,26909.69999998808,29734.899999976158,30249.5,30979.399999976158,32161.5,34890,37063.5],"honeypot":0,"survey":"mace","page":7,"trial_type":"survey-mace","trial_index":15,"time_elapsed":595583,"internal_node_id":"0.0-15.0","task_version":"prescreen-v0.3","browser_interactions":0},{"responses":{"01":"Yes","01_ages_1":"1","01_ages_2":"2","01_ages_3":"3","01_ages_4":"4","01_ages_5":"5","01_ages_6":"6","01_ages_7":"7","01_ages_8":"8","01_ages_9":"9","01_ages_10":"10","01_ages_11":"11","01_ages_12":"12","01_ages_13":"13","01_ages_14":"14","01_ages_15":"15","01_ages_16":"16","01_ages_17":"17","01_ages_18":"18","02":"No","03":"Yes","03_ages_1":"1","03_ages_2":"2","03_ages_3":"3","03_ages_4":"4","03_ages_5":"5","03_ages_6":"6","03_ages_7":"7","03_ages_8":"8","03_ages_9":"9","03_ages_10":"10","03_ages_11":"11","03_ages_12":"12","03_ages_13":"13","03_ages_14":"14","03_ages_15":"15","03_ages_16":"16","03_ages_17":"17","03_ages_18":"18","04":"Yes","04_ages_1":"1","04_ages_2":"2","04_ages_3":"3","04_ages_4":"4","04_ages_5":"5","04_ages_6":"6","04_ages_7":"7","04_ages_8":"8","04_ages_9":"9","04_ages_10":"10","04_ages_11":"11","04_ages_12":"12","04_ages_13":"13","04_ages_14":"14","04_ages_15":"15","04_ages_16":"16","04_ages_17":"17","04_ages_18":"18"},"rt":67970.30000001192,"item_order":[0,1,2,3],"radio_events":[13636.099999964237,28144.30000001192,39711.19999998808,40861.09999996424],"checkbox_events":[15016.099999964237,15976.099999964237,16483.899999976158,17079,17792.599999964237,18831.899999976158,19315.899999976158,19847.5,21608.19999998808,22218.69999998808,22814.099999964237,23345.80000001192,23844.599999964237,24622,25415.599999964237,25947,26597.5,27430.099999964237,41988.09999996424,42519.39999997616,43035,43511,43955,44423.09999996424,44938.80000001192,45409.19999998808,45906.59999996424,46898.5,48651.39999997616,49476.19999998808,50285.69999998808,50864.5,51443.39999997616,52157.80000001192,52768.5,53561.39999997616,54926.30000001192,55838.5,56941.09999996424,57520.5,58059.89999997616,58639,59678.19999998808,60225.19999998808,60797,61368.09999996424,61915.30000001192,62986.30000001192,63684.39999997616,64366.5,65017.30000001192,65643.59999996424,66136.09999996424,66659.80000001192],"key_events":[],"mouse_events":[13636.099999964237,15016.099999964237,15539.699999988079,15976.099999964237,16483.899999976158,17079,17792.599999964237,18301,18831.899999976158,19315.899999976158,19847.5,20401.69999998808,21012.80000001192,21608.19999998808,22218.69999998808,22814.099999964237,23345.80000001192,23844.599999964237,24622,25415.599999964237,25947,26597.5,27430.099999964237,28144.30000001192,39711.19999998808,40861.09999996424,41988.09999996424,42519.39999997616,43035,43511,43955,44423.09999996424,44938.80000001192,45409.19999998808,45906.59999996424,46430.19999998808,46898.5,47438.19999998808,47730.69999998808,48183.09999996424,48651.39999997616,49476.19999998808,50285.69999998808,50864.5,51443.39999997616,52157.80000001192,52768.5,53561.39999997616,54926.30000001192,55402.59999996424,55838.5,56433.59999996424,56941.09999996424,57520.5,58059.89999997616,58639,59170.5,59678.19999998808,60225.19999998808,60797,61368.09999996424,61915.30000001192,62494.30000001192,62986.30000001192,63684.39999997616,64366.5,65017.30000001192,65643.59999996424,66136.09999996424,66659.80000001192,67968.5],"honeypot":0,"survey":"mace","page":8,"trial_type":"survey-mace","trial_index":16,"time_elapsed":663560,"internal_node_id":"0.0-16.0","task_version":"prescreen-v0.3","browser_interactions":0},{"responses":{"01":"Yes","01_ages_1":"1","01_ages_2":"2","01_ages_3":"3","01_ages_4":"4","01_ages_5":"5","01_ages_6":"6","01_ages_7":"7","01_ages_8":"8","01_ages_9":"9","01_ages_10":"10","01_ages_11":"11","01_ages_12":"12","01_ages_13":"13","01_ages_14":"14","01_ages_15":"15","01_ages_16":"16","01_ages_17":"17","01_ages_18":"18","02":"No","03":"Yes","03_ages_1":"1","03_ages_2":"2","03_ages_3":"3","03_ages_4":"4","03_ages_5":"5","03_ages_6":"6","03_ages_7":"7","03_ages_8":"8","03_ages_9":"9","03_ages_10":"10","03_ages_11":"11","03_ages_12":"12","03_ages_13":"13","03_ages_14":"14","03_ages_15":"15","03_ages_16":"16","03_ages_17":"17","03_ages_18":"18","04":"Yes","04_ages_1":"1","04_ages_2":"2","04_ages_3":"3","04_ages_4":"4","04_ages_5":"5","04_ages_6":"6","04_ages_7":"7","04_ages_8":"8","04_ages_9":"9","04_ages_10":"10","04_ages_11":"11","04_ages_12":"12","04_ages_13":"13","04_ages_14":"14","04_ages_15":"15","04_ages_16":"16","04_ages_17":"17","04_ages_18":"18"},"rt":67133.39999997616,"item_order":[0,1,2,3],"radio_events":[14273.299999952316,15645.099999964237,16596.5,23218.19999998808],"checkbox_events":[24328.899999976158,25225.5,25733.399999976158,27137.399999976158,27747.69999998808,28604.799999952316,29794.799999952316,31039.899999976158,31642.899999976158,32459.799999952316,33174,34030.299999952316,34704.299999952316,35402.799999952316,36037,36854,37861,38599,42533.299999952316,43461.19999998808,44619.19999998808,45174.09999996424,45729.59999996424,46285.19999998808,46847.89999997616,47403.299999952316,47926.89999997616,49037.19999998808,49568.799999952316,50631.59999996424,51226.59999996424,51806.19999998808,52464.299999952316,53003.799999952316,53646,54201.09999996424,54835,55772,56327.299999952316,57025.299999952316,58905.299999952316,59341,59888.5,60396.799999952316,60888.5,61348.59999996424,61927.59999996424,62474.69999998808,63038.299999952316,63530.19999998808,64069.5,64957.89999997616,65481.19999998808,66076.29999995232],"key_events":[],"mouse_events":[14273.299999952316,15645.099999964237,16596.5,23218.19999998808,24328.899999976158,24789.399999976158,25225.5,25733.399999976158,26208.899999976158,26637.19999998808,27137.399999976158,27747.69999998808,28604.799999952316,29334.299999952316,29794.799999952316,30469,31039.899999976158,31642.899999976158,32459.799999952316,33174,34030.299999952316,34704.299999952316,35402.799999952316,36037,36854,37861,38599,42533.299999952316,43461.19999998808,44134.89999997616,44619.19999998808,45174.09999996424,45729.59999996424,46285.19999998808,46847.89999997616,47403.299999952316,47926.89999997616,48450.299999952316,49037.19999998808,49568.799999952316,50180.09999996424,50631.59999996424,51226.59999996424,51806.19999998808,52464.299999952316,53003.799999952316,53646,54201.09999996424,54835,55772,56327.299999952316,57025.299999952316,58905.299999952316,59341,59888.5,60396.799999952316,60888.5,61348.59999996424,61927.59999996424,62474.69999998808,63038.299999952316,63530.19999998808,64069.5,64608.89999997616,64957.89999997616,65481.19999998808,66076.29999995232,67131.5],"honeypot":0,"survey":"mace","page":9,"trial_type":"survey-mace","trial_index":17,"time_elapsed":730698,"internal_node_id":"0.0-17.0","task_version":"prescreen-v0.3","browser_interactions":0},{"responses":{"01":"No","02":"No","03":"No","04":"No","05":"Yes","05_ages_1":"1","05_ages_2":"2","05_ages_3":"3","05_ages_4":"4","05_ages_5":"5","05_ages_6":"6","05_ages_7":"7","05_ages_8":"8","05_ages_9":"9","05_ages_10":"10","05_ages_11":"11","05_ages_12":"12","05_ages_13":"13","05_ages_14":"14","05_ages_15":"15","05_ages_16":"16","05_ages_17":"17","05_ages_18":"18","06":"Yes","06_ages_17":"17","07":"No","08":"No"},"rt":45477,"item_order":[0,1,2,3,4,5,6,7],"radio_events":[4039.399999976158,6641,10377,14739.399999976158,16143.399999976158,35646.69999998808,39423.5,43673.39999997616],"checkbox_events":[17285.5,18713,19704.899999976158,20623.899999976158,21108.099999964237,21615.599999964237,22092.5,22623.19999998808,23598.5,24161.399999976158,24859.599999964237,25470.399999976158,26604.799999952316,27207.399999976158,27976.599999964237,28779.099999964237,29349.69999998808,30294.69999998808,31198],"key_events":[],"mouse_events":[4039.399999976158,4824.799999952316,5530.399999976158,6641,10377,14739.399999976158,16143.399999976158,17285.5,18713,19205.099999964237,19704.899999976158,20180.399999976158,20623.899999976158,21108.099999964237,21615.599999964237,22092.5,22623.19999998808,23138.69999998808,23598.5,24161.399999976158,24859.599999964237,25470.399999976158,26145.099999964237,26604.799999952316,27207.399999976158,27976.599999964237,28779.099999964237,29349.69999998808,30294.69999998808,31198,35646.69999998808,39423.5,43673.39999997616,45473.59999996424],"honeypot":0,"survey":"mace","page":10,"trial_type":"survey-mace","trial_index":18,"time_elapsed":776181,"internal_node_id":"0.0-18.0","task_version":"prescreen-v0.3","browser_interactions":0,"instructed":0},{"rt":5831.699999988079,"trial_type":"mental-health-alert","trial_index":19,"time_elapsed":782014,"internal_node_id":"0.0-19.0","task_version":"prescreen-v0.3","interactions":"[]"}]