[{"view_history":[{"page_index":0,"viewing_time":2389.400000035763},{"page_index":1,"viewing_time":2896},{"page_index":2,"viewing_time":2307},{"page_index":3,"viewing_time":1420.3999999761581}],"rt":9014.100000023842,"trial_type":"instructions","trial_index":0,"time_elapsed":9019,"internal_node_id":"0.0-0.0","task_version":"prescreen-v0.3"},{"rt":14329.400000035763,"responses":{"age":"19","gender-categorical":"Female","gender-free-response":"","ethnicity":"Not Hispanic or Latino","race":["Asian"],"education":"Some college"},"trial_type":"survey-demo","trial_index":1,"time_elapsed":23354,"internal_node_id":"0.0-1.0","task_version":"prescreen-v0.3"},{"responses":{"Q13":"1","Q09":"1","Q06":"2","Q21":"3","Q04":"0","Q08":"2","Q16":"2","Q01":"2","Q11":"1","Q19":"1","Q05":"2","Q18":"1","Q20":"2","Q15":"3","Q03":"1","Q07":"1","Q02":"1","Q12":"2","Q10":"1","Q14":"1","Q17":"2"},"rt":85638.89999997616,"item_order":[12,8,5,20,3,7,15,0,10,18,4,17,19,14,2,6,1,11,9,13,16],"radio_events":[7538.399999976158,12344.599999964237,16099.5,20496.69999998808,26609.599999964237,29281.299999952316,35218.69999998808,37231.799999952316,39550.299999952316,43926,49619.299999952316,51585.59999996424,54707.19999998808,59710.39999997616,60304.5,63236.09999996424,65598.19999998808,67438.29999995232,68435.89999997616,72765.89999997616,76322.79999995232,82724.09999996424,83256.29999995232],"key_events":[],"mouse_events":[7538.399999976158,12344.599999964237,16099.5,19108.5,20496.69999998808,26609.599999964237,29281.299999952316,33161.5,35218.69999998808,37231.799999952316,39550.299999952316,43926,47149.09999996424,49619.299999952316,51585.59999996424,54707.19999998808,59710.39999997616,60304.5,63236.09999996424,65598.19999998808,67438.29999995232,68068.19999998808,68435.89999997616,72230.39999997616,72765.89999997616,74700,75356.39999997616,75988.5,76322.79999995232,76946.19999998808,82724.09999996424,83256.29999995232,84872.79999995232,85637.5],"straightlining":0.47619047619047616,"zigzagging":0.55,"honeypot":0,"survey":"sns","trial_type":"survey-template","trial_index":2,"time_elapsed":109000,"internal_node_id":"0.0-2.0","task_version":"prescreen-v0.3","browser_interactions":0,"infrequency":0},{"responses":{"Q11":"1","Q09":"2","Q08":"3","Q02":"1","Q05":"2","Q04":"3","Q13":"0","Q10":"2","Q12":"1","Q06":"2","Q01":"3","Q03":"3","Q07":"3"},"rt":83285.59999996424,"item_order":[10,8,7,1,4,3,12,9,11,5,0,2,6],"radio_events":[7547.299999952316,8569.5,26536.69999998808,28208.69999998808,29721.69999998808,32292,34815.89999997616,44747.5,69246.79999995232,72542.19999998808,76531.5,77451.5,81609.69999998808,82571.69999998808],"key_events":[],"mouse_events":[7547.299999952316,8569.5,26536.69999998808,28208.69999998808,29721.69999998808,32292,34815.89999997616,44747.5,48565.89999997616,67397.19999998808,69246.79999995232,72542.19999998808,75424.39999997616,76531.5,77451.5,81609.69999998808,82138.19999998808,82571.69999998808,83283.5],"straightlining":0.38461538461538464,"zigzagging":0.6666666666666666,"honeypot":0,"survey":"bisbas","trial_type":"survey-template","trial_index":3,"time_elapsed":192291,"internal_node_id":"0.0-3.0","task_version":"prescreen-v0.3","browser_interactions":4,"infrequency":0},{"responses":{"Q01":"4","Q02":"2","Q03":"2"},"rt":16163.199999988079,"radio_events":[5664.199999988079,10624,11739.5,15307.5],"key_events":[],"mouse_events":[4758.699999988079,5664.199999988079,10624,11043.699999988079,11348.199999988079,11739.5,14316.399999976158,15307.5,16162.199999988079],"survey":"map","page":1,"trial_type":"survey-map","trial_index":4,"time_elapsed":208459,"internal_node_id":"0.0-4.0","task_version":"prescreen-v0.3","browser_interactions":0},{"responses":{"Q04":"2","Q05":"2","Q06":"2"},"rt":14870.900000035763,"radio_events":[5086.5,9506.5,11458.5,13992.199999988079],"key_events":[],"mouse_events":[5086.5,9186,9506.5,11458.5,13992.199999988079,14870.300000011921],"survey":"map","page":2,"trial_type":"survey-map","trial_index":5,"time_elapsed":223336,"internal_node_id":"0.0-5.0","task_version":"prescreen-v0.3","browser_interactions":0},{"responses":{"Q07":"4","Q08":"2","Q09":"3"},"rt":14773,"radio_events":[4700.399999976158,9222.299999952316,13046.099999964237],"key_events":[],"mouse_events":[4700.399999976158,9222.299999952316,13046.099999964237,14772.199999988079],"survey":"map","page":3,"trial_type":"survey-map","trial_index":6,"time_elapsed":238115,"internal_node_id":"0.0-6.0","task_version":"prescreen-v0.3","browser_interactions":0},{"responses":{"Q10":"1","Q11":"1","Q12":"3","Q13":"4","Q16":"0","Q14":"2","Q15":"3"},"rt":30955.80000001192,"radio_events":[8660.699999988079,10769,16334.699999988079,20025.099999964237,23128.80000001192,27061.099999964237,30262.5],"key_events":[],"mouse_events":[8660.699999988079,10769,16334.699999988079,20025.099999964237,23128.80000001192,27061.099999964237,29816.69999998808,30262.5,30955.19999998808],"survey":"map","page":4,"trial_type":"survey-map","trial_index":7,"time_elapsed":269077,"internal_node_id":"0.0-7.0","task_version":"prescreen-v0.3","browser_interactions":0,"infrequency":0},{"view_history":[{"page_index":0,"viewing_time":1576},{"page_index":1,"viewing_time":2646.699999988079}],"rt":4223.300000011921,"trial_type":"instructions","trial_index":8,"time_elapsed":273303,"internal_node_id":"0.0-8.0","task_version":"prescreen-v0.3"},{"responses":{"01":"Yes","01_ages_6":"6","01_ages_7":"7","01_ages_8":"8","01_ages_9":"9","01_ages_10":"10","01_ages_11":"11","01_ages_12":"12","02":"Yes","02_ages_1":"1","02_ages_2":"2","02_ages_3":"3","02_ages_4":"4","02_ages_5":"5","02_ages_6":"6","02_ages_7":"7","02_ages_8":"8","02_ages_9":"9","02_ages_10":"10","02_ages_11":"11","02_ages_12":"12","02_ages_13":"13","02_ages_14":"14","02_ages_15":"15","02_ages_16":"16","02_ages_17":"17","02_ages_18":"18","03":"No","04":"No","05":"No","06":"No"},"rt":46541.799999952316,"item_order":[0,1,2,3,4,5],"radio_events":[2681.599999964237,16209.5,19573.599999964237,21127.299999952316,21923.19999998808,33113.799999952316,45661.59999996424],"checkbox_events":[6849.899999976158,7417.799999952316,7873.799999952316,8282.699999988079,8685.899999976158,8997.299999952316,9288,35243.799999952316,35819.19999998808,36497.69999998808,36869.69999998808,37182.69999998808,37499.89999997616,37768.89999997616,38469.39999997616,38757.59999996424,39087,39409.39999997616,40124.5,40877.69999998808,41415.89999997616,41752.89999997616,42091.59999996424,42453.69999998808,42837.19999998808],"key_events":[],"mouse_events":[0.19999998807907104,2681.599999964237,6849.899999976158,7417.799999952316,7873.799999952316,8282.699999988079,8685.899999976158,8997.299999952316,9288,16209.5,19573.599999964237,21127.299999952316,21923.19999998808,33113.799999952316,35243.799999952316,35819.19999998808,36497.69999998808,36869.69999998808,37182.69999998808,37499.89999997616,37768.89999997616,38469.39999997616,38757.59999996424,39087,39409.39999997616,39786.59999996424,40124.5,40495.69999998808,40877.69999998808,41415.89999997616,41752.89999997616,42091.59999996424,42453.69999998808,42837.19999998808,45661.59999996424,46538.5],"honeypot":0,"survey":"mace","page":1,"trial_type":"survey-mace","trial_index":9,"time_elapsed":319851,"internal_node_id":"0.0-9.0","task_version":"prescreen-v0.3","browser_interactions":0},{"responses":{"01":"No","02":"No","03":"Yes","03_ages_1":"1","03_ages_2":"2","03_ages_3":"3","03_ages_4":"4","03_ages_5":"5","03_ages_6":"6","03_ages_7":"7","03_ages_8":"8","03_ages_9":"9","03_ages_10":"10","04":"No","05":"Yes","05_ages_4":"4","05_ages_5":"5","05_ages_6":"6","05_ages_7":"7","05_ages_8":"8","05_ages_9":"9","05_ages_10":"10","06":"No","07":"No","08":"No"},"rt":24788.80000001192,"item_order":[0,1,2,3,4,5,6,7],"radio_events":[2733.600000023842,3689.5,4567,12403.899999976158,15451.100000023842,23074.899999976158,23767.899999976158,24299.19999998808],"checkbox_events":[7095.300000011921,7393.699999988079,7688.100000023842,8316,8630.5,9121.399999976158,9409.800000011921,9699.800000011921,11325.899999976158,11677.199999988079,17885.19999998808,18181,19231.30000001192,19527.100000023842,19864.100000023842,20258.19999998808,20595.600000023842],"key_events":[],"mouse_events":[2733.600000023842,3689.5,4567,7095.300000011921,7393.699999988079,7688.100000023842,8034.399999976158,8316,8630.5,9121.399999976158,9409.800000011921,9699.800000011921,11325.899999976158,11677.199999988079,12403.899999976158,15451.100000023842,17885.19999998808,18181,18486.100000023842,18858.5,19231.30000001192,19527.100000023842,19864.100000023842,20258.19999998808,20595.600000023842,23074.899999976158,23767.899999976158,24299.19999998808,24784.100000023842],"honeypot":0,"survey":"mace","page":2,"trial_type":"survey-mace","trial_index":10,"time_elapsed":344647,"internal_node_id":"0.0-10.0","task_version":"prescreen-v0.3","browser_interactions":0},{"responses":{"01":"No","02":"No","03":"No","04":"No"},"rt":14930.400000035763,"item_order":[0,1,2,3],"radio_events":[7698.600000023842,12262.900000035763,13125,13778.400000035763,14302.900000035763],"checkbox_events":[],"key_events":[],"mouse_events":[7698.600000023842,12262.900000035763,13125,13778.400000035763,14302.900000035763,14929.200000047684],"honeypot":0,"survey":"mace","page":3,"trial_type":"survey-mace","trial_index":11,"time_elapsed":359582,"internal_node_id":"0.0-11.0","task_version":"prescreen-v0.3","browser_interactions":0},{"responses":{"01":"No","02":"No"},"rt":3182.399999976158,"item_order":[0,1],"radio_events":[1560.5,2538.399999976158],"checkbox_events":[],"key_events":[],"mouse_events":[1560.5,2538.399999976158,3180.599999964237],"honeypot":0,"survey":"mace","page":4,"trial_type":"survey-mace","trial_index":12,"time_elapsed":362769,"internal_node_id":"0.0-12.0","task_version":"prescreen-v0.3","browser_interactions":0},{"responses":{"01":"No","02":"No","03":"No","04":"No","05":"No"},"rt":10744.699999988079,"item_order":[0,1,2,3,4],"radio_events":[5468.799999952316,6217.099999964237,6871.299999952316,8604,9207.199999988079],"checkbox_events":[],"key_events":[],"mouse_events":[5468.799999952316,6217.099999964237,6871.299999952316,8604,9207.199999988079,10741.199999988079],"honeypot":0,"survey":"mace","page":5,"trial_type":"survey-mace","trial_index":13,"time_elapsed":373519,"internal_node_id":"0.0-13.0","task_version":"prescreen-v0.3","browser_interactions":0},{"responses":{"01":"No","02":"Yes","02_ages_6":"6","02_ages_7":"7","02_ages_8":"8","02_ages_9":"9","02_ages_10":"10","02_ages_11":"11","02_ages_12":"12","03":"No","04":"Yes","04_ages_6":"6","04_ages_7":"7","04_ages_8":"8","04_ages_9":"9","04_ages_10":"10","04_ages_11":"11","04_ages_12":"12","05":"No"},"rt":23930.19999998808,"item_order":[0,1,2,3,4],"radio_events":[8081.599999964237,8817.699999988079,15824.299999952316,17627.19999998808,23395.399999976158],"checkbox_events":[10745.599999964237,11122.899999976158,11461.299999952316,11781.5,12111.199999988079,12464.099999964237,12779.899999976158,18935.399999976158,19249.69999998808,19563,19937.799999952316,20229.69999998808,20523.799999952316,21504.099999964237],"key_events":[],"mouse_events":[8081.599999964237,8817.699999988079,10392.5,10745.599999964237,11122.899999976158,11461.299999952316,11781.5,12111.199999988079,12464.099999964237,12779.899999976158,15824.299999952316,17627.19999998808,18419.799999952316,18935.399999976158,19249.69999998808,19563,19937.799999952316,20229.69999998808,20523.799999952316,20791,21504.099999964237,23395.399999976158,23927.599999964237],"honeypot":0,"survey":"mace","page":6,"trial_type":"survey-mace","trial_index":14,"time_elapsed":397456,"internal_node_id":"0.0-14.0","task_version":"prescreen-v0.3","browser_interactions":0},{"responses":{"01":"No","02":"No","03":"No","04":"No","05":"No","06":"No","07":"No"},"rt":10102,"item_order":[0,1,2,3,4,5,6],"radio_events":[2811.699999988079,3512,4323.800000011921,6507.599999964237,7089.699999988079,8163.899999976158,9222.199999988079],"checkbox_events":[],"key_events":[],"mouse_events":[2811.699999988079,3512,4323.800000011921,5841.399999976158,6507.599999964237,7089.699999988079,7547.5,8163.899999976158,9222.199999988079,10097.199999988079],"honeypot":0,"survey":"mace","page":7,"trial_type":"survey-mace","trial_index":15,"time_elapsed":407565,"internal_node_id":"0.0-15.0","task_version":"prescreen-v0.3","browser_interactions":0},{"responses":{"01":"No","02":"No","03":"No","04":"No"},"rt":9419.199999988079,"item_order":[0,1,2,3],"radio_events":[3798.400000035763,4734.600000023842,7236.100000023842,8836.5],"checkbox_events":[],"key_events":[],"mouse_events":[3798.400000035763,4734.600000023842,7236.100000023842,8188.199999988079,8836.5,9416.199999988079],"honeypot":0,"survey":"mace","page":8,"trial_type":"survey-mace","trial_index":16,"time_elapsed":416990,"internal_node_id":"0.0-16.0","task_version":"prescreen-v0.3","browser_interactions":0},{"responses":{"01":"Yes","01_ages_1":"1","01_ages_2":"2","01_ages_3":"3","01_ages_4":"4","01_ages_5":"5","01_ages_6":"6","01_ages_7":"7","01_ages_8":"8","01_ages_9":"9","01_ages_10":"10","01_ages_11":"11","01_ages_12":"12","01_ages_13":"13","01_ages_14":"14","01_ages_15":"15","01_ages_16":"16","01_ages_17":"17","01_ages_18":"18","02":"Yes","02_ages_1":"1","02_ages_2":"2","02_ages_3":"3","02_ages_4":"4","02_ages_5":"5","02_ages_6":"6","02_ages_7":"7","02_ages_8":"8","02_ages_9":"9","02_ages_10":"10","02_ages_11":"11","02_ages_12":"12","02_ages_13":"13","02_ages_14":"14","02_ages_15":"15","02_ages_16":"16","02_ages_17":"17","02_ages_18":"18","03":"Yes","03_ages_1":"1","03_ages_2":"2","03_ages_3":"3","03_ages_4":"4","03_ages_5":"5","03_ages_6":"6","03_ages_7":"7","03_ages_8":"8","03_ages_9":"9","03_ages_10":"10","03_ages_11":"11","03_ages_12":"12","03_ages_13":"13","03_ages_14":"14","03_ages_15":"15","03_ages_16":"16","03_ages_17":"17","03_ages_18":"18","04":"Yes","04_ages_1":"1","04_ages_2":"2","04_ages_3":"3","04_ages_4":"4","04_ages_5":"5","04_ages_6":"6","04_ages_7":"7","04_ages_8":"8","04_ages_9":"9","04_ages_10":"10","04_ages_11":"11","04_ages_12":"12","04_ages_13":"13","04_ages_14":"14","04_ages_15":"15","04_ages_16":"16","04_ages_17":"17","04_ages_18":"18"},"rt":46246.89999997616,"item_order":[0,1,2,3],"radio_events":[2763.899999976158,12651.899999976158,24392.30000001192,34970.19999998808],"checkbox_events":[4764,5161.399999976158,5478.199999988079,6519.599999964237,6905.699999988079,7274.099999964237,7613.800000011921,7964.899999976158,8325.099999964237,8650.699999988079,9030.5,9388.199999988079,10140.300000011921,10470.300000011921,10799.300000011921,11153.800000011921,11570.800000011921,11893.800000011921,13805.199999988079,14128,14940.099999964237,15246.5,15616.300000011921,16008.5,16387.19999998808,16789,17203.899999976158,17582.5,18666,19516.19999998808,19934.099999964237,20590.399999976158,21384,21760.19999998808,22154.19999998808,22476.30000001192,25392.30000001192,25808.30000001192,26449.899999976158,27297.399999976158,27770.30000001192,28244.099999964237,28574,29023.899999976158,29707.099999964237,30034.19999998808,30380.399999976158,30722.399999976158,31045.30000001192,31390.19999998808,31913.19999998808,32210.099999964237,32562.899999976158,32868,36264.59999996424,36682,37012.09999996424,37333.89999997616,38063.89999997616,38923.89999997616,39276,39679.89999997616,40064.09999996424,40440.19999998808,40792.39999997616,41209.89999997616,41991.19999998808,42673.80000001192,43328.30000001192,43945.80000001192,44310.19999998808,44742],"key_events":[],"mouse_events":[2763.899999976158,4764,5161.399999976158,5478.199999988079,5851.699999988079,6519.599999964237,6905.699999988079,7274.099999964237,7613.800000011921,7964.899999976158,8325.099999964237,8650.699999988079,9030.5,9388.199999988079,10140.300000011921,10470.300000011921,10799.300000011921,11153.800000011921,11570.800000011921,11893.800000011921,12651.899999976158,13805.199999988079,14128,14440.199999988079,14940.099999964237,15246.5,15616.300000011921,16008.5,16387.19999998808,16789,17203.899999976158,17582.5,18008.30000001192,18666,19516.19999998808,19934.099999964237,20590.399999976158,21039.69999998808,21384,21760.19999998808,22154.19999998808,22476.30000001192,24392.30000001192,25392.30000001192,25808.30000001192,26449.899999976158,27297.399999976158,27770.30000001192,28244.099999964237,28574,29023.899999976158,29346.30000001192,29707.099999964237,30034.19999998808,30380.399999976158,30722.399999976158,31045.30000001192,31390.19999998808,31913.19999998808,32210.099999964237,32562.899999976158,32868,33149.19999998808,34595.19999998808,34970.19999998808,36264.59999996424,36682,37012.09999996424,37333.89999997616,37735.39999997616,38063.89999997616,38923.89999997616,39276,39679.89999997616,40064.09999996424,40440.19999998808,40792.39999997616,41209.89999997616,41518.19999998808,41991.19999998808,42368.30000001192,42673.80000001192,43034.09999996424,43328.30000001192,43667.59999996424,43945.80000001192,44310.19999998808,44742,46244.09999996424],"honeypot":0,"survey":"mace","page":9,"trial_type":"survey-mace","trial_index":17,"time_elapsed":463242,"internal_node_id":"0.0-17.0","task_version":"prescreen-v0.3","browser_interactions":0},{"responses":{"01":"No","02":"No","03":"No","04":"No","05":"No","06":"Yes","06_ages_17":"17","07":"Yes","07_ages_1":"1","07_ages_2":"2","07_ages_3":"3","07_ages_4":"4","07_ages_5":"5","07_ages_6":"6","07_ages_7":"7","07_ages_8":"8","07_ages_9":"9","07_ages_10":"10","07_ages_11":"11","07_ages_12":"12","07_ages_13":"13","07_ages_14":"14","07_ages_15":"15","07_ages_16":"16","07_ages_17":"17","07_ages_18":"18","08":"Yes","08_ages_1":"1","08_ages_2":"2","08_ages_3":"3","08_ages_4":"4","08_ages_5":"5","08_ages_6":"6","08_ages_7":"7","08_ages_8":"8","08_ages_9":"9","08_ages_10":"10","08_ages_11":"11","08_ages_12":"12","08_ages_13":"13","08_ages_14":"14","08_ages_15":"15","08_ages_16":"16","08_ages_17":"17","08_ages_18":"18"},"rt":33977.10000002384,"item_order":[0,1,2,3,4,5,6,7],"radio_events":[3562.300000011921,4236.300000011921,5224,5869,8250.400000035763,8933.400000035763,13369.5,24391.30000001192],"checkbox_events":[10455.900000035763,15221.100000023842,15535.900000035763,15849.900000035763,16469.400000035763,16836.100000023842,17257.80000001192,17587.69999998808,17827.30000001192,18361.400000035763,18656.5,19260.100000023842,19949.600000023842,20317.900000035763,20704.80000001192,21106,21505.900000035763,21905.600000023842,22261.69999998808,22677.900000035763,23363.5,25461.600000023842,25871.69999998808,26272.69999998808,26659.69999998808,27066.80000001192,27492.69999998808,27949.600000023842,28376,29142.900000035763,29511.5,29921.600000023842,30307.19999998808,30683.80000001192,31069.69999998808,31430.5,31794,32136.900000035763,32883.30000001192],"key_events":[],"mouse_events":[3562.300000011921,4236.300000011921,5224,5869,8250.400000035763,8933.400000035763,10167.699999988079,10455.900000035763,13369.5,15221.100000023842,15535.900000035763,15849.900000035763,16140,16469.400000035763,16836.100000023842,17257.80000001192,17587.69999998808,17827.30000001192,18361.400000035763,18656.5,18974,19260.100000023842,19949.600000023842,20317.900000035763,20704.80000001192,21106,21505.900000035763,21905.600000023842,22261.69999998808,22677.900000035763,23013.69999998808,23363.5,24391.30000001192,25461.600000023842,25871.69999998808,26272.69999998808,26659.69999998808,27066.80000001192,27492.69999998808,27949.600000023842,28376,29142.900000035763,29511.5,29921.600000023842,30307.19999998808,30683.80000001192,31069.69999998808,31430.5,31794,32136.900000035763,32883.30000001192,33973.60000002384],"honeypot":0,"survey":"mace","page":10,"trial_type":"survey-mace","trial_index":18,"time_elapsed":497225,"internal_node_id":"0.0-18.0","task_version":"prescreen-v0.3","browser_interactions":0,"instructed":0},{"rt":4975.200000047684,"trial_type":"mental-health-alert","trial_index":19,"time_elapsed":502204,"internal_node_id":"0.0-19.0","task_version":"prescreen-v0.3","interactions":"[{\"event\":\"blur\",\"trial\":3,\"time\":120908},{\"event\":\"focus\",\"trial\":3,\"time\":122427},{\"event\":\"blur\",\"trial\":3,\"time\":159099},{\"event\":\"focus\",\"trial\":3,\"time\":173925}]"}]