[{"view_history":[{"page_index":0,"viewing_time":15215.499999991152},{"page_index":1,"viewing_time":4176.2000000017},{"page_index":2,"viewing_time":6831.700000009732},{"page_index":3,"viewing_time":2807.3999999905936}],"rt":29034.799999993993,"trial_type":"instructions","trial_index":0,"time_elapsed":29066,"internal_node_id":"0.0-0.0","task_version":"prescreen-v0.3"},{"rt":25604.300000006333,"responses":{"age":"40","gender-categorical":"Male","gender-free-response":"","ethnicity":"Not Hispanic or Latino","race":["Black or African American"],"education":"High school"},"trial_type":"survey-demo","trial_index":1,"time_elapsed":54736,"internal_node_id":"0.0-1.0","task_version":"prescreen-v0.3"},{"responses":{"Q08":"3","Q18":"0","Q06":"0","Q05":"0","Q02":"0","Q12":"0","Q09":"0","Q03":"0","Q21":"0","Q10":"0","Q15":"0","Q13":"0","Q17":"0","Q07":"0","Q20":"0","Q16":"0","Q19":"0","Q14":"0","Q11":"3","Q01":"0","Q04":"0"},"rt":234626.00000000384,"item_order":[7,17,5,4,1,11,8,2,20,9,14,12,16,6,19,15,18,13,10,0,3],"radio_events":[14922.200000000885,24989.000000001397,41387.19999999739,51749.59999999555,53675.00000000291,63687.60000000475,74686.49999999616,83256.89999999304,95630.4999999993,110395.19999999902,121343.80000000237,122171.99999999139,135676.09999999695,142589.59999999206,148260.50000000396,162161.39999999723,167364.3000000011,182927.1000000008,200129.00000000081,213007.79999999213,218335.29999999155,219673.99999999907,224672.59999999078,232906.19999999763],"key_events":[],"mouse_events":[14922.200000000885,24989.000000001397,41387.19999999739,51749.59999999555,53675.00000000291,63687.60000000475,74686.49999999616,83256.89999999304,95630.4999999993,110395.19999999902,121343.80000000237,122171.99999999139,135676.09999999695,142589.59999999206,148260.50000000396,162161.39999999723,167364.3000000011,182927.1000000008,200129.00000000081,213007.79999999213,218335.29999999155,219673.99999999907,224672.59999999078,232906.19999999763,234617.40000000282],"straightlining":0.9047619047619048,"zigzagging":0.15,"honeypot":0,"survey":"sns","trial_type":"survey-template","trial_index":2,"time_elapsed":289401,"internal_node_id":"0.0-2.0","task_version":"prescreen-v0.3","browser_interactions":0,"infrequency":1},{"responses":{"Q12":"3","Q11":"3","Q09":"3","Q04":"3","Q10":"0","Q01":"3","Q05":"3","Q06":"3","Q08":"3","Q02":"3","Q13":"3","Q03":"3","Q07":"3"},"rt":96936.80000001041,"item_order":[11,10,8,3,9,0,4,5,7,1,12,2,6],"radio_events":[12617.899999997462,20058.700000008685,25718.500000002678,30926.600000006147,40033.8000000047,44336.10000000044,50923.399999999674,57932.400000005146,65834.90000000165,75370.1000000001,80876.90000000293,90319.30000000284,95522.5000000064],"key_events":[],"mouse_events":[12617.899999997462,20058.700000008685,25718.500000002678,30926.600000006147,40033.8000000047,44336.10000000044,50923.399999999674,57932.400000005146,65834.90000000165,75370.1000000001,80876.90000000293,90319.30000000284,95522.5000000064,96930.99999999686],"straightlining":0.9230769230769231,"zigzagging":0.16666666666666666,"honeypot":0,"survey":"bisbas","trial_type":"survey-template","trial_index":3,"time_elapsed":386354,"internal_node_id":"0.0-3.0","task_version":"prescreen-v0.3","browser_interactions":0,"infrequency":1},{"responses":{"Q01":"4","Q02":"4","Q03":"4"},"rt":34565.99999999162,"radio_events":[13482.9000000027,21465.700000000652,33446.89999999537],"key_events":[],"mouse_events":[13482.9000000027,21465.700000000652,33446.89999999537,34563.29999999434],"survey":"map","page":1,"trial_type":"survey-map","trial_index":4,"time_elapsed":420936,"internal_node_id":"0.0-4.0","task_version":"prescreen-v0.3","browser_interactions":0},{"responses":{"Q04":"4","Q05":"4","Q06":"4"},"rt":34331.400000010035,"radio_events":[9769.29999999993,18712.100000004284,33095.70000000531],"key_events":[],"mouse_events":[9769.29999999993,18712.100000004284,33095.70000000531,34329.2999999976],"survey":"map","page":2,"trial_type":"survey-map","trial_index":5,"time_elapsed":455278,"internal_node_id":"0.0-5.0","task_version":"prescreen-v0.3","browser_interactions":0},{"responses":{"Q07":"4","Q08":"4","Q09":"4"},"rt":30394.40000000468,"radio_events":[14026.600000011967,24214.80000000156,29290.300000007846],"key_events":[],"mouse_events":[14026.600000011967,24214.80000000156,29290.300000007846,30391.90000000235],"survey":"map","page":3,"trial_type":"survey-map","trial_index":6,"time_elapsed":485681,"internal_node_id":"0.0-6.0","task_version":"prescreen-v0.3","browser_interactions":0},{"responses":{"Q10":"4","Q11":"4","Q12":"4","Q13":"4","Q16":"4","Q14":"4","Q15":"4"},"rt":85216.7000000045,"radio_events":[10855.999999999767,18647.70000000135,39275.90000000782,60224.400000006426,70745.0000000099,80532.80000000086,84345.60000000056],"key_events":[],"mouse_events":[10855.999999999767,18647.70000000135,39275.90000000782,60224.400000006426,70745.0000000099,80532.80000000086,84345.60000000056,85212.20000000903],"survey":"map","page":4,"trial_type":"survey-map","trial_index":7,"time_elapsed":570913,"internal_node_id":"0.0-7.0","task_version":"prescreen-v0.3","browser_interactions":0,"infrequency":1},{"view_history":[{"page_index":0,"viewing_time":7816.099999996368},{"page_index":1,"viewing_time":14961.50000000489}],"rt":22780.80000000773,"trial_type":"instructions","trial_index":8,"time_elapsed":593699,"internal_node_id":"0.0-8.0","task_version":"prescreen-v0.3"},{"responses":{"01":"No","02":"No","03":"No","04":"No","05":"No","06":"No"},"rt":51012.70000000659,"item_order":[0,1,2,3,4,5],"radio_events":[19179.400000008172,29711.300000009942,37445.50000000163,41485.50000000978,45753.10000000172,50070.100000011735],"checkbox_events":[],"key_events":[],"mouse_events":[1.3000000035390258,19179.400000008172,29711.300000009942,37445.50000000163,41485.50000000978,45753.10000000172,50070.100000011735,51000.40000000445],"honeypot":0,"survey":"mace","page":1,"trial_type":"survey-mace","trial_index":9,"time_elapsed":644796,"internal_node_id":"0.0-9.0","task_version":"prescreen-v0.3","browser_interactions":0},{"responses":{"01":"No","02":"No","03":"No","04":"No","05":"No","06":"No","07":"No","08":"No"},"rt":41931.50000000605,"item_order":[0,1,2,3,4,5,6,7],"radio_events":[6449.699999997392,9163.300000000163,14034.1000000044,17037.50000000582,22457.500000004075,28216.700000004494,36092.00000000419,41101.699999999255],"checkbox_events":[],"key_events":[],"mouse_events":[6449.699999997392,9163.300000000163,14034.1000000044,17037.50000000582,22457.500000004075,28216.700000004494,36092.00000000419,41101.699999999255,41914.6999999939],"honeypot":0,"survey":"mace","page":2,"trial_type":"survey-mace","trial_index":10,"time_elapsed":686754,"internal_node_id":"0.0-10.0","task_version":"prescreen-v0.3","browser_interactions":0},{"responses":{"01":"No","02":"No","03":"No","04":"No"},"rt":11444.200000012643,"item_order":[0,1,2,3],"radio_events":[3681.2000000063563,6400.000000008731,9644.700000004377,10190.600000001723],"checkbox_events":[],"key_events":[],"mouse_events":[3681.2000000063563,6400.000000008731,9644.700000004377,10190.600000001723,11404.400000013993],"honeypot":0,"survey":"mace","page":3,"trial_type":"survey-mace","trial_index":11,"time_elapsed":698226,"internal_node_id":"0.0-11.0","task_version":"prescreen-v0.3","browser_interactions":0},{"responses":{"01":"No","02":"No"},"rt":12402.700000006007,"item_order":[0,1],"radio_events":[7619.900000005146,10509.700000009616],"checkbox_events":[],"key_events":[],"mouse_events":[7619.900000005146,10509.700000009616,12398.800000009942],"honeypot":0,"survey":"mace","page":4,"trial_type":"survey-mace","trial_index":12,"time_elapsed":710656,"internal_node_id":"0.0-12.0","task_version":"prescreen-v0.3","browser_interactions":0},{"responses":{"01":"No","02":"No","03":"No","04":"No","05":"No"},"rt":41405.40000000328,"item_order":[0,1,2,3,4],"radio_events":[13835.900000005495,26981.299999999464,34019.00000000023,39225.09999999602,39850.500000000466],"checkbox_events":[],"key_events":[],"mouse_events":[13835.900000005495,26981.299999999464,34019.00000000023,39225.09999999602,39850.500000000466,41365.60000000463],"honeypot":0,"survey":"mace","page":5,"trial_type":"survey-mace","trial_index":13,"time_elapsed":752090,"internal_node_id":"0.0-13.0","task_version":"prescreen-v0.3","browser_interactions":0},{"responses":{"01":"No","02":"No","03":"No","04":"No","05":"No"},"rt":31852.700000003097,"item_order":[0,1,2,3,4],"radio_events":[8777.600000001257,9415.399999998044,11348.299999997835,13861.40000000887,30938.000000009197],"checkbox_events":[],"key_events":[],"mouse_events":[8777.600000001257,9415.399999998044,11348.299999997835,13861.40000000887,30938.000000009197,31843.000000008033],"honeypot":0,"survey":"mace","page":6,"trial_type":"survey-mace","trial_index":14,"time_elapsed":783981,"internal_node_id":"0.0-14.0","task_version":"prescreen-v0.3","browser_interactions":0},{"responses":{"01":"No","02":"No","03":"No","04":"No","05":"No","06":"No","07":"No"},"rt":27578.099999998813,"item_order":[0,1,2,3,4,5,6],"radio_events":[4477.200000008452,9189.899999997579,13546.300000001793,16116.99999999837,19262.300000002142,22597.600000008242,26904.69999999914],"checkbox_events":[],"key_events":[],"mouse_events":[4477.200000008452,9189.899999997579,13546.300000001793,16116.99999999837,19262.300000002142,22597.600000008242,26904.69999999914,27563.50000000384],"honeypot":0,"survey":"mace","page":7,"trial_type":"survey-mace","trial_index":15,"time_elapsed":811583,"internal_node_id":"0.0-15.0","task_version":"prescreen-v0.3","browser_interactions":0},{"responses":{"01":"No","02":"No","03":"No","04":"No"},"rt":39341.400000004796,"item_order":[0,1,2,3],"radio_events":[16820.699999996577,27343.20000000298,34631.200000003446,35486.900000003516],"checkbox_events":[],"key_events":[],"mouse_events":[16820.699999996577,27343.20000000298,34631.200000003446,35486.900000003516,39300.79999999725],"honeypot":0,"survey":"mace","page":8,"trial_type":"survey-mace","trial_index":16,"time_elapsed":850955,"internal_node_id":"0.0-16.0","task_version":"prescreen-v0.3","browser_interactions":0},{"responses":{"01":"Yes","01_ages_1":"1","01_ages_2":"2","01_ages_3":"3","01_ages_4":"4","01_ages_5":"5","01_ages_6":"6","01_ages_7":"7","01_ages_8":"8","01_ages_9":"9","01_ages_10":"10","01_ages_11":"11","01_ages_12":"12","01_ages_13":"13","01_ages_14":"14","01_ages_15":"15","01_ages_16":"16","01_ages_17":"17","01_ages_18":"18","02":"Yes","02_ages_1":"1","02_ages_2":"2","02_ages_3":"3","02_ages_4":"4","02_ages_5":"5","02_ages_6":"6","02_ages_7":"7","02_ages_8":"8","02_ages_9":"9","02_ages_10":"10","02_ages_11":"11","02_ages_12":"12","02_ages_13":"13","02_ages_14":"14","02_ages_15":"15","02_ages_16":"16","02_ages_17":"17","02_ages_18":"18","03":"Yes","03_ages_1":"1","03_ages_2":"2","03_ages_3":"3","03_ages_4":"4","03_ages_5":"5","03_ages_6":"6","03_ages_7":"7","03_ages_8":"8","03_ages_9":"9","03_ages_10":"10","03_ages_11":"11","03_ages_12":"12","03_ages_13":"13","03_ages_14":"14","03_ages_15":"15","03_ages_16":"16","03_ages_17":"17","03_ages_18":"18","04":"Yes","04_ages_1":"1","04_ages_2":"2","04_ages_3":"3","04_ages_4":"4","04_ages_5":"5","04_ages_6":"6","04_ages_7":"7","04_ages_8":"8","04_ages_9":"9","04_ages_10":"10","04_ages_11":"11","04_ages_12":"12","04_ages_13":"13","04_ages_14":"14","04_ages_15":"15","04_ages_16":"16","04_ages_17":"17","04_ages_18":"18"},"rt":123239.89999998594,"item_order":[0,1,2,3],"radio_events":[6881.799999988289,62179.899999988265,82356.19999999471,109130.09999999485],"checkbox_events":[37234.499999991385,38457.49999998952,44303.59999999928,45108.79999998724,46555.59999999241,46937.2999999905,47338.099999993574,47773.89999998559,48636.0999999888,49266.499999997905,49818.49999999395,50735.29999998573,51332.99999999872,51833.599999998114,52433.399999994435,53063.29999999434,53846.79999999935,54236.799999998766,63631.299999993644,63996.19999999413,64379.69999999041,65412.69999998622,65960.29999999155,66394.39999999013,66829.79999999225,67574.59999999264,68178.09999999008,68839.29999999236,69540.79999998794,70074.69999999739,70661.99999999662,71237.8999999928,72566.09999999637,73180.19999998796,73844.49999999197,74177.79999999038,83648.79999999539,84029.79999998934,84463.39999999327,84880.2999999898,85914.9999999936,88507.29999999749,89421.49999999674,90002.49999998778,90590.49999999115,91258.19999999658,92170.4999999929,93017.0999999973,93687.09999999555,94215.0999999867,94844.69999998691,95493.59999998705,96142.4999999872,96843.19999998843,110436.6999999911,110833.99999998801,111230.49999999057,111617.39999998827,112668.59999998996,113129.9999999901,114062.09999999555,114694.69999999274,115378.99999998626,116074.59999999264,116706.39999999548,117341.09999999055,118106.69999998936,118709.5999999874,119303.49999999453,119937.5999999902,120640.39999998931,121134.69999999506],"key_events":[],"mouse_events":[6881.799999988289,37234.499999991385,38457.49999998952,44303.59999999928,45108.79999998724,46555.59999999241,46937.2999999905,47338.099999993574,47773.89999998559,48636.0999999888,49266.499999997905,49818.49999999395,50735.29999998573,51332.99999999872,51833.599999998114,52433.399999994435,53063.29999999434,53846.79999999935,54236.799999998766,62179.899999988265,63631.299999993644,63996.19999999413,64379.69999999041,65412.69999998622,65960.29999999155,66394.39999999013,66829.79999999225,67574.59999999264,68178.09999999008,68839.29999999236,69540.79999998794,70074.69999999739,70661.99999999662,71237.8999999928,72566.09999999637,73180.19999998796,73844.49999999197,74177.79999999038,82356.19999999471,83648.79999999539,84029.79999998934,84463.39999999327,84880.2999999898,85914.9999999936,88507.29999999749,89421.49999999674,90002.49999998778,90590.49999999115,91258.19999999658,92170.4999999929,93017.0999999973,93687.09999999555,94215.0999999867,94844.69999998691,95493.59999998705,96142.4999999872,96843.19999998843,109130.09999999485,110436.6999999911,110833.99999998801,111230.49999999057,111617.39999998827,112668.59999998996,113129.9999999901,114062.09999999555,114694.69999999274,115378.99999998626,116074.59999999264,116706.39999999548,117341.09999999055,118106.69999998936,118709.5999999874,119303.49999999453,119937.5999999902,120640.39999998931,121134.69999999506,123232.29999998875],"honeypot":0,"survey":"mace","page":9,"trial_type":"survey-mace","trial_index":17,"time_elapsed":974238,"internal_node_id":"0.0-17.0","task_version":"prescreen-v0.3","browser_interactions":0},{"responses":{"01":"No","02":"No","03":"No","04":"No","05":"No","06":"Yes","06_ages_17":"17","07":"Yes","07_ages_1":"1","07_ages_2":"2","07_ages_3":"3","07_ages_4":"4","07_ages_5":"5","07_ages_6":"6","07_ages_7":"7","07_ages_8":"8","07_ages_9":"9","07_ages_10":"10","07_ages_11":"11","07_ages_12":"12","07_ages_13":"13","07_ages_14":"14","07_ages_15":"15","07_ages_16":"16","07_ages_17":"17","07_ages_18":"18","08":"Yes","08_ages_1":"1","08_ages_2":"2","08_ages_3":"3","08_ages_4":"4","08_ages_5":"5","08_ages_6":"6","08_ages_7":"7","08_ages_8":"8","08_ages_9":"9","08_ages_10":"10","08_ages_11":"11","08_ages_12":"12","08_ages_13":"13","08_ages_14":"14","08_ages_15":"15","08_ages_16":"16","08_ages_17":"17","08_ages_18":"18"},"rt":90212.79999999376,"item_order":[0,1,2,3,4,5,6,7],"radio_events":[8131.199999988894,12041.199999992386,17314.59999999788,23455.099999991944,31762.099999992643,44382.59999999718,58840.49999999115,77452.49999999953],"checkbox_events":[46287.100000001374,60363.39999998745,60827.699999994365,61156.49999999732,61994.99999999534,62439.49999999313,62806.400000001304,63757.69999998738,64372.89999998757,65041.299999997136,65625.2999999997,66302.10000000079,66883.49999999627,67534.09999998985,68247.89999998757,68946.19999999134,69480.79999999027,70227.7999999933,70810.19999999274,78747.99999999232,79230.29999999562,79645.39999999385,80011.3999999885,81099.90000000107,81507.89999999688,81911.39999999711,82678,83311.9000000006,83919.69999999856,84620.69999999949,85202.19999999972,85751.2999999891,86400.49999998882,86951.199999996,87513.59999999125,87948.59999998892,88562.79999999981],"key_events":[],"mouse_events":[8131.199999988894,12041.199999992386,17314.59999999788,23455.099999991944,31762.099999992643,44382.59999999718,46287.100000001374,57312.2000000003,58840.49999999115,60363.39999998745,60827.699999994365,61156.49999999732,61994.99999999534,62439.49999999313,62806.400000001304,63757.69999998738,64372.89999998757,65041.299999997136,65625.2999999997,66302.10000000079,66883.49999999627,67534.09999998985,68247.89999998757,68946.19999999134,69480.79999999027,70227.7999999933,70810.19999999274,77452.49999999953,78747.99999999232,79230.29999999562,79645.39999999385,80011.3999999885,81099.90000000107,81507.89999999688,81911.39999999711,82678,83311.9000000006,83919.69999999856,84620.69999999949,85202.19999999972,85751.2999999891,86400.49999998882,86951.199999996,87513.59999999125,87948.59999998892,88562.79999999981,90196.19999999134],"honeypot":0,"survey":"mace","page":10,"trial_type":"survey-mace","trial_index":18,"time_elapsed":1064477,"internal_node_id":"0.0-18.0","task_version":"prescreen-v0.3","browser_interactions":0,"instructed":0},{"rt":12720.300000000978,"trial_type":"mental-health-alert","trial_index":19,"time_elapsed":1077210,"internal_node_id":"0.0-19.0","task_version":"prescreen-v0.3","interactions":"[]"}]