[{"view_history":[{"page_index":0,"viewing_time":4827},{"page_index":1,"viewing_time":1166},{"page_index":2,"viewing_time":2216},{"page_index":3,"viewing_time":1504}],"rt":9729,"trial_type":"instructions","trial_index":0,"time_elapsed":9729,"internal_node_id":"0.0-0.0","task_version":"prescreen-v0.3"},{"rt":25048,"responses":{"age":"29","gender-categorical":"Male","gender-free-response":"","ethnicity":"Not Hispanic or Latino","race":["White"],"education":"Master degree or higher"},"trial_type":"survey-demo","trial_index":1,"time_elapsed":34801,"internal_node_id":"0.0-1.0","task_version":"prescreen-v0.3"},{"responses":{"Q09":"2","Q10":"1","Q19":"2","Q08":"1","Q11":"2","Q13":"2","Q21":"2","Q02":"1","Q15":"2","Q16":"2","Q12":"2","Q03":"1","Q14":"2","Q01":"1","Q04":"1","Q06":"2","Q07":"2","Q17":"2","Q18":"1","Q20":"1","Q05":"2"},"rt":78867,"item_order":[8,9,18,7,10,12,20,1,14,15,11,2,13,0,3,5,6,16,17,19,4],"radio_events":[5926,24396,27402,30131,36585,37557,38489,41185,43591,44560,46521,48585,50137,52241,56027,58148,63454,65614,69924,70904,73319,77598],"key_events":[],"mouse_events":[3653,4711,5926,6950,23888,24396,26926,27402,28398,29350,30131,31380,32308,35168,36585,37557,38489,41185,42636,43591,44560,46521,48585,50137,52241,53257,54047,55186,56027,58148,59248,62609,63454,64622,65114,65614,69924,70904,72776,73319,76670,77086,77598,78862],"straightlining":0.6190476190476191,"zigzagging":0.6,"honeypot":0,"survey":"sns","trial_type":"survey-template","trial_index":2,"time_elapsed":113691,"internal_node_id":"0.0-2.0","task_version":"prescreen-v0.3","browser_interactions":0,"infrequency":0.5},{"responses":{"Q08":"1","Q13":"2","Q12":"1","Q09":"1","Q11":"1","Q02":"2","Q01":"2","Q10":"1","Q07":"1","Q03":"2","Q05":"3","Q06":"3","Q04":"3"},"rt":36830,"item_order":[7,12,11,8,10,1,0,9,6,2,4,5,3],"radio_events":[2035,5167,6714,7951,8926,10247,11389,11531,22963,24107,26235,32315,33686,35243],"key_events":[],"mouse_events":[2035,5167,6714,7951,8926,10247,11389,11531,20978,21786,22963,24107,26235,32315,33686,35243,36825],"straightlining":0.46153846153846156,"zigzagging":0.5,"honeypot":0,"survey":"bisbas","trial_type":"survey-template","trial_index":3,"time_elapsed":150533,"internal_node_id":"0.0-3.0","task_version":"prescreen-v0.3","browser_interactions":0,"infrequency":1},{"responses":{"Q01":"2","Q02":"2","Q03":"2"},"rt":10095,"radio_events":[3443,4857,9009],"key_events":[],"mouse_events":[3443,4857,6989,9009,10092],"survey":"map","page":1,"trial_type":"survey-map","trial_index":4,"time_elapsed":160642,"internal_node_id":"0.0-4.0","task_version":"prescreen-v0.3","browser_interactions":0},{"responses":{"Q04":"2","Q05":"2","Q06":"2"},"rt":7725,"radio_events":[2904,4379,5748],"key_events":[],"mouse_events":[2904,4379,5748,7723],"survey":"map","page":2,"trial_type":"survey-map","trial_index":5,"time_elapsed":168375,"internal_node_id":"0.0-5.0","task_version":"prescreen-v0.3","browser_interactions":0},{"responses":{"Q07":"4","Q08":"4","Q09":"4"},"rt":8260,"radio_events":[3966,5570,6688],"key_events":[],"mouse_events":[3966,5570,6688,8258],"survey":"map","page":3,"trial_type":"survey-map","trial_index":6,"time_elapsed":176643,"internal_node_id":"0.0-6.0","task_version":"prescreen-v0.3","browser_interactions":0},{"responses":{"Q10":"2","Q11":"2","Q12":"2","Q13":"3","Q16":"3","Q14":"1","Q15":"1"},"rt":20174,"radio_events":[3261,4688,5949,8151,15325,16860,18347],"key_events":[],"mouse_events":[1881,3261,4688,5949,8151,15325,16860,18347,20170],"survey":"map","page":4,"trial_type":"survey-map","trial_index":7,"time_elapsed":196829,"internal_node_id":"0.0-7.0","task_version":"prescreen-v0.3","browser_interactions":0,"infrequency":1},{"view_history":[{"page_index":0,"viewing_time":4293},{"page_index":1,"viewing_time":714}],"rt":5009,"trial_type":"instructions","trial_index":8,"time_elapsed":201843,"internal_node_id":"0.0-8.0","task_version":"prescreen-v0.3"},{"responses":{"01":"Yes","01_ages_9":"9","01_ages_10":"10","01_ages_11":"11","01_ages_12":"12","01_ages_13":"13","01_ages_14":"14","01_ages_15":"15","01_ages_16":"16","01_ages_17":"17","01_ages_18":"18","02":"Yes","02_ages_11":"11","02_ages_12":"12","02_ages_13":"13","03":"Yes","03_ages_12":"12","03_ages_14":"14","04":"Yes","04_ages_7":"7","04_ages_10":"10","04_ages_12":"12","04_ages_13":"13","05":"Yes","05_ages_7":"7","05_ages_8":"8","05_ages_9":"9","05_ages_10":"10","05_ages_11":"11","06":"Yes","06_ages_7":"7","06_ages_8":"8","06_ages_9":"9"},"rt":80363,"item_order":[0,1,2,3,4,5],"radio_events":[4671,21877,37561,39393,41560,49762],"checkbox_events":[8063,10656,12025,12906,14512,15333,16214,17117,18094,19380,25102,26102,27268,27411,28743,51368,52296,53974,59198,60007,61984,62304,63078,64388,65353,67602,68900,71256,72196,73401,74813,74957,75993],"key_events":[],"mouse_events":[0,4671,8063,10656,12025,12906,14512,15333,16214,17117,18094,19380,20569,21877,23603,25102,26102,27268,27411,28743,35812,37561,39393,41560,49762,51368,52296,53974,58211,59198,60007,61984,62304,63078,64388,65353,67602,68900,69768,71256,72196,73401,74813,74957,75993,80350],"honeypot":0,"survey":"mace","page":1,"trial_type":"survey-mace","trial_index":9,"time_elapsed":282242,"internal_node_id":"0.0-9.0","task_version":"prescreen-v0.3","browser_interactions":0},{"responses":{"01":"Yes","01_ages_8":"8","01_ages_9":"9","01_ages_10":"10","02":"No","03":"No","04":"No","05":"Yes","05_ages_12":"12","05_ages_13":"13","06":"Yes","06_ages_7":"7","06_ages_8":"8","06_ages_9":"9","06_ages_10":"10","06_ages_11":"11","06_ages_12":"12","07":"No","08":"No"},"rt":67146,"item_order":[0,1,2,3,4,5,6,7],"radio_events":[7261,13353,16625,19959,20101,23610,32798,39616,57990,66093],"checkbox_events":[8784,9748,10975,34499,35736,46030,47138,47279,48459,49564,51076,52063,53098],"key_events":[],"mouse_events":[2608,7261,8784,9748,10975,13353,16625,19959,20101,23610,32798,34499,35736,39616,46030,47138,47279,48459,49564,51076,52063,53098,57990,66093,67129],"honeypot":0,"survey":"mace","page":2,"trial_type":"survey-mace","trial_index":10,"time_elapsed":349408,"internal_node_id":"0.0-10.0","task_version":"prescreen-v0.3","browser_interactions":0},{"responses":{"01":"No","02":"No","03":"No","04":"No"},"rt":10369,"item_order":[0,1,2,3],"radio_events":[4927,5272,6593,7664,8937],"checkbox_events":[],"key_events":[],"mouse_events":[4927,5272,6593,7664,8937,10364],"honeypot":0,"survey":"mace","page":3,"trial_type":"survey-mace","trial_index":11,"time_elapsed":359788,"internal_node_id":"0.0-11.0","task_version":"prescreen-v0.3","browser_interactions":0},{"responses":{"01":"No","02":"No"},"rt":9669,"item_order":[0,1],"radio_events":[3656,7428],"checkbox_events":[],"key_events":[],"mouse_events":[3656,7428,9665],"honeypot":0,"survey":"mace","page":4,"trial_type":"survey-mace","trial_index":12,"time_elapsed":369464,"internal_node_id":"0.0-12.0","task_version":"prescreen-v0.3","browser_interactions":0},{"responses":{"01":"Yes","01_ages_10":"10","01_ages_11":"11","01_ages_12":"12","02":"Yes","02_ages_8":"8","02_ages_9":"9","02_ages_10":"10","03":"No","04":"No","05":"No"},"rt":26281,"item_order":[0,1,2,3,4],"radio_events":[3886,12882,22037,23343,24711],"checkbox_events":[8266,9693,11146,14644,15810,16952],"key_events":[],"mouse_events":[3886,8266,9693,11146,12882,14644,15810,16952,22037,23343,24711,26271],"honeypot":0,"survey":"mace","page":5,"trial_type":"survey-mace","trial_index":13,"time_elapsed":395762,"internal_node_id":"0.0-13.0","task_version":"prescreen-v0.3","browser_interactions":0},{"responses":{"01":"No","02":"No","03":"No","04":"No","05":"No"},"rt":11585,"item_order":[0,1,2,3,4],"radio_events":[4351,4493,5697,6647,7637,10432],"checkbox_events":[],"key_events":[],"mouse_events":[4351,4493,5697,6647,7637,10432,11574],"honeypot":0,"survey":"mace","page":6,"trial_type":"survey-mace","trial_index":14,"time_elapsed":407363,"internal_node_id":"0.0-14.0","task_version":"prescreen-v0.3","browser_interactions":0},{"responses":{"01":"Yes","01_ages_12":"12","02":"Yes","02_ages_14":"14","03":"Yes","03_ages_7":"7","04":"Yes","04_ages_11":"11","05":"Yes","05_ages_8":"8","06":"Yes","06_ages_8":"8","07":"Yes","07_ages_15":"15"},"rt":43444,"item_order":[0,1,2,3,4,5,6],"radio_events":[5110,9215,13225,22877,25994,33767,36730],"checkbox_events":[7893,11464,14890,24222,27518,35385,42120],"key_events":[],"mouse_events":[5110,6873,7012,7893,9215,11464,13225,14890,22877,24222,25994,27518,33767,35385,36730,42120,43431],"honeypot":0,"survey":"mace","page":7,"trial_type":"survey-mace","trial_index":15,"time_elapsed":450831,"internal_node_id":"0.0-15.0","task_version":"prescreen-v0.3","browser_interactions":0},{"responses":{"01":"No","02":"Yes","02_ages_13":"13","02_ages_14":"14","02_ages_15":"15","03":"No","04":"Yes","04_ages_17":"17"},"rt":20739,"item_order":[0,1,2,3],"radio_events":[4085,5845,10938,13758],"checkbox_events":[7644,8724,9831,19089],"key_events":[],"mouse_events":[4085,5845,7644,8724,9831,10938,13758,19089,20731],"honeypot":0,"survey":"mace","page":8,"trial_type":"survey-mace","trial_index":16,"time_elapsed":471587,"internal_node_id":"0.0-16.0","task_version":"prescreen-v0.3","browser_interactions":0},{"responses":{"01":"No","02":"No","03":"No","04":"No"},"rt":8551,"item_order":[0,1,2,3],"radio_events":[2842,3972,6056,7246],"checkbox_events":[],"key_events":[],"mouse_events":[2842,3972,5163,6056,7246,8543],"honeypot":0,"survey":"mace","page":9,"trial_type":"survey-mace","trial_index":17,"time_elapsed":480154,"internal_node_id":"0.0-17.0","task_version":"prescreen-v0.3","browser_interactions":0},{"responses":{"01":"Yes","01_ages_12":"12","01_ages_13":"13","01_ages_14":"14","01_ages_15":"15","01_ages_16":"16","01_ages_17":"17","01_ages_18":"18","02":"Yes","02_ages_17":"17","03":"Yes","03_ages_16":"16","03_ages_17":"17","03_ages_18":"18","04":"Yes","04_ages_18":"18","05":"Yes","05_ages_17":"17","05_ages_18":"18","06":"Yes","06_ages_17":"17","07":"Yes","07_ages_11":"11","07_ages_16":"16","08":"Yes","08_ages_1":"1","08_ages_2":"2","08_ages_3":"3","08_ages_4":"4","08_ages_5":"5","08_ages_6":"6","08_ages_7":"7","08_ages_8":"8","08_ages_9":"9","08_ages_10":"10","08_ages_11":"11","08_ages_12":"12","08_ages_13":"13","08_ages_14":"14","08_ages_15":"15","08_ages_16":"16","08_ages_17":"17","08_ages_18":"18"},"rt":119775,"item_order":[0,1,2,3,4,5,6,7],"radio_events":[4139,15541,21715,35878,40411,53659,60634,79284],"checkbox_events":[6138,7031,8137,9231,10457,11647,13077,17682,18636,18776,24833,25797,27737,37900,43089,44780,55695,55837,57801,62158,64597,81950,86593,87712,88688,89581,90950,92079,96472,97995,99032,100388,101378,102783,102925,104067,105161,108708,109828,111696,113019],"key_events":[],"mouse_events":[4139,6138,7031,8137,9231,10457,11647,13077,15541,17682,18636,18776,21715,24833,25797,27737,34806,35878,37900,40411,43089,44780,53659,55695,55837,57801,60634,62158,64597,79284,81950,86593,87712,88688,89581,90950,92079,95258,96472,97995,99032,100388,101378,102783,102925,104067,105161,108708,109828,111696,113019,119767],"honeypot":0,"survey":"mace","page":10,"trial_type":"survey-mace","trial_index":18,"time_elapsed":599947,"internal_node_id":"0.0-18.0","task_version":"prescreen-v0.3","browser_interactions":0,"instructed":0},{"rt":4565,"trial_type":"mental-health-alert","trial_index":19,"time_elapsed":604518,"internal_node_id":"0.0-19.0","task_version":"prescreen-v0.3","interactions":"[{\"event\":\"focus\",\"trial\":0,\"time\":1119}]"}]