[{"view_history":[{"page_index":0,"viewing_time":2923.399999976158},{"page_index":1,"viewing_time":3070.800000011921},{"page_index":2,"viewing_time":3569.0999999940395},{"page_index":3,"viewing_time":1185.9000000059605}],"rt":10749.699999988079,"trial_type":"instructions","trial_index":0,"time_elapsed":10760,"internal_node_id":"0.0-0.0","task_version":"prescreen-v0.3"},{"rt":17456.59999999404,"responses":{"age":"23","gender-categorical":"Male","gender-free-response":"","ethnicity":"Not Hispanic or Latino","race":["White"],"education":"Bachelor degree"},"trial_type":"survey-demo","trial_index":1,"time_elapsed":28219,"internal_node_id":"0.0-1.0","task_version":"prescreen-v0.3"},{"responses":{"Q06":"1","Q14":"0","Q15":"2","Q10":"0","Q16":"3","Q04":"2","Q08":"1","Q17":"1","Q09":"3","Q03":"1","Q18":"2","Q13":"1","Q02":"1","Q20":"0","Q19":"1","Q01":"2","Q07":"1","Q12":"2","Q11":"2","Q05":"1","Q21":"3"},"rt":127065.90000000596,"item_order":[5,13,14,9,15,3,7,16,8,2,17,12,1,19,18,0,6,11,10,4,20],"radio_events":[7125.799999982119,16886.69999998808,21437.59999999404,28543.59999999404,31874.5,35008.5,39891.69999998808,44474.69999998808,50694.69999998808,56907.69999998808,59775.69999998808,71919.59999999404,73864.59999999404,78829.59999999404,81090.5,84238.69999998808,93116.59999999404,97459.59999999404,104365.59999999404,111584.59999999404,116223.69999998808,118336.59999999404,125410.59999999404],"key_events":[7125.799999982119,16094.90000000596,16886.69999998808,21437.59999999404,28543.59999999404,31874.5,35008.5,39364.79999998212,39891.69999998808,44474.69999998808,50189.79999998212,50694.69999998808,56907.69999998808,59775.69999998808,71919.59999999404,73271.79999998212,73864.59999999404,77750.59999999404,78434.69999998808,78829.59999999404,81090.5,83346.69999998808,84238.69999998808,93116.59999999404,96906.59999999404,97459.59999999404,103290.69999998808,103791.59999999404,104365.59999999404,111584.59999999404,116223.69999998808,118336.59999999404,123507.69999998808,124425.5,125410.59999999404,127064.40000000596],"mouse_events":[],"straightlining":0.42857142857142855,"zigzagging":0.6,"honeypot":0,"survey":"sns","trial_type":"survey-template","trial_index":2,"time_elapsed":155289,"internal_node_id":"0.0-2.0","task_version":"prescreen-v0.3","browser_interactions":2,"infrequency":0},{"responses":{"Q04":"3","Q03":"3","Q08":"2","Q10":"2","Q12":"1","Q09":"2","Q01":"3","Q05":"2","Q02":"1","Q06":"2","Q07":"3","Q11":"2","Q13":"0"},"rt":65413.39999997616,"item_order":[3,2,7,9,11,8,0,4,1,5,6,10,12],"radio_events":[10001.59999999404,12170.699999988079,15523.59999999404,18869.59999999404,22551.5,25539.40000000596,29911.5,33864.5,38176.60000002384,41312.60000002384,46075.5,47184.60000002384,54497.30000001192,63765.60000002384,64758.5],"key_events":[8425.5,10001.59999999404,12170.699999988079,15125.59999999404,15523.59999999404,18324.69999998808,18869.59999999404,22144.59999999404,22551.5,25113.5,25539.40000000596,29911.5,33864.5,37683.60000002384,38176.60000002384,41312.60000002384,44440.60000002384,46075.5,47184.60000002384,54101.5,54497.30000001192,61969.5,63765.60000002384,64321.60000002384,64758.5,65412.60000002384],"mouse_events":[],"straightlining":0.46153846153846156,"zigzagging":0.75,"honeypot":0,"survey":"bisbas","trial_type":"survey-template","trial_index":3,"time_elapsed":220705,"internal_node_id":"0.0-3.0","task_version":"prescreen-v0.3","browser_interactions":0,"infrequency":0},{"responses":{"Q01":"3","Q02":"2","Q03":"2"},"rt":23143.30000001192,"radio_events":[6003.800000011921,13052.900000035763,15169.900000035763,22155.80000001192],"key_events":[6003.800000011921,12503.900000035763,13052.900000035763,15169.900000035763,22155.80000001192,23142.900000035763],"mouse_events":[],"survey":"map","page":1,"trial_type":"survey-map","trial_index":4,"time_elapsed":243851,"internal_node_id":"0.0-4.0","task_version":"prescreen-v0.3","browser_interactions":0},{"responses":{"Q04":"3","Q05":"2","Q06":"3"},"rt":12100.099999964237,"radio_events":[5940.800000011921,8188.699999988079,10401.699999988079],"key_events":[5940.800000011921,8188.699999988079,10401.699999988079,12099.800000011921],"mouse_events":[],"survey":"map","page":2,"trial_type":"survey-map","trial_index":5,"time_elapsed":255952,"internal_node_id":"0.0-5.0","task_version":"prescreen-v0.3","browser_interactions":0},{"responses":{"Q07":"2","Q08":"1","Q09":"2"},"rt":18588.69999998808,"radio_events":[8297.5,13980.300000011921,17618.30000001192],"key_events":[6356.300000011921,8297.5,13980.300000011921,17618.30000001192,18588.30000001192],"mouse_events":[],"survey":"map","page":3,"trial_type":"survey-map","trial_index":6,"time_elapsed":274542,"internal_node_id":"0.0-6.0","task_version":"prescreen-v0.3","browser_interactions":0},{"responses":{"Q10":"3","Q11":"2","Q12":"2","Q13":"3","Q16":"0","Q14":"1","Q15":"1"},"rt":45368.80000001192,"radio_events":[13910.300000011921,20808.19999998808,26342.19999998808,29232.19999998808,33113.09999996424,41092.19999998808,44590.19999998808],"key_events":[13272.099999964237,13910.300000011921,20271.30000001192,20808.19999998808,26342.19999998808,29232.19999998808,33113.09999996424,39525.30000001192,40630.19999998808,41092.19999998808,44590.19999998808,45368.19999998808],"mouse_events":[],"survey":"map","page":4,"trial_type":"survey-map","trial_index":7,"time_elapsed":319912,"internal_node_id":"0.0-7.0","task_version":"prescreen-v0.3","browser_interactions":2,"infrequency":0},{"view_history":[{"page_index":0,"viewing_time":1476.300000011921},{"page_index":1,"viewing_time":1728},{"page_index":0,"viewing_time":1606},{"page_index":1,"viewing_time":4482.899999976158}],"rt":9293.899999976158,"trial_type":"instructions","trial_index":8,"time_elapsed":329207,"internal_node_id":"0.0-8.0","task_version":"prescreen-v0.3"},{"responses":{"01":"No","02":"Yes","02_ages_16":"16","02_ages_17":"17","02_ages_18":"18","03":"No","04":"No","05":"No","06":"No"},"rt":30334,"item_order":[0,1,2,3,4,5],"radio_events":[8257,12888.899999976158,15655.699999988079,16304.699999988079,26557.80000001192,27975.80000001192,29356.80000001192],"checkbox_events":[21837,22172,22927.80000001192],"key_events":[0,8257,12888.899999976158,15655.699999988079,16304.699999988079,21837,22172,22927.80000001192,26557.80000001192,27975.80000001192,29356.80000001192,30332.099999964237],"mouse_events":[],"honeypot":0,"survey":"mace","page":1,"trial_type":"survey-mace","trial_index":9,"time_elapsed":359546,"internal_node_id":"0.0-9.0","task_version":"prescreen-v0.3","browser_interactions":0},{"responses":{"01":"No","02":"No","03":"No","04":"No","05":"No","06":"No","07":"No","08":"No"},"rt":18479.399999976158,"item_order":[0,1,2,3,4,5,6,7],"radio_events":[3982.800000011921,5671.800000011921,7289.899999976158,10821.800000011921,11883.899999976158,13094,14403.800000011921,17746.69999998808],"checkbox_events":[],"key_events":[3001.699999988079,3982.800000011921,5671.800000011921,7289.899999976158,10821.800000011921,11883.899999976158,13094,14403.800000011921,17746.69999998808,18476.899999976158],"mouse_events":[],"honeypot":0,"survey":"mace","page":2,"trial_type":"survey-mace","trial_index":10,"time_elapsed":378028,"internal_node_id":"0.0-10.0","task_version":"prescreen-v0.3","browser_interactions":0},{"responses":{"01":"No","02":"No","03":"No","04":"No"},"rt":14497.800000011921,"item_order":[0,1,2,3],"radio_events":[8626.600000023842,11655.700000047684,12469.700000047684,13303.800000011921],"checkbox_events":[],"key_events":[7194.5,8626.600000023842,11655.700000047684,12469.700000047684,13303.800000011921,14496.700000047684],"mouse_events":[],"honeypot":0,"survey":"mace","page":3,"trial_type":"survey-mace","trial_index":11,"time_elapsed":392528,"internal_node_id":"0.0-11.0","task_version":"prescreen-v0.3","browser_interactions":0},{"responses":{"01":"No","02":"No"},"rt":2584.800000011921,"item_order":[0,1],"radio_events":[1635.2000000476837,2023.2000000476837],"checkbox_events":[],"key_events":[1635.2000000476837,2023.2000000476837,2584.2000000476837],"mouse_events":[],"honeypot":0,"survey":"mace","page":4,"trial_type":"survey-mace","trial_index":12,"time_elapsed":395115,"internal_node_id":"0.0-12.0","task_version":"prescreen-v0.3","browser_interactions":0},{"responses":{"01":"No","02":"No","03":"No","04":"No","05":"No"},"rt":9840.799999952316,"item_order":[0,1,2,3,4],"radio_events":[2479.5,3657.599999964237,5798.5,7591.399999976158,7975.5],"checkbox_events":[],"key_events":[1518.5,2479.5,3020.399999976158,3657.599999964237,4653.5,5798.5,6298.5,6955.299999952316,7591.399999976158,7975.5,9839.399999976158],"mouse_events":[],"honeypot":0,"survey":"mace","page":5,"trial_type":"survey-mace","trial_index":13,"time_elapsed":404958,"internal_node_id":"0.0-13.0","task_version":"prescreen-v0.3","browser_interactions":0},{"responses":{"01":"No","02":"Yes","02_ages_16":"16","02_ages_17":"17","02_ages_18":"18","03":"No","04":"Yes","04_ages_18":"18","05":"No"},"rt":21118.600000023842,"item_order":[0,1,2,3,4],"radio_events":[7003.600000023842,8852.700000047684,12216.700000047684,15770.600000023842,20480.700000047684],"checkbox_events":[9603.800000011921,9925.700000047684,10236.700000047684,17024.700000047684],"key_events":[7003.600000023842,8852.700000047684,9603.800000011921,9925.700000047684,10236.700000047684,11173.700000047684,12216.700000047684,14059.700000047684,15770.600000023842,17024.700000047684,20480.700000047684,21116.900000035763],"mouse_events":[],"honeypot":0,"survey":"mace","page":6,"trial_type":"survey-mace","trial_index":14,"time_elapsed":426079,"internal_node_id":"0.0-14.0","task_version":"prescreen-v0.3","browser_interactions":0},{"responses":{"01":"No","02":"Yes","02_ages_17":"17","02_ages_18":"18","03":"No","04":"No","05":"No","06":"No","07":"No"},"rt":16089.300000011921,"item_order":[0,1,2,3,4,5,6],"radio_events":[2460.300000011921,3966.2000000476837,4814.300000011921,10700.200000047684,12150.300000011921,13189.200000047684,14690.300000011921,15229.200000047684],"checkbox_events":[6115.200000047684,7359.200000047684],"key_events":[2460.300000011921,3966.2000000476837,4814.300000011921,6115.200000047684,7359.200000047684,10700.200000047684,12150.300000011921,13189.200000047684,14690.300000011921,15229.200000047684,16087.100000023842],"mouse_events":[],"honeypot":0,"survey":"mace","page":7,"trial_type":"survey-mace","trial_index":15,"time_elapsed":442171,"internal_node_id":"0.0-15.0","task_version":"prescreen-v0.3","browser_interactions":0},{"responses":{"01":"No","02":"No","03":"No","04":"Yes","04_ages_17":"17","04_ages_18":"18"},"rt":30138.799999952316,"item_order":[0,1,2,3],"radio_events":[13368.699999988079,14783.399999976158,21720.399999976158,24516.5,27302.399999976158],"checkbox_events":[28274.399999976158,29573.399999976158],"key_events":[13368.699999988079,14783.399999976158,21720.399999976158,24516.5,27302.399999976158,28274.399999976158,29573.399999976158,30137.5],"mouse_events":[],"honeypot":0,"survey":"mace","page":8,"trial_type":"survey-mace","trial_index":16,"time_elapsed":472312,"internal_node_id":"0.0-16.0","task_version":"prescreen-v0.3","browser_interactions":0},{"responses":{"01":"Yes","01_ages_1":"1","01_ages_2":"2","01_ages_3":"3","01_ages_4":"4","01_ages_5":"5","01_ages_6":"6","01_ages_7":"7","01_ages_8":"8","01_ages_9":"9","01_ages_10":"10","01_ages_11":"11","01_ages_12":"12","01_ages_13":"13","01_ages_14":"14","01_ages_15":"15","01_ages_16":"16","01_ages_17":"17","01_ages_18":"18","02":"Yes","02_ages_1":"1","02_ages_2":"2","02_ages_3":"3","02_ages_4":"4","02_ages_5":"5","02_ages_6":"6","02_ages_7":"7","02_ages_8":"8","02_ages_9":"9","02_ages_10":"10","02_ages_11":"11","02_ages_12":"12","02_ages_13":"13","02_ages_14":"14","02_ages_15":"15","02_ages_16":"16","02_ages_17":"17","02_ages_18":"18","03":"Yes","03_ages_1":"1","03_ages_2":"2","03_ages_3":"3","03_ages_4":"4","03_ages_5":"5","03_ages_6":"6","03_ages_7":"7","03_ages_8":"8","03_ages_9":"9","03_ages_10":"10","03_ages_11":"11","03_ages_12":"12","03_ages_13":"13","03_ages_14":"14","03_ages_15":"15","03_ages_16":"16","03_ages_17":"17","03_ages_18":"18","04":"Yes","04_ages_1":"1","04_ages_2":"2","04_ages_3":"3","04_ages_4":"4","04_ages_5":"5","04_ages_6":"6","04_ages_7":"7","04_ages_8":"8","04_ages_9":"9","04_ages_10":"10","04_ages_11":"11","04_ages_12":"12","04_ages_13":"13","04_ages_14":"14","04_ages_15":"15","04_ages_16":"16","04_ages_17":"17","04_ages_18":"18"},"rt":62029.200000047684,"item_order":[0,1,2,3],"radio_events":[4425.600000023842,24192.700000047684,38801.80000001192,51880.80000001192],"checkbox_events":[7586.700000047684,8549.700000047684,9216.700000047684,10095.700000047684,10787,11275.700000047684,11707.700000047684,12053.700000047684,12460.700000047684,12788.900000035763,13272.700000047684,13764.700000047684,14413.100000023842,14759.700000047684,15393.700000047684,16209.700000047684,16595.5,17094.700000047684,25041.700000047684,25641.5,26071.700000047684,26398.700000047684,26753.5,27136.600000023842,28034.5,28715.600000023842,29031.600000023842,29412.600000023842,30736.700000047684,31220.700000047684,31965.700000047684,32453.700000047684,33096.5,33462.700000047684,33806.60000002384,34482.60000002384,40458.700000047684,41048.5,41675.700000047684,42153.5,42746.60000002384,43198.5,43594.40000003576,44134.5,44468.60000002384,44825.700000047684,45192.700000047684,46050.40000003576,46422.60000002384,46757.60000002384,47096.5,47462.700000047684,48241.5,48604.700000047684,53582.60000002384,53932.700000047684,54529.60000002384,54882.80000001192,55283.5,55678.60000002384,56528.700000047684,56899.700000047684,57295.60000002384,57673.60000002384,58440.5,58842.60000002384,59195.5,59576.700000047684,59943.700000047684,60334.60000002384,60697.700000047684,61178.700000047684],"key_events":[4425.600000023842,6325.700000047684,6809.600000023842,7586.700000047684,7925.800000011921,8549.700000047684,9216.700000047684,9733.700000047684,10095.700000047684,10787,11275.700000047684,11707.700000047684,12053.700000047684,12460.700000047684,12788.900000035763,13272.700000047684,13764.700000047684,14413.100000023842,14759.700000047684,15393.700000047684,15813.700000047684,16209.700000047684,16595.5,17094.700000047684,24192.700000047684,25041.700000047684,25641.5,26071.700000047684,26398.700000047684,26753.5,27136.600000023842,27497.5,28034.5,28343.700000047684,28715.600000023842,29031.600000023842,29412.600000023842,29769.600000023842,30303.600000023842,30736.700000047684,31220.700000047684,31613.700000047684,31965.700000047684,32453.700000047684,33096.5,33462.700000047684,33806.60000002384,34106.700000047684,34482.60000002384,38801.80000001192,40096.700000047684,40458.700000047684,41048.5,41675.700000047684,42153.5,42746.60000002384,43198.5,43594.40000003576,44134.5,44468.60000002384,44825.700000047684,45192.700000047684,45609.60000002384,46050.40000003576,46422.60000002384,46757.60000002384,47096.5,47462.700000047684,47810.700000047684,48241.5,48604.700000047684,51880.80000001192,53582.60000002384,53932.700000047684,54248.60000002384,54529.60000002384,54882.80000001192,55283.5,55678.60000002384,56175.60000002384,56528.700000047684,56899.700000047684,57295.60000002384,57673.60000002384,58079.40000003576,58440.5,58842.60000002384,59195.5,59576.700000047684,59943.700000047684,60334.60000002384,60697.700000047684,61178.700000047684,62027.80000001192],"mouse_events":[],"honeypot":0,"survey":"mace","page":9,"trial_type":"survey-mace","trial_index":17,"time_elapsed":534343,"internal_node_id":"0.0-17.0","task_version":"prescreen-v0.3","browser_interactions":0},{"responses":{"01":"No","02":"No","03":"No","04":"No","05":"No","06":"Yes","06_ages_17":"17","07":"Yes","07_ages_14":"14","07_ages_15":"15","07_ages_16":"16","07_ages_17":"17","07_ages_18":"18","08":"Yes","08_ages_1":"1","08_ages_2":"2","08_ages_3":"3","08_ages_4":"4","08_ages_5":"5","08_ages_6":"6","08_ages_7":"7","08_ages_8":"8","08_ages_9":"9","08_ages_10":"10","08_ages_11":"11","08_ages_12":"12","08_ages_13":"13","08_ages_14":"14","08_ages_15":"15","08_ages_16":"16","08_ages_17":"17","08_ages_18":"18"},"rt":40901,"item_order":[0,1,2,3,4,5,6,7],"radio_events":[2646.400000035763,4166.400000035763,5415.300000011921,6894.400000035763,9520.199999988079,12292.400000035763,19032.5,23020.400000035763,26706.30000001192,31018.30000001192],"checkbox_events":[13380.199999988079,28403.30000001192,29148.400000035763,29443.400000035763,29997.400000035763,30311.400000035763,32459.30000001192,32815.5,33190.30000001192,34001.19999998808,34343.40000003576,34675.30000001192,35078.40000003576,35539.19999998808,36002.30000001192,36341.19999998808,36834.30000001192,37527.30000001192,37815.30000001192,38505.30000001192,38802.19999998808,39232.40000003576,39856.19999998808,40285.30000001192],"key_events":[2646.400000035763,4166.400000035763,4648.400000035763,5415.300000011921,5895.199999988079,6894.400000035763,7760.600000023842,9520.199999988079,12292.400000035763,13380.199999988079,19032.5,23020.400000035763,26706.30000001192,28403.30000001192,28686.19999998808,29148.400000035763,29443.400000035763,29997.400000035763,30311.400000035763,31018.30000001192,32459.30000001192,32815.5,33190.30000001192,34001.19999998808,34343.40000003576,34675.30000001192,35078.40000003576,35539.19999998808,36002.30000001192,36341.19999998808,36834.30000001192,37196.30000001192,37527.30000001192,37815.30000001192,38192.40000003576,38505.30000001192,38802.19999998808,39232.40000003576,39856.19999998808,40285.30000001192,40898.40000003576],"mouse_events":[],"honeypot":0,"survey":"mace","page":10,"trial_type":"survey-mace","trial_index":18,"time_elapsed":575248,"internal_node_id":"0.0-18.0","task_version":"prescreen-v0.3","browser_interactions":0,"instructed":0},{"rt":2815,"trial_type":"mental-health-alert","trial_index":19,"time_elapsed":578064,"internal_node_id":"0.0-19.0","task_version":"prescreen-v0.3","interactions":"[{\"event\":\"blur\",\"trial\":2,\"time\":96022},{\"event\":\"focus\",\"trial\":2,\"time\":100052},{\"event\":\"blur\",\"trial\":7,\"time\":277965},{\"event\":\"focus\",\"trial\":7,\"time\":278764}]"}]