[{"view_history":[{"page_index":0,"viewing_time":3051},{"page_index":1,"viewing_time":4725.10000000149},{"page_index":2,"viewing_time":2948.39999999851},{"page_index":3,"viewing_time":1157.3000000044703}],"rt":11883.90000000596,"trial_type":"instructions","trial_index":0,"time_elapsed":11965,"internal_node_id":"0.0-0.0","task_version":"prescreen-v0.3"},{"rt":15094.10000000149,"responses":{"age":"24","gender-categorical":"Male","gender-free-response":"","ethnicity":"Not Hispanic or Latino","race":["White"],"education":"Some college"},"trial_type":"survey-demo","trial_index":1,"time_elapsed":27071,"internal_node_id":"0.0-1.0","task_version":"prescreen-v0.3"},{"responses":{"Q15":"2","Q01":"1","Q19":"1","Q09":"0","Q11":"1","Q18":"1","Q05":"0","Q08":"1","Q21":"3","Q12":"1","Q06":"2","Q14":"2","Q04":"2","Q10":"1","Q02":"0","Q07":"0","Q03":"0","Q13":"2","Q17":"0","Q20":"0","Q16":"0"},"rt":113357.5,"item_order":[14,0,18,8,10,17,4,7,20,11,5,13,3,9,1,6,2,12,16,19,15],"radio_events":[11800.10000000149,13778.10000000149,18254,23294,26121,27154,33378.20000000298,39454.20000000298,43485.89999999851,49805.5,56773.60000000149,60697.10000000149,64690.70000000298,69296,72452.20000000298,75525.89999999851,85218.10000000149,87463.39999999851,89715.80000000447,93519.10000000149,94409.89999999851,96409.70000000298,105658,106893.80000000447,112183.60000000149],"key_events":[],"mouse_events":[11800.10000000149,13778.10000000149,18254,22592.89999999851,23294,26121,27154,33378.20000000298,39454.20000000298,43485.89999999851,49805.5,56773.60000000149,60697.10000000149,64690.70000000298,69296,70847.5,72452.20000000298,75525.89999999851,84459.60000000149,85218.10000000149,87463.39999999851,88958.10000000149,89715.80000000447,93519.10000000149,94409.89999999851,96409.70000000298,105658,106893.80000000447,111307.89999999851,112183.60000000149,113349.60000000149],"straightlining":0.38095238095238093,"zigzagging":0.4,"honeypot":0,"survey":"sns","trial_type":"survey-template","trial_index":2,"time_elapsed":140447,"internal_node_id":"0.0-2.0","task_version":"prescreen-v0.3","browser_interactions":0,"infrequency":0},{"responses":{"Q04":"3","Q02":"1","Q05":"2","Q12":"1","Q10":"2","Q07":"2","Q09":"1","Q06":"2","Q11":"1","Q13":"0","Q03":"3","Q01":"3","Q08":"2"},"rt":68793.5,"item_order":[3,1,4,11,9,6,8,5,10,12,2,0,7],"radio_events":[15386.5,19540.20000000298,22368.20000000298,23500.10000000149,26565.90000000596,33400.90000000596,34165.40000000596,36544,38544.5,45444.20000000298,47644.40000000596,51084.80000000447,58352.70000000298,61536.70000000298,62851.70000000298,63784.10000000149,67075.60000000149,68070.10000000149],"key_events":[],"mouse_events":[12468.10000000149,14573,15386.5,19540.20000000298,22368.20000000298,23500.10000000149,26565.90000000596,33400.90000000596,34165.40000000596,36544,37728.70000000298,38544.5,43940.20000000298,45444.20000000298,47644.40000000596,51084.80000000447,58352.70000000298,61536.70000000298,62851.70000000298,63784.10000000149,67075.60000000149,68070.10000000149,68788.60000000149],"straightlining":0.38461538461538464,"zigzagging":0.75,"honeypot":0,"survey":"bisbas","trial_type":"survey-template","trial_index":3,"time_elapsed":209260,"internal_node_id":"0.0-3.0","task_version":"prescreen-v0.3","browser_interactions":0,"infrequency":0},{"responses":{"Q01":"4","Q02":"3","Q03":"4"},"rt":29861.10000000149,"radio_events":[8867.39999999851,15878,23316.70000000298],"key_events":[],"mouse_events":[8867.39999999851,15878,23316.70000000298,29860.29999999702],"survey":"map","page":1,"trial_type":"survey-map","trial_index":4,"time_elapsed":239134,"internal_node_id":"0.0-4.0","task_version":"prescreen-v0.3","browser_interactions":2},{"responses":{"Q04":"4","Q05":"2","Q06":"2"},"rt":40993.20000000298,"radio_events":[11806.40000000596,28007.80000000447,30415.5,35054.80000000447,38640],"key_events":[],"mouse_events":[10760.70000000298,11806.40000000596,28007.80000000447,30415.5,35054.80000000447,38640,40991.20000000298],"survey":"map","page":2,"trial_type":"survey-map","trial_index":5,"time_elapsed":280134,"internal_node_id":"0.0-5.0","task_version":"prescreen-v0.3","browser_interactions":2},{"responses":{"Q07":"3","Q08":"4","Q09":"2"},"rt":18538.29999999702,"radio_events":[5841,6608,12411.29999999702,13450.79999999702,16376,17175.5],"key_events":[],"mouse_events":[5841,6608,12411.29999999702,13450.79999999702,16376,17175.5,18536],"survey":"map","page":3,"trial_type":"survey-map","trial_index":6,"time_elapsed":298686,"internal_node_id":"0.0-6.0","task_version":"prescreen-v0.3","browser_interactions":0},{"responses":{"Q10":"3","Q11":"3","Q12":"3","Q13":"4","Q16":"0","Q14":"4","Q15":"3"},"rt":54954.80000000447,"radio_events":[20154.60000000149,25207.60000000149,30643.70000000298,35993.89999999851,37993.10000000149,41614.30000000447,47417.80000000447,48316.89999999851,51809.39999999851,53991.39999999851],"key_events":[],"mouse_events":[20154.60000000149,25207.60000000149,30643.70000000298,35080.70000000298,35993.89999999851,37993.10000000149,41614.30000000447,47417.80000000447,48316.89999999851,51809.39999999851,53991.39999999851,54952.5],"survey":"map","page":4,"trial_type":"survey-map","trial_index":7,"time_elapsed":353656,"internal_node_id":"0.0-7.0","task_version":"prescreen-v0.3","browser_interactions":0,"infrequency":0},{"view_history":[{"page_index":0,"viewing_time":16993.5},{"page_index":1,"viewing_time":4990.10000000149}],"rt":21986.29999999702,"trial_type":"instructions","trial_index":8,"time_elapsed":375648,"internal_node_id":"0.0-8.0","task_version":"prescreen-v0.3"},{"responses":{"01":"No","02":"No","03":"No","04":"No","05":"No","06":"No"},"rt":18630.5,"item_order":[0,1,2,3,4,5],"radio_events":[7900.5999999940395,10643.89999999851,13053.29999999702,14582.5,15873.19999999553,16876.59999999404],"checkbox_events":[],"key_events":[],"mouse_events":[16.099999994039536,7900.5999999940395,10643.89999999851,13053.29999999702,14582.5,15873.19999999553,16876.59999999404,18617.69999999553],"honeypot":0,"survey":"mace","page":1,"trial_type":"survey-mace","trial_index":9,"time_elapsed":394307,"internal_node_id":"0.0-9.0","task_version":"prescreen-v0.3","browser_interactions":0},{"responses":{"01":"No","02":"No","03":"No","04":"No","05":"No","06":"No","07":"No","08":"No"},"rt":58016.09999999404,"item_order":[0,1,2,3,4,5,6,7],"radio_events":[34858.79999999702,37355.59999999404,43187.19999999553,45019,53125.79999999702,54526.69999999553,55955.29999999702,57173.19999999553],"checkbox_events":[],"key_events":[],"mouse_events":[34858.79999999702,37355.59999999404,43187.19999999553,45019,53125.79999999702,54526.69999999553,55955.29999999702,57173.19999999553,58000.5],"honeypot":0,"survey":"mace","page":2,"trial_type":"survey-mace","trial_index":10,"time_elapsed":452343,"internal_node_id":"0.0-10.0","task_version":"prescreen-v0.3","browser_interactions":0},{"responses":{"01":"No","02":"No","03":"No","04":"No"},"rt":14281.39999999851,"item_order":[0,1,2,3],"radio_events":[7834.29999999702,8850.79999999702,10963.89999999851,13391.39999999851],"checkbox_events":[],"key_events":[],"mouse_events":[7834.29999999702,8850.79999999702,10963.89999999851,12688.69999999553,13391.39999999851,14274.5],"honeypot":0,"survey":"mace","page":3,"trial_type":"survey-mace","trial_index":11,"time_elapsed":466637,"internal_node_id":"0.0-11.0","task_version":"prescreen-v0.3","browser_interactions":0},{"responses":{"01":"No","02":"No"},"rt":9256.60000000149,"item_order":[0,1],"radio_events":[5912.9000000059605,8394.80000000447],"checkbox_events":[],"key_events":[],"mouse_events":[5912.9000000059605,8394.80000000447,9254.90000000596],"honeypot":0,"survey":"mace","page":4,"trial_type":"survey-mace","trial_index":12,"time_elapsed":475902,"internal_node_id":"0.0-12.0","task_version":"prescreen-v0.3","browser_interactions":0},{"responses":{"01":"No","02":"No","03":"No","04":"No","05":"No"},"rt":30584.80000000447,"item_order":[0,1,2,3,4],"radio_events":[10640.70000000298,23110.40000000596,25886.30000000447,27670.60000000149,29325.60000000149],"checkbox_events":[],"key_events":[],"mouse_events":[9123.5,10640.70000000298,23110.40000000596,25886.30000000447,27670.60000000149,29325.60000000149,30574.5],"honeypot":0,"survey":"mace","page":5,"trial_type":"survey-mace","trial_index":13,"time_elapsed":506497,"internal_node_id":"0.0-13.0","task_version":"prescreen-v0.3","browser_interactions":0},{"responses":{"01":"No","02":"Yes","02_ages_13":"13","02_ages_14":"14","02_ages_15":"15","03":"Yes","03_ages_13":"13","03_ages_14":"14","03_ages_15":"15","04":"No","05":"No"},"rt":52336,"item_order":[0,1,2,3,4],"radio_events":[14500.5,27243.5,31635.10000000149,33719.60000000149,47052.29999999702],"checkbox_events":[18525.70000000298,19160.5,19860.89999999851,35930.89999999851,38118.79999999702,38897.89999999851,39523.20000000298,40365.5],"key_events":[],"mouse_events":[14500.5,18525.70000000298,19160.5,19860.89999999851,27243.5,31635.10000000149,33719.60000000149,35930.89999999851,36849.5,37467.39999999851,38118.79999999702,38897.89999999851,39523.20000000298,40365.5,47052.29999999702,52329.20000000298],"honeypot":0,"survey":"mace","page":6,"trial_type":"survey-mace","trial_index":14,"time_elapsed":558846,"internal_node_id":"0.0-14.0","task_version":"prescreen-v0.3","browser_interactions":0},{"responses":{"01":"No","02":"No","03":"Yes","03_ages_13":"13","03_ages_14":"14","03_ages_15":"15","04":"No","05":"No","06":"No","07":"No"},"rt":28432.20000000298,"item_order":[0,1,2,3,4,5,6],"radio_events":[4948,7580.10000000149,9342.30000000447,22253.40000000596,23972.90000000596,25496.60000000149,27608.10000000149],"checkbox_events":[17768.40000000596,18463.30000000447,19705.60000000149],"key_events":[],"mouse_events":[4948,7580.10000000149,9342.30000000447,17768.40000000596,18463.30000000447,19705.60000000149,22253.40000000596,23972.90000000596,25496.60000000149,26569.30000000447,27608.10000000149,28423.20000000298],"honeypot":0,"survey":"mace","page":7,"trial_type":"survey-mace","trial_index":15,"time_elapsed":587292,"internal_node_id":"0.0-15.0","task_version":"prescreen-v0.3","browser_interactions":0},{"responses":{"01":"No","02":"No","03":"No","04":"No"},"rt":62643.09999999404,"item_order":[0,1,2,3],"radio_events":[54677.09999999404,58136.5,59762.89999999851,61482.79999999702],"checkbox_events":[],"key_events":[],"mouse_events":[54677.09999999404,58136.5,59762.89999999851,61482.79999999702,62634.29999999702],"honeypot":0,"survey":"mace","page":8,"trial_type":"survey-mace","trial_index":16,"time_elapsed":649948,"internal_node_id":"0.0-16.0","task_version":"prescreen-v0.3","browser_interactions":0},{"responses":{"01":"Yes","01_ages_1":"1","01_ages_2":"2","01_ages_3":"3","01_ages_4":"4","01_ages_5":"5","01_ages_6":"6","01_ages_7":"7","01_ages_8":"8","01_ages_9":"9","01_ages_10":"10","01_ages_11":"11","01_ages_12":"12","01_ages_13":"13","01_ages_14":"14","01_ages_15":"15","01_ages_16":"16","01_ages_17":"17","01_ages_18":"18","02":"Yes","02_ages_1":"1","02_ages_2":"2","02_ages_3":"3","02_ages_4":"4","02_ages_5":"5","02_ages_6":"6","02_ages_7":"7","02_ages_8":"8","02_ages_9":"9","02_ages_10":"10","02_ages_11":"11","02_ages_12":"12","02_ages_13":"13","02_ages_14":"14","02_ages_15":"15","02_ages_16":"16","02_ages_17":"17","02_ages_18":"18","03":"Yes","03_ages_1":"1","03_ages_2":"2","03_ages_3":"3","03_ages_4":"4","03_ages_5":"5","03_ages_6":"6","03_ages_7":"7","03_ages_8":"8","03_ages_9":"9","03_ages_10":"10","03_ages_11":"11","03_ages_12":"12","03_ages_13":"13","03_ages_14":"14","03_ages_15":"15","03_ages_16":"16","03_ages_17":"17","03_ages_18":"18","04":"Yes","04_ages_1":"1","04_ages_2":"2","04_ages_3":"3","04_ages_4":"4","04_ages_5":"5","04_ages_6":"6","04_ages_7":"7","04_ages_8":"8","04_ages_9":"9","04_ages_10":"10","04_ages_11":"11","04_ages_12":"12","04_ages_13":"13","04_ages_14":"14","04_ages_15":"15","04_ages_16":"16","04_ages_17":"17","04_ages_18":"18"},"rt":44728.39999999851,"item_order":[0,1,2,3],"radio_events":[5373.70000000298,21508.20000000298,29238.70000000298,38272.39999999851],"checkbox_events":[9316.60000000149,10349,12100.30000000447,12908.80000000447,14150.60000000149,15309.80000000447,15690.89999999851,16099.89999999851,16480,16805.20000000298,17119.60000000149,17432.60000000149,17822.60000000149,18178.70000000298,18511.89999999851,18869.89999999851,19106,19336.70000000298,22439.70000000298,22687,22943.89999999851,23258.60000000149,23514.5,23770.10000000149,24028.5,24285.10000000149,24543.39999999851,24828.30000000447,25085.10000000149,25378.10000000149,25675.80000000447,26074.30000000447,26428.20000000298,26778.5,27110.5,27455.80000000447,30009.5,30232.80000000447,30470.10000000149,30777.89999999851,31043.70000000298,31318.20000000298,31594.39999999851,31853.89999999851,32094.10000000149,32366,32644,32888.20000000298,33174,33430.20000000298,33766.10000000149,34060.60000000149,34372.30000000447,34600.70000000298,40021.5,40216.80000000447,40396.30000000447,40606.70000000298,40865.39999999851,41110.30000000447,41474,41759.39999999851,42017.89999999851,42257.39999999851,42484.5,42711.20000000298,43053.60000000149,43311.10000000149,43549.39999999851,43845.39999999851,44080.80000000447,44281.39999999851],"key_events":[],"mouse_events":[4215.70000000298,5373.70000000298,9316.60000000149,9801.60000000149,10349,11386.5,12100.30000000447,12908.80000000447,14150.60000000149,15309.80000000447,15690.89999999851,16099.89999999851,16480,16805.20000000298,17119.60000000149,17432.60000000149,17822.60000000149,18178.70000000298,18511.89999999851,18869.89999999851,19106,19336.70000000298,21508.20000000298,22439.70000000298,22687,22943.89999999851,23258.60000000149,23514.5,23770.10000000149,24028.5,24285.10000000149,24543.39999999851,24828.30000000447,25085.10000000149,25378.10000000149,25675.80000000447,26074.30000000447,26428.20000000298,26778.5,27110.5,27455.80000000447,29238.70000000298,30009.5,30232.80000000447,30470.10000000149,30777.89999999851,31043.70000000298,31318.20000000298,31594.39999999851,31853.89999999851,32094.10000000149,32366,32644,32888.20000000298,33174,33430.20000000298,33766.10000000149,34060.60000000149,34372.30000000447,34600.70000000298,38272.39999999851,40021.5,40216.80000000447,40396.30000000447,40606.70000000298,40865.39999999851,41110.30000000447,41474,41759.39999999851,42017.89999999851,42257.39999999851,42484.5,42711.20000000298,43053.60000000149,43311.10000000149,43549.39999999851,43845.39999999851,44080.80000000447,44281.39999999851,44722.30000000447],"honeypot":0,"survey":"mace","page":9,"trial_type":"survey-mace","trial_index":17,"time_elapsed":694687,"internal_node_id":"0.0-17.0","task_version":"prescreen-v0.3","browser_interactions":0},{"responses":{"01":"No","02":"No","03":"No","04":"No","05":"No","06":"Yes","06_ages_17":"17","07":"Yes","07_ages_1":"1","07_ages_2":"2","07_ages_3":"3","07_ages_4":"4","07_ages_5":"5","07_ages_6":"6","07_ages_7":"7","07_ages_8":"8","07_ages_9":"9","07_ages_10":"10","07_ages_11":"11","07_ages_12":"12","07_ages_13":"13","07_ages_14":"14","07_ages_15":"15","07_ages_16":"16","07_ages_17":"17","07_ages_18":"18","08":"Yes","08_ages_1":"1","08_ages_2":"2","08_ages_3":"3","08_ages_4":"4","08_ages_5":"5","08_ages_6":"6","08_ages_7":"7","08_ages_8":"8","08_ages_9":"9","08_ages_10":"10","08_ages_11":"11","08_ages_12":"12","08_ages_13":"13","08_ages_14":"14","08_ages_15":"15","08_ages_16":"16","08_ages_17":"17","08_ages_18":"18"},"rt":36700.30000000447,"item_order":[0,1,2,3,4,5,6,7],"radio_events":[6725.70000000298,7622.30000000447,10126.60000000149,11611.60000000149,14340.5,17271.10000000149,20756.60000000149,30140.20000000298],"checkbox_events":[18546.5,23157.70000000298,23426.20000000298,23768.20000000298,24115,24457.60000000149,25192.60000000149,25540.10000000149,25810.39999999851,26128.80000000447,26437.5,26727.5,27003.30000000447,27317.20000000298,27613.89999999851,27928.70000000298,28185.60000000149,28451.5,28663.60000000149,31507.80000000447,31706.89999999851,31918.70000000298,32163,32430.39999999851,32667.80000000447,32984.39999999851,33266.39999999851,33581.20000000298,33896.39999999851,34191.70000000298,34476.70000000298,34810,35133,35494.70000000298,35798.30000000447,36036,36229.60000000149],"key_events":[],"mouse_events":[6725.70000000298,7622.30000000447,10126.60000000149,11611.60000000149,14340.5,17271.10000000149,18546.5,20756.60000000149,23157.70000000298,23426.20000000298,23768.20000000298,24115,24457.60000000149,25192.60000000149,25540.10000000149,25810.39999999851,26128.80000000447,26437.5,26727.5,27003.30000000447,27317.20000000298,27613.89999999851,27928.70000000298,28185.60000000149,28451.5,28663.60000000149,30140.20000000298,31507.80000000447,31706.89999999851,31918.70000000298,32163,32430.39999999851,32667.80000000447,32984.39999999851,33266.39999999851,33581.20000000298,33896.39999999851,34191.70000000298,34476.70000000298,34810,35133,35494.70000000298,35798.30000000447,36036,36229.60000000149,36688],"honeypot":0,"survey":"mace","page":10,"trial_type":"survey-mace","trial_index":18,"time_elapsed":731407,"internal_node_id":"0.0-18.0","task_version":"prescreen-v0.3","browser_interactions":0,"instructed":0},{"rt":4409.70000000298,"trial_type":"mental-health-alert","trial_index":19,"time_elapsed":735827,"internal_node_id":"0.0-19.0","task_version":"prescreen-v0.3","interactions":"[{\"event\":\"blur\",\"trial\":4,\"time\":233486},{\"event\":\"focus\",\"trial\":4,\"time\":239070},{\"event\":\"blur\",\"trial\":5,\"time\":252350},{\"event\":\"focus\",\"trial\":5,\"time\":256532}]"}]