[{"view_history":[{"page_index":0,"viewing_time":3286.7999999523163},{"page_index":1,"viewing_time":2156.2000000476837},{"page_index":2,"viewing_time":2969.2999999523163},{"page_index":3,"viewing_time":1236.6000000238419}],"rt":9650.5,"trial_type":"instructions","trial_index":0,"time_elapsed":9663,"internal_node_id":"0.0-0.0","task_version":"prescreen-v0.3"},{"rt":19327.5,"responses":{"age":"21","gender-categorical":"Female","gender-free-response":"","ethnicity":"Not Hispanic or Latino","race":["White"],"education":"Some college"},"trial_type":"survey-demo","trial_index":1,"time_elapsed":29001,"internal_node_id":"0.0-1.0","task_version":"prescreen-v0.3"},{"responses":{"Q02":"0","Q09":"0","Q10":"0","Q04":"0","Q12":"0","Q17":"0","Q08":"0","Q13":"1","Q01":"0","Q20":"3","Q11":"0","Q03":"0","Q14":"1","Q21":"3","Q18":"1","Q16":"0","Q05":"0","Q07":"0","Q15":"1","Q19":"0","Q06":"0"},"rt":164095.40000003576,"item_order":[1,8,9,3,11,16,7,12,0,19,10,2,13,20,17,15,4,6,14,18,5],"radio_events":[8214,9024.900000035763,11297.600000023842,18326.900000035763,24875.200000047684,30859.900000035763,33304.30000001192,41941.10000002384,42882.90000003576,45120.40000003576,47823.5,49981,53973.5,54418.200000047684,59718.5,60452.10000002384,63626.60000002384,66172,71019.10000002384,75384,79211.5,85747.80000001192,97930.10000002384,128217.70000004768,135927.5,138020.30000001192,152000.70000004768,153145.40000003576,158702.5],"key_events":[],"mouse_events":[5214.900000035763,7696.5,8214,9024.900000035763,11297.600000023842,13479.200000047684,18326.900000035763,24875.200000047684,25969.30000001192,29858.80000001192,30859.900000035763,31708.600000023842,33304.30000001192,39337.80000001192,41238.200000047684,41941.10000002384,42882.90000003576,45120.40000003576,47067.5,47823.5,49981,52224.80000001192,53973.5,54418.200000047684,58136.40000003576,59718.5,60452.10000002384,62143.200000047684,63626.60000002384,65185.10000002384,66172,71019.10000002384,75384,79211.5,85747.80000001192,97930.10000002384,125031.60000002384,126132.80000001192,128217.70000004768,135099.70000004768,135927.5,138020.30000001192,139673.20000004768,152000.70000004768,153145.40000003576,158702.5,164089.80000001192],"straightlining":0.7142857142857143,"zigzagging":0.4,"honeypot":0,"survey":"sns","trial_type":"survey-template","trial_index":2,"time_elapsed":193112,"internal_node_id":"0.0-2.0","task_version":"prescreen-v0.3","browser_interactions":0,"infrequency":0},{"responses":{"Q01":"2","Q04":"2","Q05":"1","Q08":"0","Q12":"2","Q02":"1","Q10":"2","Q13":"0","Q03":"1","Q09":"2","Q11":"1","Q07":"0","Q06":"2"},"rt":58674.10000002384,"item_order":[0,3,4,7,11,1,9,12,2,8,10,6,5],"radio_events":[8633.400000035763,11028.400000035763,14948.100000023842,19946.19999998808,23893.100000023842,26482.19999998808,29625.100000023842,33040.80000001192,40714.40000003576,45676.80000001192,49860.69999998808,53667.10000002384,56886.69999998808],"key_events":[],"mouse_events":[6928.100000023842,8633.400000035763,11028.400000035763,14948.100000023842,19946.19999998808,22729.30000001192,23893.100000023842,26482.19999998808,29625.100000023842,33040.80000001192,40714.40000003576,44582.60000002384,45676.80000001192,49860.69999998808,51372.60000002384,52810.80000001192,53667.10000002384,56886.69999998808,58670.90000003576],"straightlining":0.46153846153846156,"zigzagging":0.6666666666666666,"honeypot":0,"survey":"bisbas","trial_type":"survey-template","trial_index":3,"time_elapsed":251795,"internal_node_id":"0.0-3.0","task_version":"prescreen-v0.3","browser_interactions":0,"infrequency":0},{"responses":{"Q01":"2","Q02":"3","Q03":"2"},"rt":23922.5,"radio_events":[8343.899999976158,15131.299999952316,23071.299999952316],"key_events":[],"mouse_events":[7098.899999976158,8343.899999976158,15131.299999952316,23071.299999952316,23920.799999952316],"survey":"map","page":1,"trial_type":"survey-map","trial_index":4,"time_elapsed":275726,"internal_node_id":"0.0-4.0","task_version":"prescreen-v0.3","browser_interactions":0},{"responses":{"Q04":"3","Q05":"3","Q06":"3"},"rt":14859.5,"radio_events":[7376.300000011921,10535.5,14001],"key_events":[],"mouse_events":[6333.699999988079,7376.300000011921,8916,10535.5,12684.800000011921,13311.399999976158,14001,14857.5],"survey":"map","page":2,"trial_type":"survey-map","trial_index":5,"time_elapsed":290590,"internal_node_id":"0.0-5.0","task_version":"prescreen-v0.3","browser_interactions":0},{"responses":{"Q07":"2","Q08":"1","Q09":"3"},"rt":16462.30000001192,"radio_events":[6256.200000047684,10787.5,15519.200000047684],"key_events":[],"mouse_events":[6256.200000047684,10787.5,15519.200000047684,16460.80000001192],"survey":"map","page":3,"trial_type":"survey-map","trial_index":6,"time_elapsed":307057,"internal_node_id":"0.0-6.0","task_version":"prescreen-v0.3","browser_interactions":0},{"responses":{"Q10":"4","Q11":"3","Q12":"3","Q13":"3","Q16":"0","Q14":"2","Q15":"2"},"rt":47874.5,"radio_events":[6703.600000023842,9105.200000047684,10816.600000023842,13930.100000023842,16165.5,18115,23242.400000035763,32568.30000001192,46448.200000047684],"key_events":[],"mouse_events":[6703.600000023842,9105.200000047684,10816.600000023842,13930.100000023842,16165.5,18115,22128.200000047684,23242.400000035763,31837.400000035763,32568.30000001192,44290.5,45102.60000002384,45700.200000047684,46448.200000047684,47871.80000001192],"survey":"map","page":4,"trial_type":"survey-map","trial_index":7,"time_elapsed":354937,"internal_node_id":"0.0-7.0","task_version":"prescreen-v0.3","browser_interactions":0,"infrequency":0},{"view_history":[{"page_index":0,"viewing_time":3026.7000000476837},{"page_index":1,"viewing_time":2084.699999988079}],"rt":5112.100000023842,"trial_type":"instructions","trial_index":8,"time_elapsed":360052,"internal_node_id":"0.0-8.0","task_version":"prescreen-v0.3"},{"responses":{"01":"Yes","01_ages_7":"7","01_ages_8":"8","01_ages_9":"9","01_ages_10":"10","01_ages_11":"11","01_ages_12":"12","01_ages_17":"17","01_ages_18":"18","02":"Yes","02_ages_7":"7","02_ages_8":"8","02_ages_9":"9","02_ages_10":"10","02_ages_11":"11","03":"No","04":"No","05":"No","06":"Yes","06_ages_4":"4","06_ages_5":"5","06_ages_6":"6","06_ages_7":"7","06_ages_8":"8","06_ages_9":"9","06_ages_10":"10","06_ages_11":"11"},"rt":59104.5,"item_order":[0,1,2,3,4,5],"radio_events":[4247.199999988079,28590.30000001192,40881.60000002384,45428.80000001192,46404.10000002384,49180.89999997616],"checkbox_events":[13703.699999988079,14350.800000011921,15056.399999976158,15816.800000011921,16709.600000023842,17817.19999998808,19715.30000001192,21318.5,32436.600000023842,33321.30000001192,34400.5,35119.19999998808,36298.10000002384,50561.19999998808,52135,52710.60000002384,53314.80000001192,54055.30000001192,54740.30000001192,55371.10000002384,56048.10000002384],"key_events":[],"mouse_events":[0.19999998807907104,4247.199999988079,13703.699999988079,14350.800000011921,15056.399999976158,15816.800000011921,16709.600000023842,17817.19999998808,19715.30000001192,20341.100000023842,21318.5,28590.30000001192,32436.600000023842,33321.30000001192,34400.5,35119.19999998808,36298.10000002384,40881.60000002384,45428.80000001192,46404.10000002384,49180.89999997616,50561.19999998808,51265.19999998808,52135,52710.60000002384,53314.80000001192,54055.30000001192,54740.30000001192,55371.10000002384,56048.10000002384,59097.30000001192],"honeypot":0,"survey":"mace","page":1,"trial_type":"survey-mace","trial_index":9,"time_elapsed":419172,"internal_node_id":"0.0-9.0","task_version":"prescreen-v0.3","browser_interactions":0},{"responses":{"01":"No","02":"No","03":"Yes","03_ages_4":"4","03_ages_5":"5","03_ages_6":"6","03_ages_7":"7","03_ages_8":"8","03_ages_9":"9","03_ages_10":"10","04":"Yes","04_ages_4":"4","04_ages_5":"5","04_ages_6":"6","04_ages_7":"7","04_ages_8":"8","04_ages_9":"9","04_ages_10":"10","05":"No","06":"No","07":"No","08":"No"},"rt":43546,"item_order":[0,1,2,3,4,5,6,7],"radio_events":[3799.100000023842,6949.900000035763,9365.300000011921,19765.600000023842,31164.80000001192,32566.400000035763,34790.40000003576,36767.90000003576],"checkbox_events":[13510.300000011921,14263.300000011921,15751.900000035763,16403.200000047684,17069.700000047684,17766.400000035763,18664.30000001192,22413,23103.30000001192,23792.900000035763,25692.400000035763,26419.30000001192,27108,27864.30000001192],"key_events":[],"mouse_events":[3799.100000023842,6949.900000035763,8495.200000047684,9365.300000011921,12748.100000023842,13510.300000011921,14263.300000011921,15120.400000035763,15751.900000035763,16403.200000047684,17069.700000047684,17766.400000035763,18664.30000001192,19765.600000023842,20652.100000023842,21276.200000047684,21793.900000035763,22413,23103.30000001192,23792.900000035763,24418.900000035763,25024.100000023842,25692.400000035763,26419.30000001192,27108,27864.30000001192,31164.80000001192,32566.400000035763,34790.40000003576,36767.90000003576,43536.60000002384],"honeypot":0,"survey":"mace","page":2,"trial_type":"survey-mace","trial_index":10,"time_elapsed":462730,"internal_node_id":"0.0-10.0","task_version":"prescreen-v0.3","browser_interactions":0},{"responses":{"01":"No","02":"No","03":"No","04":"No"},"rt":9819.600000023842,"item_order":[0,1,2,3],"radio_events":[2942.900000035763,4577.300000011921,7245.600000023842,8863.300000011921],"checkbox_events":[],"key_events":[],"mouse_events":[2942.900000035763,4577.300000011921,5560.300000011921,6496.5,7245.600000023842,8863.300000011921,9814.600000023842],"honeypot":0,"survey":"mace","page":3,"trial_type":"survey-mace","trial_index":11,"time_elapsed":472558,"internal_node_id":"0.0-11.0","task_version":"prescreen-v0.3","browser_interactions":0},{"responses":{"01":"No","02":"No"},"rt":12523.5,"item_order":[0,1],"radio_events":[3401.599999964237,11017.699999988079],"checkbox_events":[],"key_events":[],"mouse_events":[3401.599999964237,11017.699999988079,12520.599999964237],"honeypot":0,"survey":"mace","page":4,"trial_type":"survey-mace","trial_index":12,"time_elapsed":485086,"internal_node_id":"0.0-12.0","task_version":"prescreen-v0.3","browser_interactions":0},{"responses":{"01":"No","02":"No","03":"No","04":"No","05":"No"},"rt":16914.399999976158,"item_order":[0,1,2,3,4],"radio_events":[10440.600000023842,12476.199999988079,13756.199999988079,14965.300000011921,15828.100000023842],"checkbox_events":[],"key_events":[],"mouse_events":[10440.600000023842,11360.300000011921,12476.199999988079,13756.199999988079,14965.300000011921,15828.100000023842,16907.399999976158],"honeypot":0,"survey":"mace","page":5,"trial_type":"survey-mace","trial_index":13,"time_elapsed":502010,"internal_node_id":"0.0-13.0","task_version":"prescreen-v0.3","browser_interactions":0},{"responses":{"01":"Yes","01_ages_7":"7","01_ages_8":"8","01_ages_9":"9","01_ages_10":"10","01_ages_11":"11","01_ages_12":"12","01_ages_13":"13","02":"Yes","02_ages_7":"7","02_ages_8":"8","02_ages_9":"9","02_ages_10":"10","02_ages_11":"11","02_ages_12":"12","02_ages_13":"13","02_ages_14":"14","03":"Yes","03_ages_9":"9","03_ages_10":"10","03_ages_11":"11","03_ages_12":"12","03_ages_13":"13","03_ages_14":"14","03_ages_15":"15","04":"Yes","04_ages_8":"8","04_ages_9":"9","04_ages_10":"10","04_ages_11":"11","05":"Yes","05_ages_18":"18"},"rt":65636.5,"item_order":[0,1,2,3,4],"radio_events":[10310.199999988079,21751.80000001192,31332.69999998808,48215.89999997616,53690],"checkbox_events":[12755.5,13545.899999976158,14243.599999964237,15466.699999988079,16107.5,16845.69999998808,18379,22851.30000001192,23585.19999998808,24246.599999964237,24865.399999976158,25428.30000001192,27446.5,28037.599999964237,28793,33193.69999998808,33826.69999998808,34517.59999996424,35200.80000001192,35853.80000001192,36522.59999996424,38910.39999997616,50038.19999998808,55487.30000001192,56560.19999998808,58085.5,60277.69999998808],"key_events":[],"mouse_events":[8470.099999964237,9403.699999988079,10310.199999988079,12755.5,13545.899999976158,14243.599999964237,14885,15466.699999988079,16107.5,16845.69999998808,17545.899999976158,18379,20758.599999964237,21751.80000001192,22851.30000001192,23585.19999998808,24246.599999964237,24865.399999976158,25428.30000001192,26256.899999976158,26777.30000001192,27446.5,28037.599999964237,28793,30778.69999998808,31332.69999998808,33193.69999998808,33826.69999998808,34517.59999996424,35200.80000001192,35853.80000001192,36522.59999996424,37178.59999996424,38910.39999997616,40089.89999997616,48215.89999997616,50038.19999998808,53208.5,53690,54653.19999998808,55487.30000001192,56127.5,56560.19999998808,57265.5,58085.5,59026.39999997616,59581,60277.69999998808,65630.39999997616],"honeypot":0,"survey":"mace","page":6,"trial_type":"survey-mace","trial_index":14,"time_elapsed":567655,"internal_node_id":"0.0-14.0","task_version":"prescreen-v0.3","browser_interactions":0},{"responses":{"01":"No","02":"No","03":"Yes","03_ages_12":"12","03_ages_13":"13","03_ages_14":"14","03_ages_15":"15","03_ages_16":"16","04":"Yes","04_ages_12":"12","04_ages_13":"13","04_ages_14":"14","04_ages_15":"15","04_ages_16":"16","05":"No","06":"No","07":"No"},"rt":65634.5,"item_order":[0,1,2,3,4,5,6],"radio_events":[15049.100000023842,16134.800000011921,32501.899999976158,39119.10000002384,58580.5,61780.39999997616,64381.80000001192],"checkbox_events":[34222.30000001192,34969.60000002384,35708.39999997616,36335,37014.39999997616,40599.5,42505.30000001192,43075.39999997616,44583.69999998808,45281.30000001192],"key_events":[],"mouse_events":[14192.100000023842,15049.100000023842,16134.800000011921,31568.30000001192,32501.899999976158,34222.30000001192,34969.60000002384,35708.39999997616,36335,37014.39999997616,39119.10000002384,40599.5,41297.80000001192,41822.60000002384,42505.30000001192,43075.39999997616,44026.30000001192,44583.69999998808,45281.30000001192,58580.5,61780.39999997616,64381.80000001192,65626.5],"honeypot":0,"survey":"mace","page":7,"trial_type":"survey-mace","trial_index":15,"time_elapsed":633301,"internal_node_id":"0.0-15.0","task_version":"prescreen-v0.3","browser_interactions":0},{"responses":{"01":"No","02":"Yes","02_ages_1":"1","02_ages_2":"2","02_ages_3":"3","02_ages_4":"4","02_ages_5":"5","02_ages_6":"6","02_ages_7":"7","02_ages_8":"8","02_ages_9":"9","02_ages_10":"10","02_ages_11":"11","02_ages_12":"12","02_ages_13":"13","02_ages_14":"14","02_ages_15":"15","02_ages_16":"16","02_ages_17":"17","02_ages_18":"18","03":"Yes","03_ages_1":"1","03_ages_2":"2","03_ages_3":"3","03_ages_4":"4","03_ages_5":"5","03_ages_6":"6","03_ages_7":"7","03_ages_8":"8","03_ages_9":"9","03_ages_10":"10","03_ages_11":"11","03_ages_12":"12","03_ages_13":"13","03_ages_14":"14","03_ages_15":"15","03_ages_16":"16","03_ages_17":"17","03_ages_18":"18","04":"Yes","04_ages_1":"1","04_ages_2":"2","04_ages_3":"3","04_ages_4":"4","04_ages_5":"5","04_ages_6":"6","04_ages_7":"7","04_ages_8":"8","04_ages_9":"9","04_ages_10":"10","04_ages_11":"11","04_ages_12":"12","04_ages_13":"13","04_ages_14":"14","04_ages_15":"15","04_ages_16":"16","04_ages_17":"17","04_ages_18":"18"},"rt":99913.40000003576,"item_order":[0,1,2,3],"radio_events":[8964.600000023842,10065.699999988079,35806,62143.80000001192],"checkbox_events":[11094.800000011921,11611.400000035763,12252.600000023842,12806.199999988079,13358.900000035763,13884.699999988079,16885.80000001192,18259.80000001192,18954.5,19659.400000035763,21104.600000023842,22389.100000023842,23127.80000001192,24448.5,25594.19999998808,26585.19999998808,27966,28801.5,32167,32958.60000002384,37568.10000002384,38308.40000003576,39049.69999998808,41186,41804.19999998808,42581.30000001192,43919.19999998808,45227.80000001192,46303.69999998808,47313.19999998808,48930.90000003576,49506.40000003576,50052.90000003576,50995.19999998808,51887.19999998808,53729,55039.10000002384,56138.40000003576,57231.80000001192,58434,59749.60000002384,60813.5,63726.90000003576,64438.69999998808,67057.40000003576,67591.19999998808,68310.80000001192,68999.19999998808,71050.30000001192,72445.5,73120.69999998808,73764.10000002384,74955,77056.5,77658.80000001192,78655.40000003576,80744.90000003576,81327.80000001192,84377.5,85125.10000002384,91053.19999998808,91640.69999998808,92262.5,93123.19999998808,95260,95892.40000003576,96965,97583.40000003576],"key_events":[],"mouse_events":[8964.600000023842,10065.699999988079,11094.800000011921,11611.400000035763,12252.600000023842,12806.199999988079,13358.900000035763,13884.699999988079,14574.800000011921,15136.100000023842,15610.100000023842,16199.400000035763,16885.80000001192,17703.5,18259.80000001192,18954.5,19659.400000035763,20349.69999998808,21104.600000023842,21896,22389.100000023842,23127.80000001192,23765.400000035763,24448.5,25132.400000035763,25594.19999998808,26585.19999998808,27966,28801.5,29540.900000035763,30640.69999998808,31319.5,32167,32958.60000002384,35806,37568.10000002384,38308.40000003576,39049.69999998808,40423.40000003576,41186,41804.19999998808,42581.30000001192,43919.19999998808,45227.80000001192,46303.69999998808,47313.19999998808,48930.90000003576,49506.40000003576,50052.90000003576,50995.19999998808,51887.19999998808,52700,53729,54239.69999998808,55039.10000002384,55679.40000003576,56138.40000003576,57231.80000001192,58434,59749.60000002384,60813.5,62143.80000001192,63726.90000003576,64438.69999998808,66202.30000001192,66525.10000002384,67057.40000003576,67591.19999998808,68310.80000001192,68999.19999998808,69734.40000003576,70409.40000003576,71050.30000001192,71890.60000002384,72445.5,73120.69999998808,73764.10000002384,74955,76184.90000003576,77056.5,77658.80000001192,78655.40000003576,80744.90000003576,81327.80000001192,82190.80000001192,83075.19999998808,83737.5,84377.5,85125.10000002384,89578.40000003576,90132.19999998808,91053.19999998808,91640.69999998808,92262.5,93123.19999998808,94606.19999998808,95260,95892.40000003576,96965,97583.40000003576,99908.30000001192],"honeypot":0,"survey":"mace","page":8,"trial_type":"survey-mace","trial_index":16,"time_elapsed":733222,"internal_node_id":"0.0-16.0","task_version":"prescreen-v0.3","browser_interactions":0},{"responses":{"01":"No","02":"No","03":"Yes","03_ages_1":"1","03_ages_2":"2","03_ages_3":"3","03_ages_4":"4","03_ages_5":"5","03_ages_6":"6","03_ages_7":"7","03_ages_8":"8","03_ages_9":"9","03_ages_10":"10","03_ages_11":"11","03_ages_12":"12","03_ages_13":"13","03_ages_14":"14","03_ages_15":"15","03_ages_16":"16","03_ages_17":"17","03_ages_18":"18","04":"Yes","04_ages_1":"1","04_ages_2":"2","04_ages_3":"3","04_ages_4":"4","04_ages_5":"5","04_ages_6":"6","04_ages_7":"7","04_ages_8":"8","04_ages_9":"9","04_ages_10":"10","04_ages_11":"11","04_ages_12":"12","04_ages_13":"13","04_ages_14":"14","04_ages_15":"15","04_ages_16":"16","04_ages_17":"17","04_ages_18":"18"},"rt":68732.19999998808,"item_order":[0,1,2,3],"radio_events":[7891.299999952316,10107.299999952316,20837,44260.39999997616],"checkbox_events":[27778.19999998808,28556.799999952316,29160,29738.099999964237,30246.099999964237,30828.69999998808,31397.299999952316,32016.5,32626.799999952316,33714.69999998808,35496.69999998808,36389.5,37165.39999997616,37784.69999998808,38301.799999952316,38907,39618.69999998808,40683.89999997616,41301.39999997616,45323.19999998808,47639.39999997616,48378.69999998808,49350.19999998808,50011.69999998808,50924.89999997616,51681.59999996424,52861.19999998808,53802.39999997616,55614.59999996424,56376.799999952316,57117.5,57917.19999998808,59556.19999998808,60283.19999998808,61003.19999998808,61700.39999997616,63060.89999997616,67877.5],"key_events":[],"mouse_events":[7891.299999952316,10107.299999952316,20837,24923,26432.69999998808,27031.19999998808,27778.19999998808,28556.799999952316,29160,29738.099999964237,30246.099999964237,30828.69999998808,31397.299999952316,32016.5,32626.799999952316,33714.69999998808,35496.69999998808,36389.5,37165.39999997616,37784.69999998808,38301.799999952316,38907,39618.69999998808,40207.5,40683.89999997616,41301.39999997616,42099.799999952316,44260.39999997616,45323.19999998808,45876.09999996424,46416.5,46969.69999998808,47639.39999997616,48378.69999998808,49350.19999998808,50011.69999998808,50924.89999997616,51681.59999996424,52227.69999998808,52861.19999998808,53802.39999997616,54751.799999952316,55614.59999996424,56376.799999952316,57117.5,57917.19999998808,58693.59999996424,59556.19999998808,60283.19999998808,61003.19999998808,61700.39999997616,62548.299999952316,63060.89999997616,65419.299999952316,66125.09999996424,67173.89999997616,67877.5,68727.09999996424],"honeypot":0,"survey":"mace","page":9,"trial_type":"survey-mace","trial_index":17,"time_elapsed":801962,"internal_node_id":"0.0-17.0","task_version":"prescreen-v0.3","browser_interactions":0},{"responses":{"01":"No","02":"No","03":"No","04":"No","05":"No","06":"Yes","06_ages_17":"17","07":"Yes","07_ages_1":"1","07_ages_2":"2","07_ages_3":"3","07_ages_4":"4","07_ages_5":"5","07_ages_6":"6","07_ages_7":"7","07_ages_8":"8","07_ages_9":"9","07_ages_10":"10","08":"No"},"rt":54027.30000001192,"item_order":[0,1,2,3,4,5,6,7],"radio_events":[4659.800000011921,5716.699999988079,8771.800000011921,15234,20014.600000023842,23960.69999998808,29206,30348.100000023842],"checkbox_events":[16748.100000023842,43560.5,44271.5,45070.19999998808,46465.90000003576,47049,47645.10000002384,48242.90000003576,48882,50018.80000001192,50723.5],"key_events":[],"mouse_events":[4659.800000011921,5716.699999988079,7506.100000023842,8771.800000011921,10317.900000035763,15234,16748.100000023842,20014.600000023842,23960.69999998808,29206,30348.100000023842,42682.69999998808,43560.5,44271.5,45070.19999998808,45689,46465.90000003576,47049,47645.10000002384,48242.90000003576,48882,49501.90000003576,50018.80000001192,50723.5,54017.19999998808],"honeypot":0,"survey":"mace","page":10,"trial_type":"survey-mace","trial_index":18,"time_elapsed":856003,"internal_node_id":"0.0-18.0","task_version":"prescreen-v0.3","browser_interactions":0,"instructed":0},{"rt":6662,"trial_type":"mental-health-alert","trial_index":19,"time_elapsed":862670,"internal_node_id":"0.0-19.0","task_version":"prescreen-v0.3","interactions":"[]"}]